"rt","stimulus","response","trial_type","trial_index","time_elapsed","internal_node_id","swb_1","swb_2","swb_3","swb_4","swb_5","LOT_1","LOT_2","LOT_3","LOT_4","LOT_5","LOT_6","IPC_1","IPC_2","IPC_3","IPC_4","IPC_5","IPC_6","IPC_7","IPC_8","MorIden_1","MorIden_2","MorIden_3","MorIden_4","MorIden_5","MorIden_6","MorIden_7","MorIden_8","MorIden_9","MorIden_10","moralSeImag_1","moralSeImag_2","moralSeImag_3","moralSeImag_4","moralSeImag_5","moralSeImag_6","moralSeImag_7","moralSeImag_8","moralSeImag_9","sde_1","sde_2","sde_3","sde_4","sde_5","sde_6","sde_7","sde_8","sde_9","sde_10","trap2","sde_11","sde_12","sde_13","sde_14","sde_15","sde_16","sde_17","sde_18","sde_19","sde_20","IM_1","IM_2","IM_3","IM_4","IM_5","IM_6","IM_7","IM_8","IM_9","IM_10","IM_11","IM_12","IM_13","IM_14","IM_15","IM_16","IM_17","IM_18","IM_19","IM_20","subj_idx","friend_name","ParticipantID","Sex","Word","Word2","value","success","timeout","failed_images","failed_audio","failed_video","user_agent","responses","item_order","radio_event_ids","radio_event_times","key_event_times","mouse_event_times","straightlining","zigzagging","honeypot","task_id","screen_id","time_stamp","response_type","key_press","avg_frame_time","center_x","center_y","person","word","valence","domain","math","correct_response","correct","status","view_history","identity","duration","Image","condition","question_order","trap2_item"
"45437","
   <p><div style='color:white; font-size: 25px'>您好，欢迎参加本次实验。</div></p>
   <p><div style='color:white; font-size: 25px'>为充分保障您的权利，请确保您已经知晓并同意《参与实验同意书》以及《数据公开知情同意书》。</div></p>
   <p><div style='color:white; font-size: 25px'>如果您未见过上述内容，请咨询实验员。</div></p>
   <p style='color:white; font-size: 25px'>如果您选择继续实验，则表示您已经清楚两份知情同意书的内容并同意。</p>
   <p><div style = ""color: pink;font-size:30px;"">请确保您记得day0的实验编号，您将在本次实验输入该编号，若您忘记，请咨询实验员后作答。</div></p>
   <p><div style = ""color:lightblue;font-size:25px;"">请您尽可能认真地作答，我们将依据您在各问卷和按键任务中的作答质量发放报酬。</div></p>
   <p> <div style = ""color: green""><按空格键至下页></div> </p>
   "," ","html-keyboard-response","0","45440","0.0-0.0","5","7","5","6","6","4","4","4","5","4","4","-2","-3","1","0","2","1","0","1","4","3","4","5","4","5","4","2","4","5","6","8","7","8","5","9","6","8","6","5","6","5","7","5","6","6","6","5","6","1","5","6","1","7","5","6","6","5","7","5","3","7","6","5","5","6","6","6","6","7","7","6","5","2","7","5","5","6","5","1","688779620236918784","黄","601","Male","[""好我"",""坏我"",""坏他"",""好他""]","[""强我"",""弱我"",""弱他"",""强他""]","","","","","","","","","","","","","","","","","","","","","","","","","","","","","","","","","","","","","","",""
"","","","call-function","1","45442","0.0-1.0-0.0","5","7","5","6","6","4","4","4","5","4","4","-2","-3","1","0","2","1","0","1","4","3","4","5","4","5","4","2","4","5","6","8","7","8","5","9","6","8","6","5","6","5","7","5","6","6","6","5","6","1","5","6","1","7","5","6","6","5","7","5","3","7","6","5","5","6","6","6","6","7","7","6","5","2","7","5","5","6","5","1","688779620236918784","黄","601","Male","[""好我"",""坏我"",""坏他"",""好他""]","[""强我"",""弱我"",""弱他"",""强他""]","","","","","","","","","","","","","","","","","","","","","","","","","","","","","","","","","","","","","","",""
"124931","","[{""name"":""Sex"",""value"":""0""},{""name"":""friend_name"",""value"":""黄""},{""name"":""ParticipantID"",""value"":""601""}]","survey-html-form","2","170375","0.0-1.0-1.0","5","7","5","6","6","4","4","4","5","4","4","-2","-3","1","0","2","1","0","1","4","3","4","5","4","5","4","2","4","5","6","8","7","8","5","9","6","8","6","5","6","5","7","5","6","6","6","5","6","1","5","6","1","7","5","6","6","5","7","5","3","7","6","5","5","6","6","6","6","7","7","6","5","2","7","5","5","6","5","1","688779620236918784","黄","601","Male","[""好我"",""坏我"",""坏他"",""好他""]","[""强我"",""弱我"",""弱他"",""强他""]","","","","","","","","","","","","","","","","","","","","","","","","","","","","","","","","","","","","","","",""
"","","","preload","3","170869","0.0-2.0","5","7","5","6","6","4","4","4","5","4","4","-2","-3","1","0","2","1","0","1","4","3","4","5","4","5","4","2","4","5","6","8","7","8","5","9","6","8","6","5","6","5","7","5","6","6","6","5","6","1","5","6","1","7","5","6","6","5","7","5","3","7","6","5","5","6","6","6","6","7","7","6","5","2","7","5","5","6","5","1","688779620236918784","黄","601","Male","[""好我"",""坏我"",""坏他"",""好他""]","[""强我"",""弱我"",""弱他"",""强他""]","","true","false","[]","[]","[]","","","","","","","","","","","","","","","","","","","","","","","","","","","","","","","","",""
"","","","fullscreen","4","172480","0.0-3.0","5","7","5","6","6","4","4","4","5","4","4","-2","-3","1","0","2","1","0","1","4","3","4","5","4","5","4","2","4","5","6","8","7","8","5","9","6","8","6","5","6","5","7","5","6","6","6","5","6","1","5","6","1","7","5","6","6","5","7","5","3","7","6","5","5","6","6","6","6","7","7","6","5","2","7","5","5","6","5","1","688779620236918784","黄","601","Male","[""好我"",""坏我"",""坏他"",""好他""]","[""强我"",""弱我"",""弱他"",""强他""]","","true","","","","","{""brands"":[{""brand"":""Edge"",""version"":""107""},{""brand"":""Chromium"",""version"":""107""},{""brand"":""Not=A?Brand"",""version"":""24""}],""mobile"":false,""platform"":""macOS""}","","","","","","","","","","","","","","","","","","","","","","","","","","","","","","","",""
"41513.699999928474","","{""Q01"":""5"",""Q02"":""7"",""Q03"":""5"",""Q04"":""6"",""Q05"":""6""}","survey-template","5","214003","0.0-4.0","5","7","5","6","6","4","4","4","5","4","4","-2","-3","1","0","2","1","0","1","4","3","4","5","4","5","4","2","4","5","6","8","7","8","5","9","6","8","6","5","6","5","7","5","6","6","6","5","6","1","5","6","1","7","5","6","6","5","7","5","3","7","6","5","5","6","6","6","6","7","7","6","5","2","7","5","5","6","5","1","688779620236918784","黄","601","Male","[""好我"",""坏我"",""坏他"",""好他""]","[""强我"",""弱我"",""弱他"",""强他""]","","","","","","","","{""Q01"":""5"",""Q02"":""7"",""Q03"":""5"",""Q04"":""6"",""Q05"":""6""}","[0,1,2,3,4]","[""Q01"",""Q02"",""Q03"",""Q04"",""Q05"",""Q05"",""Q05""]","[18141.799999952316,18753.799999952316,23397.899999976158,36827.5,37725.89999997616,39329.59999990463,40840]","[]","[17726,18141.799999952316,18753.799999952316,23397.899999976158,36827.5,37725.89999997616,39329.59999990463,40335.799999952316,40840,41512]","0.4","0.25","0","","","","","","","","","","","","","","","","","","","","","","",""
"33347.60000002384","","{""Q01"":""4"",""Q02"":""4"",""Q03"":""4"",""Q04"":""5"",""Q05"":""4"",""Q06"":""4""}","survey-template","6","247357","0.0-5.0","5","7","5","6","6","4","4","4","5","4","4","-2","-3","1","0","2","1","0","1","4","3","4","5","4","5","4","2","4","5","6","8","7","8","5","9","6","8","6","5","6","5","7","5","6","6","6","5","6","1","5","6","1","7","5","6","6","5","7","5","3","7","6","5","5","6","6","6","6","7","7","6","5","2","7","5","5","6","5","1","688779620236918784","黄","601","Male","[""好我"",""坏我"",""坏他"",""好他""]","[""强我"",""弱我"",""弱他"",""强他""]","","","","","","","","{""Q01"":""4"",""Q02"":""4"",""Q03"":""4"",""Q04"":""5"",""Q05"":""4"",""Q06"":""4""}","[0,1,2,3,4,5]","[""Q01"",""Q02"",""Q03"",""Q03"",""Q04"",""Q05"",""Q06""]","[13742.100000023842,15127.900000095367,16343.800000071526,16721.600000023842,19437.700000047684,20131.400000095367,22504.300000071526]","[]","[13742.100000023842,15127.900000095367,16343.800000071526,16721.600000023842,17677.5,17915.600000023842,19437.700000047684,20131.400000095367,22504.300000071526,33346.700000047684]","0.5","0.2","0","","","","","","","","","","","","","","","","","","","","","","",""
"123589.89999997616","","{""Q01"":""-2"",""Q02"":""-3"",""Q03"":""1"",""Q04"":""0"",""Q05"":""2"",""Q06"":""1"",""Q07"":""0"",""Q08"":""1""}","survey-template","7","370952","0.0-6.0","5","7","5","6","6","4","4","4","5","4","4","-2","-3","1","0","2","1","0","1","4","3","4","5","4","5","4","2","4","5","6","8","7","8","5","9","6","8","6","5","6","5","7","5","6","6","6","5","6","1","5","6","1","7","5","6","6","5","7","5","3","7","6","5","5","6","6","6","6","7","7","6","5","2","7","5","5","6","5","1","688779620236918784","黄","601","Male","[""好我"",""坏我"",""坏他"",""好他""]","[""强我"",""弱我"",""弱他"",""强他""]","","","","","","","","{""Q01"":""-2"",""Q02"":""-3"",""Q03"":""1"",""Q04"":""0"",""Q05"":""2"",""Q06"":""1"",""Q07"":""0"",""Q08"":""1""}","[0,1,2,3,4,5,6,7]","[""Q01"",""Q02"",""Q03"",""Q04"",""Q05"",""Q06"",""Q07"",""Q01"",""Q02"",""Q03"",""Q04"",""Q07"",""Q08""]","[3470.2999999523163,5550.600000023842,7270.5,9801.200000047684,12056.5,13460.100000023842,14724.5,54066.60000002384,56036.299999952316,57644.700000047684,60048.39999997616,63398.5,65446]","[]","[3470.2999999523163,5550.600000023842,7270.5,9801.200000047684,12056.5,13460.100000023842,14724.5,16014.799999952316,54066.60000002384,56036.299999952316,57644.700000047684,60048.39999997616,61086.799999952316,62008.299999952316,63398.5,65446,123588.10000002384]","0.375","0.7142857142857143","0","","","","","","","","","","","","","","","","","","","","","","",""
"19808","
    <p><div style='color:white;font-size:35px; line-height:20px;'>词汇评估任务</div></p><br>
    <p><div style='color:white;font-size:25px; line-height:20px;'>请再次回忆该亲密的朋友，你们至少2年前就认识了，并且最近2年经常见面。</div></p>
    <p><div style='color:white;font-size:25px; line-height:20px;'>在本实验中，您将会看到一些形容词。</div></p>
    <p><div style='color:yellow;font-size:25px; line-height:20px;'>您的任务是判断这些形容词是否符合对您自己或您的朋友的描述。</div></p><p style='font-size:35px'>符合按<span style=""color:lightgreen""> j 键</span>，不符合按<span style=""color:red""> f 键</span></p>","0","html-button-response","8","390764","0.0-7.0-0.0","5","7","5","6","6","4","4","4","5","4","4","-2","-3","1","0","2","1","0","1","4","3","4","5","4","5","4","2","4","5","6","8","7","8","5","9","6","8","6","5","6","5","7","5","6","6","6","5","6","1","5","6","1","7","5","6","6","5","7","5","3","7","6","5","5","6","6","6","6","7","7","6","5","2","7","5","5","6","5","1","688779620236918784","黄","601","Male","[""好我"",""坏我"",""坏他"",""好他""]","[""强我"",""弱我"",""弱他"",""强他""]","","","","","","","","","","","","","","","","","SRET_EW","EW_instructions","Tue Dec 19 2023 14:23:49 GMT+0800 (中国标准时间)","","","","","","","","","","","","","","","","","","","",""
"null","","null","psychophysics","9","393772","0.0-7.0-1.0-0.0","5","7","5","6","6","4","4","4","5","4","4","-2","-3","1","0","2","1","0","1","4","3","4","5","4","5","4","2","4","5","6","8","7","8","5","9","6","8","6","5","6","5","7","5","6","6","6","5","6","1","5","6","1","7","5","6","6","5","7","5","3","7","6","5","5","6","6","6","6","7","7","6","5","2","7","5","5","6","5","1","688779620236918784","黄","601","Male","[""好我"",""坏我"",""坏他"",""好他""]","[""强我"",""弱我"",""弱他"",""强他""]","","","","","","","","","","","","","","","","","SRET_EW","EW_practice","","key","null","16.65283425414365","640","356","朋友","徇私","Negative","morality","","","","","","","","","","",""
"1149","","j","psychophysics","10","395924","0.0-7.0-1.0-0.1","5","7","5","6","6","4","4","4","5","4","4","-2","-3","1","0","2","1","0","1","4","3","4","5","4","5","4","2","4","5","6","8","7","8","5","9","6","8","6","5","6","5","7","5","6","6","6","5","6","1","5","6","1","7","5","6","6","5","7","5","3","7","6","5","5","6","6","6","6","7","7","6","5","2","7","5","5","6","5","1","688779620236918784","黄","601","Male","[""好我"",""坏我"",""坏他"",""好他""]","[""强我"",""弱我"",""弱他"",""强他""]","","","","","","","","yes","","","","","","","","","SRET_EW","EW_practice","","key","j","16.653398437500073","640","356","自己","严谨","Positive","ability","","","","","","","","","","",""
"996","","j","psychophysics","11","397922","0.0-7.0-1.0-0.2","5","7","5","6","6","4","4","4","5","4","4","-2","-3","1","0","2","1","0","1","4","3","4","5","4","5","4","2","4","5","6","8","7","8","5","9","6","8","6","5","6","5","7","5","6","6","6","5","6","1","5","6","1","7","5","6","6","5","7","5","3","7","6","5","5","6","6","6","6","7","7","6","5","2","7","5","5","6","5","1","688779620236918784","黄","601","Male","[""好我"",""坏我"",""坏他"",""好他""]","[""强我"",""弱我"",""弱他"",""强他""]","","","","","","","","yes","","","","","","","","","SRET_EW","EW_practice","","key","j","16.65375630252069","640","356","朋友","忠实","Positive","morality","","","","","","","","","","",""
"1411","","f","psychophysics","12","400335","0.0-7.0-1.0-0.3","5","7","5","6","6","4","4","4","5","4","4","-2","-3","1","0","2","1","0","1","4","3","4","5","4","5","4","2","4","5","6","8","7","8","5","9","6","8","6","5","6","5","7","5","6","6","6","5","6","1","5","6","1","7","5","6","6","5","7","5","3","7","6","5","5","6","6","6","6","7","7","6","5","2","7","5","5","6","5","1","688779620236918784","黄","601","Male","[""好我"",""坏我"",""坏他"",""好他""]","[""强我"",""弱我"",""弱他"",""强他""]","","","","","","","","no","","","","","","","","","SRET_EW","EW_practice","","key","f","16.653000000000045","640","356","自己","刻板","Negative","ability","","","","","","","","","","",""
"5067","
    <p><div style='color:white;font-size:35px; line-height:20px;'>请您再次阅读实验要求</div></p><br>
    <p><div style='color:white;font-size:25px; line-height:20px;'>请回忆某一个亲密的朋友，你们至少2年前就认识了，并且最近2年经常见面。</div></p>
    <p><div style='color:white;font-size:25px; line-height:20px;'>在本实验中，您将会看到一些形容词。</div></p>
    <p><div style='color:yellow;font-size:25px; line-height:20px;'>您的任务是判断这些形容词是否符合对您自己或您的朋友的描述。</div></p>
    <p><div class='footer' style='font-size:25px; line-height:20px;'>如果对本实验还有不清楚之处，请立即向实验员咨询。</p><p style='font-size:25px; line-height:20px;'>如果您明白了规则：</p><p style='font-size:22px; line-height:20px;'>请按 继续 进入正式实验</p>
    </div>
    <p style='font-size:35px'>符合按<span style=""color:lightgreen""> j 键</span>，不符合按<span style=""color:red""> f 键</span></p>","0","html-button-response","13","405404","0.0-7.0-2.0","5","7","5","6","6","4","4","4","5","4","4","-2","-3","1","0","2","1","0","1","4","3","4","5","4","5","4","2","4","5","6","8","7","8","5","9","6","8","6","5","6","5","7","5","6","6","6","5","6","1","5","6","1","7","5","6","6","5","7","5","3","7","6","5","5","6","6","6","6","7","7","6","5","2","7","5","5","6","5","1","688779620236918784","黄","601","Male","[""好我"",""坏我"",""坏他"",""好他""]","[""强我"",""弱我"",""弱他"",""强他""]","","","","","","","","","","","","","","","","","SRET_EW","prac_instructions","Tue Dec 19 2023 14:23:49 GMT+0800 (中国标准时间)","","","","","","","","","","","","","","","","","","","",""
"981","","f","psychophysics","14","407394","0.0-7.0-3.0-0.0","5","7","5","6","6","4","4","4","5","4","4","-2","-3","1","0","2","1","0","1","4","3","4","5","4","5","4","2","4","5","6","8","7","8","5","9","6","8","6","5","6","5","7","5","6","6","6","5","6","1","5","6","1","7","5","6","6","5","7","5","3","7","6","5","5","6","6","6","6","7","7","6","5","2","7","5","5","6","5","1","688779620236918784","黄","601","Male","[""好我"",""坏我"",""坏他"",""好他""]","[""强我"",""弱我"",""弱他"",""强他""]","","","","","","","","no","","","","","","","","","SRET","EW_formal","","key","f","16.652458333333197","640","356","自己","说谎","Negative","morality","","","","","","","","","","",""
"1222","","j","psychophysics","15","409626","0.0-7.0-3.0-0.1","5","7","5","6","6","4","4","4","5","4","4","-2","-3","1","0","2","1","0","1","4","3","4","5","4","5","4","2","4","5","6","8","7","8","5","9","6","8","6","5","6","5","7","5","6","6","6","5","6","1","5","6","1","7","5","6","6","5","7","5","3","7","6","5","5","6","6","6","6","7","7","6","5","2","7","5","5","6","5","1","688779620236918784","黄","601","Male","[""好我"",""坏我"",""坏他"",""好他""]","[""强我"",""弱我"",""弱他"",""强他""]","","","","","","","","yes","","","","","","","","","SRET","EW_formal","","key","j","16.652879699248","640","356","朋友","务实","Positive","ability","","","","","","","","","","",""
"904","","j","psychophysics","16","411530","0.0-7.0-3.0-0.2","5","7","5","6","6","4","4","4","5","4","4","-2","-3","1","0","2","1","0","1","4","3","4","5","4","5","4","2","4","5","6","8","7","8","5","9","6","8","6","5","6","5","7","5","6","6","6","5","6","1","5","6","1","7","5","6","6","5","7","5","3","7","6","5","5","6","6","6","6","7","7","6","5","2","7","5","5","6","5","1","688779620236918784","黄","601","Male","[""好我"",""坏我"",""坏他"",""好他""]","[""强我"",""弱我"",""弱他"",""强他""]","","","","","","","","yes","","","","","","","","","SRET","EW_formal","","key","j","16.654035398229727","640","356","自己","坚贞","Positive","morality","","","","","","","","","","",""
"693","","f","psychophysics","17","413225","0.0-7.0-3.0-0.3","5","7","5","6","6","4","4","4","5","4","4","-2","-3","1","0","2","1","0","1","4","3","4","5","4","5","4","2","4","5","6","8","7","8","5","9","6","8","6","5","6","5","7","5","6","6","6","5","6","1","5","6","1","7","5","6","6","5","7","5","3","7","6","5","5","6","6","6","6","7","7","6","5","2","7","5","5","6","5","1","688779620236918784","黄","601","Male","[""好我"",""坏我"",""坏他"",""好他""]","[""强我"",""弱我"",""弱他"",""强他""]","","","","","","","","no","","","","","","","","","SRET","EW_formal","","key","f","16.653069306930323","640","356","朋友","迷糊","Negative","ability","","","","","","","","","","",""
"676","","f","psychophysics","18","414902","0.0-7.0-3.0-0.4","5","7","5","6","6","4","4","4","5","4","4","-2","-3","1","0","2","1","0","1","4","3","4","5","4","5","4","2","4","5","6","8","7","8","5","9","6","8","6","5","6","5","7","5","6","6","6","5","6","1","5","6","1","7","5","6","6","5","7","5","3","7","6","5","5","6","6","6","6","7","7","6","5","2","7","5","5","6","5","1","688779620236918784","黄","601","Male","[""好我"",""坏我"",""坏他"",""好他""]","[""强我"",""弱我"",""弱他"",""强他""]","","","","","","","","no","","","","","","","","","SRET","EW_formal","","key","f","16.6529800000001","640","356","自己","犹豫","Negative","ability","","","","","","","","","","",""
"652","","f","psychophysics","19","416556","0.0-7.0-3.0-0.5","5","7","5","6","6","4","4","4","5","4","4","-2","-3","1","0","2","1","0","1","4","3","4","5","4","5","4","2","4","5","6","8","7","8","5","9","6","8","6","5","6","5","7","5","6","6","6","5","6","1","5","6","1","7","5","6","6","5","7","5","3","7","6","5","5","6","6","6","6","7","7","6","5","2","7","5","5","6","5","1","688779620236918784","黄","601","Male","[""好我"",""坏我"",""坏他"",""好他""]","[""强我"",""弱我"",""弱他"",""强他""]","","","","","","","","no","","","","","","","","","SRET","EW_formal","","key","f","16.65307142857132","640","356","朋友","骁勇","Positive","ability","","","","","","","","","","",""
"729","","f","psychophysics","20","418287","0.0-7.0-3.0-0.6","5","7","5","6","6","4","4","4","5","4","4","-2","-3","1","0","2","1","0","1","4","3","4","5","4","5","4","2","4","5","6","8","7","8","5","9","6","8","6","5","6","5","7","5","6","6","6","5","6","1","5","6","1","7","5","6","6","5","7","5","3","7","6","5","5","6","6","6","6","7","7","6","5","2","7","5","5","6","5","1","688779620236918784","黄","601","Male","[""好我"",""坏我"",""坏他"",""好他""]","[""强我"",""弱我"",""弱他"",""强他""]","","","","","","","","no","","","","","","","","","SRET","EW_formal","","key","f","16.653766990291718","640","356","自己","不孝","Negative","morality","","","","","","","","","","",""
"904","","j","psychophysics","21","420193","0.0-7.0-3.0-0.7","5","7","5","6","6","4","4","4","5","4","4","-2","-3","1","0","2","1","0","1","4","3","4","5","4","5","4","2","4","5","6","8","7","8","5","9","6","8","6","5","6","5","7","5","6","6","6","5","6","1","5","6","1","7","5","6","6","5","7","5","3","7","6","5","5","6","6","6","6","7","7","6","5","2","7","5","5","6","5","1","688779620236918784","黄","601","Male","[""好我"",""坏我"",""坏他"",""好他""]","[""强我"",""弱我"",""弱他"",""强他""]","","","","","","","","yes","","","","","","","","","SRET","EW_formal","","key","j","16.652884955752324","640","356","自己","仗义","Positive","morality","","","","","","","","","","",""
"1832","","j","psychophysics","22","423030","0.0-7.0-3.0-0.8","5","7","5","6","6","4","4","4","5","4","4","-2","-3","1","0","2","1","0","1","4","3","4","5","4","5","4","2","4","5","6","8","7","8","5","9","6","8","6","5","6","5","7","5","6","6","6","5","6","1","5","6","1","7","5","6","6","5","7","5","3","7","6","5","5","6","6","6","6","7","7","6","5","2","7","5","5","6","5","1","688779620236918784","黄","601","Male","[""好我"",""坏我"",""坏他"",""好他""]","[""强我"",""弱我"",""弱他"",""强他""]","","","","","","","","yes","","","","","","","","","SRET","EW_formal","","key","j","16.652852941176732","640","356","朋友","无敌","Positive","ability","","","","","","","","","","",""
"852","","j","psychophysics","23","424884","0.0-7.0-3.0-0.9","5","7","5","6","6","4","4","4","5","4","4","-2","-3","1","0","2","1","0","1","4","3","4","5","4","5","4","2","4","5","6","8","7","8","5","9","6","8","6","5","6","5","7","5","6","6","6","5","6","1","5","6","1","7","5","6","6","5","7","5","3","7","6","5","5","6","6","6","6","7","7","6","5","2","7","5","5","6","5","1","688779620236918784","黄","601","Male","[""好我"",""坏我"",""坏他"",""好他""]","[""强我"",""弱我"",""弱他"",""强他""]","","","","","","","","yes","","","","","","","","","SRET","EW_formal","","key","j","16.65292727272767","640","356","朋友","仁厚","Positive","morality","","","","","","","","","","",""
"797","","f","psychophysics","24","426682","0.0-7.0-3.0-0.10","5","7","5","6","6","4","4","4","5","4","4","-2","-3","1","0","2","1","0","1","4","3","4","5","4","5","4","2","4","5","6","8","7","8","5","9","6","8","6","5","6","5","7","5","6","6","6","5","6","1","5","6","1","7","5","6","6","5","7","5","3","7","6","5","5","6","6","6","6","7","7","6","5","2","7","5","5","6","5","1","688779620236918784","黄","601","Male","[""好我"",""坏我"",""坏他"",""好他""]","[""强我"",""弱我"",""弱他"",""强他""]","","","","","","","","no","","","","","","","","","SRET","EW_formal","","key","f","16.65389719626172","640","356","自己","屈才","Negative","ability","","","","","","","","","","",""
"811","","f","psychophysics","25","428493","0.0-7.0-3.0-0.11","5","7","5","6","6","4","4","4","5","4","4","-2","-3","1","0","2","1","0","1","4","3","4","5","4","5","4","2","4","5","6","8","7","8","5","9","6","8","6","5","6","5","7","5","6","6","6","5","6","1","5","6","1","7","5","6","6","5","7","5","3","7","6","5","5","6","6","6","6","7","7","6","5","2","7","5","5","6","5","1","688779620236918784","黄","601","Male","[""好我"",""坏我"",""坏他"",""好他""]","[""强我"",""弱我"",""弱他"",""强他""]","","","","","","","","no","","","","","","","","","SRET","EW_formal","","key","f","16.652907407407636","640","356","朋友","愚蠢","Negative","ability","","","","","","","","","","",""
"820","","j","psychophysics","26","430315","0.0-7.0-3.0-0.12","5","7","5","6","6","4","4","4","5","4","4","-2","-3","1","0","2","1","0","1","4","3","4","5","4","5","4","2","4","5","6","8","7","8","5","9","6","8","6","5","6","5","7","5","6","6","6","5","6","1","5","6","1","7","5","6","6","5","7","5","3","7","6","5","5","6","6","6","6","7","7","6","5","2","7","5","5","6","5","1","688779620236918784","黄","601","Male","[""好我"",""坏我"",""坏他"",""好他""]","[""强我"",""弱我"",""弱他"",""强他""]","","","","","","","","yes","","","","","","","","","SRET","EW_formal","","key","j","16.653342592592473","640","356","朋友","正气","Positive","morality","","","","","","","","","","",""
"1847","","j","psychophysics","27","433164","0.0-7.0-3.0-0.13","5","7","5","6","6","4","4","4","5","4","4","-2","-3","1","0","2","1","0","1","4","3","4","5","4","5","4","2","4","5","6","8","7","8","5","9","6","8","6","5","6","5","7","5","6","6","6","5","6","1","5","6","1","7","5","6","6","5","7","5","3","7","6","5","5","6","6","6","6","7","7","6","5","2","7","5","5","6","5","1","688779620236918784","黄","601","Male","[""好我"",""坏我"",""坏他"",""好他""]","[""强我"",""弱我"",""弱他"",""强他""]","","","","","","","","yes","","","","","","","","","SRET","EW_formal","","key","j","16.653094117647132","640","356","朋友","淡泊","Positive","morality","","","","","","","","","","",""
"1072","","j","psychophysics","28","435237","0.0-7.0-3.0-0.14","5","7","5","6","6","4","4","4","5","4","4","-2","-3","1","0","2","1","0","1","4","3","4","5","4","5","4","2","4","5","6","8","7","8","5","9","6","8","6","5","6","5","7","5","6","6","6","5","6","1","5","6","1","7","5","6","6","5","7","5","3","7","6","5","5","6","6","6","6","7","7","6","5","2","7","5","5","6","5","1","688779620236918784","黄","601","Male","[""好我"",""坏我"",""坏他"",""好他""]","[""强我"",""弱我"",""弱他"",""强他""]","","","","","","","","yes","","","","","","","","","SRET","EW_formal","","key","j","16.652822580644784","640","356","自己","勤奋","Positive","ability","","","","","","","","","","",""
"838","","j","psychophysics","29","437077","0.0-7.0-3.0-0.15","5","7","5","6","6","4","4","4","5","4","4","-2","-3","1","0","2","1","0","1","4","3","4","5","4","5","4","2","4","5","6","8","7","8","5","9","6","8","6","5","6","5","7","5","6","6","6","5","6","1","5","6","1","7","5","6","6","5","7","5","3","7","6","5","5","6","6","6","6","7","7","6","5","2","7","5","5","6","5","1","688779620236918784","黄","601","Male","[""好我"",""坏我"",""坏他"",""好他""]","[""强我"",""弱我"",""弱他"",""强他""]","","","","","","","","yes","","","","","","","","","SRET","EW_formal","","key","j","16.652908256880878","640","356","自己","智慧","Positive","ability","","","","","","","","","","",""
"708","","f","psychophysics","30","438790","0.0-7.0-3.0-0.16","5","7","5","6","6","4","4","4","5","4","4","-2","-3","1","0","2","1","0","1","4","3","4","5","4","5","4","2","4","5","6","8","7","8","5","9","6","8","6","5","6","5","7","5","6","6","6","5","6","1","5","6","1","7","5","6","6","5","7","5","3","7","6","5","5","6","6","6","6","7","7","6","5","2","7","5","5","6","5","1","688779620236918784","黄","601","Male","[""好我"",""坏我"",""坏他"",""好他""]","[""强我"",""弱我"",""弱他"",""强他""]","","","","","","","","no","","","","","","","","","SRET","EW_formal","","key","f","16.65267647058856","640","356","自己","伪善","Negative","morality","","","","","","","","","","",""
"728","","f","psychophysics","31","440519","0.0-7.0-3.0-0.17","5","7","5","6","6","4","4","4","5","4","4","-2","-3","1","0","2","1","0","1","4","3","4","5","4","5","4","2","4","5","6","8","7","8","5","9","6","8","6","5","6","5","7","5","6","6","6","5","6","1","5","6","1","7","5","6","6","5","7","5","3","7","6","5","5","6","6","6","6","7","7","6","5","2","7","5","5","6","5","1","688779620236918784","黄","601","Male","[""好我"",""坏我"",""坏他"",""好他""]","[""强我"",""弱我"",""弱他"",""强他""]","","","","","","","","no","","","","","","","","","SRET","EW_formal","","key","f","16.65307766990284","640","356","朋友","逞强","Negative","ability","","","","","","","","","","",""
"908","","j","psychophysics","32","442429","0.0-7.0-3.0-0.18","5","7","5","6","6","4","4","4","5","4","4","-2","-3","1","0","2","1","0","1","4","3","4","5","4","5","4","2","4","5","6","8","7","8","5","9","6","8","6","5","6","5","7","5","6","6","6","5","6","1","5","6","1","7","5","6","6","5","7","5","3","7","6","5","5","6","6","6","6","7","7","6","5","2","7","5","5","6","5","1","688779620236918784","黄","601","Male","[""好我"",""坏我"",""坏他"",""好他""]","[""强我"",""弱我"",""弱他"",""强他""]","","","","","","","","yes","","","","","","","","","SRET","EW_formal","","key","j","16.65380701754424","640","356","自己","中用","Positive","ability","","","","","","","","","","",""
"714","","f","psychophysics","33","444145","0.0-7.0-3.0-0.19","5","7","5","6","6","4","4","4","5","4","4","-2","-3","1","0","2","1","0","1","4","3","4","5","4","5","4","2","4","5","6","8","7","8","5","9","6","8","6","5","6","5","7","5","6","6","6","5","6","1","5","6","1","7","5","6","6","5","7","5","3","7","6","5","5","6","6","6","6","7","7","6","5","2","7","5","5","6","5","1","688779620236918784","黄","601","Male","[""好我"",""坏我"",""坏他"",""好他""]","[""强我"",""弱我"",""弱他"",""强他""]","","","","","","","","no","","","","","","","","","SRET","EW_formal","","key","f","16.653901960784637","640","356","自己","无赖","Negative","morality","","","","","","","","","","",""
"672","","j","psychophysics","34","445818","0.0-7.0-3.0-0.20","5","7","5","6","6","4","4","4","5","4","4","-2","-3","1","0","2","1","0","1","4","3","4","5","4","5","4","2","4","5","6","8","7","8","5","9","6","8","6","5","6","5","7","5","6","6","6","5","6","1","5","6","1","7","5","6","6","5","7","5","3","7","6","5","5","6","6","6","6","7","7","6","5","2","7","5","5","6","5","1","688779620236918784","黄","601","Male","[""好我"",""坏我"",""坏他"",""好他""]","[""强我"",""弱我"",""弱他"",""强他""]","","","","","","","","yes","","","","","","","","","SRET","EW_formal","","key","j","16.65380808080822","640","356","自己","聪明","Positive","ability","","","","","","","","","","",""
"625","","j","psychophysics","35","447445","0.0-7.0-3.0-0.21","5","7","5","6","6","4","4","4","5","4","4","-2","-3","1","0","2","1","0","1","4","3","4","5","4","5","4","2","4","5","6","8","7","8","5","9","6","8","6","5","6","5","7","5","6","6","6","5","6","1","5","6","1","7","5","6","6","5","7","5","3","7","6","5","5","6","6","6","6","7","7","6","5","2","7","5","5","6","5","1","688779620236918784","黄","601","Male","[""好我"",""坏我"",""坏他"",""好他""]","[""强我"",""弱我"",""弱他"",""强他""]","","","","","","","","yes","","","","","","","","","SRET","EW_formal","","key","j","16.652298969072024","640","356","朋友","文明","Positive","morality","","","","","","","","","","",""
"809","","j","psychophysics","36","449256","0.0-7.0-3.0-0.22","5","7","5","6","6","4","4","4","5","4","4","-2","-3","1","0","2","1","0","1","4","3","4","5","4","5","4","2","4","5","6","8","7","8","5","9","6","8","6","5","6","5","7","5","6","6","6","5","6","1","5","6","1","7","5","6","6","5","7","5","3","7","6","5","5","6","6","6","6","7","7","6","5","2","7","5","5","6","5","1","688779620236918784","黄","601","Male","[""好我"",""坏我"",""坏他"",""好他""]","[""强我"",""弱我"",""弱他"",""强他""]","","","","","","","","yes","","","","","","","","","SRET","EW_formal","","key","j","16.653731481481508","640","356","朋友","博学","Positive","ability","","","","","","","","","","",""
"800","","j","psychophysics","37","451058","0.0-7.0-3.0-0.23","5","7","5","6","6","4","4","4","5","4","4","-2","-3","1","0","2","1","0","1","4","3","4","5","4","5","4","2","4","5","6","8","7","8","5","9","6","8","6","5","6","5","7","5","6","6","6","5","6","1","5","6","1","7","5","6","6","5","7","5","3","7","6","5","5","6","6","6","6","7","7","6","5","2","7","5","5","6","5","1","688779620236918784","黄","601","Male","[""好我"",""坏我"",""坏他"",""好他""]","[""强我"",""弱我"",""弱他"",""强他""]","","","","","","","","yes","","","","","","","","","SRET","EW_formal","","key","j","16.653009345794693","640","356","朋友","上进","Positive","ability","","","","","","","","","","",""
"872","","j","psychophysics","38","452931","0.0-7.0-3.0-0.24","5","7","5","6","6","4","4","4","5","4","4","-2","-3","1","0","2","1","0","1","4","3","4","5","4","5","4","2","4","5","6","8","7","8","5","9","6","8","6","5","6","5","7","5","6","6","6","5","6","1","5","6","1","7","5","6","6","5","7","5","3","7","6","5","5","6","6","6","6","7","7","6","5","2","7","5","5","6","5","1","688779620236918784","黄","601","Male","[""好我"",""坏我"",""坏他"",""好他""]","[""强我"",""弱我"",""弱他"",""强他""]","","","","","","","","yes","","","","","","","","","SRET","EW_formal","","key","j","16.653783783783847","640","356","自己","谦逊","Positive","morality","","","","","","","","","","",""
"727","","f","psychophysics","39","454660","0.0-7.0-3.0-0.25","5","7","5","6","6","4","4","4","5","4","4","-2","-3","1","0","2","1","0","1","4","3","4","5","4","5","4","2","4","5","6","8","7","8","5","9","6","8","6","5","6","5","7","5","6","6","6","5","6","1","5","6","1","7","5","6","6","5","7","5","3","7","6","5","5","6","6","6","6","7","7","6","5","2","7","5","5","6","5","1","688779620236918784","黄","601","Male","[""好我"",""坏我"",""坏他"",""好他""]","[""强我"",""弱我"",""弱他"",""强他""]","","","","","","","","no","","","","","","","","","SRET","EW_formal","","key","f","16.652970873786348","640","356","自己","独断","Negative","ability","","","","","","","","","","",""
"713","","f","psychophysics","40","456374","0.0-7.0-3.0-0.26","5","7","5","6","6","4","4","4","5","4","4","-2","-3","1","0","2","1","0","1","4","3","4","5","4","5","4","2","4","5","6","8","7","8","5","9","6","8","6","5","6","5","7","5","6","6","6","5","6","1","5","6","1","7","5","6","6","5","7","5","3","7","6","5","5","6","6","6","6","7","7","6","5","2","7","5","5","6","5","1","688779620236918784","黄","601","Male","[""好我"",""坏我"",""坏他"",""好他""]","[""强我"",""弱我"",""弱他"",""强他""]","","","","","","","","no","","","","","","","","","SRET","EW_formal","","key","f","16.653813725490323","640","356","朋友","愚痴","Negative","ability","","","","","","","","","","",""
"1182","","f","psychophysics","41","458558","0.0-7.0-3.0-0.27","5","7","5","6","6","4","4","4","5","4","4","-2","-3","1","0","2","1","0","1","4","3","4","5","4","5","4","2","4","5","6","8","7","8","5","9","6","8","6","5","6","5","7","5","6","6","6","5","6","1","5","6","1","7","5","6","6","5","7","5","3","7","6","5","5","6","6","6","6","7","7","6","5","2","7","5","5","6","5","1","688779620236918784","黄","601","Male","[""好我"",""坏我"",""坏他"",""好他""]","[""强我"",""弱我"",""弱他"",""强他""]","","","","","","","","no","","","","","","","","","SRET","EW_formal","","key","f","16.652861538461785","640","356","自己","贪腐","Negative","morality","","","","","","","","","","",""
"1022","","j","psychophysics","42","460581","0.0-7.0-3.0-0.28","5","7","5","6","6","4","4","4","5","4","4","-2","-3","1","0","2","1","0","1","4","3","4","5","4","5","4","2","4","5","6","8","7","8","5","9","6","8","6","5","6","5","7","5","6","6","6","5","6","1","5","6","1","7","5","6","6","5","7","5","3","7","6","5","5","6","6","6","6","7","7","6","5","2","7","5","5","6","5","1","688779620236918784","黄","601","Male","[""好我"",""坏我"",""坏他"",""好他""]","[""强我"",""弱我"",""弱他"",""强他""]","","","","","","","","yes","","","","","","","","","SRET","EW_formal","","key","j","16.652801652892574","640","356","自己","娴熟","Positive","ability","","","","","","","","","","",""
"866","","j","psychophysics","43","462448","0.0-7.0-3.0-0.29","5","7","5","6","6","4","4","4","5","4","4","-2","-3","1","0","2","1","0","1","4","3","4","5","4","5","4","2","4","5","6","8","7","8","5","9","6","8","6","5","6","5","7","5","6","6","6","5","6","1","5","6","1","7","5","6","6","5","7","5","3","7","6","5","5","6","6","6","6","7","7","6","5","2","7","5","5","6","5","1","688779620236918784","黄","601","Male","[""好我"",""坏我"",""坏他"",""好他""]","[""强我"",""弱我"",""弱他"",""强他""]","","","","","","","","yes","","","","","","","","","SRET","EW_formal","","key","j","16.65379279279276","640","356","自己","仁爱","Positive","morality","","","","","","","","","","",""
"950","","f","psychophysics","44","464400","0.0-7.0-3.0-0.30","5","7","5","6","6","4","4","4","5","4","4","-2","-3","1","0","2","1","0","1","4","3","4","5","4","5","4","2","4","5","6","8","7","8","5","9","6","8","6","5","6","5","7","5","6","6","6","5","6","1","5","6","1","7","5","6","6","5","7","5","3","7","6","5","5","6","6","6","6","7","7","6","5","2","7","5","5","6","5","1","688779620236918784","黄","601","Male","[""好我"",""坏我"",""坏他"",""好他""]","[""强我"",""弱我"",""弱他"",""强他""]","","","","","","","","no","","","","","","","","","SRET","EW_formal","","key","f","16.653758620689743","640","356","自己","刻薄","Negative","morality","","","","","","","","","","",""
"887","","j","psychophysics","45","466289","0.0-7.0-3.0-0.31","5","7","5","6","6","4","4","4","5","4","4","-2","-3","1","0","2","1","0","1","4","3","4","5","4","5","4","2","4","5","6","8","7","8","5","9","6","8","6","5","6","5","7","5","6","6","6","5","6","1","5","6","1","7","5","6","6","5","7","5","3","7","6","5","5","6","6","6","6","7","7","6","5","2","7","5","5","6","5","1","688779620236918784","黄","601","Male","[""好我"",""坏我"",""坏他"",""好他""]","[""强我"",""弱我"",""弱他"",""强他""]","","","","","","","","yes","","","","","","","","","SRET","EW_formal","","key","j","16.653794642857456","640","356","自己","善心","Positive","morality","","","","","","","","","","",""
"781","","j","psychophysics","46","468073","0.0-7.0-3.0-0.32","5","7","5","6","6","4","4","4","5","4","4","-2","-3","1","0","2","1","0","1","4","3","4","5","4","5","4","2","4","5","6","8","7","8","5","9","6","8","6","5","6","5","7","5","6","6","6","5","6","1","5","6","1","7","5","6","6","5","7","5","3","7","6","5","5","6","6","6","6","7","7","6","5","2","7","5","5","6","5","1","688779620236918784","黄","601","Male","[""好我"",""坏我"",""坏他"",""好他""]","[""强我"",""弱我"",""弱他"",""强他""]","","","","","","","","yes","","","","","","","","","SRET","EW_formal","","key","j","16.65275700934553","640","356","朋友","毅力","Positive","ability","","","","","","","","","","",""
"703","","f","psychophysics","47","469778","0.0-7.0-3.0-0.33","5","7","5","6","6","4","4","4","5","4","4","-2","-3","1","0","2","1","0","1","4","3","4","5","4","5","4","2","4","5","6","8","7","8","5","9","6","8","6","5","6","5","7","5","6","6","6","5","6","1","5","6","1","7","5","6","6","5","7","5","3","7","6","5","5","6","6","6","6","7","7","6","5","2","7","5","5","6","5","1","688779620236918784","黄","601","Male","[""好我"",""坏我"",""坏他"",""好他""]","[""强我"",""弱我"",""弱他"",""强他""]","","","","","","","","no","","","","","","","","","SRET","EW_formal","","key","f","16.652950495049833","640","356","自己","歹毒","Negative","morality","","","","","","","","","","",""
"1164","","f","psychophysics","48","471943","0.0-7.0-3.0-0.34","5","7","5","6","6","4","4","4","5","4","4","-2","-3","1","0","2","1","0","1","4","3","4","5","4","5","4","2","4","5","6","8","7","8","5","9","6","8","6","5","6","5","7","5","6","6","6","5","6","1","5","6","1","7","5","6","6","5","7","5","3","7","6","5","5","6","6","6","6","7","7","6","5","2","7","5","5","6","5","1","688779620236918784","黄","601","Male","[""好我"",""坏我"",""坏他"",""好他""]","[""强我"",""弱我"",""弱他"",""强他""]","","","","","","","","no","","","","","","","","","SRET","EW_formal","","key","f","16.653558139534496","640","356","朋友","混账","Negative","morality","","","","","","","","","","",""
"741","","f","psychophysics","49","473687","0.0-7.0-3.0-0.35","5","7","5","6","6","4","4","4","5","4","4","-2","-3","1","0","2","1","0","1","4","3","4","5","4","5","4","2","4","5","6","8","7","8","5","9","6","8","6","5","6","5","7","5","6","6","6","5","6","1","5","6","1","7","5","6","6","5","7","5","3","7","6","5","5","6","6","6","6","7","7","6","5","2","7","5","5","6","5","1","688779620236918784","黄","601","Male","[""好我"",""坏我"",""坏他"",""好他""]","[""强我"",""弱我"",""弱他"",""强他""]","","","","","","","","no","","","","","","","","","SRET","EW_formal","","key","f","16.65374999999991","640","356","朋友","低劣","Negative","morality","","","","","","","","","","",""
"780","","j","psychophysics","50","475468","0.0-7.0-3.0-0.36","5","7","5","6","6","4","4","4","5","4","4","-2","-3","1","0","2","1","0","1","4","3","4","5","4","5","4","2","4","5","6","8","7","8","5","9","6","8","6","5","6","5","7","5","6","6","6","5","6","1","5","6","1","7","5","6","6","5","7","5","3","7","6","5","5","6","6","6","6","7","7","6","5","2","7","5","5","6","5","1","688779620236918784","黄","601","Male","[""好我"",""坏我"",""坏他"",""好他""]","[""强我"",""弱我"",""弱他"",""强他""]","","","","","","","","yes","","","","","","","","","SRET","EW_formal","","key","j","16.653792452829876","640","356","朋友","无私","Positive","morality","","","","","","","","","","",""
"820","","f","psychophysics","51","477290","0.0-7.0-3.0-0.37","5","7","5","6","6","4","4","4","5","4","4","-2","-3","1","0","2","1","0","1","4","3","4","5","4","5","4","2","4","5","6","8","7","8","5","9","6","8","6","5","6","5","7","5","6","6","6","5","6","1","5","6","1","7","5","6","6","5","7","5","3","7","6","5","5","6","6","6","6","7","7","6","5","2","7","5","5","6","5","1","688779620236918784","黄","601","Male","[""好我"",""坏我"",""坏他"",""好他""]","[""强我"",""弱我"",""弱他"",""强他""]","","","","","","","","no","","","","","","","","","SRET","EW_formal","","key","f","16.653787037037006","640","356","朋友","淫乱","Negative","morality","","","","","","","","","","",""
"630","","f","psychophysics","52","478921","0.0-7.0-3.0-0.38","5","7","5","6","6","4","4","4","5","4","4","-2","-3","1","0","2","1","0","1","4","3","4","5","4","5","4","2","4","5","6","8","7","8","5","9","6","8","6","5","6","5","7","5","6","6","6","5","6","1","5","6","1","7","5","6","6","5","7","5","3","7","6","5","5","6","6","6","6","7","7","6","5","2","7","5","5","6","5","1","688779620236918784","黄","601","Male","[""好我"",""坏我"",""坏他"",""好他""]","[""强我"",""弱我"",""弱他"",""强他""]","","","","","","","","no","","","","","","","","","SRET","EW_formal","","key","f","16.653907216494883","640","356","自己","罪恶","Negative","morality","","","","","","","","","","",""
"746","","j","psychophysics","53","480669","0.0-7.0-3.0-0.39","5","7","5","6","6","4","4","4","5","4","4","-2","-3","1","0","2","1","0","1","4","3","4","5","4","5","4","2","4","5","6","8","7","8","5","9","6","8","6","5","6","5","7","5","6","6","6","5","6","1","5","6","1","7","5","6","6","5","7","5","3","7","6","5","5","6","6","6","6","7","7","6","5","2","7","5","5","6","5","1","688779620236918784","黄","601","Male","[""好我"",""坏我"",""坏他"",""好他""]","[""强我"",""弱我"",""弱他"",""强他""]","","","","","","","","yes","","","","","","","","","SRET","EW_formal","","key","j","16.653701923076788","640","356","自己","稳健","Positive","ability","","","","","","","","","","",""
"861","","f","psychophysics","54","482531","0.0-7.0-3.0-0.40","5","7","5","6","6","4","4","4","5","4","4","-2","-3","1","0","2","1","0","1","4","3","4","5","4","5","4","2","4","5","6","8","7","8","5","9","6","8","6","5","6","5","7","5","6","6","6","5","6","1","5","6","1","7","5","6","6","5","7","5","3","7","6","5","5","6","6","6","6","7","7","6","5","2","7","5","5","6","5","1","688779620236918784","黄","601","Male","[""好我"",""坏我"",""坏他"",""好他""]","[""强我"",""弱我"",""弱他"",""强他""]","","","","","","","","no","","","","","","","","","SRET","EW_formal","","key","f","16.65316363636362","640","356","朋友","小人","Negative","morality","","","","","","","","","","",""
"1113","","j","psychophysics","55","484645","0.0-7.0-3.0-0.41","5","7","5","6","6","4","4","4","5","4","4","-2","-3","1","0","2","1","0","1","4","3","4","5","4","5","4","2","4","5","6","8","7","8","5","9","6","8","6","5","6","5","7","5","6","6","6","5","6","1","5","6","1","7","5","6","6","5","7","5","3","7","6","5","5","6","6","6","6","7","7","6","5","2","7","5","5","6","5","1","688779620236918784","黄","601","Male","[""好我"",""坏我"",""坏他"",""好他""]","[""强我"",""弱我"",""弱他"",""强他""]","","","","","","","","yes","","","","","","","","","SRET","EW_formal","","key","j","16.653173228346752","640","356","朋友","能干","Positive","ability","","","","","","","","","","",""
"741","","f","psychophysics","56","486387","0.0-7.0-3.0-0.42","5","7","5","6","6","4","4","4","5","4","4","-2","-3","1","0","2","1","0","1","4","3","4","5","4","5","4","2","4","5","6","8","7","8","5","9","6","8","6","5","6","5","7","5","6","6","6","5","6","1","5","6","1","7","5","6","6","5","7","5","3","7","6","5","5","6","6","6","6","7","7","6","5","2","7","5","5","6","5","1","688779620236918784","黄","601","Male","[""好我"",""坏我"",""坏他"",""好他""]","[""强我"",""弱我"",""弱他"",""强他""]","","","","","","","","no","","","","","","","","","SRET","EW_formal","","key","f","16.652970873786348","640","356","自己","利己","Negative","morality","","","","","","","","","","",""
"1027","","f","psychophysics","57","488418","0.0-7.0-3.0-0.43","5","7","5","6","6","4","4","4","5","4","4","-2","-3","1","0","2","1","0","1","4","3","4","5","4","5","4","2","4","5","6","8","7","8","5","9","6","8","6","5","6","5","7","5","6","6","6","5","6","1","5","6","1","7","5","6","6","5","7","5","3","7","6","5","5","6","6","6","6","7","7","6","5","2","7","5","5","6","5","1","688779620236918784","黄","601","Male","[""好我"",""坏我"",""坏他"",""好他""]","[""强我"",""弱我"",""弱他"",""强他""]","","","","","","","","no","","","","","","","","","SRET","EW_formal","","key","f","16.652966942148925","640","356","朋友","马虎","Negative","ability","","","","","","","","","","",""
"626","","f","psychophysics","58","490046","0.0-7.0-3.0-0.44","5","7","5","6","6","4","4","4","5","4","4","-2","-3","1","0","2","1","0","1","4","3","4","5","4","5","4","2","4","5","6","8","7","8","5","9","6","8","6","5","6","5","7","5","6","6","6","5","6","1","5","6","1","7","5","6","6","5","7","5","3","7","6","5","5","6","6","6","6","7","7","6","5","2","7","5","5","6","5","1","688779620236918784","黄","601","Male","[""好我"",""坏我"",""坏他"",""好他""]","[""强我"",""弱我"",""弱他"",""强他""]","","","","","","","","no","","","","","","","","","SRET","EW_formal","","key","f","16.65293814433011","640","356","自己","无助","Negative","ability","","","","","","","","","","",""
"663","","f","psychophysics","59","491711","0.0-7.0-3.0-0.45","5","7","5","6","6","4","4","4","5","4","4","-2","-3","1","0","2","1","0","1","4","3","4","5","4","5","4","2","4","5","6","8","7","8","5","9","6","8","6","5","6","5","7","5","6","6","6","5","6","1","5","6","1","7","5","6","6","5","7","5","3","7","6","5","5","6","6","6","6","7","7","6","5","2","7","5","5","6","5","1","688779620236918784","黄","601","Male","[""好我"",""坏我"",""坏他"",""好他""]","[""强我"",""弱我"",""弱他"",""强他""]","","","","","","","","no","","","","","","","","","SRET","EW_formal","","key","f","16.65304040404053","640","356","自己","畏难","Negative","ability","","","","","","","","","","",""
"1135","","f","psychophysics","60","493847","0.0-7.0-3.0-0.46","5","7","5","6","6","4","4","4","5","4","4","-2","-3","1","0","2","1","0","1","4","3","4","5","4","5","4","2","4","5","6","8","7","8","5","9","6","8","6","5","6","5","7","5","6","6","6","5","6","1","5","6","1","7","5","6","6","5","7","5","3","7","6","5","5","6","6","6","6","7","7","6","5","2","7","5","5","6","5","1","688779620236918784","黄","601","Male","[""好我"",""坏我"",""坏他"",""好他""]","[""强我"",""弱我"",""弱他"",""强他""]","","","","","","","","no","","","","","","","","","SRET","EW_formal","","key","f","16.653015748031187","640","356","朋友","失信","Negative","morality","","","","","","","","","","",""
"1776","","f","psychophysics","61","496625","0.0-7.0-3.0-0.47","5","7","5","6","6","4","4","4","5","4","4","-2","-3","1","0","2","1","0","1","4","3","4","5","4","5","4","2","4","5","6","8","7","8","5","9","6","8","6","5","6","5","7","5","6","6","6","5","6","1","5","6","1","7","5","6","6","5","7","5","3","7","6","5","5","6","6","6","6","7","7","6","5","2","7","5","5","6","5","1","688779620236918784","黄","601","Male","[""好我"",""坏我"",""坏他"",""好他""]","[""强我"",""弱我"",""弱他"",""强他""]","","","","","","","","no","","","","","","","","","SRET","EW_formal","","key","f","16.65294578313268","640","356","朋友","短视","Negative","ability","","","","","","","","","","",""
"627","","j","psychophysics","62","498254","0.0-7.0-3.0-0.48","5","7","5","6","6","4","4","4","5","4","4","-2","-3","1","0","2","1","0","1","4","3","4","5","4","5","4","2","4","5","6","8","7","8","5","9","6","8","6","5","6","5","7","5","6","6","6","5","6","1","5","6","1","7","5","6","6","5","7","5","3","7","6","5","5","6","6","6","6","7","7","6","5","2","7","5","5","6","5","1","688779620236918784","黄","601","Male","[""好我"",""坏我"",""坏他"",""好他""]","[""强我"",""弱我"",""弱他"",""强他""]","","","","","","","","yes","","","","","","","","","SRET","EW_formal","","key","j","16.65283505154651","640","356","自己","廉正","Positive","morality","","","","","","","","","","",""
"1581","","f","psychophysics","63","500836","0.0-7.0-3.0-0.49","5","7","5","6","6","4","4","4","5","4","4","-2","-3","1","0","2","1","0","1","4","3","4","5","4","5","4","2","4","5","6","8","7","8","5","9","6","8","6","5","6","5","7","5","6","6","6","5","6","1","5","6","1","7","5","6","6","5","7","5","3","7","6","5","5","6","6","6","6","7","7","6","5","2","7","5","5","6","5","1","688779620236918784","黄","601","Male","[""好我"",""坏我"",""坏他"",""好他""]","[""强我"",""弱我"",""弱他"",""强他""]","","","","","","","","no","","","","","","","","","SRET","EW_formal","","key","f","16.652980519480575","640","356","自己","浅薄","Negative","ability","","","","","","","","","","",""
"643","","f","psychophysics","64","502481","0.0-7.0-3.0-0.50","5","7","5","6","6","4","4","4","5","4","4","-2","-3","1","0","2","1","0","1","4","3","4","5","4","5","4","2","4","5","6","8","7","8","5","9","6","8","6","5","6","5","7","5","6","6","6","5","6","1","5","6","1","7","5","6","6","5","7","5","3","7","6","5","5","6","6","6","6","7","7","6","5","2","7","5","5","6","5","1","688779620236918784","黄","601","Male","[""好我"",""坏我"",""坏他"",""好他""]","[""强我"",""弱我"",""弱他"",""强他""]","","","","","","","","no","","","","","","","","","SRET","EW_formal","","key","f","16.653755102040513","640","356","朋友","驽钝","Negative","ability","","","","","","","","","","",""
"612","","f","psychophysics","65","504095","0.0-7.0-3.0-0.51","5","7","5","6","6","4","4","4","5","4","4","-2","-3","1","0","2","1","0","1","4","3","4","5","4","5","4","2","4","5","6","8","7","8","5","9","6","8","6","5","6","5","7","5","6","6","6","5","6","1","5","6","1","7","5","6","6","5","7","5","3","7","6","5","5","6","6","6","6","7","7","6","5","2","7","5","5","6","5","1","688779620236918784","黄","601","Male","[""好我"",""坏我"",""坏他"",""好他""]","[""强我"",""弱我"",""弱他"",""强他""]","","","","","","","","no","","","","","","","","","SRET","EW_formal","","key","f","16.65381249999943","640","356","朋友","虚伪","Negative","morality","","","","","","","","","","",""
"632","","f","psychophysics","66","505729","0.0-7.0-3.0-0.52","5","7","5","6","6","4","4","4","5","4","4","-2","-3","1","0","2","1","0","1","4","3","4","5","4","5","4","2","4","5","6","8","7","8","5","9","6","8","6","5","6","5","7","5","6","6","6","5","6","1","5","6","1","7","5","6","6","5","7","5","3","7","6","5","5","6","6","6","6","7","7","6","5","2","7","5","5","6","5","1","688779620236918784","黄","601","Male","[""好我"",""坏我"",""坏他"",""好他""]","[""强我"",""弱我"",""弱他"",""强他""]","","","","","","","","no","","","","","","","","","SRET","EW_formal","","key","f","16.653247422680316","640","356","自己","拖拉","Negative","ability","","","","","","","","","","",""
"752","","f","psychophysics","67","507482","0.0-7.0-3.0-0.53","5","7","5","6","6","4","4","4","5","4","4","-2","-3","1","0","2","1","0","1","4","3","4","5","4","5","4","2","4","5","6","8","7","8","5","9","6","8","6","5","6","5","7","5","6","6","6","5","6","1","5","6","1","7","5","6","6","5","7","5","3","7","6","5","5","6","6","6","6","7","7","6","5","2","7","5","5","6","5","1","688779620236918784","黄","601","Male","[""好我"",""坏我"",""坏他"",""好他""]","[""强我"",""弱我"",""弱他"",""强他""]","","","","","","","","no","","","","","","","","","SRET","EW_formal","","key","f","16.654057692307667","640","356","自己","弱智","Negative","ability","","","","","","","","","","",""
"680","","f","psychophysics","68","509164","0.0-7.0-3.0-0.54","5","7","5","6","6","4","4","4","5","4","4","-2","-3","1","0","2","1","0","1","4","3","4","5","4","5","4","2","4","5","6","8","7","8","5","9","6","8","6","5","6","5","7","5","6","6","6","5","6","1","5","6","1","7","5","6","6","5","7","5","3","7","6","5","5","6","6","6","6","7","7","6","5","2","7","5","5","6","5","1","688779620236918784","黄","601","Male","[""好我"",""坏我"",""坏他"",""好他""]","[""强我"",""弱我"",""弱他"",""强他""]","","","","","","","","no","","","","","","","","","SRET","EW_formal","","key","f","16.652569999999834","640","356","自己","奸诈","Negative","morality","","","","","","","","","","",""
"790","","j","psychophysics","69","510956","0.0-7.0-3.0-0.55","5","7","5","6","6","4","4","4","5","4","4","-2","-3","1","0","2","1","0","1","4","3","4","5","4","5","4","2","4","5","6","8","7","8","5","9","6","8","6","5","6","5","7","5","6","6","6","5","6","1","5","6","1","7","5","6","6","5","7","5","3","7","6","5","5","6","6","6","6","7","7","6","5","2","7","5","5","6","5","1","688779620236918784","黄","601","Male","[""好我"",""坏我"",""坏他"",""好他""]","[""强我"",""弱我"",""弱他"",""强他""]","","","","","","","","yes","","","","","","","","","SRET","EW_formal","","key","j","16.652813084112378","640","356","朋友","奉献","Positive","morality","","","","","","","","","","",""
"840","","j","psychophysics","70","512798","0.0-7.0-3.0-0.56","5","7","5","6","6","4","4","4","5","4","4","-2","-3","1","0","2","1","0","1","4","3","4","5","4","5","4","2","4","5","6","8","7","8","5","9","6","8","6","5","6","5","7","5","6","6","6","5","6","1","5","6","1","7","5","6","6","5","7","5","3","7","6","5","5","6","6","6","6","7","7","6","5","2","7","5","5","6","5","1","688779620236918784","黄","601","Male","[""好我"",""坏我"",""坏他"",""好他""]","[""强我"",""弱我"",""弱他"",""强他""]","","","","","","","","yes","","","","","","","","","SRET","EW_formal","","key","j","16.654100917430846","640","356","自己","爱国","Positive","morality","","","","","","","","","","",""
"939","","j","psychophysics","71","514738","0.0-7.0-3.0-0.57","5","7","5","6","6","4","4","4","5","4","4","-2","-3","1","0","2","1","0","1","4","3","4","5","4","5","4","2","4","5","6","8","7","8","5","9","6","8","6","5","6","5","7","5","6","6","6","5","6","1","5","6","1","7","5","6","6","5","7","5","3","7","6","5","5","6","6","6","6","7","7","6","5","2","7","5","5","6","5","1","688779620236918784","黄","601","Male","[""好我"",""坏我"",""坏他"",""好他""]","[""强我"",""弱我"",""弱他"",""强他""]","","","","","","","","yes","","","","","","","","","SRET","EW_formal","","key","j","16.653508620689912","640","356","朋友","君子","Positive","morality","","","","","","","","","","",""
"830","","f","psychophysics","72","516569","0.0-7.0-3.0-0.58","5","7","5","6","6","4","4","4","5","4","4","-2","-3","1","0","2","1","0","1","4","3","4","5","4","5","4","2","4","5","6","8","7","8","5","9","6","8","6","5","6","5","7","5","6","6","6","5","6","1","5","6","1","7","5","6","6","5","7","5","3","7","6","5","5","6","6","6","6","7","7","6","5","2","7","5","5","6","5","1","688779620236918784","黄","601","Male","[""好我"",""坏我"",""坏他"",""好他""]","[""强我"",""弱我"",""弱他"",""强他""]","","","","","","","","no","","","","","","","","","SRET","EW_formal","","key","f","16.65308256880722","640","356","朋友","偏私","Negative","morality","","","","","","","","","","",""
"698","","f","psychophysics","73","518268","0.0-7.0-3.0-0.59","5","7","5","6","6","4","4","4","5","4","4","-2","-3","1","0","2","1","0","1","4","3","4","5","4","5","4","2","4","5","6","8","7","8","5","9","6","8","6","5","6","5","7","5","6","6","6","5","6","1","5","6","1","7","5","6","6","5","7","5","3","7","6","5","5","6","6","6","6","7","7","6","5","2","7","5","5","6","5","1","688779620236918784","黄","601","Male","[""好我"",""坏我"",""坏他"",""好他""]","[""强我"",""弱我"",""弱他"",""强他""]","","","","","","","","no","","","","","","","","","SRET","EW_formal","","key","f","16.65380198019845","640","356","朋友","窝囊","Negative","ability","","","","","","","","","","",""
"729","","j","psychophysics","74","519998","0.0-7.0-3.0-0.60","5","7","5","6","6","4","4","4","5","4","4","-2","-3","1","0","2","1","0","1","4","3","4","5","4","5","4","2","4","5","6","8","7","8","5","9","6","8","6","5","6","5","7","5","6","6","6","5","6","1","5","6","1","7","5","6","6","5","7","5","3","7","6","5","5","6","6","6","6","7","7","6","5","2","7","5","5","6","5","1","688779620236918784","黄","601","Male","[""好我"",""坏我"",""坏他"",""好他""]","[""强我"",""弱我"",""弱他"",""强他""]","","","","","","","","yes","","","","","","","","","SRET","EW_formal","","key","j","16.65300970873739","640","356","朋友","善良","Positive","morality","","","","","","","","","","",""
"1075","","f","psychophysics","75","522075","0.0-7.0-3.0-0.61","5","7","5","6","6","4","4","4","5","4","4","-2","-3","1","0","2","1","0","1","4","3","4","5","4","5","4","2","4","5","6","8","7","8","5","9","6","8","6","5","6","5","7","5","6","6","6","5","6","1","5","6","1","7","5","6","6","5","7","5","3","7","6","5","5","6","6","6","6","7","7","6","5","2","7","5","5","6","5","1","688779620236918784","黄","601","Male","[""好我"",""坏我"",""坏他"",""好他""]","[""强我"",""弱我"",""弱他"",""强他""]","","","","","","","","no","","","","","","","","","SRET","EW_formal","","key","f","16.653796747967135","640","356","朋友","业余","Negative","ability","","","","","","","","","","",""
"806","","f","psychophysics","76","523886","0.0-7.0-3.0-0.62","5","7","5","6","6","4","4","4","5","4","4","-2","-3","1","0","2","1","0","1","4","3","4","5","4","5","4","2","4","5","6","8","7","8","5","9","6","8","6","5","6","5","7","5","6","6","6","5","6","1","5","6","1","7","5","6","6","5","7","5","3","7","6","5","5","6","6","6","6","7","7","6","5","2","7","5","5","6","5","1","688779620236918784","黄","601","Male","[""好我"",""坏我"",""坏他"",""好他""]","[""强我"",""弱我"",""弱他"",""强他""]","","","","","","","","no","","","","","","","","","SRET","EW_formal","","key","f","16.653249999999794","640","356","朋友","笨蛋","Negative","ability","","","","","","","","","","",""
"1608","","f","psychophysics","77","526495","0.0-7.0-3.0-0.63","5","7","5","6","6","4","4","4","5","4","4","-2","-3","1","0","2","1","0","1","4","3","4","5","4","5","4","2","4","5","6","8","7","8","5","9","6","8","6","5","6","5","7","5","6","6","6","5","6","1","5","6","1","7","5","6","6","5","7","5","3","7","6","5","5","6","6","6","6","7","7","6","5","2","7","5","5","6","5","1","688779620236918784","黄","601","Male","[""好我"",""坏我"",""坏他"",""好他""]","[""强我"",""弱我"",""弱他"",""强他""]","","","","","","","","no","","","","","","","","","SRET","EW_formal","","key","f","16.653397435897016","640","356","自己","干练","Positive","ability","","","","","","","","","","",""
"1731","","f","psychophysics","78","529228","0.0-7.0-3.0-0.64","5","7","5","6","6","4","4","4","5","4","4","-2","-3","1","0","2","1","0","1","4","3","4","5","4","5","4","2","4","5","6","8","7","8","5","9","6","8","6","5","6","5","7","5","6","6","6","5","6","1","5","6","1","7","5","6","6","5","7","5","3","7","6","5","5","6","6","6","6","7","7","6","5","2","7","5","5","6","5","1","688779620236918784","黄","601","Male","[""好我"",""坏我"",""坏他"",""好他""]","[""强我"",""弱我"",""弱他"",""强他""]","","","","","","","","no","","","","","","","","","SRET","EW_formal","","key","f","16.65294478527639","640","356","朋友","蛇蝎","Negative","morality","","","","","","","","","","",""
"742","","j","psychophysics","79","530973","0.0-7.0-3.0-0.65","5","7","5","6","6","4","4","4","5","4","4","-2","-3","1","0","2","1","0","1","4","3","4","5","4","5","4","2","4","5","6","8","7","8","5","9","6","8","6","5","6","5","7","5","6","6","6","5","6","1","5","6","1","7","5","6","6","5","7","5","3","7","6","5","5","6","6","6","6","7","7","6","5","2","7","5","5","6","5","1","688779620236918784","黄","601","Male","[""好我"",""坏我"",""坏他"",""好他""]","[""强我"",""弱我"",""弱他"",""强他""]","","","","","","","","yes","","","","","","","","","SRET","EW_formal","","key","j","16.653701923076788","640","356","朋友","忠勇","Positive","morality","","","","","","","","","","",""
"816","","f","psychophysics","80","532790","0.0-7.0-3.0-0.66","5","7","5","6","6","4","4","4","5","4","4","-2","-3","1","0","2","1","0","1","4","3","4","5","4","5","4","2","4","5","6","8","7","8","5","9","6","8","6","5","6","5","7","5","6","6","6","5","6","1","5","6","1","7","5","6","6","5","7","5","3","7","6","5","5","6","6","6","6","7","7","6","5","2","7","5","5","6","5","1","688779620236918784","黄","601","Male","[""好我"",""坏我"",""坏他"",""好他""]","[""强我"",""弱我"",""弱他"",""强他""]","","","","","","","","no","","","","","","","","","SRET","EW_formal","","key","f","16.653657407408225","640","356","朋友","不良","Negative","morality","","","","","","","","","","",""
"773","","f","psychophysics","81","534564","0.0-7.0-3.0-0.67","5","7","5","6","6","4","4","4","5","4","4","-2","-3","1","0","2","1","0","1","4","3","4","5","4","5","4","2","4","5","6","8","7","8","5","9","6","8","6","5","6","5","7","5","6","6","6","5","6","1","5","6","1","7","5","6","6","5","7","5","3","7","6","5","5","6","6","6","6","7","7","6","5","2","7","5","5","6","5","1","688779620236918784","黄","601","Male","[""好我"",""坏我"",""坏他"",""好他""]","[""强我"",""弱我"",""弱他"",""强他""]","","","","","","","","no","","","","","","","","","SRET","EW_formal","","key","f","16.652171428571457","640","356","自己","愚钝","Negative","ability","","","","","","","","","","",""
"635","","f","psychophysics","82","536202","0.0-7.0-3.0-0.68","5","7","5","6","6","4","4","4","5","4","4","-2","-3","1","0","2","1","0","1","4","3","4","5","4","5","4","2","4","5","6","8","7","8","5","9","6","8","6","5","6","5","7","5","6","6","6","5","6","1","5","6","1","7","5","6","6","5","7","5","3","7","6","5","5","6","6","6","6","7","7","6","5","2","7","5","5","6","5","1","688779620236918784","黄","601","Male","[""好我"",""坏我"",""坏他"",""好他""]","[""强我"",""弱我"",""弱他"",""强他""]","","","","","","","","no","","","","","","","","","SRET","EW_formal","","key","f","16.65316326530622","640","356","朋友","草率","Negative","ability","","","","","","","","","","",""
"732","","j","psychophysics","83","537937","0.0-7.0-3.0-0.69","5","7","5","6","6","4","4","4","5","4","4","-2","-3","1","0","2","1","0","1","4","3","4","5","4","5","4","2","4","5","6","8","7","8","5","9","6","8","6","5","6","5","7","5","6","6","6","5","6","1","5","6","1","7","5","6","6","5","7","5","3","7","6","5","5","6","6","6","6","7","7","6","5","2","7","5","5","6","5","1","688779620236918784","黄","601","Male","[""好我"",""坏我"",""坏他"",""好他""]","[""强我"",""弱我"",""弱他"",""强他""]","","","","","","","","yes","","","","","","","","","SRET","EW_formal","","key","j","16.652048543690096","640","356","自己","清廉","Positive","morality","","","","","","","","","","",""
"1021","","f","psychophysics","84","539959","0.0-7.0-3.0-0.70","5","7","5","6","6","4","4","4","5","4","4","-2","-3","1","0","2","1","0","1","4","3","4","5","4","5","4","2","4","5","6","8","7","8","5","9","6","8","6","5","6","5","7","5","6","6","6","5","6","1","5","6","1","7","5","6","6","5","7","5","3","7","6","5","5","6","6","6","6","7","7","6","5","2","7","5","5","6","5","1","688779620236918784","黄","601","Male","[""好我"",""坏我"",""坏他"",""好他""]","[""强我"",""弱我"",""弱他"",""强他""]","","","","","","","","no","","","","","","","","","SRET","EW_formal","","key","f","16.65379166666729","640","356","朋友","努力","Positive","ability","","","","","","","","","","",""
"987","","j","psychophysics","85","541948","0.0-7.0-3.0-0.71","5","7","5","6","6","4","4","4","5","4","4","-2","-3","1","0","2","1","0","1","4","3","4","5","4","5","4","2","4","5","6","8","7","8","5","9","6","8","6","5","6","5","7","5","6","6","6","5","6","1","5","6","1","7","5","6","6","5","7","5","3","7","6","5","5","6","6","6","6","7","7","6","5","2","7","5","5","6","5","1","688779620236918784","黄","601","Male","[""好我"",""坏我"",""坏他"",""好他""]","[""强我"",""弱我"",""弱他"",""强他""]","","","","","","","","yes","","","","","","","","","SRET","EW_formal","","key","j","16.65299999999947","640","356","朋友","精干","Positive","ability","","","","","","","","","","",""
"688","","f","psychophysics","86","543639","0.0-7.0-3.0-0.72","5","7","5","6","6","4","4","4","5","4","4","-2","-3","1","0","2","1","0","1","4","3","4","5","4","5","4","2","4","5","6","8","7","8","5","9","6","8","6","5","6","5","7","5","6","6","6","5","6","1","5","6","1","7","5","6","6","5","7","5","3","7","6","5","5","6","6","6","6","7","7","6","5","2","7","5","5","6","5","1","688779620236918784","黄","601","Male","[""好我"",""坏我"",""坏他"",""好他""]","[""强我"",""弱我"",""弱他"",""强他""]","","","","","","","","no","","","","","","","","","SRET","EW_formal","","key","f","16.653880000000353","640","356","自己","拙笨","Negative","ability","","","","","","","","","","",""
"882","","j","psychophysics","87","545527","0.0-7.0-3.0-0.73","5","7","5","6","6","4","4","4","5","4","4","-2","-3","1","0","2","1","0","1","4","3","4","5","4","5","4","2","4","5","6","8","7","8","5","9","6","8","6","5","6","5","7","5","6","6","6","5","6","1","5","6","1","7","5","6","6","5","7","5","3","7","6","5","5","6","6","6","6","7","7","6","5","2","7","5","5","6","5","1","688779620236918784","黄","601","Male","[""好我"",""坏我"",""坏他"",""好他""]","[""强我"",""弱我"",""弱他"",""强他""]","","","","","","","","yes","","","","","","","","","SRET","EW_formal","","key","j","16.65292920353946","640","356","朋友","慈悲","Positive","morality","","","","","","","","","","",""
"700","","j","psychophysics","88","547228","0.0-7.0-3.0-0.74","5","7","5","6","6","4","4","4","5","4","4","-2","-3","1","0","2","1","0","1","4","3","4","5","4","5","4","2","4","5","6","8","7","8","5","9","6","8","6","5","6","5","7","5","6","6","6","5","6","1","5","6","1","7","5","6","6","5","7","5","3","7","6","5","5","6","6","6","6","7","7","6","5","2","7","5","5","6","5","1","688779620236918784","黄","601","Male","[""好我"",""坏我"",""坏他"",""好他""]","[""强我"",""弱我"",""弱他"",""强他""]","","","","","","","","yes","","","","","","","","","SRET","EW_formal","","key","j","16.65314851485142","640","356","自己","诚信","Positive","morality","","","","","","","","","","",""
"766","","f","psychophysics","89","548996","0.0-7.0-3.0-0.75","5","7","5","6","6","4","4","4","5","4","4","-2","-3","1","0","2","1","0","1","4","3","4","5","4","5","4","2","4","5","6","8","7","8","5","9","6","8","6","5","6","5","7","5","6","6","6","5","6","1","5","6","1","7","5","6","6","5","7","5","3","7","6","5","5","6","6","6","6","7","7","6","5","2","7","5","5","6","5","1","688779620236918784","黄","601","Male","[""好我"",""坏我"",""坏他"",""好他""]","[""强我"",""弱我"",""弱他"",""强他""]","","","","","","","","no","","","","","","","","","SRET","EW_formal","","key","f","16.653209523810073","640","356","自己","邪恶","Negative","morality","","","","","","","","","","",""
"835","","j","psychophysics","90","550833","0.0-7.0-3.0-0.76","5","7","5","6","6","4","4","4","5","4","4","-2","-3","1","0","2","1","0","1","4","3","4","5","4","5","4","2","4","5","6","8","7","8","5","9","6","8","6","5","6","5","7","5","6","6","6","5","6","1","5","6","1","7","5","6","6","5","7","5","3","7","6","5","5","6","6","6","6","7","7","6","5","2","7","5","5","6","5","1","688779620236918784","黄","601","Male","[""好我"",""坏我"",""坏他"",""好他""]","[""强我"",""弱我"",""弱他"",""强他""]","","","","","","","","yes","","","","","","","","","SRET","EW_formal","","key","j","16.653770642202357","640","356","朋友","博识","Positive","ability","","","","","","","","","","",""
"902","","j","psychophysics","91","552737","0.0-7.0-3.0-0.77","5","7","5","6","6","4","4","4","5","4","4","-2","-3","1","0","2","1","0","1","4","3","4","5","4","5","4","2","4","5","6","8","7","8","5","9","6","8","6","5","6","5","7","5","6","6","6","5","6","1","5","6","1","7","5","6","6","5","7","5","3","7","6","5","5","6","6","6","6","7","7","6","5","2","7","5","5","6","5","1","688779620236918784","黄","601","Male","[""好我"",""坏我"",""坏他"",""好他""]","[""强我"",""弱我"",""弱他"",""强他""]","","","","","","","","yes","","","","","","","","","SRET","EW_formal","","key","j","16.652274336282627","640","356","自己","厚道","Positive","morality","","","","","","","","","","",""
"775","","j","psychophysics","92","554514","0.0-7.0-3.0-0.78","5","7","5","6","6","4","4","4","5","4","4","-2","-3","1","0","2","1","0","1","4","3","4","5","4","5","4","2","4","5","6","8","7","8","5","9","6","8","6","5","6","5","7","5","6","6","6","5","6","1","5","6","1","7","5","6","6","5","7","5","3","7","6","5","5","6","6","6","6","7","7","6","5","2","7","5","5","6","5","1","688779620236918784","黄","601","Male","[""好我"",""坏我"",""坏他"",""好他""]","[""强我"",""弱我"",""弱他"",""强他""]","","","","","","","","yes","","","","","","","","","SRET","EW_formal","","key","j","16.65284905660313","640","356","朋友","坚持","Positive","ability","","","","","","","","","","",""
"876","","j","psychophysics","93","556391","0.0-7.0-3.0-0.79","5","7","5","6","6","4","4","4","5","4","4","-2","-3","1","0","2","1","0","1","4","3","4","5","4","5","4","2","4","5","6","8","7","8","5","9","6","8","6","5","6","5","7","5","6","6","6","5","6","1","5","6","1","7","5","6","6","5","7","5","3","7","6","5","5","6","6","6","6","7","7","6","5","2","7","5","5","6","5","1","688779620236918784","黄","601","Male","[""好我"",""坏我"",""坏他"",""好他""]","[""强我"",""弱我"",""弱他"",""强他""]","","","","","","","","yes","","","","","","","","","SRET","EW_formal","","key","j","16.653669642857235","640","356","自己","变通","Positive","ability","","","","","","","","","","",""
"949","","f","psychophysics","94","558341","0.0-7.0-3.0-0.80","5","7","5","6","6","4","4","4","5","4","4","-2","-3","1","0","2","1","0","1","4","3","4","5","4","5","4","2","4","5","6","8","7","8","5","9","6","8","6","5","6","5","7","5","6","6","6","5","6","1","5","6","1","7","5","6","6","5","7","5","3","7","6","5","5","6","6","6","6","7","7","6","5","2","7","5","5","6","5","1","688779620236918784","黄","601","Male","[""好我"",""坏我"",""坏他"",""好他""]","[""强我"",""弱我"",""弱他"",""强他""]","","","","","","","","no","","","","","","","","","SRET","EW_formal","","key","f","16.653741379309615","640","356","朋友","狡狯","Negative","morality","","","","","","","","","","",""
"1380","","j","psychophysics","95","560723","0.0-7.0-3.0-0.81","5","7","5","6","6","4","4","4","5","4","4","-2","-3","1","0","2","1","0","1","4","3","4","5","4","5","4","2","4","5","6","8","7","8","5","9","6","8","6","5","6","5","7","5","6","6","6","5","6","1","5","6","1","7","5","6","6","5","7","5","3","7","6","5","5","6","6","6","6","7","7","6","5","2","7","5","5","6","5","1","688779620236918784","黄","601","Male","[""好我"",""坏我"",""坏他"",""好他""]","[""强我"",""弱我"",""弱他"",""强他""]","","","","","","","","yes","","","","","","","","","SRET","EW_formal","","key","j","16.652922535211037","640","356","自己","有力","Positive","ability","","","","","","","","","","",""
"1274","","j","psychophysics","96","562998","0.0-7.0-3.0-0.82","5","7","5","6","6","4","4","4","5","4","4","-2","-3","1","0","2","1","0","1","4","3","4","5","4","5","4","2","4","5","6","8","7","8","5","9","6","8","6","5","6","5","7","5","6","6","6","5","6","1","5","6","1","7","5","6","6","5","7","5","3","7","6","5","5","6","6","6","6","7","7","6","5","2","7","5","5","6","5","1","688779620236918784","黄","601","Male","[""好我"",""坏我"",""坏他"",""好他""]","[""强我"",""弱我"",""弱他"",""强他""]","","","","","","","","yes","","","","","","","","","SRET","EW_formal","","key","j","16.65327205882418","640","356","自己","守时","Positive","morality","","","","","","","","","","",""
"1238","","j","psychophysics","97","565239","0.0-7.0-3.0-0.83","5","7","5","6","6","4","4","4","5","4","4","-2","-3","1","0","2","1","0","1","4","3","4","5","4","5","4","2","4","5","6","8","7","8","5","9","6","8","6","5","6","5","7","5","6","6","6","5","6","1","5","6","1","7","5","6","6","5","7","5","3","7","6","5","5","6","6","6","6","7","7","6","5","2","7","5","5","6","5","1","688779620236918784","黄","601","Male","[""好我"",""坏我"",""坏他"",""好他""]","[""强我"",""弱我"",""弱他"",""强他""]","","","","","","","","yes","","","","","","","","","SRET","EW_formal","","key","j","16.65368421052677","640","356","自己","利落","Positive","ability","","","","","","","","","","",""
"742","","f","psychophysics","98","566982","0.0-7.0-3.0-0.84","5","7","5","6","6","4","4","4","5","4","4","-2","-3","1","0","2","1","0","1","4","3","4","5","4","5","4","2","4","5","6","8","7","8","5","9","6","8","6","5","6","5","7","5","6","6","6","5","6","1","5","6","1","7","5","6","6","5","7","5","3","7","6","5","5","6","6","6","6","7","7","6","5","2","7","5","5","6","5","1","688779620236918784","黄","601","Male","[""好我"",""坏我"",""坏他"",""好他""]","[""强我"",""弱我"",""弱他"",""强他""]","","","","","","","","no","","","","","","","","","SRET","EW_formal","","key","f","16.65374999999991","640","356","朋友","低俗","Negative","morality","","","","","","","","","","",""
"826","","j","psychophysics","99","568809","0.0-7.0-3.0-0.85","5","7","5","6","6","4","4","4","5","4","4","-2","-3","1","0","2","1","0","1","4","3","4","5","4","5","4","2","4","5","6","8","7","8","5","9","6","8","6","5","6","5","7","5","6","6","6","5","6","1","5","6","1","7","5","6","6","5","7","5","3","7","6","5","5","6","6","6","6","7","7","6","5","2","7","5","5","6","5","1","688779620236918784","黄","601","Male","[""好我"",""坏我"",""坏他"",""好他""]","[""强我"",""弱我"",""弱他"",""强他""]","","","","","","","","yes","","","","","","","","","SRET","EW_formal","","key","j","16.653577981651292","640","356","朋友","素养","Positive","morality","","","","","","","","","","",""
"673","","f","psychophysics","100","570483","0.0-7.0-3.0-0.86","5","7","5","6","6","4","4","4","5","4","4","-2","-3","1","0","2","1","0","1","4","3","4","5","4","5","4","2","4","5","6","8","7","8","5","9","6","8","6","5","6","5","7","5","6","6","6","5","6","1","5","6","1","7","5","6","6","5","7","5","3","7","6","5","5","6","6","6","6","7","7","6","5","2","7","5","5","6","5","1","688779620236918784","黄","601","Male","[""好我"",""坏我"",""坏他"",""好他""]","[""强我"",""弱我"",""弱他"",""强他""]","","","","","","","","no","","","","","","","","","SRET","EW_formal","","key","f","16.653929292929895","640","356","自己","主见","Positive","ability","","","","","","","","","","",""
"1290","","f","psychophysics","101","572775","0.0-7.0-3.0-0.87","5","7","5","6","6","4","4","4","5","4","4","-2","-3","1","0","2","1","0","1","4","3","4","5","4","5","4","2","4","5","6","8","7","8","5","9","6","8","6","5","6","5","7","5","6","6","6","5","6","1","5","6","1","7","5","6","6","5","7","5","3","7","6","5","5","6","6","6","6","7","7","6","5","2","7","5","5","6","5","1","688779620236918784","黄","601","Male","[""好我"",""坏我"",""坏他"",""好他""]","[""强我"",""弱我"",""弱他"",""强他""]","","","","","","","","no","","","","","","","","","SRET","EW_formal","","key","f","16.652985401460086","640","356","自己","缓慢","Negative","ability","","","","","","","","","","",""
"18108","
    <p><div style='color:white;font-size:35px; line-height:20px;'>计算任务</div></p><br>
    <p><div style='color:red;font-size:25px; line-height:20px;'>接下来，您将看到一些四则运算题，<b>请从键盘选择 0-9 进行反应。</b></div></p>
    <p><div style='color:red;font-size:25px; line-height:20px;'>请尽可能快地进行计算，计算的速度和正确率将影响报酬的发放。</div></p>
    <p><div class='footer' style='color:white;font-size:25px; line-height:20px;'>如果对本实验还有不清楚之处，请立即向实验员咨询。</p><p style='color:white;font-size:25px; line-height:20px;'>如果您明白了规则：</p><p style='color:white;font-size:22px; line-height:20px;'>请按 继续 进入练习</p>
    </div>
    ","0","html-button-response","102","590884","0.0-7.0-4.0","5","7","5","6","6","4","4","4","5","4","4","-2","-3","1","0","2","1","0","1","4","3","4","5","4","5","4","2","4","5","6","8","7","8","5","9","6","8","6","5","6","5","7","5","6","6","6","5","6","1","5","6","1","7","5","6","6","5","7","5","3","7","6","5","5","6","6","6","6","7","7","6","5","2","7","5","5","6","5","1","688779620236918784","黄","601","Male","[""好我"",""坏我"",""坏他"",""好他""]","[""强我"",""弱我"",""弱他"",""强他""]","","","","","","","","","","","","","","","","","SRET_math","math_instructions","Tue Dec 19 2023 14:23:49 GMT+0800 (中国标准时间)","","","","","","","","","","","","","","","","","","","",""
"4166","","2","psychophysics","103","595054","0.0-7.0-5.0-0.0","5","7","5","6","6","4","4","4","5","4","4","-2","-3","1","0","2","1","0","1","4","3","4","5","4","5","4","2","4","5","6","8","7","8","5","9","6","8","6","5","6","5","7","5","6","6","6","5","6","1","5","6","1","7","5","6","6","5","7","5","3","7","6","5","5","6","6","6","6","7","7","6","5","2","7","5","5","6","5","1","688779620236918784","黄","601","Male","[""好我"",""坏我"",""坏他"",""好他""]","[""强我"",""弱我"",""弱他"",""强他""]","","","","","","","","2","","","","","","","","","SRET","SRET_math_calculate","","key","2","16.652581673307044","640","356","","","","","5-3= ?","2","1","","","","","","","",""
"4608","","9","psychophysics","104","599665","0.0-7.0-5.0-0.1","5","7","5","6","6","4","4","4","5","4","4","-2","-3","1","0","2","1","0","1","4","3","4","5","4","5","4","2","4","5","6","8","7","8","5","9","6","8","6","5","6","5","7","5","6","6","6","5","6","1","5","6","1","7","5","6","6","5","7","5","3","7","6","5","5","6","6","6","6","7","7","6","5","2","7","5","5","6","5","1","688779620236918784","黄","601","Male","[""好我"",""坏我"",""坏他"",""好他""]","[""强我"",""弱我"",""弱他"",""强他""]","","","","","","","","9","","","","","","","","","SRET","SRET_math_calculate","","key","9","16.653105072463706","640","356","","","","","43-34= ?","9","1","","","","","","","",""
"2542","","0","psychophysics","105","602211","0.0-7.0-5.0-0.2","5","7","5","6","6","4","4","4","5","4","4","-2","-3","1","0","2","1","0","1","4","3","4","5","4","5","4","2","4","5","6","8","7","8","5","9","6","8","6","5","6","5","7","5","6","6","6","5","6","1","5","6","1","7","5","6","6","5","7","5","3","7","6","5","5","6","6","6","6","7","7","6","5","2","7","5","5","6","5","1","688779620236918784","黄","601","Male","[""好我"",""坏我"",""坏他"",""好他""]","[""强我"",""弱我"",""弱他"",""强他""]","","","","","","","","0","","","","","","","","","SRET","SRET_math_calculate","","key","0","16.653105263157876","640","356","","","","","12-12= ?","0","1","","","","","","","",""
"3916","","2","psychophysics","106","606131","0.0-7.0-5.0-0.3","5","7","5","6","6","4","4","4","5","4","4","-2","-3","1","0","2","1","0","1","4","3","4","5","4","5","4","2","4","5","6","8","7","8","5","9","6","8","6","5","6","5","7","5","6","6","6","5","6","1","5","6","1","7","5","6","6","5","7","5","3","7","6","5","5","6","6","6","6","7","7","6","5","2","7","5","5","6","5","1","688779620236918784","黄","601","Male","[""好我"",""坏我"",""坏他"",""好他""]","[""强我"",""弱我"",""弱他"",""强他""]","","","","","","","","2","","","","","","","","","SRET","SRET_math_calculate","","key","2","16.652871794871782","640","356","","","","","12/6= ?","2","1","","","","","","","",""
"3926","","7","psychophysics","107","610059","0.0-7.0-5.0-0.4","5","7","5","6","6","4","4","4","5","4","4","-2","-3","1","0","2","1","0","1","4","3","4","5","4","5","4","2","4","5","6","8","7","8","5","9","6","8","6","5","6","5","7","5","6","6","6","5","6","1","5","6","1","7","5","6","6","5","7","5","3","7","6","5","5","6","6","6","6","7","7","6","5","2","7","5","5","6","5","1","688779620236918784","黄","601","Male","[""好我"",""坏我"",""坏他"",""好他""]","[""强我"",""弱我"",""弱他"",""强他""]","","","","","","","","7","","","","","","","","","SRET","SRET_math_calculate","","key","7","16.652944680850734","640","356","","","","","12-5= ?","7","1","","","","","","","",""
"4253","","6","psychophysics","108","614314","0.0-7.0-5.0-0.5","5","7","5","6","6","4","4","4","5","4","4","-2","-3","1","0","2","1","0","1","4","3","4","5","4","5","4","2","4","5","6","8","7","8","5","9","6","8","6","5","6","5","7","5","6","6","6","5","6","1","5","6","1","7","5","6","6","5","7","5","3","7","6","5","5","6","6","6","6","7","7","6","5","2","7","5","5","6","5","1","688779620236918784","黄","601","Male","[""好我"",""坏我"",""坏他"",""好他""]","[""强我"",""弱我"",""弱他"",""强他""]","","","","","","","","6","","","","","","","","","SRET","SRET_math_calculate","","key","6","16.65330708661441","640","356","","","","","11-5= ?","6","1","","","","","","","",""
"3514","","5","psychophysics","109","617830","0.0-7.0-5.0-0.6","5","7","5","6","6","4","4","4","5","4","4","-2","-3","1","0","2","1","0","1","4","3","4","5","4","5","4","2","4","5","6","8","7","8","5","9","6","8","6","5","6","5","7","5","6","6","6","5","6","1","5","6","1","7","5","6","6","5","7","5","3","7","6","5","5","6","6","6","6","7","7","6","5","2","7","5","5","6","5","1","688779620236918784","黄","601","Male","[""好我"",""坏我"",""坏他"",""好他""]","[""强我"",""弱我"",""弱他"",""强他""]","","","","","","","","5","","","","","","","","","SRET","SRET_math_calculate","","key","5","16.653304761904845","640","356","","","","","8-4= ?","4","0","","","","","","","",""
"2586","","8","psychophysics","110","620417","0.0-7.0-5.0-0.7","5","7","5","6","6","4","4","4","5","4","4","-2","-3","1","0","2","1","0","1","4","3","4","5","4","5","4","2","4","5","6","8","7","8","5","9","6","8","6","5","6","5","7","5","6","6","6","5","6","1","5","6","1","7","5","6","6","5","7","5","3","7","6","5","5","6","6","6","6","7","7","6","5","2","7","5","5","6","5","1","688779620236918784","黄","601","Male","[""好我"",""坏我"",""坏他"",""好他""]","[""强我"",""弱我"",""弱他"",""强他""]","","","","","","","","8","","","","","","","","","SRET","SRET_math_calculate","","key","8","16.653445161290225","640","356","","","","","7+1= ?","8","1","","","","","","","",""
"4145","","8","psychophysics","111","624565","0.0-7.0-5.0-0.8","5","7","5","6","6","4","4","4","5","4","4","-2","-3","1","0","2","1","0","1","4","3","4","5","4","5","4","2","4","5","6","8","7","8","5","9","6","8","6","5","6","5","7","5","6","6","6","5","6","1","5","6","1","7","5","6","6","5","7","5","3","7","6","5","5","6","6","6","6","7","7","6","5","2","7","5","5","6","5","1","688779620236918784","黄","601","Male","[""好我"",""坏我"",""坏他"",""好他""]","[""强我"",""弱我"",""弱他"",""强他""]","","","","","","","","8","","","","","","","","","SRET","SRET_math_calculate","","key","8","16.653016129032626","640","356","","","","","72/9= ?","8","1","","","","","","","",""
"4124","","7","psychophysics","112","628691","0.0-7.0-5.0-0.9","5","7","5","6","6","4","4","4","5","4","4","-2","-3","1","0","2","1","0","1","4","3","4","5","4","5","4","2","4","5","6","8","7","8","5","9","6","8","6","5","6","5","7","5","6","6","6","5","6","1","5","6","1","7","5","6","6","5","7","5","3","7","6","5","5","6","6","6","6","7","7","6","5","2","7","5","5","6","5","1","688779620236918784","黄","601","Male","[""好我"",""坏我"",""坏他"",""好他""]","[""强我"",""弱我"",""弱他"",""强他""]","","","","","","","","7","","","","","","","","","SRET","SRET_math_calculate","","key","7","16.653105263158054","640","356","","","","","21/3= ? ","7","1","","","","","","","",""
"4068","","6","psychophysics","113","632763","0.0-7.0-5.0-0.10","5","7","5","6","6","4","4","4","5","4","4","-2","-3","1","0","2","1","0","1","4","3","4","5","4","5","4","2","4","5","6","8","7","8","5","9","6","8","6","5","6","5","7","5","6","6","6","5","6","1","5","6","1","7","5","6","6","5","7","5","3","7","6","5","5","6","6","6","6","7","7","6","5","2","7","5","5","6","5","1","688779620236918784","黄","601","Male","[""好我"",""坏我"",""坏他"",""好他""]","[""强我"",""弱我"",""弱他"",""强他""]","","","","","","","","6","","","","","","","","","SRET","SRET_math_calculate","","key","6","16.653041152263427","640","356","","","","","9-3= ?","6","1","","","","","","","",""
"5404","","9","psychophysics","114","638170","0.0-7.0-5.0-0.11","5","7","5","6","6","4","4","4","5","4","4","-2","-3","1","0","2","1","0","1","4","3","4","5","4","5","4","2","4","5","6","8","7","8","5","9","6","8","6","5","6","5","7","5","6","6","6","5","6","1","5","6","1","7","5","6","6","5","7","5","3","7","6","5","5","6","6","6","6","7","7","6","5","2","7","5","5","6","5","1","688779620236918784","黄","601","Male","[""好我"",""坏我"",""坏他"",""好他""]","[""强我"",""弱我"",""弱他"",""强他""]","","","","","","","","9","","","","","","","","","SRET","SRET_math_calculate","","key","9","16.653197530864013","640","356","","","","","3*3= ?","9","1","","","","","","","",""
"2822","","9","psychophysics","115","640994","0.0-7.0-5.0-0.12","5","7","5","6","6","4","4","4","5","4","4","-2","-3","1","0","2","1","0","1","4","3","4","5","4","5","4","2","4","5","6","8","7","8","5","9","6","8","6","5","6","5","7","5","6","6","6","5","6","1","5","6","1","7","5","6","6","5","7","5","3","7","6","5","5","6","6","6","6","7","7","6","5","2","7","5","5","6","5","1","688779620236918784","黄","601","Male","[""好我"",""坏我"",""坏他"",""好他""]","[""强我"",""弱我"",""弱他"",""强他""]","","","","","","","","9","","","","","","","","","SRET","SRET_math_calculate","","key","9","16.65316666666643","640","356","","","","","22-22= ?","0","0","","","","","","","",""
"2213","","7","psychophysics","116","643208","0.0-7.0-5.0-0.13","5","7","5","6","6","4","4","4","5","4","4","-2","-3","1","0","2","1","0","1","4","3","4","5","4","5","4","2","4","5","6","8","7","8","5","9","6","8","6","5","6","5","7","5","6","6","6","5","6","1","5","6","1","7","5","6","6","5","7","5","3","7","6","5","5","6","6","6","6","7","7","6","5","2","7","5","5","6","5","1","688779620236918784","黄","601","Male","[""好我"",""坏我"",""坏他"",""好他""]","[""强我"",""弱我"",""弱他"",""强他""]","","","","","","","","7","","","","","","","","","SRET","SRET_math_calculate","","key","7","16.653037878787885","640","356","","","","","1+6= ?","7","1","","","","","","","",""
"4684","","9","psychophysics","117","647902","0.0-7.0-5.0-0.14","5","7","5","6","6","4","4","4","5","4","4","-2","-3","1","0","2","1","0","1","4","3","4","5","4","5","4","2","4","5","6","8","7","8","5","9","6","8","6","5","6","5","7","5","6","6","6","5","6","1","5","6","1","7","5","6","6","5","7","5","3","7","6","5","5","6","6","6","6","7","7","6","5","2","7","5","5","6","5","1","688779620236918784","黄","601","Male","[""好我"",""坏我"",""坏他"",""好他""]","[""强我"",""弱我"",""弱他"",""强他""]","","","","","","","","9","","","","","","","","","SRET","SRET_math_calculate","","key","9","16.653263345195867","640","356","","","","","3+6= ?","9","1","","","","","","","",""
"2186","","5","psychophysics","118","650090","0.0-7.0-5.0-0.15","5","7","5","6","6","4","4","4","5","4","4","-2","-3","1","0","2","1","0","1","4","3","4","5","4","5","4","2","4","5","6","8","7","8","5","9","6","8","6","5","6","5","7","5","6","6","6","5","6","1","5","6","1","7","5","6","6","5","7","5","3","7","6","5","5","6","6","6","6","7","7","6","5","2","7","5","5","6","5","1","688779620236918784","黄","601","Male","[""好我"",""坏我"",""坏他"",""好他""]","[""强我"",""弱我"",""弱他"",""强他""]","","","","","","","","5","","","","","","","","","SRET","SRET_math_calculate","","key","5","16.652877862595435","640","356","","","","","2+3= ?","5","1","","","","","","","",""
"4064","","7","psychophysics","119","654158","0.0-7.0-5.0-0.16","5","7","5","6","6","4","4","4","5","4","4","-2","-3","1","0","2","1","0","1","4","3","4","5","4","5","4","2","4","5","6","8","7","8","5","9","6","8","6","5","6","5","7","5","6","6","6","5","6","1","5","6","1","7","5","6","6","5","7","5","3","7","6","5","5","6","6","6","6","7","7","6","5","2","7","5","5","6","5","1","688779620236918784","黄","601","Male","[""好我"",""坏我"",""坏他"",""好他""]","[""强我"",""弱我"",""弱他"",""强他""]","","","","","","","","7","","","","","","","","","SRET","SRET_math_calculate","","key","7","16.653037037036896","640","356","","","","","49/7 = ?","7","1","","","","","","","",""
"4305","","6","psychophysics","120","658465","0.0-7.0-5.0-0.17","5","7","5","6","6","4","4","4","5","4","4","-2","-3","1","0","2","1","0","1","4","3","4","5","4","5","4","2","4","5","6","8","7","8","5","9","6","8","6","5","6","5","7","5","6","6","6","5","6","1","5","6","1","7","5","6","6","5","7","5","3","7","6","5","5","6","6","6","6","7","7","6","5","2","7","5","5","6","5","1","688779620236918784","黄","601","Male","[""好我"",""坏我"",""坏他"",""好他""]","[""强我"",""弱我"",""弱他"",""强他""]","","","","","","","","6","","","","","","","","","SRET","SRET_math_calculate","","key","6","16.652968871595196","640","356","","","","","2*3= ?","6","1","","","","","","","",""
"4016","","2","psychophysics","121","662487","0.0-7.0-5.0-0.18","5","7","5","6","6","4","4","4","5","4","4","-2","-3","1","0","2","1","0","1","4","3","4","5","4","5","4","2","4","5","6","8","7","8","5","9","6","8","6","5","6","5","7","5","6","6","6","5","6","1","5","6","1","7","5","6","6","5","7","5","3","7","6","5","5","6","6","6","6","7","7","6","5","2","7","5","5","6","5","1","688779620236918784","黄","601","Male","[""好我"",""坏我"",""坏他"",""好他""]","[""强我"",""弱我"",""弱他"",""强他""]","","","","","","","","2","","","","","","","","","SRET","SRET_math_calculate","","key","2","16.6533029045643","640","356","","","","","22/11= ?","2","1","","","","","","","",""
"3227","","8","psychophysics","122","665715","0.0-7.0-5.0-0.19","5","7","5","6","6","4","4","4","5","4","4","-2","-3","1","0","2","1","0","1","4","3","4","5","4","5","4","2","4","5","6","8","7","8","5","9","6","8","6","5","6","5","7","5","6","6","6","5","6","1","5","6","1","7","5","6","6","5","7","5","3","7","6","5","5","6","6","6","6","7","7","6","5","2","7","5","5","6","5","1","688779620236918784","黄","601","Male","[""好我"",""坏我"",""坏他"",""好他""]","[""强我"",""弱我"",""弱他"",""强他""]","","","","","","","","8","","","","","","","","","SRET","SRET_math_calculate","","key","8","16.65248704663239","640","356","","","","","2+6= ?","8","1","","","","","","","",""
"2269","","7","psychophysics","123","667985","0.0-7.0-5.0-0.20","5","7","5","6","6","4","4","4","5","4","4","-2","-3","1","0","2","1","0","1","4","3","4","5","4","5","4","2","4","5","6","8","7","8","5","9","6","8","6","5","6","5","7","5","6","6","6","5","6","1","5","6","1","7","5","6","6","5","7","5","3","7","6","5","5","6","6","6","6","7","7","6","5","2","7","5","5","6","5","1","688779620236918784","黄","601","Male","[""好我"",""坏我"",""坏他"",""好他""]","[""强我"",""弱我"",""弱他"",""强他""]","","","","","","","","7","","","","","","","","","SRET","SRET_math_calculate","","key","7","16.653014814814863","640","356","","","","","6+1= ?","7","1","","","","","","","",""
"2451","","5","psychophysics","124","670437","0.0-7.0-5.0-0.21","5","7","5","6","6","4","4","4","5","4","4","-2","-3","1","0","2","1","0","1","4","3","4","5","4","5","4","2","4","5","6","8","7","8","5","9","6","8","6","5","6","5","7","5","6","6","6","5","6","1","5","6","1","7","5","6","6","5","7","5","3","7","6","5","5","6","6","6","6","7","7","6","5","2","7","5","5","6","5","1","688779620236918784","黄","601","Male","[""好我"",""坏我"",""坏他"",""好他""]","[""强我"",""弱我"",""弱他"",""强他""]","","","","","","","","5","","","","","","","","","SRET","SRET_math_calculate","","key","5","16.65247260273932","640","356","","","","","15-10= ?","5","1","","","","","","","",""
"2134","","6","psychophysics","125","672579","0.0-7.0-5.0-0.22","5","7","5","6","6","4","4","4","5","4","4","-2","-3","1","0","2","1","0","1","4","3","4","5","4","5","4","2","4","5","6","8","7","8","5","9","6","8","6","5","6","5","7","5","6","6","6","5","6","1","5","6","1","7","5","6","6","5","7","5","3","7","6","5","5","6","6","6","6","7","7","6","5","2","7","5","5","6","5","1","688779620236918784","黄","601","Male","[""好我"",""坏我"",""坏他"",""好他""]","[""强我"",""弱我"",""弱他"",""强他""]","","","","","","","","6","","","","","","","","","SRET","SRET_math_calculate","","key","6","16.653000000000247","640","356","","","","","3+3= ?","6","1","","","","","","","",""
"3754","","8","psychophysics","126","676334","0.0-7.0-5.0-0.23","5","7","5","6","6","4","4","4","5","4","4","-2","-3","1","0","2","1","0","1","4","3","4","5","4","5","4","2","4","5","6","8","7","8","5","9","6","8","6","5","6","5","7","5","6","6","6","5","6","1","5","6","1","7","5","6","6","5","7","5","3","7","6","5","5","6","6","6","6","7","7","6","5","2","7","5","5","6","5","1","688779620236918784","黄","601","Male","[""好我"",""坏我"",""坏他"",""好他""]","[""强我"",""弱我"",""弱他"",""强他""]","","","","","","","","8","","","","","","","","","SRET","SRET_math_calculate","","key","8","16.65290222222244","640","356","","","","","3+5= ?","8","1","","","","","","","",""
"4713","","3","psychophysics","127","681051","0.0-7.0-5.0-0.24","5","7","5","6","6","4","4","4","5","4","4","-2","-3","1","0","2","1","0","1","4","3","4","5","4","5","4","2","4","5","6","8","7","8","5","9","6","8","6","5","6","5","7","5","6","6","6","5","6","1","5","6","1","7","5","6","6","5","7","5","3","7","6","5","5","6","6","6","6","7","7","6","5","2","7","5","5","6","5","1","688779620236918784","黄","601","Male","[""好我"",""坏我"",""坏他"",""好他""]","[""强我"",""弱我"",""弱他"",""强他""]","","","","","","","","3","","","","","","","","","SRET","SRET_math_calculate","","key","3","16.652989361702268","640","356","","","","","21/7=  ?","3","1","","","","","","","",""
"3885","","3","psychophysics","128","684938","0.0-7.0-5.0-0.25","5","7","5","6","6","4","4","4","5","4","4","-2","-3","1","0","2","1","0","1","4","3","4","5","4","5","4","2","4","5","6","8","7","8","5","9","6","8","6","5","6","5","7","5","6","6","6","5","6","1","5","6","1","7","5","6","6","5","7","5","3","7","6","5","5","6","6","6","6","7","7","6","5","2","7","5","5","6","5","1","688779620236918784","黄","601","Male","[""好我"",""坏我"",""坏他"",""好他""]","[""强我"",""弱我"",""弱他"",""强他""]","","","","","","","","3","","","","","","","","","SRET","SRET_math_calculate","","key","3","16.653379310344462","640","356","","","","","6/2= ?","3","1","","","","","","","",""
"2861","","1","psychophysics","129","687802","0.0-7.0-5.0-0.26","5","7","5","6","6","4","4","4","5","4","4","-2","-3","1","0","2","1","0","1","4","3","4","5","4","5","4","2","4","5","6","8","7","8","5","9","6","8","6","5","6","5","7","5","6","6","6","5","6","1","5","6","1","7","5","6","6","5","7","5","3","7","6","5","5","6","6","6","6","7","7","6","5","2","7","5","5","6","5","1","688779620236918784","黄","601","Male","[""好我"",""坏我"",""坏他"",""好他""]","[""强我"",""弱我"",""弱他"",""强他""]","","","","","","","","1","","","","","","","","","SRET","SRET_math_calculate","","key","1","16.65329824561425","640","356","","","","","30-29= ?","1","1","","","","","","","",""
"4713","","9","psychophysics","130","692517","0.0-7.0-5.0-0.27","5","7","5","6","6","4","4","4","5","4","4","-2","-3","1","0","2","1","0","1","4","3","4","5","4","5","4","2","4","5","6","8","7","8","5","9","6","8","6","5","6","5","7","5","6","6","6","5","6","1","5","6","1","7","5","6","6","5","7","5","3","7","6","5","5","6","6","6","6","7","7","6","5","2","7","5","5","6","5","1","688779620236918784","黄","601","Male","[""好我"",""坏我"",""坏他"",""好他""]","[""强我"",""弱我"",""弱他"",""强他""]","","","","","","","","9","","","","","","","","","SRET","SRET_math_calculate","","key","9","16.653265957446877","640","356","","","","","18/2= ?","9","1","","","","","","","",""
"4094","","7","psychophysics","131","696612","0.0-7.0-5.0-0.28","5","7","5","6","6","4","4","4","5","4","4","-2","-3","1","0","2","1","0","1","4","3","4","5","4","5","4","2","4","5","6","8","7","8","5","9","6","8","6","5","6","5","7","5","6","6","6","5","6","1","5","6","1","7","5","6","6","5","7","5","3","7","6","5","5","6","6","6","6","7","7","6","5","2","7","5","5","6","5","1","688779620236918784","黄","601","Male","[""好我"",""坏我"",""坏他"",""好他""]","[""强我"",""弱我"",""弱他"",""强他""]","","","","","","","","7","","","","","","","","","SRET","SRET_math_calculate","","key","7","16.65277551020429","640","356","","","","","13-6= ?","7","1","","","","","","","",""
"3840","","2","psychophysics","132","700454","0.0-7.0-5.0-0.29","5","7","5","6","6","4","4","4","5","4","4","-2","-3","1","0","2","1","0","1","4","3","4","5","4","5","4","2","4","5","6","8","7","8","5","9","6","8","6","5","6","5","7","5","6","6","6","5","6","1","5","6","1","7","5","6","6","5","7","5","3","7","6","5","5","6","6","6","6","7","7","6","5","2","7","5","5","6","5","1","688779620236918784","黄","601","Male","[""好我"",""坏我"",""坏他"",""好他""]","[""强我"",""弱我"",""弱他"",""强他""]","","","","","","","","2","","","","","","","","","SRET","SRET_math_calculate","","key","2","16.652917391304232","640","356","","","","","19-17= ?","2","1","","","","","","","",""
"3665","","7","psychophysics","133","704122","0.0-7.0-5.0-0.30","5","7","5","6","6","4","4","4","5","4","4","-2","-3","1","0","2","1","0","1","4","3","4","5","4","5","4","2","4","5","6","8","7","8","5","9","6","8","6","5","6","5","7","5","6","6","6","5","6","1","5","6","1","7","5","6","6","5","7","5","3","7","6","5","5","6","6","6","6","7","7","6","5","2","7","5","5","6","5","1","688779620236918784","黄","601","Male","[""好我"",""坏我"",""坏他"",""好他""]","[""强我"",""弱我"",""弱他"",""强他""]","","","","","","","","7","","","","","","","","","SRET","SRET_math_calculate","","key","7","16.653022831050173","640","356","","","","","11-4= ?","7","1","","","","","","","",""
"4792","","4","psychophysics","134","708917","0.0-7.0-5.0-0.31","5","7","5","6","6","4","4","4","5","4","4","-2","-3","1","0","2","1","0","1","4","3","4","5","4","5","4","2","4","5","6","8","7","8","5","9","6","8","6","5","6","5","7","5","6","6","6","5","6","1","5","6","1","7","5","6","6","5","7","5","3","7","6","5","5","6","6","6","6","7","7","6","5","2","7","5","5","6","5","1","688779620236918784","黄","601","Male","[""好我"",""坏我"",""坏他"",""好他""]","[""强我"",""弱我"",""弱他"",""强他""]","","","","","","","","4","","","","","","","","","SRET","SRET_math_calculate","","key","4","16.653024390244124","640","356","","","","","4*1= ?","4","1","","","","","","","",""
"4892","","1","psychophysics","135","713810","0.0-7.0-5.0-0.32","5","7","5","6","6","4","4","4","5","4","4","-2","-3","1","0","2","1","0","1","4","3","4","5","4","5","4","2","4","5","6","8","7","8","5","9","6","8","6","5","6","5","7","5","6","6","6","5","6","1","5","6","1","7","5","6","6","5","7","5","3","7","6","5","5","6","6","6","6","7","7","6","5","2","7","5","5","6","5","1","688779620236918784","黄","601","Male","[""好我"",""坏我"",""坏他"",""好他""]","[""强我"",""弱我"",""弱他"",""强他""]","","","","","","","","1","","","","","","","","","SRET","SRET_math_calculate","","key","1","16.653310580204526","640","356","","","","","12/12= ?","1","1","","","","","","","",""
"4350","","8","psychophysics","136","718163","0.0-7.0-5.0-0.33","5","7","5","6","6","4","4","4","5","4","4","-2","-3","1","0","2","1","0","1","4","3","4","5","4","5","4","2","4","5","6","8","7","8","5","9","6","8","6","5","6","5","7","5","6","6","6","5","6","1","5","6","1","7","5","6","6","5","7","5","3","7","6","5","5","6","6","6","6","7","7","6","5","2","7","5","5","6","5","1","688779620236918784","黄","601","Male","[""好我"",""坏我"",""坏他"",""好他""]","[""强我"",""弱我"",""弱他"",""强他""]","","","","","","","","8","","","","","","","","","SRET","SRET_math_calculate","","key","8","16.65325384615392","640","356","","","","","11-3= ?","8","1","","","","","","","",""
"2229","","7","psychophysics","137","720394","0.0-7.0-5.0-0.34","5","7","5","6","6","4","4","4","5","4","4","-2","-3","1","0","2","1","0","1","4","3","4","5","4","5","4","2","4","5","6","8","7","8","5","9","6","8","6","5","6","5","7","5","6","6","6","5","6","1","5","6","1","7","5","6","6","5","7","5","3","7","6","5","5","6","6","6","6","7","7","6","5","2","7","5","5","6","5","1","688779620236918784","黄","601","Male","[""好我"",""坏我"",""坏他"",""好他""]","[""强我"",""弱我"",""弱他"",""强他""]","","","","","","","","7","","","","","","","","","SRET","SRET_math_calculate","","key","7","16.65355639097708","640","356","","","","","8-1= ?","7","1","","","","","","","",""
"3231","","0","psychophysics","138","723626","0.0-7.0-5.0-0.35","5","7","5","6","6","4","4","4","5","4","4","-2","-3","1","0","2","1","0","1","4","3","4","5","4","5","4","2","4","5","6","8","7","8","5","9","6","8","6","5","6","5","7","5","6","6","6","5","6","1","5","6","1","7","5","6","6","5","7","5","3","7","6","5","5","6","6","6","6","7","7","6","5","2","7","5","5","6","5","1","688779620236918784","黄","601","Male","[""好我"",""坏我"",""坏他"",""好他""]","[""强我"",""弱我"",""弱他"",""强他""]","","","","","","","","0","","","","","","","","","SRET","SRET_math_calculate","","key","0","16.652927461139367","640","356","","","","","32-32= ?","0","1","","","","","","","",""
"3896","","3","psychophysics","139","727524","0.0-7.0-5.0-0.36","5","7","5","6","6","4","4","4","5","4","4","-2","-3","1","0","2","1","0","1","4","3","4","5","4","5","4","2","4","5","6","8","7","8","5","9","6","8","6","5","6","5","7","5","6","6","6","5","6","1","5","6","1","7","5","6","6","5","7","5","3","7","6","5","5","6","6","6","6","7","7","6","5","2","7","5","5","6","5","1","688779620236918784","黄","601","Male","[""好我"",""坏我"",""坏他"",""好他""]","[""强我"",""弱我"",""弱他"",""强他""]","","","","","","","","3","","","","","","","","","SRET","SRET_math_calculate","","key","3","16.653042918454872","640","356","","","","","9/3= ?","3","1","","","","","","","",""
"3648","","1","psychophysics","140","731179","0.0-7.0-5.0-0.37","5","7","5","6","6","4","4","4","5","4","4","-2","-3","1","0","2","1","0","1","4","3","4","5","4","5","4","2","4","5","6","8","7","8","5","9","6","8","6","5","6","5","7","5","6","6","6","5","6","1","5","6","1","7","5","6","6","5","7","5","3","7","6","5","5","6","6","6","6","7","7","6","5","2","7","5","5","6","5","1","688779620236918784","黄","601","Male","[""好我"",""坏我"",""坏他"",""好他""]","[""强我"",""弱我"",""弱他"",""强他""]","","","","","","","","1","","","","","","","","","SRET","SRET_math_calculate","","key","1","16.653219178081894","640","356","","","","","10-9= ?","1","1","","","","","","","",""
"2258","","9","psychophysics","141","733439","0.0-7.0-5.0-0.38","5","7","5","6","6","4","4","4","5","4","4","-2","-3","1","0","2","1","0","1","4","3","4","5","4","5","4","2","4","5","6","8","7","8","5","9","6","8","6","5","6","5","7","5","6","6","6","5","6","1","5","6","1","7","5","6","6","5","7","5","3","7","6","5","5","6","6","6","6","7","7","6","5","2","7","5","5","6","5","1","688779620236918784","黄","601","Male","[""好我"",""坏我"",""坏他"",""好他""]","[""强我"",""弱我"",""弱他"",""强他""]","","","","","","","","9","","","","","","","","","SRET","SRET_math_calculate","","key","9","16.652925925926063","640","356","","","","","1+8= ?","9","1","","","","","","","",""
