"rt","stimulus","response","trial_type","trial_index","time_elapsed","internal_node_id","swb_1","swb_2","swb_3","swb_4","swb_5","LOT_1","LOT_2","LOT_3","LOT_4","LOT_5","LOT_6","IPC_1","IPC_2","IPC_3","IPC_4","IPC_5","IPC_6","IPC_7","IPC_8","MorIden_1","MorIden_2","MorIden_3","MorIden_4","MorIden_5","MorIden_6","MorIden_7","MorIden_8","MorIden_9","MorIden_10","moralSeImag_1","moralSeImag_2","moralSeImag_3","moralSeImag_4","moralSeImag_5","moralSeImag_6","moralSeImag_7","moralSeImag_8","moralSeImag_9","sde_1","sde_2","sde_3","sde_4","sde_5","sde_6","sde_7","sde_8","sde_9","sde_10","trap2","sde_11","sde_12","sde_13","sde_14","sde_15","sde_16","sde_17","sde_18","sde_19","sde_20","IM_1","IM_2","IM_3","IM_4","IM_5","IM_6","IM_7","IM_8","IM_9","IM_10","IM_11","IM_12","IM_13","IM_14","IM_15","IM_16","IM_17","IM_18","IM_19","IM_20","subj_idx","friend_name","ParticipantID","Sex","Word","Word2","value","success","timeout","failed_images","failed_audio","failed_video","user_agent","responses","item_order","radio_event_ids","radio_event_times","key_event_times","mouse_event_times","straightlining","zigzagging","honeypot","task_id","screen_id","time_stamp","response_type","key_press","avg_frame_time","center_x","center_y","person","word","valence","domain","math","correct_response","correct","status","identity","view_history","duration","Image","condition","question_order","trap2_item"
"9047","
   <p><div style='color:white; font-size: 25px'>您好，欢迎参加本次实验。</div></p>
   <p><div style='color:white; font-size: 25px'>为充分保障您的权利，请确保您已经知晓并同意《参与实验同意书》以及《数据公开知情同意书》。</div></p>
   <p><div style='color:white; font-size: 25px'>如果您未见过上述内容，请咨询实验员。</div></p>
   <p style='color:white; font-size: 25px'>如果您选择继续实验，则表示您已经清楚两份知情同意书的内容并同意。</p>
   <p><div style = ""color: pink;font-size:30px;"">请确保您记得day0的实验编号，您将在本次实验输入该编号，若您忘记，请咨询实验员后作答。</div></p>
   <p><div style = ""color:lightblue;font-size:25px;"">请您尽可能认真地作答，我们将依据您在各问卷和按键任务中的作答质量发放报酬。</div></p>
   <p> <div style = ""color: green""><按空格键至下页></div> </p>
   "," ","html-keyboard-response","0","9060","0.0-0.0","6","5","6","5","5","4","4","4","4","4","4","1","0","0","0","0","0","0","1","4","4","4","4","4","4","4","4","4","4","6","7","7","7","6","7","6","7","7","5","6","3","5","5","5","3","5","5","5","1","5","5","5","5","5","6","5","5","5","5","3","5","3","5","3","5","6","5","6","5","5","6","6","5","3","5","6","5","5","3","687758948400365568","黄","88","Female","[""好她"",""坏她"",""好我"",""坏我""]","[""强她"",""弱她"",""强我"",""弱我""]","","","","","","","","","","","","","","","","","","","","","","","","","","","","","","","","","","","","","","",""
"","","","call-function","1","9068","0.0-1.0-0.0","6","5","6","5","5","4","4","4","4","4","4","1","0","0","0","0","0","0","1","4","4","4","4","4","4","4","4","4","4","6","7","7","7","6","7","6","7","7","5","6","3","5","5","5","3","5","5","5","1","5","5","5","5","5","6","5","5","5","5","3","5","3","5","3","5","6","5","6","5","5","6","6","5","3","5","6","5","5","3","687758948400365568","黄","88","Female","[""好她"",""坏她"",""好我"",""坏我""]","[""强她"",""弱她"",""强我"",""弱我""]","","","","","","","","","","","","","","","","","","","","","","","","","","","","","","","","","","","","","","",""
"24250","","[{""name"":""Sex"",""value"":""1""},{""name"":""friend_name"",""value"":""黄""},{""name"":""ParticipantID"",""value"":""88""}]","survey-html-form","2","33321","0.0-1.0-1.0","6","5","6","5","5","4","4","4","4","4","4","1","0","0","0","0","0","0","1","4","4","4","4","4","4","4","4","4","4","6","7","7","7","6","7","6","7","7","5","6","3","5","5","5","3","5","5","5","1","5","5","5","5","5","6","5","5","5","5","3","5","3","5","3","5","6","5","6","5","5","6","6","5","3","5","6","5","5","3","687758948400365568","黄","88","Female","[""好她"",""坏她"",""好我"",""坏我""]","[""强她"",""弱她"",""强我"",""弱我""]","","","","","","","","","","","","","","","","","","","","","","","","","","","","","","","","","","","","","","",""
"","","","preload","3","33653","0.0-2.0","6","5","6","5","5","4","4","4","4","4","4","1","0","0","0","0","0","0","1","4","4","4","4","4","4","4","4","4","4","6","7","7","7","6","7","6","7","7","5","6","3","5","5","5","3","5","5","5","1","5","5","5","5","5","6","5","5","5","5","3","5","3","5","3","5","6","5","6","5","5","6","6","5","3","5","6","5","5","3","687758948400365568","黄","88","Female","[""好她"",""坏她"",""好我"",""坏我""]","[""强她"",""弱她"",""强我"",""弱我""]","","true","false","[]","[]","[]","","","","","","","","","","","","","","","","","","","","","","","","","","","","","","","","",""
"","","","fullscreen","4","41175","0.0-3.0","6","5","6","5","5","4","4","4","4","4","4","1","0","0","0","0","0","0","1","4","4","4","4","4","4","4","4","4","4","6","7","7","7","6","7","6","7","7","5","6","3","5","5","5","3","5","5","5","1","5","5","5","5","5","6","5","5","5","5","3","5","3","5","3","5","6","5","6","5","5","6","6","5","3","5","6","5","5","3","687758948400365568","黄","88","Female","[""好她"",""坏她"",""好我"",""坏我""]","[""强她"",""弱她"",""强我"",""弱我""]","","true","","","","","{}","","","","","","","","","","","","","","","","","","","","","","","","","","","","","","","",""
"56084.299999952316","","{""Q01"":""6"",""Q02"":""5"",""Q03"":""6"",""Q04"":""5"",""Q05"":""5""}","survey-template","5","97266","0.0-4.0","6","5","6","5","5","4","4","4","4","4","4","1","0","0","0","0","0","0","1","4","4","4","4","4","4","4","4","4","4","6","7","7","7","6","7","6","7","7","5","6","3","5","5","5","3","5","5","5","1","5","5","5","5","5","6","5","5","5","5","3","5","3","5","3","5","6","5","6","5","5","6","6","5","3","5","6","5","5","3","687758948400365568","黄","88","Female","[""好她"",""坏她"",""好我"",""坏我""]","[""强她"",""弱她"",""强我"",""弱我""]","","","","","","","","{""Q01"":""6"",""Q02"":""5"",""Q03"":""6"",""Q04"":""5"",""Q05"":""5""}","[0,1,2,3,4]","[""Q01"",""Q02"",""Q03"",""Q04"",""Q05""]","[27686,32383.299999952316,35894.90000009537,37950.60000014305,43583.299999952316]","[]","[27686,30055.5,32383.299999952316,35894.90000009537,37950.60000014305,43583.299999952316,56079.40000009537]","0.6","0.75","0","","","","","","","","","","","","","","","","","","","","","","",""
"35362.59999990463","","{""Q01"":""4"",""Q02"":""4"",""Q03"":""4"",""Q04"":""4"",""Q05"":""4"",""Q06"":""4""}","survey-template","6","132648","0.0-5.0","6","5","6","5","5","4","4","4","4","4","4","1","0","0","0","0","0","0","1","4","4","4","4","4","4","4","4","4","4","6","7","7","7","6","7","6","7","7","5","6","3","5","5","5","3","5","5","5","1","5","5","5","5","5","6","5","5","5","5","3","5","3","5","3","5","6","5","6","5","5","6","6","5","3","5","6","5","5","3","687758948400365568","黄","88","Female","[""好她"",""坏她"",""好我"",""坏我""]","[""强她"",""弱她"",""强我"",""弱我""]","","","","","","","","{""Q01"":""4"",""Q02"":""4"",""Q03"":""4"",""Q04"":""4"",""Q05"":""4"",""Q06"":""4""}","[0,1,2,3,4,5]","[""Q01"",""Q02"",""Q03"",""Q05"",""Q06"",""Q04""]","[5847,11503.299999952316,12447.5,17232.700000047684,22631.299999952316,29120]","[]","[5847,11503.299999952316,12447.5,15031.900000095367,17232.700000047684,22631.299999952316,23838.099999904633,29120,35359.59999990463]","0.5","0","0","","","","","","","","","","","","","","","","","","","","","","",""
"23272.099999904633","","{""Q01"":""1"",""Q02"":""0"",""Q03"":""0"",""Q04"":""0"",""Q05"":""0"",""Q06"":""0"",""Q07"":""0"",""Q08"":""1""}","survey-template","7","155938","0.0-6.0","6","5","6","5","5","4","4","4","4","4","4","1","0","0","0","0","0","0","1","4","4","4","4","4","4","4","4","4","4","6","7","7","7","6","7","6","7","7","5","6","3","5","5","5","3","5","5","5","1","5","5","5","5","5","6","5","5","5","5","3","5","3","5","3","5","6","5","6","5","5","6","6","5","3","5","6","5","5","3","687758948400365568","黄","88","Female","[""好她"",""坏她"",""好我"",""坏我""]","[""强她"",""弱她"",""强我"",""弱我""]","","","","","","","","{""Q01"":""1"",""Q02"":""0"",""Q03"":""0"",""Q04"":""0"",""Q05"":""0"",""Q06"":""0"",""Q07"":""0"",""Q08"":""1""}","[0,1,2,3,4,5,6,7]","[""Q01"",""Q02"",""Q03"",""Q04"",""Q05"",""Q06"",""Q07"",""Q08""]","[4906.399999856949,8026.599999904633,11901.199999809265,13794.799999952316,15010,16313.099999904633,18498.199999809265,22514.39999985695]","[]","[4906.399999856949,8026.599999904633,11901.199999809265,13794.799999952316,15010,16313.099999904633,18498.199999809265,22514.39999985695,23266.199999809265]","0.75","0.2857142857142857","0","","","","","","","","","","","","","","","","","","","","","","",""
"13696","
    <p><div style='color:white;font-size:35px; line-height:20px;'>词汇评估任务</div></p><br>
    <p><div style='color:white;font-size:25px; line-height:20px;'>请再次回忆该亲密的朋友，你们至少2年前就认识了，并且最近2年经常见面。</div></p>
    <p><div style='color:white;font-size:25px; line-height:20px;'>在本实验中，您将会看到一些形容词。</div></p>
    <p><div style='color:yellow;font-size:25px; line-height:20px;'>您的任务是判断这些形容词是否符合对您自己或您的朋友的描述。</div></p><p style='font-size:35px'>符合按<span style=""color:lightgreen""> f 键</span>，不符合按<span style=""color:red""> j 键</span></p>","0","html-button-response","8","169650","0.0-7.0-0.0","6","5","6","5","5","4","4","4","4","4","4","1","0","0","0","0","0","0","1","4","4","4","4","4","4","4","4","4","4","6","7","7","7","6","7","6","7","7","5","6","3","5","5","5","3","5","5","5","1","5","5","5","5","5","6","5","5","5","5","3","5","3","5","3","5","6","5","6","5","5","6","6","5","3","5","6","5","5","3","687758948400365568","黄","88","Female","[""好她"",""坏她"",""好我"",""坏我""]","[""强她"",""弱她"",""强我"",""弱我""]","","","","","","","","","","","","","","","","","SRET_EW","EW_instructions","Tue Dec 19 2023 16:40:43 GMT+0800 (中国标准时间)","","","","","","","","","","","","","","","","","","","",""
"1126","","f","psychophysics","9","171790","0.0-7.0-1.0-0.0","6","5","6","5","5","4","4","4","4","4","4","1","0","0","0","0","0","0","1","4","4","4","4","4","4","4","4","4","4","6","7","7","7","6","7","6","7","7","5","6","3","5","5","5","3","5","5","5","1","5","5","5","5","5","6","5","5","5","5","3","5","3","5","3","5","6","5","6","5","5","6","6","5","3","5","6","5","5","3","687758948400365568","黄","88","Female","[""好她"",""坏她"",""好我"",""坏我""]","[""强她"",""弱她"",""强我"",""弱我""]","","","","","","","","yes","","","","","","","","","SRET_EW","EW_practice","","key","f","16.793488188976273","710.8333521639864","395.83334381933594","自己","严谨","Positive","ability","","","","","","","","","","",""
"1811","","f","psychophysics","10","174607","0.0-7.0-1.0-0.1","6","5","6","5","5","4","4","4","4","4","4","1","0","0","0","0","0","0","1","4","4","4","4","4","4","4","4","4","4","6","7","7","7","6","7","6","7","7","5","6","3","5","5","5","3","5","5","5","1","5","5","5","5","5","6","5","5","5","5","3","5","3","5","3","5","6","5","6","5","5","6","6","5","3","5","6","5","5","3","687758948400365568","黄","88","Female","[""好她"",""坏她"",""好我"",""坏我""]","[""强她"",""弱她"",""强我"",""弱我""]","","","","","","","","yes","","","","","","","","","SRET_EW","EW_practice","","key","f","16.6655119047618","710.8333521639864","395.83334381933594","自己","刻板","Negative","ability","","","","","","","","","","",""
"1522","","j","psychophysics","11","177135","0.0-7.0-1.0-0.2","6","5","6","5","5","4","4","4","4","4","4","1","0","0","0","0","0","0","1","4","4","4","4","4","4","4","4","4","4","6","7","7","7","6","7","6","7","7","5","6","3","5","5","5","3","5","5","5","1","5","5","5","5","5","6","5","5","5","5","3","5","3","5","3","5","6","5","6","5","5","6","6","5","3","5","6","5","5","3","687758948400365568","黄","88","Female","[""好她"",""坏她"",""好我"",""坏我""]","[""强她"",""弱她"",""强我"",""弱我""]","","","","","","","","no","","","","","","","","","SRET_EW","EW_practice","","key","j","16.888147651006534","710.8333521639864","395.83334381933594","朋友","徇私","Negative","morality","","","","","","","","","","",""
"730","","f","psychophysics","12","178869","0.0-7.0-1.0-0.3","6","5","6","5","5","4","4","4","4","4","4","1","0","0","0","0","0","0","1","4","4","4","4","4","4","4","4","4","4","6","7","7","7","6","7","6","7","7","5","6","3","5","5","5","3","5","5","5","1","5","5","5","5","5","6","5","5","5","5","3","5","3","5","3","5","6","5","6","5","5","6","6","5","3","5","6","5","5","3","687758948400365568","黄","88","Female","[""好她"",""坏她"",""好我"",""坏我""]","[""强她"",""弱她"",""强我"",""弱我""]","","","","","","","","yes","","","","","","","","","SRET_EW","EW_practice","","key","f","16.663951456310564","710.8333521639864","395.83334381933594","朋友","忠实","Positive","morality","","","","","","","","","","",""
"11283","
    <p><div style='color:white;font-size:35px; line-height:20px;'>请您再次阅读实验要求</div></p><br>
    <p><div style='color:white;font-size:25px; line-height:20px;'>请回忆某一个亲密的朋友，你们至少2年前就认识了，并且最近2年经常见面。</div></p>
    <p><div style='color:white;font-size:25px; line-height:20px;'>在本实验中，您将会看到一些形容词。</div></p>
    <p><div style='color:yellow;font-size:25px; line-height:20px;'>您的任务是判断这些形容词是否符合对您自己或您的朋友的描述。</div></p>
    <p><div class='footer' style='font-size:25px; line-height:20px;'>如果对本实验还有不清楚之处，请立即向实验员咨询。</p><p style='font-size:25px; line-height:20px;'>如果您明白了规则：</p><p style='font-size:22px; line-height:20px;'>请按 继续 进入正式实验</p>
    </div>
    <p style='font-size:35px'>符合按<span style=""color:lightgreen""> f 键</span>，不符合按<span style=""color:red""> j 键</span></p>","0","html-button-response","13","190154","0.0-7.0-2.0","6","5","6","5","5","4","4","4","4","4","4","1","0","0","0","0","0","0","1","4","4","4","4","4","4","4","4","4","4","6","7","7","7","6","7","6","7","7","5","6","3","5","5","5","3","5","5","5","1","5","5","5","5","5","6","5","5","5","5","3","5","3","5","3","5","6","5","6","5","5","6","6","5","3","5","6","5","5","3","687758948400365568","黄","88","Female","[""好她"",""坏她"",""好我"",""坏我""]","[""强她"",""弱她"",""强我"",""弱我""]","","","","","","","","","","","","","","","","","SRET_EW","prac_instructions","Tue Dec 19 2023 16:40:43 GMT+0800 (中国标准时间)","","","","","","","","","","","","","","","","","","","",""
"675","","j","psychophysics","14","191834","0.0-7.0-3.0-0.0","6","5","6","5","5","4","4","4","4","4","4","1","0","0","0","0","0","0","1","4","4","4","4","4","4","4","4","4","4","6","7","7","7","6","7","6","7","7","5","6","3","5","5","5","3","5","5","5","1","5","5","5","5","5","6","5","5","5","5","3","5","3","5","3","5","6","5","6","5","5","6","6","5","3","5","6","5","5","3","687758948400365568","黄","88","Female","[""好她"",""坏她"",""好我"",""坏我""]","[""强她"",""弱她"",""强我"",""弱我""]","","","","","","","","no","","","","","","","","","SRET","EW_formal","","key","j","16.66297029702991","710.8333521639864","395.83334381933594","自己","说谎","Negative","morality","","","","","","","","","","",""
"873","","j","psychophysics","15","193714","0.0-7.0-3.0-0.1","6","5","6","5","5","4","4","4","4","4","4","1","0","0","0","0","0","0","1","4","4","4","4","4","4","4","4","4","4","6","7","7","7","6","7","6","7","7","5","6","3","5","5","5","3","5","5","5","1","5","5","5","5","5","6","5","5","5","5","3","5","3","5","3","5","6","5","6","5","5","6","6","5","3","5","6","5","5","3","687758948400365568","黄","88","Female","[""好她"",""坏她"",""好我"",""坏我""]","[""强她"",""弱她"",""强我"",""弱我""]","","","","","","","","no","","","","","","","","","SRET","EW_formal","","key","j","16.66623423423441","710.8333521639864","395.83334381933594","朋友","迷糊","Negative","ability","","","","","","","","","","",""
"638","","f","psychophysics","16","195361","0.0-7.0-3.0-0.2","6","5","6","5","5","4","4","4","4","4","4","1","0","0","0","0","0","0","1","4","4","4","4","4","4","4","4","4","4","6","7","7","7","6","7","6","7","7","5","6","3","5","5","5","3","5","5","5","1","5","5","5","5","5","6","5","5","5","5","3","5","3","5","3","5","6","5","6","5","5","6","6","5","3","5","6","5","5","3","687758948400365568","黄","88","Female","[""好她"",""坏她"",""好我"",""坏我""]","[""强她"",""弱她"",""强我"",""弱我""]","","","","","","","","yes","","","","","","","","","SRET","EW_formal","","key","f","17.012708333333347","710.8333521639864","395.83334381933594","自己","坚贞","Positive","morality","","","","","","","","","","",""
"1133","","f","psychophysics","17","197504","0.0-7.0-3.0-0.3","6","5","6","5","5","4","4","4","4","4","4","1","0","0","0","0","0","0","1","4","4","4","4","4","4","4","4","4","4","6","7","7","7","6","7","6","7","7","5","6","3","5","5","5","3","5","5","5","1","5","5","5","5","5","6","5","5","5","5","3","5","3","5","3","5","6","5","6","5","5","6","6","5","3","5","6","5","5","3","687758948400365568","黄","88","Female","[""好她"",""坏她"",""好我"",""坏我""]","[""强她"",""弱她"",""强我"",""弱我""]","","","","","","","","yes","","","","","","","","","SRET","EW_formal","","key","f","16.80000787401594","710.8333521639864","395.83334381933594","朋友","务实","Positive","ability","","","","","","","","","","",""
"641","","f","psychophysics","18","199152","0.0-7.0-3.0-0.4","6","5","6","5","5","4","4","4","4","4","4","1","0","0","0","0","0","0","1","4","4","4","4","4","4","4","4","4","4","6","7","7","7","6","7","6","7","7","5","6","3","5","5","5","3","5","5","5","1","5","5","5","5","5","6","5","5","5","5","3","5","3","5","3","5","6","5","6","5","5","6","6","5","3","5","6","5","5","3","687758948400365568","黄","88","Female","[""好她"",""坏她"",""好我"",""坏我""]","[""强她"",""弱她"",""强我"",""弱我""]","","","","","","","","yes","","","","","","","","","SRET","EW_formal","","key","f","16.666377551020336","710.8333521639864","395.83334381933594","朋友","果断","Positive","ability","","","","","","","","","","",""
"737","","f","psychophysics","19","200895","0.0-7.0-3.0-0.5","6","5","6","5","5","4","4","4","4","4","4","1","0","0","0","0","0","0","1","4","4","4","4","4","4","4","4","4","4","6","7","7","7","6","7","6","7","7","5","6","3","5","5","5","3","5","5","5","1","5","5","5","5","5","6","5","5","5","5","3","5","3","5","3","5","6","5","6","5","5","6","6","5","3","5","6","5","5","3","687758948400365568","黄","88","Female","[""好她"",""坏她"",""好我"",""坏我""]","[""强她"",""弱她"",""强我"",""弱我""]","","","","","","","","yes","","","","","","","","","SRET","EW_formal","","key","f","16.67006796116526","710.8333521639864","395.83334381933594","自己","热心","Positive","morality","","","","","","","","","","",""
"887","","j","psychophysics","20","202791","0.0-7.0-3.0-0.6","6","5","6","5","5","4","4","4","4","4","4","1","0","0","0","0","0","0","1","4","4","4","4","4","4","4","4","4","4","6","7","7","7","6","7","6","7","7","5","6","3","5","5","5","3","5","5","5","1","5","5","5","5","5","6","5","5","5","5","3","5","3","5","3","5","6","5","6","5","5","6","6","5","3","5","6","5","5","3","687758948400365568","黄","88","Female","[""好她"",""坏她"",""好我"",""坏我""]","[""强她"",""弱她"",""强我"",""弱我""]","","","","","","","","no","","","","","","","","","SRET","EW_formal","","key","j","16.811642857142683","710.8333521639864","395.83334381933594","朋友","业余","Negative","ability","","","","","","","","","","",""
"997","","j","psychophysics","21","204791","0.0-7.0-3.0-0.7","6","5","6","5","5","4","4","4","4","4","4","1","0","0","0","0","0","0","1","4","4","4","4","4","4","4","4","4","4","6","7","7","7","6","7","6","7","7","5","6","3","5","5","5","3","5","5","5","1","5","5","5","5","5","6","5","5","5","5","3","5","3","5","3","5","6","5","6","5","5","6","6","5","3","5","6","5","5","3","687758948400365568","黄","88","Female","[""好她"",""坏她"",""好我"",""坏我""]","[""强她"",""弱她"",""强我"",""弱我""]","","","","","","","","no","","","","","","","","","SRET","EW_formal","","key","j","16.6672100840335","710.8333521639864","395.83334381933594","朋友","逞强","Negative","ability","","","","","","","","","","",""
"897","","j","psychophysics","22","206698","0.0-7.0-3.0-0.8","6","5","6","5","5","4","4","4","4","4","4","1","0","0","0","0","0","0","1","4","4","4","4","4","4","4","4","4","4","6","7","7","7","6","7","6","7","7","5","6","3","5","5","5","3","5","5","5","1","5","5","5","5","5","6","5","5","5","5","3","5","3","5","3","5","6","5","6","5","5","6","6","5","3","5","6","5","5","3","687758948400365568","黄","88","Female","[""好她"",""坏她"",""好我"",""坏我""]","[""强她"",""弱她"",""强我"",""弱我""]","","","","","","","","no","","","","","","","","","SRET","EW_formal","","key","j","16.66492035398229","710.8333521639864","395.83334381933594","朋友","不孝","Negative","morality","","","","","","","","","","",""
"773","","f","psychophysics","23","208478","0.0-7.0-3.0-0.9","6","5","6","5","5","4","4","4","4","4","4","1","0","0","0","0","0","0","1","4","4","4","4","4","4","4","4","4","4","6","7","7","7","6","7","6","7","7","5","6","3","5","5","5","3","5","5","5","1","5","5","5","5","5","6","5","5","5","5","3","5","3","5","3","5","6","5","6","5","5","6","6","5","3","5","6","5","5","3","687758948400365568","黄","88","Female","[""好她"",""坏她"",""好我"",""坏我""]","[""强她"",""弱她"",""强我"",""弱我""]","","","","","","","","yes","","","","","","","","","SRET","EW_formal","","key","f","16.9891730769229","710.8333521639864","395.83334381933594","朋友","扎实","Positive","ability","","","","","","","","","","",""
"783","","j","psychophysics","24","210269","0.0-7.0-3.0-0.10","6","5","6","5","5","4","4","4","4","4","4","1","0","0","0","0","0","0","1","4","4","4","4","4","4","4","4","4","4","6","7","7","7","6","7","6","7","7","5","6","3","5","5","5","3","5","5","5","1","5","5","5","5","5","6","5","5","5","5","3","5","3","5","3","5","6","5","6","5","5","6","6","5","3","5","6","5","5","3","687758948400365568","黄","88","Female","[""好她"",""坏她"",""好我"",""坏我""]","[""强她"",""弱她"",""强我"",""弱我""]","","","","","","","","no","","","","","","","","","SRET","EW_formal","","key","j","16.66804672897196","710.8333521639864","395.83334381933594","自己","不良","Negative","morality","","","","","","","","","","",""
"846","","j","psychophysics","25","212120","0.0-7.0-3.0-0.11","6","5","6","5","5","4","4","4","4","4","4","1","0","0","0","0","0","0","1","4","4","4","4","4","4","4","4","4","4","6","7","7","7","6","7","6","7","7","5","6","3","5","5","5","3","5","5","5","1","5","5","5","5","5","6","5","5","5","5","3","5","3","5","3","5","6","5","6","5","5","6","6","5","3","5","6","5","5","3","687758948400365568","黄","88","Female","[""好她"",""坏她"",""好我"",""坏我""]","[""强她"",""弱她"",""强我"",""弱我""]","","","","","","","","no","","","","","","","","","SRET","EW_formal","","key","j","16.668954545454472","710.8333521639864","395.83334381933594","自己","昏庸","Negative","ability","","","","","","","","","","",""
"591","","f","psychophysics","26","213719","0.0-7.0-3.0-0.12","6","5","6","5","5","4","4","4","4","4","4","1","0","0","0","0","0","0","1","4","4","4","4","4","4","4","4","4","4","6","7","7","7","6","7","6","7","7","5","6","3","5","5","5","3","5","5","5","1","5","5","5","5","5","6","5","5","5","5","3","5","3","5","3","5","6","5","6","5","5","6","6","5","3","5","6","5","5","3","687758948400365568","黄","88","Female","[""好她"",""坏她"",""好我"",""坏我""]","[""强她"",""弱她"",""强我"",""弱我""]","","","","","","","","yes","","","","","","","","","SRET","EW_formal","","key","f","16.66981052631561","710.8333521639864","395.83334381933594","朋友","勤奋","Positive","ability","","","","","","","","","","",""
"749","","j","psychophysics","27","215474","0.0-7.0-3.0-0.13","6","5","6","5","5","4","4","4","4","4","4","1","0","0","0","0","0","0","1","4","4","4","4","4","4","4","4","4","4","6","7","7","7","6","7","6","7","7","5","6","3","5","5","5","3","5","5","5","1","5","5","5","5","5","6","5","5","5","5","3","5","3","5","3","5","6","5","6","5","5","6","6","5","3","5","6","5","5","3","687758948400365568","黄","88","Female","[""好她"",""坏她"",""好我"",""坏我""]","[""强她"",""弱她"",""强我"",""弱我""]","","","","","","","","no","","","","","","","","","SRET","EW_formal","","key","j","16.666365384615347","710.8333521639864","395.83334381933594","朋友","黑心","Negative","morality","","","","","","","","","","",""
"797","","j","psychophysics","28","217288","0.0-7.0-3.0-0.14","6","5","6","5","5","4","4","4","4","4","4","1","0","0","0","0","0","0","1","4","4","4","4","4","4","4","4","4","4","6","7","7","7","6","7","6","7","7","5","6","3","5","5","5","3","5","5","5","1","5","5","5","5","5","6","5","5","5","5","3","5","3","5","3","5","6","5","6","5","5","6","6","5","3","5","6","5","5","3","687758948400365568","黄","88","Female","[""好她"",""坏她"",""好我"",""坏我""]","[""强她"",""弱她"",""强我"",""弱我""]","","","","","","","","no","","","","","","","","","SRET","EW_formal","","key","j","16.67009259259255","710.8333521639864","395.83334381933594","朋友","外行","Negative","ability","","","","","","","","","","",""
"791","","j","psychophysics","29","219088","0.0-7.0-3.0-0.15","6","5","6","5","5","4","4","4","4","4","4","1","0","0","0","0","0","0","1","4","4","4","4","4","4","4","4","4","4","6","7","7","7","6","7","6","7","7","5","6","3","5","5","5","3","5","5","5","1","5","5","5","5","5","6","5","5","5","5","3","5","3","5","3","5","6","5","6","5","5","6","6","5","3","5","6","5","5","3","687758948400365568","黄","88","Female","[""好她"",""坏她"",""好我"",""坏我""]","[""强她"",""弱她"",""强我"",""弱我""]","","","","","","","","no","","","","","","","","","SRET","EW_formal","","key","j","16.66680373831774","710.8333521639864","395.83334381933594","自己","盲目","Negative","ability","","","","","","","","","","",""
"797","","j","psychophysics","30","220923","0.0-7.0-3.0-0.16","6","5","6","5","5","4","4","4","4","4","4","1","0","0","0","0","0","0","1","4","4","4","4","4","4","4","4","4","4","6","7","7","7","6","7","6","7","7","5","6","3","5","5","5","3","5","5","5","1","5","5","5","5","5","6","5","5","5","5","3","5","3","5","3","5","6","5","6","5","5","6","6","5","3","5","6","5","5","3","687758948400365568","黄","88","Female","[""好她"",""坏她"",""好我"",""坏我""]","[""强她"",""弱她"",""强我"",""弱我""]","","","","","","","","no","","","","","","","","","SRET","EW_formal","","key","j","16.669678899082527","710.8333521639864","395.83334381933594","自己","腐败","Negative","morality","","","","","","","","","","",""
"621","","f","psychophysics","31","222554","0.0-7.0-3.0-0.17","6","5","6","5","5","4","4","4","4","4","4","1","0","0","0","0","0","0","1","4","4","4","4","4","4","4","4","4","4","6","7","7","7","6","7","6","7","7","5","6","3","5","5","5","3","5","5","5","1","5","5","5","5","5","6","5","5","5","5","3","5","3","5","3","5","6","5","6","5","5","6","6","5","3","5","6","5","5","3","687758948400365568","黄","88","Female","[""好她"",""坏她"",""好我"",""坏我""]","[""强她"",""弱她"",""强我"",""弱我""]","","","","","","","","yes","","","","","","","","","SRET","EW_formal","","key","f","17.01446315789485","710.8333521639864","395.83334381933594","朋友","厚道","Positive","morality","","","","","","","","","","",""
"585","","f","psychophysics","32","224143","0.0-7.0-3.0-0.18","6","5","6","5","5","4","4","4","4","4","4","1","0","0","0","0","0","0","1","4","4","4","4","4","4","4","4","4","4","6","7","7","7","6","7","6","7","7","5","6","3","5","5","5","3","5","5","5","1","5","5","5","5","5","6","5","5","5","5","3","5","3","5","3","5","6","5","6","5","5","6","6","5","3","5","6","5","5","3","687758948400365568","黄","88","Female","[""好她"",""坏她"",""好我"",""坏我""]","[""强她"",""弱她"",""强我"",""弱我""]","","","","","","","","yes","","","","","","","","","SRET","EW_formal","","key","f","16.67012765957445","710.8333521639864","395.83334381933594","自己","守法","Positive","morality","","","","","","","","","","",""
"646","","j","psychophysics","33","225815","0.0-7.0-3.0-0.19","6","5","6","5","5","4","4","4","4","4","4","1","0","0","0","0","0","0","1","4","4","4","4","4","4","4","4","4","4","6","7","7","7","6","7","6","7","7","5","6","3","5","5","5","3","5","5","5","1","5","5","5","5","5","6","5","5","5","5","3","5","3","5","3","5","6","5","6","5","5","6","6","5","3","5","6","5","5","3","687758948400365568","黄","88","Female","[""好她"",""坏她"",""好我"",""坏我""]","[""强她"",""弱她"",""强我"",""弱我""]","","","","","","","","no","","","","","","","","","SRET","EW_formal","","key","j","16.665959999999906","710.8333521639864","395.83334381933594","自己","废物","Negative","ability","","","","","","","","","","",""
"797","","j","psychophysics","34","227618","0.0-7.0-3.0-0.20","6","5","6","5","5","4","4","4","4","4","4","1","0","0","0","0","0","0","1","4","4","4","4","4","4","4","4","4","4","6","7","7","7","6","7","6","7","7","5","6","3","5","5","5","3","5","5","5","1","5","5","5","5","5","6","5","5","5","5","3","5","3","5","3","5","6","5","6","5","5","6","6","5","3","5","6","5","5","3","687758948400365568","黄","88","Female","[""好她"",""坏她"",""好我"",""坏我""]","[""强她"",""弱她"",""强我"",""弱我""]","","","","","","","","no","","","","","","","","","SRET","EW_formal","","key","j","16.824735849056523","710.8333521639864","395.83334381933594","朋友","卑鄙","Negative","morality","","","","","","","","","","",""
"915","","f","psychophysics","35","229535","0.0-7.0-3.0-0.21","6","5","6","5","5","4","4","4","4","4","4","1","0","0","0","0","0","0","1","4","4","4","4","4","4","4","4","4","4","6","7","7","7","6","7","6","7","7","5","6","3","5","5","5","3","5","5","5","1","5","5","5","5","5","6","5","5","5","5","3","5","3","5","3","5","6","5","6","5","5","6","6","5","3","5","6","5","5","3","687758948400365568","黄","88","Female","[""好她"",""坏她"",""好我"",""坏我""]","[""强她"",""弱她"",""强我"",""弱我""]","","","","","","","","yes","","","","","","","","","SRET","EW_formal","","key","f","16.669035087719205","710.8333521639864","395.83334381933594","自己","利落","Positive","ability","","","","","","","","","","",""
"749","","f","psychophysics","36","231289","0.0-7.0-3.0-0.22","6","5","6","5","5","4","4","4","4","4","4","1","0","0","0","0","0","0","1","4","4","4","4","4","4","4","4","4","4","6","7","7","7","6","7","6","7","7","5","6","3","5","5","5","3","5","5","5","1","5","5","5","5","5","6","5","5","5","5","3","5","3","5","3","5","6","5","6","5","5","6","6","5","3","5","6","5","5","3","687758948400365568","黄","88","Female","[""好她"",""坏她"",""好我"",""坏我""]","[""强她"",""弱她"",""强我"",""弱我""]","","","","","","","","yes","","","","","","","","","SRET","EW_formal","","key","f","16.667750000000243","710.8333521639864","395.83334381933594","自己","廉正","Positive","morality","","","","","","","","","","",""
"900","","j","psychophysics","37","233198","0.0-7.0-3.0-0.23","6","5","6","5","5","4","4","4","4","4","4","1","0","0","0","0","0","0","1","4","4","4","4","4","4","4","4","4","4","6","7","7","7","6","7","6","7","7","5","6","3","5","5","5","3","5","5","5","1","5","5","5","5","5","6","5","5","5","5","3","5","3","5","3","5","6","5","6","5","5","6","6","5","3","5","6","5","5","3","687758948400365568","黄","88","Female","[""好她"",""坏她"",""好我"",""坏我""]","[""强她"",""弱她"",""强我"",""弱我""]","","","","","","","","no","","","","","","","","","SRET","EW_formal","","key","j","16.665771929824444","710.8333521639864","395.83334381933594","朋友","无助","Negative","ability","","","","","","","","","","",""
"844","","j","psychophysics","38","235049","0.0-7.0-3.0-0.24","6","5","6","5","5","4","4","4","4","4","4","1","0","0","0","0","0","0","1","4","4","4","4","4","4","4","4","4","4","6","7","7","7","6","7","6","7","7","5","6","3","5","5","5","3","5","5","5","1","5","5","5","5","5","6","5","5","5","5","3","5","3","5","3","5","6","5","6","5","5","6","6","5","3","5","6","5","5","3","687758948400365568","黄","88","Female","[""好她"",""坏她"",""好我"",""坏我""]","[""强她"",""弱她"",""强我"",""弱我""]","","","","","","","","no","","","","","","","","","SRET","EW_formal","","key","j","16.97523148148132","710.8333521639864","395.83334381933594","自己","孝顺","Positive","morality","","","","","","","","","","",""
"1062","","f","psychophysics","39","237117","0.0-7.0-3.0-0.25","6","5","6","5","5","4","4","4","4","4","4","1","0","0","0","0","0","0","1","4","4","4","4","4","4","4","4","4","4","6","7","7","7","6","7","6","7","7","5","6","3","5","5","5","3","5","5","5","1","5","5","5","5","5","6","5","5","5","5","3","5","3","5","3","5","6","5","6","5","5","6","6","5","3","5","6","5","5","3","687758948400365568","黄","88","Female","[""好她"",""坏她"",""好我"",""坏我""]","[""强她"",""弱她"",""强我"",""弱我""]","","","","","","","","yes","","","","","","","","","SRET","EW_formal","","key","f","16.803475409836107","710.8333521639864","395.83334381933594","自己","努力","Positive","ability","","","","","","","","","","",""
"740","","f","psychophysics","40","238862","0.0-7.0-3.0-0.26","6","5","6","5","5","4","4","4","4","4","4","1","0","0","0","0","0","0","1","4","4","4","4","4","4","4","4","4","4","6","7","7","7","6","7","6","7","7","5","6","3","5","5","5","3","5","5","5","1","5","5","5","5","5","6","5","5","5","5","3","5","3","5","3","5","6","5","6","5","5","6","6","5","3","5","6","5","5","3","687758948400365568","黄","88","Female","[""好她"",""坏她"",""好我"",""坏我""]","[""强她"",""弱她"",""强我"",""弱我""]","","","","","","","","yes","","","","","","","","","SRET","EW_formal","","key","f","16.8253883495147","710.8333521639864","395.83334381933594","自己","博识","Positive","ability","","","","","","","","","","",""
"868","","f","psychophysics","41","240733","0.0-7.0-3.0-0.27","6","5","6","5","5","4","4","4","4","4","4","1","0","0","0","0","0","0","1","4","4","4","4","4","4","4","4","4","4","6","7","7","7","6","7","6","7","7","5","6","3","5","5","5","3","5","5","5","1","5","5","5","5","5","6","5","5","5","5","3","5","3","5","3","5","6","5","6","5","5","6","6","5","3","5","6","5","5","3","687758948400365568","黄","88","Female","[""好她"",""坏她"",""好我"",""坏我""]","[""强她"",""弱她"",""强我"",""弱我""]","","","","","","","","yes","","","","","","","","","SRET","EW_formal","","key","f","16.668153153153227","710.8333521639864","395.83334381933594","朋友","自律","Positive","ability","","","","","","","","","","",""
"911","","j","psychophysics","42","242648","0.0-7.0-3.0-0.28","6","5","6","5","5","4","4","4","4","4","4","1","0","0","0","0","0","0","1","4","4","4","4","4","4","4","4","4","4","6","7","7","7","6","7","6","7","7","5","6","3","5","5","5","3","5","5","5","1","5","5","5","5","5","6","5","5","5","5","3","5","3","5","3","5","6","5","6","5","5","6","6","5","3","5","6","5","5","3","687758948400365568","黄","88","Female","[""好她"",""坏她"",""好我"",""坏我""]","[""强她"",""弱她"",""强我"",""弱我""]","","","","","","","","no","","","","","","","","","SRET","EW_formal","","key","j","16.81186725663699","710.8333521639864","395.83334381933594","自己","独断","Negative","ability","","","","","","","","","","",""
"644","","f","psychophysics","43","244297","0.0-7.0-3.0-0.29","6","5","6","5","5","4","4","4","4","4","4","1","0","0","0","0","0","0","1","4","4","4","4","4","4","4","4","4","4","6","7","7","7","6","7","6","7","7","5","6","3","5","5","5","3","5","5","5","1","5","5","5","5","5","6","5","5","5","5","3","5","3","5","3","5","6","5","6","5","5","6","6","5","3","5","6","5","5","3","687758948400365568","黄","88","Female","[""好她"",""坏她"",""好我"",""坏我""]","[""强她"",""弱她"",""强我"",""弱我""]","","","","","","","","yes","","","","","","","","","SRET","EW_formal","","key","f","16.6664081632655","710.8333521639864","395.83334381933594","自己","忠义","Positive","morality","","","","","","","","","","",""
"668","","f","psychophysics","44","245969","0.0-7.0-3.0-0.30","6","5","6","5","5","4","4","4","4","4","4","1","0","0","0","0","0","0","1","4","4","4","4","4","4","4","4","4","4","6","7","7","7","6","7","6","7","7","5","6","3","5","5","5","3","5","5","5","1","5","5","5","5","5","6","5","5","5","5","3","5","3","5","3","5","6","5","6","5","5","6","6","5","3","5","6","5","5","3","687758948400365568","黄","88","Female","[""好她"",""坏她"",""好我"",""坏我""]","[""强她"",""弱她"",""强我"",""弱我""]","","","","","","","","yes","","","","","","","","","SRET","EW_formal","","key","f","16.666919191919135","710.8333521639864","395.83334381933594","自己","廉明","Positive","morality","","","","","","","","","","",""
"744","","j","psychophysics","45","247721","0.0-7.0-3.0-0.31","6","5","6","5","5","4","4","4","4","4","4","1","0","0","0","0","0","0","1","4","4","4","4","4","4","4","4","4","4","6","7","7","7","6","7","6","7","7","5","6","3","5","5","5","3","5","5","5","1","5","5","5","5","5","6","5","5","5","5","3","5","3","5","3","5","6","5","6","5","5","6","6","5","3","5","6","5","5","3","687758948400365568","黄","88","Female","[""好她"",""坏她"",""好我"",""坏我""]","[""强她"",""弱她"",""强我"",""弱我""]","","","","","","","","no","","","","","","","","","SRET","EW_formal","","key","j","16.98998039215689","710.8333521639864","395.83334381933594","朋友","奸诈","Negative","morality","","","","","","","","","","",""
"940","","j","psychophysics","46","249664","0.0-7.0-3.0-0.32","6","5","6","5","5","4","4","4","4","4","4","1","0","0","0","0","0","0","1","4","4","4","4","4","4","4","4","4","4","6","7","7","7","6","7","6","7","7","5","6","3","5","5","5","3","5","5","5","1","5","5","5","5","5","6","5","5","5","5","3","5","3","5","3","5","6","5","6","5","5","6","6","5","3","5","6","5","5","3","687758948400365568","黄","88","Female","[""好她"",""坏她"",""好我"",""坏我""]","[""强她"",""弱她"",""强我"",""弱我""]","","","","","","","","no","","","","","","","","","SRET","EW_formal","","key","j","16.66856034482771","710.8333521639864","395.83334381933594","自己","不端","Negative","morality","","","","","","","","","","",""
"815","","j","psychophysics","47","251484","0.0-7.0-3.0-0.33","6","5","6","5","5","4","4","4","4","4","4","1","0","0","0","0","0","0","1","4","4","4","4","4","4","4","4","4","4","6","7","7","7","6","7","6","7","7","5","6","3","5","5","5","3","5","5","5","1","5","5","5","5","5","6","5","5","5","5","3","5","3","5","3","5","6","5","6","5","5","6","6","5","3","5","6","5","5","3","687758948400365568","黄","88","Female","[""好她"",""坏她"",""好我"",""坏我""]","[""强她"",""弱她"",""强我"",""弱我""]","","","","","","","","no","","","","","","","","","SRET","EW_formal","","key","j","16.666000000000135","710.8333521639864","395.83334381933594","自己","草率","Negative","ability","","","","","","","","","","",""
"697","","f","psychophysics","48","253186","0.0-7.0-3.0-0.34","6","5","6","5","5","4","4","4","4","4","4","1","0","0","0","0","0","0","1","4","4","4","4","4","4","4","4","4","4","6","7","7","7","6","7","6","7","7","5","6","3","5","5","5","3","5","5","5","1","5","5","5","5","5","6","5","5","5","5","3","5","3","5","3","5","6","5","6","5","5","6","6","5","3","5","6","5","5","3","687758948400365568","黄","88","Female","[""好她"",""坏她"",""好我"",""坏我""]","[""强她"",""弱她"",""强我"",""弱我""]","","","","","","","","yes","","","","","","","","","SRET","EW_formal","","key","f","16.834249999999884","710.8333521639864","395.83334381933594","自己","文明","Positive","morality","","","","","","","","","","",""
"969","","j","psychophysics","49","255169","0.0-7.0-3.0-0.35","6","5","6","5","5","4","4","4","4","4","4","1","0","0","0","0","0","0","1","4","4","4","4","4","4","4","4","4","4","6","7","7","7","6","7","6","7","7","5","6","3","5","5","5","3","5","5","5","1","5","5","5","5","5","6","5","5","5","5","3","5","3","5","3","5","6","5","6","5","5","6","6","5","3","5","6","5","5","3","687758948400365568","黄","88","Female","[""好她"",""坏她"",""好我"",""坏我""]","[""强她"",""弱她"",""强我"",""弱我""]","","","","","","","","no","","","","","","","","","SRET","EW_formal","","key","j","16.811683760683795","710.8333521639864","395.83334381933594","朋友","差生","Negative","ability","","","","","","","","","","",""
"687","","f","psychophysics","50","256866","0.0-7.0-3.0-0.36","6","5","6","5","5","4","4","4","4","4","4","1","0","0","0","0","0","0","1","4","4","4","4","4","4","4","4","4","4","6","7","7","7","6","7","6","7","7","5","6","3","5","5","5","3","5","5","5","1","5","5","5","5","5","6","5","5","5","5","3","5","3","5","3","5","6","5","6","5","5","6","6","5","3","5","6","5","5","3","687758948400365568","黄","88","Female","[""好她"",""坏她"",""好我"",""坏我""]","[""强她"",""弱她"",""强我"",""弱我""]","","","","","","","","yes","","","","","","","","","SRET","EW_formal","","key","f","17.001868686868665","710.8333521639864","395.83334381933594","朋友","侠义","Positive","morality","","","","","","","","","","",""
"640","","j","psychophysics","51","258512","0.0-7.0-3.0-0.37","6","5","6","5","5","4","4","4","4","4","4","1","0","0","0","0","0","0","1","4","4","4","4","4","4","4","4","4","4","6","7","7","7","6","7","6","7","7","5","6","3","5","5","5","3","5","5","5","1","5","5","5","5","5","6","5","5","5","5","3","5","3","5","3","5","6","5","6","5","5","6","6","5","3","5","6","5","5","3","687758948400365568","黄","88","Female","[""好她"",""坏她"",""好我"",""坏我""]","[""强她"",""弱她"",""强我"",""弱我""]","","","","","","","","no","","","","","","","","","SRET","EW_formal","","key","j","16.665163265306287","710.8333521639864","395.83334381933594","朋友","贪污","Negative","morality","","","","","","","","","","",""
"715","","f","psychophysics","52","260233","0.0-7.0-3.0-0.38","6","5","6","5","5","4","4","4","4","4","4","1","0","0","0","0","0","0","1","4","4","4","4","4","4","4","4","4","4","6","7","7","7","6","7","6","7","7","5","6","3","5","5","5","3","5","5","5","1","5","5","5","5","5","6","5","5","5","5","3","5","3","5","3","5","6","5","6","5","5","6","6","5","3","5","6","5","5","3","687758948400365568","黄","88","Female","[""好她"",""坏她"",""好我"",""坏我""]","[""强她"",""弱她"",""强我"",""弱我""]","","","","","","","","yes","","","","","","","","","SRET","EW_formal","","key","f","16.835415841583945","710.8333521639864","395.83334381933594","自己","全才","Positive","ability","","","","","","","","","","",""
"873","","f","psychophysics","53","262119","0.0-7.0-3.0-0.39","6","5","6","5","5","4","4","4","4","4","4","1","0","0","0","0","0","0","1","4","4","4","4","4","4","4","4","4","4","6","7","7","7","6","7","6","7","7","5","6","3","5","5","5","3","5","5","5","1","5","5","5","5","5","6","5","5","5","5","3","5","3","5","3","5","6","5","6","5","5","6","6","5","3","5","6","5","5","3","687758948400365568","黄","88","Female","[""好她"",""坏她"",""好我"",""坏我""]","[""强她"",""弱她"",""强我"",""弱我""]","","","","","","","","yes","","","","","","","","","SRET","EW_formal","","key","f","16.96674545454523","710.8333521639864","395.83334381933594","自己","变通","Positive","ability","","","","","","","","","","",""
"658","","j","psychophysics","54","263780","0.0-7.0-3.0-0.40","6","5","6","5","5","4","4","4","4","4","4","1","0","0","0","0","0","0","1","4","4","4","4","4","4","4","4","4","4","6","7","7","7","6","7","6","7","7","5","6","3","5","5","5","3","5","5","5","1","5","5","5","5","5","6","5","5","5","5","3","5","3","5","3","5","6","5","6","5","5","6","6","5","3","5","6","5","5","3","687758948400365568","黄","88","Female","[""好她"",""坏她"",""好我"",""坏我""]","[""强她"",""弱她"",""强我"",""弱我""]","","","","","","","","no","","","","","","","","","SRET","EW_formal","","key","j","16.666757575757778","710.8333521639864","395.83334381933594","朋友","无耻","Negative","morality","","","","","","","","","","",""
"677","","f","psychophysics","55","265461","0.0-7.0-3.0-0.41","6","5","6","5","5","4","4","4","4","4","4","1","0","0","0","0","0","0","1","4","4","4","4","4","4","4","4","4","4","6","7","7","7","6","7","6","7","7","5","6","3","5","5","5","3","5","5","5","1","5","5","5","5","5","6","5","5","5","5","3","5","3","5","3","5","6","5","6","5","5","6","6","5","3","5","6","5","5","3","687758948400365568","黄","88","Female","[""好她"",""坏她"",""好我"",""坏我""]","[""强她"",""弱她"",""强我"",""弱我""]","","","","","","","","yes","","","","","","","","","SRET","EW_formal","","key","f","16.83867676767657","710.8333521639864","395.83334381933594","朋友","沉着","Positive","ability","","","","","","","","","","",""
"602","","f","psychophysics","56","267068","0.0-7.0-3.0-0.42","6","5","6","5","5","4","4","4","4","4","4","1","0","0","0","0","0","0","1","4","4","4","4","4","4","4","4","4","4","6","7","7","7","6","7","6","7","7","5","6","3","5","5","5","3","5","5","5","1","5","5","5","5","5","6","5","5","5","5","3","5","3","5","3","5","6","5","6","5","5","6","6","5","3","5","6","5","5","3","687758948400365568","黄","88","Female","[""好她"",""坏她"",""好我"",""坏我""]","[""强她"",""弱她"",""强我"",""弱我""]","","","","","","","","yes","","","","","","","","","SRET","EW_formal","","key","f","17.025795698924473","710.8333521639864","395.83334381933594","朋友","有力","Positive","ability","","","","","","","","","","",""
"679","","j","psychophysics","57","268753","0.0-7.0-3.0-0.43","6","5","6","5","5","4","4","4","4","4","4","1","0","0","0","0","0","0","1","4","4","4","4","4","4","4","4","4","4","6","7","7","7","6","7","6","7","7","5","6","3","5","5","5","3","5","5","5","1","5","5","5","5","5","6","5","5","5","5","3","5","3","5","3","5","6","5","6","5","5","6","6","5","3","5","6","5","5","3","687758948400365568","黄","88","Female","[""好她"",""坏她"",""好我"",""坏我""]","[""强她"",""弱她"",""强我"",""弱我""]","","","","","","","","no","","","","","","","","","SRET","EW_formal","","key","j","16.66442000000039","710.8333521639864","395.83334381933594","朋友","迂拙","Negative","ability","","","","","","","","","","",""
"842","","j","psychophysics","58","270604","0.0-7.0-3.0-0.44","6","5","6","5","5","4","4","4","4","4","4","1","0","0","0","0","0","0","1","4","4","4","4","4","4","4","4","4","4","6","7","7","7","6","7","6","7","7","5","6","3","5","5","5","3","5","5","5","1","5","5","5","5","5","6","5","5","5","5","3","5","3","5","3","5","6","5","6","5","5","6","6","5","3","5","6","5","5","3","687758948400365568","黄","88","Female","[""好她"",""坏她"",""好我"",""坏我""]","[""强她"",""弱她"",""强我"",""弱我""]","","","","","","","","no","","","","","","","","","SRET","EW_formal","","key","j","16.97431481481504","710.8333521639864","395.83334381933594","自己","刻薄","Negative","morality","","","","","","","","","","",""
"685","","f","psychophysics","59","272300","0.0-7.0-3.0-0.45","6","5","6","5","5","4","4","4","4","4","4","1","0","0","0","0","0","0","1","4","4","4","4","4","4","4","4","4","4","6","7","7","7","6","7","6","7","7","5","6","3","5","5","5","3","5","5","5","1","5","5","5","5","5","6","5","5","5","5","3","5","3","5","3","5","6","5","6","5","5","6","6","5","3","5","6","5","5","3","687758948400365568","黄","88","Female","[""好她"",""坏她"",""好我"",""坏我""]","[""强她"",""弱她"",""强我"",""弱我""]","","","","","","","","yes","","","","","","","","","SRET","EW_formal","","key","f","16.66426732673282","710.8333521639864","395.83334381933594","自己","刚正","Positive","morality","","","","","","","","","","",""
"773","","j","psychophysics","60","274078","0.0-7.0-3.0-0.46","6","5","6","5","5","4","4","4","4","4","4","1","0","0","0","0","0","0","1","4","4","4","4","4","4","4","4","4","4","6","7","7","7","6","7","6","7","7","5","6","3","5","5","5","3","5","5","5","1","5","5","5","5","5","6","5","5","5","5","3","5","3","5","3","5","6","5","6","5","5","6","6","5","3","5","6","5","5","3","687758948400365568","黄","88","Female","[""好她"",""坏她"",""好我"",""坏我""]","[""强她"",""弱她"",""强我"",""弱我""]","","","","","","","","no","","","","","","","","","SRET","EW_formal","","key","j","16.670669811320344","710.8333521639864","395.83334381933594","朋友","背叛","Negative","morality","","","","","","","","","","",""
"667","","f","psychophysics","61","275751","0.0-7.0-3.0-0.47","6","5","6","5","5","4","4","4","4","4","4","1","0","0","0","0","0","0","1","4","4","4","4","4","4","4","4","4","4","6","7","7","7","6","7","6","7","7","5","6","3","5","5","5","3","5","5","5","1","5","5","5","5","5","6","5","5","5","5","3","5","3","5","3","5","6","5","6","5","5","6","6","5","3","5","6","5","5","3","687758948400365568","黄","88","Female","[""好她"",""坏她"",""好我"",""坏我""]","[""强她"",""弱她"",""强我"",""弱我""]","","","","","","","","yes","","","","","","","","","SRET","EW_formal","","key","f","16.662777777777684","710.8333521639864","395.83334381933594","朋友","义气","Positive","morality","","","","","","","","","","",""
"672","","j","psychophysics","62","277426","0.0-7.0-3.0-0.48","6","5","6","5","5","4","4","4","4","4","4","1","0","0","0","0","0","0","1","4","4","4","4","4","4","4","4","4","4","6","7","7","7","6","7","6","7","7","5","6","3","5","5","5","3","5","5","5","1","5","5","5","5","5","6","5","5","5","5","3","5","3","5","3","5","6","5","6","5","5","6","6","5","3","5","6","5","5","3","687758948400365568","黄","88","Female","[""好她"",""坏她"",""好我"",""坏我""]","[""强她"",""弱她"",""强我"",""弱我""]","","","","","","","","no","","","","","","","","","SRET","EW_formal","","key","j","16.667149999999673","710.8333521639864","395.83334381933594","自己","罪恶","Negative","morality","","","","","","","","","","",""
"773","","f","psychophysics","63","279204","0.0-7.0-3.0-0.49","6","5","6","5","5","4","4","4","4","4","4","1","0","0","0","0","0","0","1","4","4","4","4","4","4","4","4","4","4","6","7","7","7","6","7","6","7","7","5","6","3","5","5","5","3","5","5","5","1","5","5","5","5","5","6","5","5","5","5","3","5","3","5","3","5","6","5","6","5","5","6","6","5","3","5","6","5","5","3","687758948400365568","黄","88","Female","[""好她"",""坏她"",""好我"",""坏我""]","[""强她"",""弱她"",""强我"",""弱我""]","","","","","","","","yes","","","","","","","","","SRET","EW_formal","","key","f","16.66492233009731","710.8333521639864","395.83334381933594","自己","娴熟","Positive","ability","","","","","","","","","","",""
"496","","f","psychophysics","64","280705","0.0-7.0-3.0-0.50","6","5","6","5","5","4","4","4","4","4","4","1","0","0","0","0","0","0","1","4","4","4","4","4","4","4","4","4","4","6","7","7","7","6","7","6","7","7","5","6","3","5","5","5","3","5","5","5","1","5","5","5","5","5","6","5","5","5","5","3","5","3","5","3","5","6","5","6","5","5","6","6","5","3","5","6","5","5","3","687758948400365568","黄","88","Female","[""好她"",""坏她"",""好我"",""坏我""]","[""强她"",""弱她"",""强我"",""弱我""]","","","","","","","","yes","","","","","","","","","SRET","EW_formal","","key","f","16.85478651685394","710.8333521639864","395.83334381933594","朋友","善良","Positive","morality","","","","","","","","","","",""
"852","","f","psychophysics","65","282571","0.0-7.0-3.0-0.51","6","5","6","5","5","4","4","4","4","4","4","1","0","0","0","0","0","0","1","4","4","4","4","4","4","4","4","4","4","6","7","7","7","6","7","6","7","7","5","6","3","5","5","5","3","5","5","5","1","5","5","5","5","5","6","5","5","5","5","3","5","3","5","3","5","6","5","6","5","5","6","6","5","3","5","6","5","5","3","687758948400365568","黄","88","Female","[""好她"",""坏她"",""好我"",""坏我""]","[""强她"",""弱她"",""强我"",""弱我""]","","","","","","","","yes","","","","","","","","","SRET","EW_formal","","key","f","16.666477064220256","710.8333521639864","395.83334381933594","朋友","顶事","Positive","ability","","","","","","","","","","",""
"580","","f","psychophysics","66","284162","0.0-7.0-3.0-0.52","6","5","6","5","5","4","4","4","4","4","4","1","0","0","0","0","0","0","1","4","4","4","4","4","4","4","4","4","4","6","7","7","7","6","7","6","7","7","5","6","3","5","5","5","3","5","5","5","1","5","5","5","5","5","6","5","5","5","5","3","5","3","5","3","5","6","5","6","5","5","6","6","5","3","5","6","5","5","3","687758948400365568","黄","88","Female","[""好她"",""坏她"",""好我"",""坏我""]","[""强她"",""弱她"",""强我"",""弱我""]","","","","","","","","yes","","","","","","","","","SRET","EW_formal","","key","f","16.669757894736616","710.8333521639864","395.83334381933594","自己","博学","Positive","ability","","","","","","","","","","",""
"693","","j","psychophysics","67","285875","0.0-7.0-3.0-0.53","6","5","6","5","5","4","4","4","4","4","4","1","0","0","0","0","0","0","1","4","4","4","4","4","4","4","4","4","4","6","7","7","7","6","7","6","7","7","5","6","3","5","5","5","3","5","5","5","1","5","5","5","5","5","6","5","5","5","5","3","5","3","5","3","5","6","5","6","5","5","6","6","5","3","5","6","5","5","3","687758948400365568","黄","88","Female","[""好她"",""坏她"",""好我"",""坏我""]","[""强她"",""弱她"",""强我"",""弱我""]","","","","","","","","no","","","","","","","","","SRET","EW_formal","","key","j","16.66510784313683","710.8333521639864","395.83334381933594","自己","恶劣","Negative","morality","","","","","","","","","","",""
"736","","f","psychophysics","68","287616","0.0-7.0-3.0-0.54","6","5","6","5","5","4","4","4","4","4","4","1","0","0","0","0","0","0","1","4","4","4","4","4","4","4","4","4","4","6","7","7","7","6","7","6","7","7","5","6","3","5","5","5","3","5","5","5","1","5","5","5","5","5","6","5","5","5","5","3","5","3","5","3","5","6","5","6","5","5","6","6","5","3","5","6","5","5","3","687758948400365568","黄","88","Female","[""好她"",""坏她"",""好我"",""坏我""]","[""强她"",""弱她"",""强我"",""弱我""]","","","","","","","","yes","","","","","","","","","SRET","EW_formal","","key","f","16.996772277227713","710.8333521639864","395.83334381933594","朋友","慷慨","Positive","morality","","","","","","","","","","",""
"852","","j","psychophysics","69","289476","0.0-7.0-3.0-0.55","6","5","6","5","5","4","4","4","4","4","4","1","0","0","0","0","0","0","1","4","4","4","4","4","4","4","4","4","4","6","7","7","7","6","7","6","7","7","5","6","3","5","5","5","3","5","5","5","1","5","5","5","5","5","6","5","5","5","5","3","5","3","5","3","5","6","5","6","5","5","6","6","5","3","5","6","5","5","3","687758948400365568","黄","88","Female","[""好她"",""坏她"",""好我"",""坏我""]","[""强她"",""弱她"",""强我"",""弱我""]","","","","","","","","no","","","","","","","","","SRET","EW_formal","","key","j","16.669207207207265","710.8333521639864","395.83334381933594","自己","拜金","Negative","morality","","","","","","","","","","",""
"728","","f","psychophysics","70","291209","0.0-7.0-3.0-0.56","6","5","6","5","5","4","4","4","4","4","4","1","0","0","0","0","0","0","1","4","4","4","4","4","4","4","4","4","4","6","7","7","7","6","7","6","7","7","5","6","3","5","5","5","3","5","5","5","1","5","5","5","5","5","6","5","5","5","5","3","5","3","5","3","5","6","5","6","5","5","6","6","5","3","5","6","5","5","3","687758948400365568","黄","88","Female","[""好她"",""坏她"",""好我"",""坏我""]","[""强她"",""弱她"",""强我"",""弱我""]","","","","","","","","yes","","","","","","","","","SRET","EW_formal","","key","f","16.665854368931885","710.8333521639864","395.83334381933594","朋友","高明","Positive","ability","","","","","","","","","","",""
"633","","j","psychophysics","71","292845","0.0-7.0-3.0-0.57","6","5","6","5","5","4","4","4","4","4","4","1","0","0","0","0","0","0","1","4","4","4","4","4","4","4","4","4","4","6","7","7","7","6","7","6","7","7","5","6","3","5","5","5","3","5","5","5","1","5","5","5","5","5","6","5","5","5","5","3","5","3","5","3","5","6","5","6","5","5","6","6","5","3","5","6","5","5","3","687758948400365568","黄","88","Female","[""好她"",""坏她"",""好我"",""坏我""]","[""强她"",""弱她"",""强我"",""弱我""]","","","","","","","","no","","","","","","","","","SRET","EW_formal","","key","j","16.671010309278834","710.8333521639864","395.83334381933594","自己","毛糙","Negative","ability","","","","","","","","","","",""
"891","","f","psychophysics","72","294743","0.0-7.0-3.0-0.58","6","5","6","5","5","4","4","4","4","4","4","1","0","0","0","0","0","0","1","4","4","4","4","4","4","4","4","4","4","6","7","7","7","6","7","6","7","7","5","6","3","5","5","5","3","5","5","5","1","5","5","5","5","5","6","5","5","5","5","3","5","3","5","3","5","6","5","6","5","5","6","6","5","3","5","6","5","5","3","687758948400365568","黄","88","Female","[""好她"",""坏她"",""好我"",""坏我""]","[""强她"",""弱她"",""强我"",""弱我""]","","","","","","","","yes","","","","","","","","","SRET","EW_formal","","key","f","16.665362831858292","710.8333521639864","395.83334381933594","自己","君子","Positive","morality","","","","","","","","","","",""
"713","","f","psychophysics","73","296460","0.0-7.0-3.0-0.59","6","5","6","5","5","4","4","4","4","4","4","1","0","0","0","0","0","0","1","4","4","4","4","4","4","4","4","4","4","6","7","7","7","6","7","6","7","7","5","6","3","5","5","5","3","5","5","5","1","5","5","5","5","5","6","5","5","5","5","3","5","3","5","3","5","6","5","6","5","5","6","6","5","3","5","6","5","5","3","687758948400365568","黄","88","Female","[""好她"",""坏她"",""好我"",""坏我""]","[""强她"",""弱她"",""强我"",""弱我""]","","","","","","","","yes","","","","","","","","","SRET","EW_formal","","key","f","16.664862745098528","710.8333521639864","395.83334381933594","朋友","敬业","Positive","morality","","","","","","","","","","",""
"684","","f","psychophysics","74","298149","0.0-7.0-3.0-0.60","6","5","6","5","5","4","4","4","4","4","4","1","0","0","0","0","0","0","1","4","4","4","4","4","4","4","4","4","4","6","7","7","7","6","7","6","7","7","5","6","3","5","5","5","3","5","5","5","1","5","5","5","5","5","6","5","5","5","5","3","5","3","5","3","5","6","5","6","5","5","6","6","5","3","5","6","5","5","3","687758948400365568","黄","88","Female","[""好她"",""坏她"",""好我"",""坏我""]","[""强她"",""弱她"",""强我"",""弱我""]","","","","","","","","yes","","","","","","","","","SRET","EW_formal","","key","f","16.66890000000014","710.8333521639864","395.83334381933594","自己","稳健","Positive","ability","","","","","","","","","","",""
"688","","f","psychophysics","75","299844","0.0-7.0-3.0-0.61","6","5","6","5","5","4","4","4","4","4","4","1","0","0","0","0","0","0","1","4","4","4","4","4","4","4","4","4","4","6","7","7","7","6","7","6","7","7","5","6","3","5","5","5","3","5","5","5","1","5","5","5","5","5","6","5","5","5","5","3","5","3","5","3","5","6","5","6","5","5","6","6","5","3","5","6","5","5","3","687758948400365568","黄","88","Female","[""好她"",""坏她"",""好我"",""坏我""]","[""强她"",""弱她"",""强我"",""弱我""]","","","","","","","","yes","","","","","","","","","SRET","EW_formal","","key","f","16.664712871287115","710.8333521639864","395.83334381933594","自己","远见","Positive","ability","","","","","","","","","","",""
"800","","f","psychophysics","76","301649","0.0-7.0-3.0-0.62","6","5","6","5","5","4","4","4","4","4","4","1","0","0","0","0","0","0","1","4","4","4","4","4","4","4","4","4","4","6","7","7","7","6","7","6","7","7","5","6","3","5","5","5","3","5","5","5","1","5","5","5","5","5","6","5","5","5","5","3","5","3","5","3","5","6","5","6","5","5","6","6","5","3","5","6","5","5","3","687758948400365568","黄","88","Female","[""好她"",""坏她"",""好我"",""坏我""]","[""强她"",""弱她"",""强我"",""弱我""]","","","","","","","","yes","","","","","","","","","SRET","EW_formal","","key","f","16.66688785046746","710.8333521639864","395.83334381933594","朋友","专注","Positive","ability","","","","","","","","","","",""
"726","","j","psychophysics","77","303383","0.0-7.0-3.0-0.63","6","5","6","5","5","4","4","4","4","4","4","1","0","0","0","0","0","0","1","4","4","4","4","4","4","4","4","4","4","6","7","7","7","6","7","6","7","7","5","6","3","5","5","5","3","5","5","5","1","5","5","5","5","5","6","5","5","5","5","3","5","3","5","3","5","6","5","6","5","5","6","6","5","3","5","6","5","5","3","687758948400365568","黄","88","Female","[""好她"",""坏她"",""好我"",""坏我""]","[""强她"",""弱她"",""强我"",""弱我""]","","","","","","","","no","","","","","","","","","SRET","EW_formal","","key","j","16.99395049504975","710.8333521639864","395.83334381933594","朋友","犹豫","Negative","ability","","","","","","","","","","",""
"651","","j","psychophysics","78","305064","0.0-7.0-3.0-0.64","6","5","6","5","5","4","4","4","4","4","4","1","0","0","0","0","0","0","1","4","4","4","4","4","4","4","4","4","4","6","7","7","7","6","7","6","7","7","5","6","3","5","5","5","3","5","5","5","1","5","5","5","5","5","6","5","5","5","5","3","5","3","5","3","5","6","5","6","5","5","6","6","5","3","5","6","5","5","3","687758948400365568","黄","88","Female","[""好她"",""坏她"",""好我"",""坏我""]","[""强她"",""弱她"",""强我"",""弱我""]","","","","","","","","no","","","","","","","","","SRET","EW_formal","","key","j","16.67066999999981","710.8333521639864","395.83334381933594","朋友","缺德","Negative","morality","","","","","","","","","","",""
"597","","j","psychophysics","79","306676","0.0-7.0-3.0-0.65","6","5","6","5","5","4","4","4","4","4","4","1","0","0","0","0","0","0","1","4","4","4","4","4","4","4","4","4","4","6","7","7","7","6","7","6","7","7","5","6","3","5","5","5","3","5","5","5","1","5","5","5","5","5","6","5","5","5","5","3","5","3","5","3","5","6","5","6","5","5","6","6","5","3","5","6","5","5","3","687758948400365568","黄","88","Female","[""好她"",""坏她"",""好我"",""坏我""]","[""强她"",""弱她"",""强我"",""弱我""]","","","","","","","","no","","","","","","","","","SRET","EW_formal","","key","j","16.66853125000004","710.8333521639864","395.83334381933594","朋友","下流","Negative","morality","","","","","","","","","","",""
"1092","","j","psychophysics","80","308774","0.0-7.0-3.0-0.66","6","5","6","5","5","4","4","4","4","4","4","1","0","0","0","0","0","0","1","4","4","4","4","4","4","4","4","4","4","6","7","7","7","6","7","6","7","7","5","6","3","5","5","5","3","5","5","5","1","5","5","5","5","5","6","5","5","5","5","3","5","3","5","3","5","6","5","6","5","5","6","6","5","3","5","6","5","5","3","687758948400365568","黄","88","Female","[""好她"",""坏她"",""好我"",""坏我""]","[""强她"",""弱她"",""强我"",""弱我""]","","","","","","","","no","","","","","","","","","SRET","EW_formal","","key","j","16.66617599999998","710.8333521639864","395.83334381933594","自己","短浅","Negative","ability","","","","","","","","","","",""
"728","","j","psychophysics","81","310508","0.0-7.0-3.0-0.67","6","5","6","5","5","4","4","4","4","4","4","1","0","0","0","0","0","0","1","4","4","4","4","4","4","4","4","4","4","6","7","7","7","6","7","6","7","7","5","6","3","5","5","5","3","5","5","5","1","5","5","5","5","5","6","5","5","5","5","3","5","3","5","3","5","6","5","6","5","5","6","6","5","3","5","6","5","5","3","687758948400365568","黄","88","Female","[""好她"",""坏她"",""好我"",""坏我""]","[""强她"",""弱她"",""强我"",""弱我""]","","","","","","","","no","","","","","","","","","SRET","EW_formal","","key","j","16.994396039604045","710.8333521639864","395.83334381933594","自己","混账","Negative","morality","","","","","","","","","","",""
"618","","f","psychophysics","82","312132","0.0-7.0-3.0-0.68","6","5","6","5","5","4","4","4","4","4","4","1","0","0","0","0","0","0","1","4","4","4","4","4","4","4","4","4","4","6","7","7","7","6","7","6","7","7","5","6","3","5","5","5","3","5","5","5","1","5","5","5","5","5","6","5","5","5","5","3","5","3","5","3","5","6","5","6","5","5","6","6","5","3","5","6","5","5","3","687758948400365568","黄","88","Female","[""好她"",""坏她"",""好我"",""坏我""]","[""强她"",""弱她"",""强我"",""弱我""]","","","","","","","","yes","","","","","","","","","SRET","EW_formal","","key","f","16.84618947368397","710.8333521639864","395.83334381933594","自己","仁爱","Positive","morality","","","","","","","","","","",""
"754","","j","psychophysics","83","313897","0.0-7.0-3.0-0.69","6","5","6","5","5","4","4","4","4","4","4","1","0","0","0","0","0","0","1","4","4","4","4","4","4","4","4","4","4","6","7","7","7","6","7","6","7","7","5","6","3","5","5","5","3","5","5","5","1","5","5","5","5","5","6","5","5","5","5","3","5","3","5","3","5","6","5","6","5","5","6","6","5","3","5","6","5","5","3","687758948400365568","黄","88","Female","[""好她"",""坏她"",""好我"",""坏我""]","[""强她"",""弱她"",""强我"",""弱我""]","","","","","","","","no","","","","","","","","","SRET","EW_formal","","key","j","16.663799999999657","710.8333521639864","395.83334381933594","朋友","迟钝","Negative","ability","","","","","","","","","","",""
"1001","","j","psychophysics","84","315907","0.0-7.0-3.0-0.70","6","5","6","5","5","4","4","4","4","4","4","1","0","0","0","0","0","0","1","4","4","4","4","4","4","4","4","4","4","6","7","7","7","6","7","6","7","7","5","6","3","5","5","5","3","5","5","5","1","5","5","5","5","5","6","5","5","5","5","3","5","3","5","3","5","6","5","6","5","5","6","6","5","3","5","6","5","5","3","687758948400365568","黄","88","Female","[""好她"",""坏她"",""好我"",""坏我""]","[""强她"",""弱她"",""强我"",""弱我""]","","","","","","","","no","","","","","","","","","SRET","EW_formal","","key","j","16.664516666666895","710.8333521639864","395.83334381933594","自己","虚假","Negative","morality","","","","","","","","","","",""
"722","","j","psychophysics","85","317658","0.0-7.0-3.0-0.71","6","5","6","5","5","4","4","4","4","4","4","1","0","0","0","0","0","0","1","4","4","4","4","4","4","4","4","4","4","6","7","7","7","6","7","6","7","7","5","6","3","5","5","5","3","5","5","5","1","5","5","5","5","5","6","5","5","5","5","3","5","3","5","3","5","6","5","6","5","5","6","6","5","3","5","6","5","5","3","687758948400365568","黄","88","Female","[""好她"",""坏她"",""好我"",""坏我""]","[""强她"",""弱她"",""强我"",""弱我""]","","","","","","","","no","","","","","","","","","SRET","EW_formal","","key","j","16.665951923077117","710.8333521639864","395.83334381933594","朋友","愚痴","Negative","ability","","","","","","","","","","",""
"643","","f","psychophysics","86","319306","0.0-7.0-3.0-0.72","6","5","6","5","5","4","4","4","4","4","4","1","0","0","0","0","0","0","1","4","4","4","4","4","4","4","4","4","4","6","7","7","7","6","7","6","7","7","5","6","3","5","5","5","3","5","5","5","1","5","5","5","5","5","6","5","5","5","5","3","5","3","5","3","5","6","5","6","5","5","6","6","5","3","5","6","5","5","3","687758948400365568","黄","88","Female","[""好她"",""坏她"",""好我"",""坏我""]","[""强她"",""弱她"",""强我"",""弱我""]","","","","","","","","yes","","","","","","","","","SRET","EW_formal","","key","f","16.664918367347052","710.8333521639864","395.83334381933594","朋友","谦逊","Positive","morality","","","","","","","","","","",""
"756","","f","psychophysics","87","321065","0.0-7.0-3.0-0.73","6","5","6","5","5","4","4","4","4","4","4","1","0","0","0","0","0","0","1","4","4","4","4","4","4","4","4","4","4","6","7","7","7","6","7","6","7","7","5","6","3","5","5","5","3","5","5","5","1","5","5","5","5","5","6","5","5","5","5","3","5","3","5","3","5","6","5","6","5","5","6","6","5","3","5","6","5","5","3","687758948400365568","黄","88","Female","[""好她"",""坏她"",""好我"",""坏我""]","[""强她"",""弱她"",""强我"",""弱我""]","","","","","","","","yes","","","","","","","","","SRET","EW_formal","","key","f","16.66474038461568","710.8333521639864","395.83334381933594","朋友","肯干","Positive","ability","","","","","","","","","","",""
"688","","j","psychophysics","88","322760","0.0-7.0-3.0-0.74","6","5","6","5","5","4","4","4","4","4","4","1","0","0","0","0","0","0","1","4","4","4","4","4","4","4","4","4","4","6","7","7","7","6","7","6","7","7","5","6","3","5","5","5","3","5","5","5","1","5","5","5","5","5","6","5","5","5","5","3","5","3","5","3","5","6","5","6","5","5","6","6","5","3","5","6","5","5","3","687758948400365568","黄","88","Female","[""好她"",""坏她"",""好我"",""坏我""]","[""强她"",""弱她"",""强我"",""弱我""]","","","","","","","","no","","","","","","","","","SRET","EW_formal","","key","j","16.67057425742577","710.8333521639864","395.83334381933594","自己","马虎","Negative","ability","","","","","","","","","","",""
"779","","j","psychophysics","89","324545","0.0-7.0-3.0-0.75","6","5","6","5","5","4","4","4","4","4","4","1","0","0","0","0","0","0","1","4","4","4","4","4","4","4","4","4","4","6","7","7","7","6","7","6","7","7","5","6","3","5","5","5","3","5","5","5","1","5","5","5","5","5","6","5","5","5","5","3","5","3","5","3","5","6","5","6","5","5","6","6","5","3","5","6","5","5","3","687758948400365568","黄","88","Female","[""好她"",""坏她"",""好我"",""坏我""]","[""强她"",""弱她"",""强我"",""弱我""]","","","","","","","","no","","","","","","","","","SRET","EW_formal","","key","j","16.669622641509257","710.8333521639864","395.83334381933594","朋友","伪善","Negative","morality","","","","","","","","","","",""
"962","","f","psychophysics","90","326523","0.0-7.0-3.0-0.76","6","5","6","5","5","4","4","4","4","4","4","1","0","0","0","0","0","0","1","4","4","4","4","4","4","4","4","4","4","6","7","7","7","6","7","6","7","7","5","6","3","5","5","5","3","5","5","5","1","5","5","5","5","5","6","5","5","5","5","3","5","3","5","3","5","6","5","6","5","5","6","6","5","3","5","6","5","5","3","687758948400365568","黄","88","Female","[""好她"",""坏她"",""好我"",""坏我""]","[""强她"",""弱她"",""强我"",""弱我""]","","","","","","","","yes","","","","","","","","","SRET","EW_formal","","key","f","16.66663559322034","710.8333521639864","395.83334381933594","朋友","守时","Positive","morality","","","","","","","","","","",""
"1030","","j","psychophysics","91","328558","0.0-7.0-3.0-0.77","6","5","6","5","5","4","4","4","4","4","4","1","0","0","0","0","0","0","1","4","4","4","4","4","4","4","4","4","4","6","7","7","7","6","7","6","7","7","5","6","3","5","5","5","3","5","5","5","1","5","5","5","5","5","6","5","5","5","5","3","5","3","5","3","5","6","5","6","5","5","6","6","5","3","5","6","5","5","3","687758948400365568","黄","88","Female","[""好她"",""坏她"",""好我"",""坏我""]","[""强她"",""弱她"",""强我"",""弱我""]","","","","","","","","no","","","","","","","","","SRET","EW_formal","","key","j","16.666553719008192","710.8333521639864","395.83334381933594","自己","利己","Negative","morality","","","","","","","","","","",""
"570","","f","psychophysics","92","330131","0.0-7.0-3.0-0.78","6","5","6","5","5","4","4","4","4","4","4","1","0","0","0","0","0","0","1","4","4","4","4","4","4","4","4","4","4","6","7","7","7","6","7","6","7","7","5","6","3","5","5","5","3","5","5","5","1","5","5","5","5","5","6","5","5","5","5","3","5","3","5","3","5","6","5","6","5","5","6","6","5","3","5","6","5","5","3","687758948400365568","黄","88","Female","[""好她"",""坏她"",""好我"",""坏我""]","[""强她"",""弱她"",""强我"",""弱我""]","","","","","","","","yes","","","","","","","","","SRET","EW_formal","","key","f","16.670193548386877","710.8333521639864","395.83334381933594","朋友","正气","Positive","morality","","","","","","","","","","",""
"875","","f","psychophysics","93","332025","0.0-7.0-3.0-0.79","6","5","6","5","5","4","4","4","4","4","4","1","0","0","0","0","0","0","1","4","4","4","4","4","4","4","4","4","4","6","7","7","7","6","7","6","7","7","5","6","3","5","5","5","3","5","5","5","1","5","5","5","5","5","6","5","5","5","5","3","5","3","5","3","5","6","5","6","5","5","6","6","5","3","5","6","5","5","3","687758948400365568","黄","88","Female","[""好她"",""坏她"",""好我"",""坏我""]","[""强她"",""弱她"",""强我"",""弱我""]","","","","","","","","yes","","","","","","","","","SRET","EW_formal","","key","f","16.967477477477605","710.8333521639864","395.83334381933594","自己","敏捷","Positive","ability","","","","","","","","","","",""
"780","","j","psychophysics","94","333810","0.0-7.0-3.0-0.80","6","5","6","5","5","4","4","4","4","4","4","1","0","0","0","0","0","0","1","4","4","4","4","4","4","4","4","4","4","6","7","7","7","6","7","6","7","7","5","6","3","5","5","5","3","5","5","5","1","5","5","5","5","5","6","5","5","5","5","3","5","3","5","3","5","6","5","6","5","5","6","6","5","3","5","6","5","5","3","687758948400365568","黄","88","Female","[""好她"",""坏她"",""好我"",""坏我""]","[""强她"",""弱她"",""强我"",""弱我""]","","","","","","","","no","","","","","","","","","SRET","EW_formal","","key","j","16.670377358490544","710.8333521639864","395.83334381933594","自己","拖延","Negative","ability","","","","","","","","","","",""
"894","","j","psychophysics","95","335708","0.0-7.0-3.0-0.81","6","5","6","5","5","4","4","4","4","4","4","1","0","0","0","0","0","0","1","4","4","4","4","4","4","4","4","4","4","6","7","7","7","6","7","6","7","7","5","6","3","5","5","5","3","5","5","5","1","5","5","5","5","5","6","5","5","5","5","3","5","3","5","3","5","6","5","6","5","5","6","6","5","3","5","6","5","5","3","687758948400365568","黄","88","Female","[""好她"",""坏她"",""好我"",""坏我""]","[""强她"",""弱她"",""强我"",""弱我""]","","","","","","","","no","","","","","","","","","SRET","EW_formal","","key","j","16.670115044247773","710.8333521639864","395.83334381933594","朋友","怠惰","Negative","ability","","","","","","","","","","",""
"807","","j","psychophysics","96","337521","0.0-7.0-3.0-0.82","6","5","6","5","5","4","4","4","4","4","4","1","0","0","0","0","0","0","1","4","4","4","4","4","4","4","4","4","4","6","7","7","7","6","7","6","7","7","5","6","3","5","5","5","3","5","5","5","1","5","5","5","5","5","6","5","5","5","5","3","5","3","5","3","5","6","5","6","5","5","6","6","5","3","5","6","5","5","3","687758948400365568","黄","88","Female","[""好她"",""坏她"",""好我"",""坏我""]","[""强她"",""弱她"",""强我"",""弱我""]","","","","","","","","no","","","","","","","","","SRET","EW_formal","","key","j","16.980386792452574","710.8333521639864","395.83334381933594","自己","无为","Negative","ability","","","","","","","","","","",""
"722","","f","psychophysics","97","339249","0.0-7.0-3.0-0.83","6","5","6","5","5","4","4","4","4","4","4","1","0","0","0","0","0","0","1","4","4","4","4","4","4","4","4","4","4","6","7","7","7","6","7","6","7","7","5","6","3","5","5","5","3","5","5","5","1","5","5","5","5","5","6","5","5","5","5","3","5","3","5","3","5","6","5","6","5","5","6","6","5","3","5","6","5","5","3","687758948400365568","黄","88","Female","[""好她"",""坏她"",""好我"",""坏我""]","[""强她"",""弱她"",""强我"",""弱我""]","","","","","","","","yes","","","","","","","","","SRET","EW_formal","","key","f","16.664242718446754","710.8333521639864","395.83334381933594","朋友","高尚","Positive","morality","","","","","","","","","","",""
"807","","f","psychophysics","98","341059","0.0-7.0-3.0-0.84","6","5","6","5","5","4","4","4","4","4","4","1","0","0","0","0","0","0","1","4","4","4","4","4","4","4","4","4","4","6","7","7","7","6","7","6","7","7","5","6","3","5","5","5","3","5","5","5","1","5","5","5","5","5","6","5","5","5","5","3","5","3","5","3","5","6","5","6","5","5","6","6","5","3","5","6","5","5","3","687758948400365568","黄","88","Female","[""好她"",""坏她"",""好我"",""坏我""]","[""强她"",""弱她"",""强我"",""弱我""]","","","","","","","","yes","","","","","","","","","SRET","EW_formal","","key","f","16.665224299065457","710.8333521639864","395.83334381933594","朋友","素养","Positive","morality","","","","","","","","","","",""
"1127","","j","psychophysics","99","343191","0.0-7.0-3.0-0.85","6","5","6","5","5","4","4","4","4","4","4","1","0","0","0","0","0","0","1","4","4","4","4","4","4","4","4","4","4","6","7","7","7","6","7","6","7","7","5","6","3","5","5","5","3","5","5","5","1","5","5","5","5","5","6","5","5","5","5","3","5","3","5","3","5","6","5","6","5","5","6","6","5","3","5","6","5","5","3","687758948400365568","黄","88","Female","[""好她"",""坏她"",""好我"",""坏我""]","[""强她"",""弱她"",""强我"",""弱我""]","","","","","","","","no","","","","","","","","","SRET","EW_formal","","key","j","16.931711999999823","710.8333521639864","395.83334381933594","自己","缓慢","Negative","ability","","","","","","","","","","",""
"758","","j","psychophysics","100","344979","0.0-7.0-3.0-0.86","6","5","6","5","5","4","4","4","4","4","4","1","0","0","0","0","0","0","1","4","4","4","4","4","4","4","4","4","4","6","7","7","7","6","7","6","7","7","5","6","3","5","5","5","3","5","5","5","1","5","5","5","5","5","6","5","5","5","5","3","5","3","5","3","5","6","5","6","5","5","6","6","5","3","5","6","5","5","3","687758948400365568","黄","88","Female","[""好她"",""坏她"",""好我"",""坏我""]","[""强她"",""弱她"",""强我"",""弱我""]","","","","","","","","no","","","","","","","","","SRET","EW_formal","","key","j","16.986163461538336","710.8333521639864","395.83334381933594","朋友","低俗","Negative","morality","","","","","","","","","","",""
"888","","f","psychophysics","101","346877","0.0-7.0-3.0-0.87","6","5","6","5","5","4","4","4","4","4","4","1","0","0","0","0","0","0","1","4","4","4","4","4","4","4","4","4","4","6","7","7","7","6","7","6","7","7","5","6","3","5","5","5","3","5","5","5","1","5","5","5","5","5","6","5","5","5","5","3","5","3","5","3","5","6","5","6","5","5","6","6","5","3","5","6","5","5","3","687758948400365568","黄","88","Female","[""好她"",""坏她"",""好我"",""坏我""]","[""强她"",""弱她"",""强我"",""弱我""]","","","","","","","","yes","","","","","","","","","SRET","EW_formal","","key","f","16.816258928571706","710.8333521639864","395.83334381933594","自己","主见","Positive","ability","","","","","","","","","","",""
"18012","
    <p><div style='color:white;font-size:35px; line-height:20px;'>计算任务</div></p><br>
    <p><div style='color:red;font-size:25px; line-height:20px;'>接下来，您将看到一些四则运算题，<b>请从键盘选择 0-9 进行反应。</b></div></p>
    <p><div style='color:red;font-size:25px; line-height:20px;'>请尽可能快地进行计算，计算的速度和正确率将影响报酬的发放。</div></p>
    <p><div class='footer' style='color:white;font-size:25px; line-height:20px;'>如果对本实验还有不清楚之处，请立即向实验员咨询。</p><p style='color:white;font-size:25px; line-height:20px;'>如果您明白了规则：</p><p style='color:white;font-size:22px; line-height:20px;'>请按 继续 进入练习</p>
    </div>
    ","0","html-button-response","102","364897","0.0-7.0-4.0","6","5","6","5","5","4","4","4","4","4","4","1","0","0","0","0","0","0","1","4","4","4","4","4","4","4","4","4","4","6","7","7","7","6","7","6","7","7","5","6","3","5","5","5","3","5","5","5","1","5","5","5","5","5","6","5","5","5","5","3","5","3","5","3","5","6","5","6","5","5","6","6","5","3","5","6","5","5","3","687758948400365568","黄","88","Female","[""好她"",""坏她"",""好我"",""坏我""]","[""强她"",""弱她"",""强我"",""弱我""]","","","","","","","","","","","","","","","","","SRET_math","math_instructions","Tue Dec 19 2023 16:40:43 GMT+0800 (中国标准时间)","","","","","","","","","","","","","","","","","","","",""
"2367","","7","psychophysics","103","367275","0.0-7.0-5.0-0.0","6","5","6","5","5","4","4","4","4","4","4","1","0","0","0","0","0","0","1","4","4","4","4","4","4","4","4","4","4","6","7","7","7","6","7","6","7","7","5","6","3","5","5","5","3","5","5","5","1","5","5","5","5","5","6","5","5","5","5","3","5","3","5","3","5","6","5","6","5","5","6","6","5","3","5","6","5","5","3","687758948400365568","黄","88","Female","[""好她"",""坏她"",""好我"",""坏我""]","[""强她"",""弱她"",""强我"",""弱我""]","","","","","","","","7","","","","","","","","","SRET","SRET_math_calculate","","key","7","16.899177304964844","710.8333521639864","395.83334381933594","","","","","9-2= ?","7","1","","","","","","","",""
"2163","","5","psychophysics","104","369451","0.0-7.0-5.0-0.1","6","5","6","5","5","4","4","4","4","4","4","1","0","0","0","0","0","0","1","4","4","4","4","4","4","4","4","4","4","6","7","7","7","6","7","6","7","7","5","6","3","5","5","5","3","5","5","5","1","5","5","5","5","5","6","5","5","5","5","3","5","3","5","3","5","6","5","6","5","5","6","6","5","3","5","6","5","5","3","687758948400365568","黄","88","Female","[""好她"",""坏她"",""好我"",""坏我""]","[""强她"",""弱她"",""强我"",""弱我""]","","","","","","","","5","","","","","","","","","SRET","SRET_math_calculate","","key","5","16.795449612403196","710.8333521639864","395.83334381933594","","","","","8-3= ? ","5","1","","","","","","","",""
"2992","","5","psychophysics","105","372452","0.0-7.0-5.0-0.2","6","5","6","5","5","4","4","4","4","4","4","1","0","0","0","0","0","0","1","4","4","4","4","4","4","4","4","4","4","6","7","7","7","6","7","6","7","7","5","6","3","5","5","5","3","5","5","5","1","5","5","5","5","5","6","5","5","5","5","3","5","3","5","3","5","6","5","6","5","5","6","6","5","3","5","6","5","5","3","687758948400365568","黄","88","Female","[""好她"",""坏她"",""好我"",""坏我""]","[""强她"",""弱她"",""强我"",""弱我""]","","","","","","","","5","","","","","","","","","SRET","SRET_math_calculate","","key","5","16.664245810055995","710.8333521639864","395.83334381933594","","","","","5/1= ?","5","1","","","","","","","",""
"2335","","3","psychophysics","106","374819","0.0-7.0-5.0-0.3","6","5","6","5","5","4","4","4","4","4","4","1","0","0","0","0","0","0","1","4","4","4","4","4","4","4","4","4","4","6","7","7","7","6","7","6","7","7","5","6","3","5","5","5","3","5","5","5","1","5","5","5","5","5","6","5","5","5","5","3","5","3","5","3","5","6","5","6","5","5","6","6","5","3","5","6","5","5","3","687758948400365568","黄","88","Female","[""好她"",""坏她"",""好我"",""坏我""]","[""强她"",""弱她"",""强我"",""弱我""]","","","","","","","","3","","","","","","","","","SRET","SRET_math_calculate","","key","3","16.665312056737648","710.8333521639864","395.83334381933594","","","","","9-6= ?","3","1","","","","","","","",""
"2406","","5","psychophysics","107","377236","0.0-7.0-5.0-0.4","6","5","6","5","5","4","4","4","4","4","4","1","0","0","0","0","0","0","1","4","4","4","4","4","4","4","4","4","4","6","7","7","7","6","7","6","7","7","5","6","3","5","5","5","3","5","5","5","1","5","5","5","5","5","6","5","5","5","5","3","5","3","5","3","5","6","5","6","5","5","6","6","5","3","5","6","5","5","3","687758948400365568","黄","88","Female","[""好她"",""坏她"",""好我"",""坏我""]","[""强她"",""弱她"",""强我"",""弱我""]","","","","","","","","5","","","","","","","","","SRET","SRET_math_calculate","","key","5","16.667493055555596","710.8333521639864","395.83334381933594","","","","","17-12= ? ","5","1","","","","","","","",""
"2312","","8","psychophysics","108","379585","0.0-7.0-5.0-0.5","6","5","6","5","5","4","4","4","4","4","4","1","0","0","0","0","0","0","1","4","4","4","4","4","4","4","4","4","4","6","7","7","7","6","7","6","7","7","5","6","3","5","5","5","3","5","5","5","1","5","5","5","5","5","6","5","5","5","5","3","5","3","5","3","5","6","5","6","5","5","6","6","5","3","5","6","5","5","3","687758948400365568","黄","88","Female","[""好她"",""坏她"",""好我"",""坏我""]","[""强她"",""弱她"",""强我"",""弱我""]","","","","","","","","8","","","","","","","","","SRET","SRET_math_calculate","","key","8","16.667828571428462","710.8333521639864","395.83334381933594","","","","","1+7= ?","8","1","","","","","","","",""
"2775","","0","psychophysics","109","382367","0.0-7.0-5.0-0.6","6","5","6","5","5","4","4","4","4","4","4","1","0","0","0","0","0","0","1","4","4","4","4","4","4","4","4","4","4","6","7","7","7","6","7","6","7","7","5","6","3","5","5","5","3","5","5","5","1","5","5","5","5","5","6","5","5","5","5","3","5","3","5","3","5","6","5","6","5","5","6","6","5","3","5","6","5","5","3","687758948400365568","黄","88","Female","[""好她"",""坏她"",""好我"",""坏我""]","[""强她"",""弱她"",""强我"",""弱我""]","","","","","","","","0","","","","","","","","","SRET","SRET_math_calculate","","key","0","16.868579268292596","710.8333521639864","395.83334381933594","","","","","32-32= ?","0","1","","","","","","","",""
"2436","","7","psychophysics","110","384835","0.0-7.0-5.0-0.7","6","5","6","5","5","4","4","4","4","4","4","1","0","0","0","0","0","0","1","4","4","4","4","4","4","4","4","4","4","6","7","7","7","6","7","6","7","7","5","6","3","5","5","5","3","5","5","5","1","5","5","5","5","5","6","5","5","5","5","3","5","3","5","3","5","6","5","6","5","5","6","6","5","3","5","6","5","5","3","687758948400365568","黄","88","Female","[""好她"",""坏她"",""好我"",""坏我""]","[""强她"",""弱她"",""强我"",""弱我""]","","","","","","","","7","","","","","","","","","SRET","SRET_math_calculate","","key","7","16.665074829931996","710.8333521639864","395.83334381933594","","","","","3+4= ?","7","1","","","","","","","",""
"2032","","5","psychophysics","111","386874","0.0-7.0-5.0-0.8","6","5","6","5","5","4","4","4","4","4","4","1","0","0","0","0","0","0","1","4","4","4","4","4","4","4","4","4","4","6","7","7","7","6","7","6","7","7","5","6","3","5","5","5","3","5","5","5","1","5","5","5","5","5","6","5","5","5","5","3","5","3","5","3","5","6","5","6","5","5","6","6","5","3","5","6","5","5","3","687758948400365568","黄","88","Female","[""好她"",""坏她"",""好我"",""坏我""]","[""强她"",""弱她"",""强我"",""弱我""]","","","","","","","","5","","","","","","","","","SRET","SRET_math_calculate","","key","5","16.66758677685943","710.8333521639864","395.83334381933594","","","","","2+3= ?","5","1","","","","","","","",""
"2246","","0","psychophysics","112","389152","0.0-7.0-5.0-0.9","6","5","6","5","5","4","4","4","4","4","4","1","0","0","0","0","0","0","1","4","4","4","4","4","4","4","4","4","4","6","7","7","7","6","7","6","7","7","5","6","3","5","5","5","3","5","5","5","1","5","5","5","5","5","6","5","5","5","5","3","5","3","5","3","5","6","5","6","5","5","6","6","5","3","5","6","5","5","3","687758948400365568","黄","88","Female","[""好她"",""坏她"",""好我"",""坏我""]","[""强她"",""弱她"",""强我"",""弱我""]","","","","","","","","0","","","","","","","","","SRET","SRET_math_calculate","","key","0","16.665257352941435","710.8333521639864","395.83334381933594","","","","","7*0= ?","0","1","","","","","","","",""
"2097","","8","psychophysics","113","391262","0.0-7.0-5.0-0.10","6","5","6","5","5","4","4","4","4","4","4","1","0","0","0","0","0","0","1","4","4","4","4","4","4","4","4","4","4","6","7","7","7","6","7","6","7","7","5","6","3","5","5","5","3","5","5","5","1","5","5","5","5","5","6","5","5","5","5","3","5","3","5","3","5","6","5","6","5","5","6","6","5","3","5","6","5","5","3","687758948400365568","黄","88","Female","[""好她"",""坏她"",""好我"",""坏我""]","[""强她"",""弱她"",""强我"",""弱我""]","","","","","","","","8","","","","","","","","","SRET","SRET_math_calculate","","key","8","16.667016393442534","710.8333521639864","395.83334381933594","","","","","3+5= ?","8","1","","","","","","","",""
"2485","","2","psychophysics","114","393756","0.0-7.0-5.0-0.11","6","5","6","5","5","4","4","4","4","4","4","1","0","0","0","0","0","0","1","4","4","4","4","4","4","4","4","4","4","6","7","7","7","6","7","6","7","7","5","6","3","5","5","5","3","5","5","5","1","5","5","5","5","5","6","5","5","5","5","3","5","3","5","3","5","6","5","6","5","5","6","6","5","3","5","6","5","5","3","687758948400365568","黄","88","Female","[""好她"",""坏她"",""好我"",""坏我""]","[""强她"",""弱她"",""强我"",""弱我""]","","","","","","","","2","","","","","","","","","SRET","SRET_math_calculate","","key","2","16.887780000000106","710.8333521639864","395.83334381933594","","","","","18/9= ?","2","1","","","","","","","",""
"2409","","1","psychophysics","115","396183","0.0-7.0-5.0-0.12","6","5","6","5","5","4","4","4","4","4","4","1","0","0","0","0","0","0","1","4","4","4","4","4","4","4","4","4","4","6","7","7","7","6","7","6","7","7","5","6","3","5","5","5","3","5","5","5","1","5","5","5","5","5","6","5","5","5","5","3","5","3","5","3","5","6","5","6","5","5","6","6","5","3","5","6","5","5","3","687758948400365568","黄","88","Female","[""好她"",""坏她"",""好我"",""坏我""]","[""强她"",""弱她"",""强我"",""弱我""]","","","","","","","","1","","","","","","","","","SRET","SRET_math_calculate","","key","1","16.899818181818176","710.8333521639864","395.83334381933594","","","","","10-9= ?","1","1","","","","","","","",""
"3129","","9","psychophysics","116","399319","0.0-7.0-5.0-0.13","6","5","6","5","5","4","4","4","4","4","4","1","0","0","0","0","0","0","1","4","4","4","4","4","4","4","4","4","4","6","7","7","7","6","7","6","7","7","5","6","3","5","5","5","3","5","5","5","1","5","5","5","5","5","6","5","5","5","5","3","5","3","5","3","5","6","5","6","5","5","6","6","5","3","5","6","5","5","3","687758948400365568","黄","88","Female","[""好她"",""坏她"",""好我"",""坏我""]","[""强她"",""弱她"",""强我"",""弱我""]","","","","","","","","9","","","","","","","","","SRET","SRET_math_calculate","","key","9","16.84606486486485","710.8333521639864","395.83334381933594","","","","","13-5= ?","8","0","","","","","","","",""
"2351","","2","psychophysics","117","401707","0.0-7.0-5.0-0.14","6","5","6","5","5","4","4","4","4","4","4","1","0","0","0","0","0","0","1","4","4","4","4","4","4","4","4","4","4","6","7","7","7","6","7","6","7","7","5","6","3","5","5","5","3","5","5","5","1","5","5","5","5","5","6","5","5","5","5","3","5","3","5","3","5","6","5","6","5","5","6","6","5","3","5","6","5","5","3","687758948400365568","黄","88","Female","[""好她"",""坏她"",""好我"",""坏我""]","[""强她"",""弱她"",""强我"",""弱我""]","","","","","","","","2","","","","","","","","","SRET","SRET_math_calculate","","key","2","16.66660563380279","710.8333521639864","395.83334381933594","","","","","8/4= ?","2","1","","","","","","","",""
"2350","","8","psychophysics","118","404070","0.0-7.0-5.0-0.15","6","5","6","5","5","4","4","4","4","4","4","1","0","0","0","0","0","0","1","4","4","4","4","4","4","4","4","4","4","6","7","7","7","6","7","6","7","7","5","6","3","5","5","5","3","5","5","5","1","5","5","5","5","5","6","5","5","5","5","3","5","3","5","3","5","6","5","6","5","5","6","6","5","3","5","6","5","5","3","687758948400365568","黄","88","Female","[""好她"",""坏她"",""好我"",""坏我""]","[""强她"",""弱她"",""强我"",""弱我""]","","","","","","","","8","","","","","","","","","SRET","SRET_math_calculate","","key","8","16.665368794326106","710.8333521639864","395.83334381933594","","","","","2+6= ?","8","1","","","","","","","",""
"1943","","2","psychophysics","119","406045","0.0-7.0-5.0-0.16","6","5","6","5","5","4","4","4","4","4","4","1","0","0","0","0","0","0","1","4","4","4","4","4","4","4","4","4","4","6","7","7","7","6","7","6","7","7","5","6","3","5","5","5","3","5","5","5","1","5","5","5","5","5","6","5","5","5","5","3","5","3","5","3","5","6","5","6","5","5","6","6","5","3","5","6","5","5","3","687758948400365568","黄","88","Female","[""好她"",""坏她"",""好我"",""坏我""]","[""强她"",""弱她"",""强我"",""弱我""]","","","","","","","","2","","","","","","","","","SRET","SRET_math_calculate","","key","2","16.665703389830632","710.8333521639864","395.83334381933594","","","","","5-3= ?","2","1","","","","","","","",""
"2319","","6","psychophysics","120","408370","0.0-7.0-5.0-0.17","6","5","6","5","5","4","4","4","4","4","4","1","0","0","0","0","0","0","1","4","4","4","4","4","4","4","4","4","4","6","7","7","7","6","7","6","7","7","5","6","3","5","5","5","3","5","5","5","1","5","5","5","5","5","6","5","5","5","5","3","5","3","5","3","5","6","5","6","5","5","6","6","5","3","5","6","5","5","3","687758948400365568","黄","88","Female","[""好她"",""坏她"",""好我"",""坏我""]","[""强她"",""弱她"",""强我"",""弱我""]","","","","","","","","6","","","","","","","","","SRET","SRET_math_calculate","","key","6","16.66476086956496","710.8333521639864","395.83334381933594","","","","","2+4= ?","6","1","","","","","","","",""
"1994","","6","psychophysics","121","410421","0.0-7.0-5.0-0.18","6","5","6","5","5","4","4","4","4","4","4","1","0","0","0","0","0","0","1","4","4","4","4","4","4","4","4","4","4","6","7","7","7","6","7","6","7","7","5","6","3","5","5","5","3","5","5","5","1","5","5","5","5","5","6","5","5","5","5","3","5","3","5","3","5","6","5","6","5","5","6","6","5","3","5","6","5","5","3","687758948400365568","黄","88","Female","[""好她"",""坏她"",""好我"",""坏我""]","[""强她"",""弱她"",""强我"",""弱我""]","","","","","","","","6","","","","","","","","","SRET","SRET_math_calculate","","key","6","16.94420000000003","710.8333521639864","395.83334381933594","","","","","4+2= ?","6","1","","","","","","","",""
"2506","","9","psychophysics","122","412962","0.0-7.0-5.0-0.19","6","5","6","5","5","4","4","4","4","4","4","1","0","0","0","0","0","0","1","4","4","4","4","4","4","4","4","4","4","6","7","7","7","6","7","6","7","7","5","6","3","5","5","5","3","5","5","5","1","5","5","5","5","5","6","5","5","5","5","3","5","3","5","3","5","6","5","6","5","5","6","6","5","3","5","6","5","5","3","687758948400365568","黄","88","Female","[""好她"",""坏她"",""好我"",""坏我""]","[""强她"",""弱她"",""强我"",""弱我""]","","","","","","","","9","","","","","","","","","SRET","SRET_math_calculate","","key","9","16.66472368421053","710.8333521639864","395.83334381933594","","","","","18/2= ?","9","1","","","","","","","",""
"2303","","2","psychophysics","123","415302","0.0-7.0-5.0-0.20","6","5","6","5","5","4","4","4","4","4","4","1","0","0","0","0","0","0","1","4","4","4","4","4","4","4","4","4","4","6","7","7","7","6","7","6","7","7","5","6","3","5","5","5","3","5","5","5","1","5","5","5","5","5","6","5","5","5","5","3","5","3","5","3","5","6","5","6","5","5","6","6","5","3","5","6","5","5","3","687758948400365568","黄","88","Female","[""好她"",""坏她"",""好我"",""坏我""]","[""强她"",""弱她"",""强我"",""弱我""]","","","","","","","","2","","","","","","","","","SRET","SRET_math_calculate","","key","2","16.66392086330917","710.8333521639864","395.83334381933594","","","","","22/11= ?","2","1","","","","","","","",""
"2240","","7","psychophysics","124","417546","0.0-7.0-5.0-0.21","6","5","6","5","5","4","4","4","4","4","4","1","0","0","0","0","0","0","1","4","4","4","4","4","4","4","4","4","4","6","7","7","7","6","7","6","7","7","5","6","3","5","5","5","3","5","5","5","1","5","5","5","5","5","6","5","5","5","5","3","5","3","5","3","5","6","5","6","5","5","6","6","5","3","5","6","5","5","3","687758948400365568","黄","88","Female","[""好她"",""坏她"",""好我"",""坏我""]","[""强她"",""弱她"",""强我"",""弱我""]","","","","","","","","7","","","","","","","","","SRET","SRET_math_calculate","","key","7","16.666164179104502","710.8333521639864","395.83334381933594","","","","","4+3= ?","7","1","","","","","","","",""
"2298","","6","psychophysics","125","419866","0.0-7.0-5.0-0.22","6","5","6","5","5","4","4","4","4","4","4","1","0","0","0","0","0","0","1","4","4","4","4","4","4","4","4","4","4","6","7","7","7","6","7","6","7","7","5","6","3","5","5","5","3","5","5","5","1","5","5","5","5","5","6","5","5","5","5","3","5","3","5","3","5","6","5","6","5","5","6","6","5","3","5","6","5","5","3","687758948400365568","黄","88","Female","[""好她"",""坏她"",""好我"",""坏我""]","[""强她"",""弱她"",""强我"",""弱我""]","","","","","","","","6","","","","","","","","","SRET","SRET_math_calculate","","key","6","16.665376811594097","710.8333521639864","395.83334381933594","","","","","1*8= ?","8","0","","","","","","","",""
"2224","","9","psychophysics","126","422110","0.0-7.0-5.0-0.23","6","5","6","5","5","4","4","4","4","4","4","1","0","0","0","0","0","0","1","4","4","4","4","4","4","4","4","4","4","6","7","7","7","6","7","6","7","7","5","6","3","5","5","5","3","5","5","5","1","5","5","5","5","5","6","5","5","5","5","3","5","3","5","3","5","6","5","6","5","5","6","6","5","3","5","6","5","5","3","687758948400365568","黄","88","Female","[""好她"",""坏她"",""好我"",""坏我""]","[""强她"",""弱她"",""强我"",""弱我""]","","","","","","","","9","","","","","","","","","SRET","SRET_math_calculate","","key","9","16.668999999999784","710.8333521639864","395.83334381933594","","","","","7+2= ?","9","1","","","","","","","",""
"2117","","6","psychophysics","127","424235","0.0-7.0-5.0-0.24","6","5","6","5","5","4","4","4","4","4","4","1","0","0","0","0","0","0","1","4","4","4","4","4","4","4","4","4","4","6","7","7","7","6","7","6","7","7","5","6","3","5","5","5","3","5","5","5","1","5","5","5","5","5","6","5","5","5","5","3","5","3","5","3","5","6","5","6","5","5","6","6","5","3","5","6","5","5","3","687758948400365568","黄","88","Female","[""好她"",""坏她"",""好我"",""坏我""]","[""强她"",""弱她"",""强我"",""弱我""]","","","","","","","","6","","","","","","","","","SRET","SRET_math_calculate","","key","6","16.927671875000215","710.8333521639864","395.83334381933594","","","","","8-2= ?","6","1","","","","","","","",""
"1972","","7","psychophysics","128","426218","0.0-7.0-5.0-0.25","6","5","6","5","5","4","4","4","4","4","4","1","0","0","0","0","0","0","1","4","4","4","4","4","4","4","4","4","4","6","7","7","7","6","7","6","7","7","5","6","3","5","5","5","3","5","5","5","1","5","5","5","5","5","6","5","5","5","5","3","5","3","5","3","5","6","5","6","5","5","6","6","5","3","5","6","5","5","3","687758948400365568","黄","88","Female","[""好她"",""坏她"",""好我"",""坏我""]","[""强她"",""弱她"",""强我"",""弱我""]","","","","","","","","7","","","","","","","","","SRET","SRET_math_calculate","","key","7","16.951801724137802","710.8333521639864","395.83334381933594","","","","","1+6= ?","7","1","","","","","","","",""
"2059","","9","psychophysics","129","428293","0.0-7.0-5.0-0.26","6","5","6","5","5","4","4","4","4","4","4","1","0","0","0","0","0","0","1","4","4","4","4","4","4","4","4","4","4","6","7","7","7","6","7","6","7","7","5","6","3","5","5","5","3","5","5","5","1","5","5","5","5","5","6","5","5","5","5","3","5","3","5","3","5","6","5","6","5","5","6","6","5","3","5","6","5","5","3","687758948400365568","黄","88","Female","[""好她"",""坏她"",""好我"",""坏我""]","[""强她"",""弱她"",""强我"",""弱我""]","","","","","","","","9","","","","","","","","","SRET","SRET_math_calculate","","key","9","16.668403225806316","710.8333521639864","395.83334381933594","","","","","3+6= ?","9","1","","","","","","","",""
"2038","","0","psychophysics","130","430346","0.0-7.0-5.0-0.27","6","5","6","5","5","4","4","4","4","4","4","1","0","0","0","0","0","0","1","4","4","4","4","4","4","4","4","4","4","6","7","7","7","6","7","6","7","7","5","6","3","5","5","5","3","5","5","5","1","5","5","5","5","5","6","5","5","5","5","3","5","3","5","3","5","6","5","6","5","5","6","6","5","3","5","6","5","5","3","687758948400365568","黄","88","Female","[""好她"",""坏她"",""好我"",""坏我""]","[""强她"",""弱她"",""强我"",""弱我""]","","","","","","","","0","","","","","","","","","SRET","SRET_math_calculate","","key","0","16.665360655737697","710.8333521639864","395.83334381933594","","","","","12-12= ?","0","1","","","","","","","",""
"2641","","8","psychophysics","131","432995","0.0-7.0-5.0-0.28","6","5","6","5","5","4","4","4","4","4","4","1","0","0","0","0","0","0","1","4","4","4","4","4","4","4","4","4","4","6","7","7","7","6","7","6","7","7","5","6","3","5","5","5","3","5","5","5","1","5","5","5","5","5","6","5","5","5","5","3","5","3","5","3","5","6","5","6","5","5","6","6","5","3","5","6","5","5","3","687758948400365568","黄","88","Female","[""好她"",""坏她"",""好我"",""坏我""]","[""强她"",""弱她"",""强我"",""弱我""]","","","","","","","","8","","","","","","","","","SRET","SRET_math_calculate","","key","8","16.877846153846267","710.8333521639864","395.83334381933594","","","","","72/9= ?","8","1","","","","","","","",""
"2210","","9","psychophysics","132","435245","0.0-7.0-5.0-0.29","6","5","6","5","5","4","4","4","4","4","4","1","0","0","0","0","0","0","1","4","4","4","4","4","4","4","4","4","4","6","7","7","7","6","7","6","7","7","5","6","3","5","5","5","3","5","5","5","1","5","5","5","5","5","6","5","5","5","5","3","5","3","5","3","5","6","5","6","5","5","6","6","5","3","5","6","5","5","3","687758948400365568","黄","88","Female","[""好她"",""坏她"",""好我"",""坏我""]","[""强她"",""弱她"",""强我"",""弱我""]","","","","","","","","9","","","","","","","","","SRET","SRET_math_calculate","","key","9","16.664798507463004","710.8333521639864","395.83334381933594","","","","","2+7= ?","9","1","","","","","","","",""
"2212","","2","psychophysics","133","437464","0.0-7.0-5.0-0.30","6","5","6","5","5","4","4","4","4","4","4","1","0","0","0","0","0","0","1","4","4","4","4","4","4","4","4","4","4","6","7","7","7","6","7","6","7","7","5","6","3","5","5","5","3","5","5","5","1","5","5","5","5","5","6","5","5","5","5","3","5","3","5","3","5","6","5","6","5","5","6","6","5","3","5","6","5","5","3","687758948400365568","黄","88","Female","[""好她"",""坏她"",""好我"",""坏我""]","[""强她"",""弱她"",""强我"",""弱我""]","","","","","","","","2","","","","","","","","","SRET","SRET_math_calculate","","key","2","16.66659090909084","710.8333521639864","395.83334381933594","","","","","19-17= ?","2","1","","","","","","","",""
"1894","","3","psychophysics","134","439372","0.0-7.0-5.0-0.31","6","5","6","5","5","4","4","4","4","4","4","1","0","0","0","0","0","0","1","4","4","4","4","4","4","4","4","4","4","6","7","7","7","6","7","6","7","7","5","6","3","5","5","5","3","5","5","5","1","5","5","5","5","5","6","5","5","5","5","3","5","3","5","3","5","6","5","6","5","5","6","6","5","3","5","6","5","5","3","687758948400365568","黄","88","Female","[""好她"",""坏她"",""好我"",""坏我""]","[""强她"",""弱她"",""强我"",""弱我""]","","","","","","","","3","","","","","","","","","SRET","SRET_math_calculate","","key","3","16.663026315789146","710.8333521639864","395.83334381933594","","","","","1+2= ?","3","1","","","","","","","",""
"2415","","5","psychophysics","135","441791","0.0-7.0-5.0-0.32","6","5","6","5","5","4","4","4","4","4","4","1","0","0","0","0","0","0","1","4","4","4","4","4","4","4","4","4","4","6","7","7","7","6","7","6","7","7","5","6","3","5","5","5","3","5","5","5","1","5","5","5","5","5","6","5","5","5","5","3","5","3","5","3","5","6","5","6","5","5","6","6","5","3","5","6","5","5","3","687758948400365568","黄","88","Female","[""好她"",""坏她"",""好我"",""坏我""]","[""强她"",""弱她"",""强我"",""弱我""]","","","","","","","","5","","","","","","","","","SRET","SRET_math_calculate","","key","5","16.667333333333065","710.8333521639864","395.83334381933594","","","","","9-4= ?","5","1","","","","","","","",""
"2158","","0","psychophysics","136","443952","0.0-7.0-5.0-0.33","6","5","6","5","5","4","4","4","4","4","4","1","0","0","0","0","0","0","1","4","4","4","4","4","4","4","4","4","4","6","7","7","7","6","7","6","7","7","5","6","3","5","5","5","3","5","5","5","1","5","5","5","5","5","6","5","5","5","5","3","5","3","5","3","5","6","5","6","5","5","6","6","5","3","5","6","5","5","3","687758948400365568","黄","88","Female","[""好她"",""坏她"",""好我"",""坏我""]","[""强她"",""弱她"",""强我"",""弱我""]","","","","","","","","0","","","","","","","","","SRET","SRET_math_calculate","","key","0","16.794125984251906","710.8333521639864","395.83334381933594","","","","","22-22= ?","0","1","","","","","","","",""
"2318","","4","psychophysics","137","446275","0.0-7.0-5.0-0.34","6","5","6","5","5","4","4","4","4","4","4","1","0","0","0","0","0","0","1","4","4","4","4","4","4","4","4","4","4","6","7","7","7","6","7","6","7","7","5","6","3","5","5","5","3","5","5","5","1","5","5","5","5","5","6","5","5","5","5","3","5","3","5","3","5","6","5","6","5","5","6","6","5","3","5","6","5","5","3","687758948400365568","黄","88","Female","[""好她"",""坏她"",""好我"",""坏我""]","[""强她"",""弱她"",""强我"",""弱我""]","","","","","","","","4","","","","","","","","","SRET","SRET_math_calculate","","key","4","16.669151079137023","710.8333521639864","395.83334381933594","","","","","8-4= ?","4","1","","","","","","","",""
