"rt","stimulus","response","trial_type","trial_index","time_elapsed","internal_node_id","swb_1","swb_2","swb_3","swb_4","swb_5","LOT_1","LOT_2","LOT_3","LOT_4","LOT_5","LOT_6","IPC_1","IPC_2","IPC_3","IPC_4","IPC_5","IPC_6","IPC_7","IPC_8","MorIden_1","MorIden_2","MorIden_3","MorIden_4","MorIden_5","MorIden_6","MorIden_7","MorIden_8","MorIden_9","MorIden_10","moralSeImag_1","moralSeImag_2","moralSeImag_3","moralSeImag_4","moralSeImag_5","moralSeImag_6","moralSeImag_7","moralSeImag_8","moralSeImag_9","sde_1","sde_2","sde_3","sde_4","sde_5","sde_6","sde_7","sde_8","sde_9","sde_10","trap2","sde_11","sde_12","sde_13","sde_14","sde_15","sde_16","sde_17","sde_18","sde_19","sde_20","IM_1","IM_2","IM_3","IM_4","IM_5","IM_6","IM_7","IM_8","IM_9","IM_10","IM_11","IM_12","IM_13","IM_14","IM_15","IM_16","IM_17","IM_18","IM_19","IM_20","subj_idx","friend_name","ParticipantID","Sex","Word","Word2","value","success","timeout","failed_images","failed_audio","failed_video","user_agent","responses","item_order","radio_event_ids","radio_event_times","key_event_times","mouse_event_times","straightlining","zigzagging","honeypot","view_history","response_type","key_press","avg_frame_time","center_x","center_y","correct_response","correct","identity","Image","word","condition","task_id","screen_id","time_stamp","person","valence","domain","math","status","duration","question_order","trap2_item"
"2442","
   <p><div style='color:white; font-size: 25px'>您好，欢迎参加本次实验。</div></p>
   <p><div style='color:white; font-size: 25px'>为充分保障您的权利，请确保您已经知晓并同意《参与实验同意书》以及《数据公开知情同意书》。</div></p>
   <p><div style='color:white; font-size: 25px'>如果您未见过上述内容，请咨询实验员。</div></p>
   <p style='color:white; font-size: 25px'>如果您选择继续实验，则表示您已经清楚两份知情同意书的内容并同意。</p>
   <p><div style = ""color: pink;font-size:30px;"">请确保您记得day0的实验编号，您将在本次实验输入该编号，若您忘记，请咨询实验员后作答。</div></p>
   <p><div style = ""color:lightblue;font-size:25px;"">请您尽可能认真地作答，我们将依据您在各问卷和按键任务中的作答质量发放报酬。</div></p>
   <p> <div style = ""color: green""><按空格键至下页></div> </p>
   "," ","html-keyboard-response","0","2446","0.0-0.0","6","7","5","6","7","5","5","4","4","5","4","0","-3","0","1","1","0","2","1","4","2","5","2","4","2","2","1","4","5","4","7","5","4","4","6","4","6","7","3","6","5","5","2","3","6","3","6","5","1","6","3","7","5","3","3","6","6","6","6","3","6","5","2","6","5","6","6","7","5","6","3","3","3","7","2","5","6","2","7","595169798766198784","林","574","Female","[""坏她"",""好她"",""好我"",""坏我""]","[""弱她"",""强她"",""强我"",""弱我""]","","","","","","","","","","","","","","","","","","","","","","","","","","","","","","","","","","","","","","",""
"","","","call-function","1","2447","0.0-1.0-0.0","6","7","5","6","7","5","5","4","4","5","4","0","-3","0","1","1","0","2","1","4","2","5","2","4","2","2","1","4","5","4","7","5","4","4","6","4","6","7","3","6","5","5","2","3","6","3","6","5","1","6","3","7","5","3","3","6","6","6","6","3","6","5","2","6","5","6","6","7","5","6","3","3","3","7","2","5","6","2","7","595169798766198784","林","574","Female","[""坏她"",""好她"",""好我"",""坏我""]","[""弱她"",""强她"",""强我"",""弱我""]","","","","","","","","","","","","","","","","","","","","","","","","","","","","","","","","","","","","","","",""
"26819","","[{""name"":""Sex"",""value"":""1""},{""name"":""friend_name"",""value"":""林""},{""name"":""ParticipantID"",""value"":""574""}]","survey-html-form","2","29328","0.0-1.0-1.0","6","7","5","6","7","5","5","4","4","5","4","0","-3","0","1","1","0","2","1","4","2","5","2","4","2","2","1","4","5","4","7","5","4","4","6","4","6","7","3","6","5","5","2","3","6","3","6","5","1","6","3","7","5","3","3","6","6","6","6","3","6","5","2","6","5","6","6","7","5","6","3","3","3","7","2","5","6","2","7","595169798766198784","林","574","Female","[""坏她"",""好她"",""好我"",""坏我""]","[""弱她"",""强她"",""强我"",""弱我""]","","","","","","","","","","","","","","","","","","","","","","","","","","","","","","","","","","","","","","",""
"","","","preload","3","29956","0.0-2.0","6","7","5","6","7","5","5","4","4","5","4","0","-3","0","1","1","0","2","1","4","2","5","2","4","2","2","1","4","5","4","7","5","4","4","6","4","6","7","3","6","5","5","2","3","6","3","6","5","1","6","3","7","5","3","3","6","6","6","6","3","6","5","2","6","5","6","6","7","5","6","3","3","3","7","2","5","6","2","7","595169798766198784","林","574","Female","[""坏她"",""好她"",""好我"",""坏我""]","[""弱她"",""强她"",""强我"",""弱我""]","","true","false","[]","[]","[]","","","","","","","","","","","","","","","","","","","","","","","","","","","","","","","","",""
"","","","fullscreen","4","34546","0.0-3.0","6","7","5","6","7","5","5","4","4","5","4","0","-3","0","1","1","0","2","1","4","2","5","2","4","2","2","1","4","5","4","7","5","4","4","6","4","6","7","3","6","5","5","2","3","6","3","6","5","1","6","3","7","5","3","3","6","6","6","6","3","6","5","2","6","5","6","6","7","5","6","3","3","3","7","2","5","6","2","7","595169798766198784","林","574","Female","[""坏她"",""好她"",""好我"",""坏我""]","[""弱她"",""强她"",""强我"",""弱我""]","","true","","","","","{}","","","","","","","","","","","","","","","","","","","","","","","","","","","","","","","",""
"25909.899999976158","","{""Q01"":""6"",""Q02"":""7"",""Q03"":""5"",""Q04"":""6"",""Q05"":""7""}","survey-template","5","60464","0.0-4.0","6","7","5","6","7","5","5","4","4","5","4","0","-3","0","1","1","0","2","1","4","2","5","2","4","2","2","1","4","5","4","7","5","4","4","6","4","6","7","3","6","5","5","2","3","6","3","6","5","1","6","3","7","5","3","3","6","6","6","6","3","6","5","2","6","5","6","6","7","5","6","3","3","3","7","2","5","6","2","7","595169798766198784","林","574","Female","[""坏她"",""好她"",""好我"",""坏我""]","[""弱她"",""强她"",""强我"",""弱我""]","","","","","","","","{""Q01"":""6"",""Q02"":""7"",""Q03"":""5"",""Q04"":""6"",""Q05"":""7""}","[0,1,2,3,4]","[""Q01"",""Q02"",""Q01"",""Q03"",""Q03"",""Q04"",""Q05""]","[2408.600000023842,3526.8000000715256,4854,5708.300000071526,6553.899999976158,7782.600000023842,11364.200000047684]","[]","[2408.600000023842,3526.8000000715256,4638.399999976158,4854,5708.300000071526,6146.100000023842,6553.899999976158,7178.200000047684,7782.600000023842,8434.5,8976.200000047684,9522.300000071526,10067.899999976158,10439.600000023842,10676.200000047684,10990.200000047684,11364.200000047684,25908.600000023842]","0.4","0.75","0","","","","","","","","","","","","","","","","","","","","","","",""
"76321.60000002384","","{""Q01"":""5"",""Q02"":""5"",""Q03"":""4"",""Q04"":""4"",""Q05"":""5"",""Q06"":""4""}","survey-template","6","136791","0.0-5.0","6","7","5","6","7","5","5","4","4","5","4","0","-3","0","1","1","0","2","1","4","2","5","2","4","2","2","1","4","5","4","7","5","4","4","6","4","6","7","3","6","5","5","2","3","6","3","6","5","1","6","3","7","5","3","3","6","6","6","6","3","6","5","2","6","5","6","6","7","5","6","3","3","3","7","2","5","6","2","7","595169798766198784","林","574","Female","[""坏她"",""好她"",""好我"",""坏我""]","[""弱她"",""强她"",""强我"",""弱我""]","","","","","","","","{""Q01"":""5"",""Q02"":""5"",""Q03"":""4"",""Q04"":""4"",""Q05"":""5"",""Q06"":""4""}","[0,1,2,3,4,5]","[""Q01"",""Q02"",""Q03"",""Q04"",""Q05"",""Q06"",""Q06""]","[3294.2000000476837,5332.799999952316,6486.5,8106.700000047684,8930.299999952316,9908.700000047684,11166.399999976158]","[]","[2072.2999999523163,2498.899999976158,3294.2000000476837,5332.799999952316,6486.5,8106.700000047684,8930.299999952316,9908.700000047684,11166.399999976158,76320.60000002384]","0.3333333333333333","0.4","0","","","","","","","","","","","","","","","","","","","","","","",""
"71800.70000004768","","{""Q01"":""0"",""Q02"":""-3"",""Q03"":""0"",""Q04"":""1"",""Q05"":""1"",""Q06"":""0"",""Q07"":""2"",""Q08"":""1""}","survey-template","7","208597","0.0-6.0","6","7","5","6","7","5","5","4","4","5","4","0","-3","0","1","1","0","2","1","4","2","5","2","4","2","2","1","4","5","4","7","5","4","4","6","4","6","7","3","6","5","5","2","3","6","3","6","5","1","6","3","7","5","3","3","6","6","6","6","3","6","5","2","6","5","6","6","7","5","6","3","3","3","7","2","5","6","2","7","595169798766198784","林","574","Female","[""坏她"",""好她"",""好我"",""坏我""]","[""弱她"",""强她"",""强我"",""弱我""]","","","","","","","","{""Q01"":""0"",""Q02"":""-3"",""Q03"":""0"",""Q04"":""1"",""Q05"":""1"",""Q06"":""0"",""Q07"":""2"",""Q08"":""1""}","[0,1,2,3,4,5,6,7]","[""Q01"",""Q01"",""Q02"",""Q03"",""Q04"",""Q04"",""Q04"",""Q05"",""Q06"",""Q06"",""Q07"",""Q08"",""Q01""]","[7498.800000071526,7998.200000047684,9090.300000071526,10892.400000095367,15520,16420.100000023842,16813.900000095367,18016,20022.300000071526,20348.100000023842,21881.600000023842,22872,67668.10000002384]","[]","[6912.300000071526,7498.800000071526,7998.200000047684,9090.300000071526,10892.400000095367,15520,16070.200000047684,16420.100000023842,16813.900000095367,18016,20022.300000071526,20348.100000023842,21554.100000023842,21881.600000023842,22872,67668.10000002384,71798.5]","0.375","0.42857142857142855","0","","","","","","","","","","","","","","","","","","","","","","",""
"15839","","","instructions","8","224439","0.0-7.0","6","7","5","6","7","5","5","4","4","5","4","0","-3","0","1","1","0","2","1","4","2","5","2","4","2","2","1","4","5","4","7","5","4","4","6","4","6","7","3","6","5","5","2","3","6","3","6","5","1","6","3","7","5","3","3","6","6","6","6","3","6","5","2","6","5","6","6","7","5","6","3","3","3","7","2","5","6","2","7","595169798766198784","林","574","Female","[""坏她"",""好她"",""好我"",""坏我""]","[""弱她"",""强她"",""强我"",""弱我""]","","","","","","","","","","","","","","","","","[{""page_index"":0,""viewing_time"":15838}]","","","","","","","","","","","","","","","","","","","","","",""
"169235","","","instructions","9","393676","0.0-8.0-0.0-0.0","6","7","5","6","7","5","5","4","4","5","4","0","-3","0","1","1","0","2","1","4","2","5","2","4","2","2","1","4","5","4","7","5","4","4","6","4","6","7","3","6","5","5","2","3","6","3","6","5","1","6","3","7","5","3","3","6","6","6","6","3","6","5","2","6","5","6","6","7","5","6","3","3","3","7","2","5","6","2","7","595169798766198784","林","574","Female","[""坏她"",""好她"",""好我"",""坏我""]","[""弱她"",""强她"",""强我"",""弱我""]","","","","","","","","","","","","","","","","","[{""page_index"":0,""viewing_time"":1849},{""page_index"":1,""viewing_time"":165948},{""page_index"":2,""viewing_time"":783},{""page_index"":3,""viewing_time"":654}]","","","","","","","","","","","","","","","","","","","","","",""
"1074","","f","psychophysics","10","395755","0.0-8.0-0.0-1.0-0.0-0.0","6","7","5","6","7","5","5","4","4","5","4","0","-3","0","1","1","0","2","1","4","2","5","2","4","2","2","1","4","5","4","7","5","4","4","6","4","6","7","3","6","5","5","2","3","6","3","6","5","1","6","3","7","5","3","3","6","6","6","6","3","6","5","2","6","5","6","6","7","5","6","3","3","3","7","2","5","6","2","7","595169798766198784","林","574","Female","[""坏她"",""好她"",""好我"",""坏我""]","[""弱她"",""强她"",""强我"",""弱我""]","","","","","","","","match","","","","","","","","","","key","f","18.454036036035916","799.9999682108573","445.8333156175091","f","true","match","img/hexagon.png","坏我","坏我","prac_ALT2_moral","practice_moral","","","","","","","","",""
"null","<span style='color:GreenYellow; font-size: 70px;'>正确! </span>","null","html-keyboard-response","11","396258","0.0-8.0-0.0-1.0-0.0-1.0","6","7","5","6","7","5","5","4","4","5","4","0","-3","0","1","1","0","2","1","4","2","5","2","4","2","2","1","4","5","4","7","5","4","4","6","4","6","7","3","6","5","5","2","3","6","3","6","5","1","6","3","7","5","3","3","6","6","6","6","3","6","5","2","6","5","6","6","7","5","6","3","3","3","7","2","5","6","2","7","595169798766198784","林","574","Female","[""坏她"",""好她"",""好我"",""坏我""]","[""弱她"",""强她"",""强我"",""弱我""]","","","","","","","","","","","","","","","","","","","","","","","","","","","","","","feedback_test","","","","","","","","",""
"835","","j","psychophysics","12","398094","0.0-8.0-0.0-1.0-0.0-0.1","6","7","5","6","7","5","5","4","4","5","4","0","-3","0","1","1","0","2","1","4","2","5","2","4","2","2","1","4","5","4","7","5","4","4","6","4","6","7","3","6","5","5","2","3","6","3","6","5","1","6","3","7","5","3","3","6","6","6","6","3","6","5","2","6","5","6","6","7","5","6","3","3","3","7","2","5","6","2","7","595169798766198784","林","574","Female","[""坏她"",""好她"",""好我"",""坏我""]","[""弱她"",""强她"",""强我"",""弱我""]","","","","","","","","nonmatch","","","","","","","","","","key","j","16.65075229357772","799.9999682108573","445.8333156175091","f","false","match","img/triangle.png","好我","好我","prac_ALT2_moral","practice_moral","","","","","","","","",""
"null","<span style='color:red; font-size: 70px;'>错误! </span>","null","html-keyboard-response","13","398610","0.0-8.0-0.0-1.0-0.0-1.1","6","7","5","6","7","5","5","4","4","5","4","0","-3","0","1","1","0","2","1","4","2","5","2","4","2","2","1","4","5","4","7","5","4","4","6","4","6","7","3","6","5","5","2","3","6","3","6","5","1","6","3","7","5","3","3","6","6","6","6","3","6","5","2","6","5","6","6","7","5","6","3","3","3","7","2","5","6","2","7","595169798766198784","林","574","Female","[""坏她"",""好她"",""好我"",""坏我""]","[""弱她"",""强她"",""强我"",""弱我""]","","","","","","","","","","","","","","","","","","","","","","","","","","","","","","feedback_test","","","","","","","","",""
"null","","null","psychophysics","14","400817","0.0-8.0-0.0-1.0-0.0-0.2","6","7","5","6","7","5","5","4","4","5","4","0","-3","0","1","1","0","2","1","4","2","5","2","4","2","2","1","4","5","4","7","5","4","4","6","4","6","7","3","6","5","5","2","3","6","3","6","5","1","6","3","7","5","3","3","6","6","6","6","3","6","5","2","6","5","6","6","7","5","6","3","3","3","7","2","5","6","2","7","595169798766198784","林","574","Female","[""坏她"",""好她"",""好我"",""坏我""]","[""弱她"",""强她"",""强我"",""弱我""]","","","","","","","","null","","","","","","","","","","key","null","16.653590909090724","799.9999682108573","445.8333156175091","f","false","match","img/trapezoid.png","坏她","坏她","prac_ALT2_moral","practice_moral","","","","","","","","",""
"null","<span class='add_' style='color:yellow; font-size: 70px;'> 太慢! </span>","null","html-keyboard-response","15","401319","0.0-8.0-0.0-1.0-0.0-1.2","6","7","5","6","7","5","5","4","4","5","4","0","-3","0","1","1","0","2","1","4","2","5","2","4","2","2","1","4","5","4","7","5","4","4","6","4","6","7","3","6","5","5","2","3","6","3","6","5","1","6","3","7","5","3","3","6","6","6","6","3","6","5","2","6","5","6","6","7","5","6","3","3","3","7","2","5","6","2","7","595169798766198784","林","574","Female","[""坏她"",""好她"",""好我"",""坏我""]","[""弱她"",""强她"",""强我"",""弱我""]","","","","","","","","","","","","","","","","","","","","","","","","","","","","","","feedback_test","","","","","","","","",""
"1078","","f","psychophysics","16","403399","0.0-8.0-0.0-1.0-0.0-0.3","6","7","5","6","7","5","5","4","4","5","4","0","-3","0","1","1","0","2","1","4","2","5","2","4","2","2","1","4","5","4","7","5","4","4","6","4","6","7","3","6","5","5","2","3","6","3","6","5","1","6","3","7","5","3","3","6","6","6","6","3","6","5","2","6","5","6","6","7","5","6","3","3","3","7","2","5","6","2","7","595169798766198784","林","574","Female","[""坏她"",""好她"",""好我"",""坏我""]","[""弱她"",""强她"",""强我"",""弱我""]","","","","","","","","match","","","","","","","","","","key","f","16.65305645161284","799.9999682108573","445.8333156175091","f","true","match","img/hexagon.png","坏我","坏我","prac_ALT2_moral","practice_moral","","","","","","","","",""
"null","<span style='color:GreenYellow; font-size: 70px;'>正确! </span>","null","html-keyboard-response","17","403902","0.0-8.0-0.0-1.0-0.0-1.3","6","7","5","6","7","5","5","4","4","5","4","0","-3","0","1","1","0","2","1","4","2","5","2","4","2","2","1","4","5","4","7","5","4","4","6","4","6","7","3","6","5","5","2","3","6","3","6","5","1","6","3","7","5","3","3","6","6","6","6","3","6","5","2","6","5","6","6","7","5","6","3","3","3","7","2","5","6","2","7","595169798766198784","林","574","Female","[""坏她"",""好她"",""好我"",""坏我""]","[""弱她"",""强她"",""强我"",""弱我""]","","","","","","","","","","","","","","","","","","","","","","","","","","","","","","feedback_test","","","","","","","","",""
"1101","","f","psychophysics","18","406005","0.0-8.0-0.0-1.0-0.0-0.4","6","7","5","6","7","5","5","4","4","5","4","0","-3","0","1","1","0","2","1","4","2","5","2","4","2","2","1","4","5","4","7","5","4","4","6","4","6","7","3","6","5","5","2","3","6","3","6","5","1","6","3","7","5","3","3","6","6","6","6","3","6","5","2","6","5","6","6","7","5","6","3","3","3","7","2","5","6","2","7","595169798766198784","林","574","Female","[""坏她"",""好她"",""好我"",""坏我""]","[""弱她"",""强她"",""强我"",""弱我""]","","","","","","","","match","","","","","","","","","","key","f","16.65323999999976","799.9999682108573","445.8333156175091","j","false","nonmatch","img/triangle.png","坏我","好我","prac_ALT2_moral","practice_moral","","","","","","","","",""
"null","<span style='color:red; font-size: 70px;'>错误! </span>","null","html-keyboard-response","19","406506","0.0-8.0-0.0-1.0-0.0-1.4","6","7","5","6","7","5","5","4","4","5","4","0","-3","0","1","1","0","2","1","4","2","5","2","4","2","2","1","4","5","4","7","5","4","4","6","4","6","7","3","6","5","5","2","3","6","3","6","5","1","6","3","7","5","3","3","6","6","6","6","3","6","5","2","6","5","6","6","7","5","6","3","3","3","7","2","5","6","2","7","595169798766198784","林","574","Female","[""坏她"",""好她"",""好我"",""坏我""]","[""弱她"",""强她"",""强我"",""弱我""]","","","","","","","","","","","","","","","","","","","","","","","","","","","","","","feedback_test","","","","","","","","",""
"null","","null","psychophysics","20","408710","0.0-8.0-0.0-1.0-0.0-0.5","6","7","5","6","7","5","5","4","4","5","4","0","-3","0","1","1","0","2","1","4","2","5","2","4","2","2","1","4","5","4","7","5","4","4","6","4","6","7","3","6","5","5","2","3","6","3","6","5","1","6","3","7","5","3","3","6","6","6","6","3","6","5","2","6","5","6","6","7","5","6","3","3","3","7","2","5","6","2","7","595169798766198784","林","574","Female","[""坏她"",""好她"",""好我"",""坏我""]","[""弱她"",""强她"",""强我"",""弱我""]","","","","","","","","null","","","","","","","","","","key","null","16.653348484848692","799.9999682108573","445.8333156175091","j","false","nonmatch","img/trapezoid.png","好我","坏她","prac_ALT2_moral","practice_moral","","","","","","","","",""
"null","<span class='add_' style='color:yellow; font-size: 70px;'> 太慢! </span>","null","html-keyboard-response","21","409211","0.0-8.0-0.0-1.0-0.0-1.5","6","7","5","6","7","5","5","4","4","5","4","0","-3","0","1","1","0","2","1","4","2","5","2","4","2","2","1","4","5","4","7","5","4","4","6","4","6","7","3","6","5","5","2","3","6","3","6","5","1","6","3","7","5","3","3","6","6","6","6","3","6","5","2","6","5","6","6","7","5","6","3","3","3","7","2","5","6","2","7","595169798766198784","林","574","Female","[""坏她"",""好她"",""好我"",""坏我""]","[""弱她"",""强她"",""强我"",""弱我""]","","","","","","","","","","","","","","","","","","","","","","","","","","","","","","feedback_test","","","","","","","","",""
"1179","","f","psychophysics","22","411393","0.0-8.0-0.0-1.0-0.0-0.6","6","7","5","6","7","5","5","4","4","5","4","0","-3","0","1","1","0","2","1","4","2","5","2","4","2","2","1","4","5","4","7","5","4","4","6","4","6","7","3","6","5","5","2","3","6","3","6","5","1","6","3","7","5","3","3","6","6","6","6","3","6","5","2","6","5","6","6","7","5","6","3","3","3","7","2","5","6","2","7","595169798766198784","林","574","Female","[""坏她"",""好她"",""好我"",""坏我""]","[""弱她"",""强她"",""强我"",""弱我""]","","","","","","","","match","","","","","","","","","","key","f","16.782744186046866","799.9999682108573","445.8333156175091","j","false","nonmatch","img/triangle.png","坏她","好我","prac_ALT2_moral","practice_moral","","","","","","","","",""
"null","<span style='color:red; font-size: 70px;'>错误! </span>","null","html-keyboard-response","23","411895","0.0-8.0-0.0-1.0-0.0-1.6","6","7","5","6","7","5","5","4","4","5","4","0","-3","0","1","1","0","2","1","4","2","5","2","4","2","2","1","4","5","4","7","5","4","4","6","4","6","7","3","6","5","5","2","3","6","3","6","5","1","6","3","7","5","3","3","6","6","6","6","3","6","5","2","6","5","6","6","7","5","6","3","3","3","7","2","5","6","2","7","595169798766198784","林","574","Female","[""坏她"",""好她"",""好我"",""坏我""]","[""弱她"",""强她"",""强我"",""弱我""]","","","","","","","","","","","","","","","","","","","","","","","","","","","","","","feedback_test","","","","","","","","",""
"1025","","f","psychophysics","24","413921","0.0-8.0-0.0-1.0-0.0-0.7","6","7","5","6","7","5","5","4","4","5","4","0","-3","0","1","1","0","2","1","4","2","5","2","4","2","2","1","4","5","4","7","5","4","4","6","4","6","7","3","6","5","5","2","3","6","3","6","5","1","6","3","7","5","3","3","6","6","6","6","3","6","5","2","6","5","6","6","7","5","6","3","3","3","7","2","5","6","2","7","595169798766198784","林","574","Female","[""坏她"",""好她"",""好我"",""坏我""]","[""弱她"",""强她"",""强我"",""弱我""]","","","","","","","","match","","","","","","","","","","key","f","16.65268595041303","799.9999682108573","445.8333156175091","j","false","nonmatch","img/triangle.png","好她","好我","prac_ALT2_moral","practice_moral","","","","","","","","",""
"null","<span style='color:red; font-size: 70px;'>错误! </span>","null","html-keyboard-response","25","414425","0.0-8.0-0.0-1.0-0.0-1.7","6","7","5","6","7","5","5","4","4","5","4","0","-3","0","1","1","0","2","1","4","2","5","2","4","2","2","1","4","5","4","7","5","4","4","6","4","6","7","3","6","5","5","2","3","6","3","6","5","1","6","3","7","5","3","3","6","6","6","6","3","6","5","2","6","5","6","6","7","5","6","3","3","3","7","2","5","6","2","7","595169798766198784","林","574","Female","[""坏她"",""好她"",""好我"",""坏我""]","[""弱她"",""强她"",""强我"",""弱我""]","","","","","","","","","","","","","","","","","","","","","","","","","","","","","","feedback_test","","","","","","","","",""
"1056","","f","psychophysics","26","416483","0.0-8.0-0.0-1.0-0.0-0.8","6","7","5","6","7","5","5","4","4","5","4","0","-3","0","1","1","0","2","1","4","2","5","2","4","2","2","1","4","5","4","7","5","4","4","6","4","6","7","3","6","5","5","2","3","6","3","6","5","1","6","3","7","5","3","3","6","6","6","6","3","6","5","2","6","5","6","6","7","5","6","3","3","3","7","2","5","6","2","7","595169798766198784","林","574","Female","[""坏她"",""好她"",""好我"",""坏我""]","[""弱她"",""强她"",""强我"",""弱我""]","","","","","","","","match","","","","","","","","","","key","f","16.653434426229367","799.9999682108573","445.8333156175091","j","false","nonmatch","img/ellipse.png","坏她","好她","prac_ALT2_moral","practice_moral","","","","","","","","",""
"null","<span style='color:red; font-size: 70px;'>错误! </span>","null","html-keyboard-response","27","416984","0.0-8.0-0.0-1.0-0.0-1.8","6","7","5","6","7","5","5","4","4","5","4","0","-3","0","1","1","0","2","1","4","2","5","2","4","2","2","1","4","5","4","7","5","4","4","6","4","6","7","3","6","5","5","2","3","6","3","6","5","1","6","3","7","5","3","3","6","6","6","6","3","6","5","2","6","5","6","6","7","5","6","3","3","3","7","2","5","6","2","7","595169798766198784","林","574","Female","[""坏她"",""好她"",""好我"",""坏我""]","[""弱她"",""强她"",""强我"",""弱我""]","","","","","","","","","","","","","","","","","","","","","","","","","","","","","","feedback_test","","","","","","","","",""
"871","","j","psychophysics","28","418859","0.0-8.0-0.0-1.0-0.0-0.9","6","7","5","6","7","5","5","4","4","5","4","0","-3","0","1","1","0","2","1","4","2","5","2","4","2","2","1","4","5","4","7","5","4","4","6","4","6","7","3","6","5","5","2","3","6","3","6","5","1","6","3","7","5","3","3","6","6","6","6","3","6","5","2","6","5","6","6","7","5","6","3","3","3","7","2","5","6","2","7","595169798766198784","林","574","Female","[""坏她"",""好她"",""好我"",""坏我""]","[""弱她"",""强她"",""强我"",""弱我""]","","","","","","","","nonmatch","","","","","","","","","","key","j","16.654360360360542","799.9999682108573","445.8333156175091","j","true","nonmatch","img/trapezoid.png","坏我","坏她","prac_ALT2_moral","practice_moral","","","","","","","","",""
"null","<span style='color:GreenYellow; font-size: 70px;'>正确! </span>","null","html-keyboard-response","29","419360","0.0-8.0-0.0-1.0-0.0-1.9","6","7","5","6","7","5","5","4","4","5","4","0","-3","0","1","1","0","2","1","4","2","5","2","4","2","2","1","4","5","4","7","5","4","4","6","4","6","7","3","6","5","5","2","3","6","3","6","5","1","6","3","7","5","3","3","6","6","6","6","3","6","5","2","6","5","6","6","7","5","6","3","3","3","7","2","5","6","2","7","595169798766198784","林","574","Female","[""坏她"",""好她"",""好我"",""坏我""]","[""弱她"",""强她"",""强我"",""弱我""]","","","","","","","","","","","","","","","","","","","","","","","","","","","","","","feedback_test","","","","","","","","",""
"1008","","f","psychophysics","30","421370","0.0-8.0-0.0-1.0-0.0-0.10","6","7","5","6","7","5","5","4","4","5","4","0","-3","0","1","1","0","2","1","4","2","5","2","4","2","2","1","4","5","4","7","5","4","4","6","4","6","7","3","6","5","5","2","3","6","3","6","5","1","6","3","7","5","3","3","6","6","6","6","3","6","5","2","6","5","6","6","7","5","6","3","3","3","7","2","5","6","2","7","595169798766198784","林","574","Female","[""坏她"",""好她"",""好我"",""坏我""]","[""弱她"",""强她"",""强我"",""弱我""]","","","","","","","","match","","","","","","","","","","key","f","16.653975000000113","799.9999682108573","445.8333156175091","f","true","match","img/ellipse.png","好她","好她","prac_ALT2_moral","practice_moral","","","","","","","","",""
"null","<span style='color:GreenYellow; font-size: 70px;'>正确! </span>","null","html-keyboard-response","31","421871","0.0-8.0-0.0-1.0-0.0-1.10","6","7","5","6","7","5","5","4","4","5","4","0","-3","0","1","1","0","2","1","4","2","5","2","4","2","2","1","4","5","4","7","5","4","4","6","4","6","7","3","6","5","5","2","3","6","3","6","5","1","6","3","7","5","3","3","6","6","6","6","3","6","5","2","6","5","6","6","7","5","6","3","3","3","7","2","5","6","2","7","595169798766198784","林","574","Female","[""坏她"",""好她"",""好我"",""坏我""]","[""弱她"",""强她"",""强我"",""弱我""]","","","","","","","","","","","","","","","","","","","","","","","","","","","","","","feedback_test","","","","","","","","",""
"1040","","f","psychophysics","32","423913","0.0-8.0-0.0-1.0-0.0-0.11","6","7","5","6","7","5","5","4","4","5","4","0","-3","0","1","1","0","2","1","4","2","5","2","4","2","2","1","4","5","4","7","5","4","4","6","4","6","7","3","6","5","5","2","3","6","3","6","5","1","6","3","7","5","3","3","6","6","6","6","3","6","5","2","6","5","6","6","7","5","6","3","3","3","7","2","5","6","2","7","595169798766198784","林","574","Female","[""坏她"",""好她"",""好我"",""坏我""]","[""弱她"",""强她"",""强我"",""弱我""]","","","","","","","","match","","","","","","","","","","key","f","16.652237704918303","799.9999682108573","445.8333156175091","f","true","match","img/ellipse.png","好她","好她","prac_ALT2_moral","practice_moral","","","","","","","","",""
"null","<span style='color:GreenYellow; font-size: 70px;'>正确! </span>","null","html-keyboard-response","33","424414","0.0-8.0-0.0-1.0-0.0-1.11","6","7","5","6","7","5","5","4","4","5","4","0","-3","0","1","1","0","2","1","4","2","5","2","4","2","2","1","4","5","4","7","5","4","4","6","4","6","7","3","6","5","5","2","3","6","3","6","5","1","6","3","7","5","3","3","6","6","6","6","3","6","5","2","6","5","6","6","7","5","6","3","3","3","7","2","5","6","2","7","595169798766198784","林","574","Female","[""坏她"",""好她"",""好我"",""坏我""]","[""弱她"",""强她"",""强我"",""弱我""]","","","","","","","","","","","","","","","","","","","","","","","","","","","","","","feedback_test","","","","","","","","",""
"1116","","j","psychophysics","34","426532","0.0-8.0-0.0-1.0-0.0-0.12","6","7","5","6","7","5","5","4","4","5","4","0","-3","0","1","1","0","2","1","4","2","5","2","4","2","2","1","4","5","4","7","5","4","4","6","4","6","7","3","6","5","5","2","3","6","3","6","5","1","6","3","7","5","3","3","6","6","6","6","3","6","5","2","6","5","6","6","7","5","6","3","3","3","7","2","5","6","2","7","595169798766198784","林","574","Female","[""坏她"",""好她"",""好我"",""坏我""]","[""弱她"",""强她"",""强我"",""弱我""]","","","","","","","","nonmatch","","","","","","","","","","key","j","16.65271428571404","799.9999682108573","445.8333156175091","f","false","match","img/hexagon.png","坏我","坏我","prac_ALT2_moral","practice_moral","","","","","","","","",""
"null","<span style='color:red; font-size: 70px;'>错误! </span>","null","html-keyboard-response","35","427033","0.0-8.0-0.0-1.0-0.0-1.12","6","7","5","6","7","5","5","4","4","5","4","0","-3","0","1","1","0","2","1","4","2","5","2","4","2","2","1","4","5","4","7","5","4","4","6","4","6","7","3","6","5","5","2","3","6","3","6","5","1","6","3","7","5","3","3","6","6","6","6","3","6","5","2","6","5","6","6","7","5","6","3","3","3","7","2","5","6","2","7","595169798766198784","林","574","Female","[""坏她"",""好她"",""好我"",""坏我""]","[""弱她"",""强她"",""强我"",""弱我""]","","","","","","","","","","","","","","","","","","","","","","","","","","","","","","feedback_test","","","","","","","","",""
"null","","null","psychophysics","36","429239","0.0-8.0-0.0-1.0-0.0-0.13","6","7","5","6","7","5","5","4","4","5","4","0","-3","0","1","1","0","2","1","4","2","5","2","4","2","2","1","4","5","4","7","5","4","4","6","4","6","7","3","6","5","5","2","3","6","3","6","5","1","6","3","7","5","3","3","6","6","6","6","3","6","5","2","6","5","6","6","7","5","6","3","3","3","7","2","5","6","2","7","595169798766198784","林","574","Female","[""坏她"",""好她"",""好我"",""坏我""]","[""弱她"",""强她"",""强我"",""弱我""]","","","","","","","","null","","","","","","","","","","key","null","16.653251908396953","799.9999682108573","445.8333156175091","j","false","nonmatch","img/hexagon.png","坏她","坏我","prac_ALT2_moral","practice_moral","","","","","","","","",""
"null","<span class='add_' style='color:yellow; font-size: 70px;'> 太慢! </span>","null","html-keyboard-response","37","429741","0.0-8.0-0.0-1.0-0.0-1.13","6","7","5","6","7","5","5","4","4","5","4","0","-3","0","1","1","0","2","1","4","2","5","2","4","2","2","1","4","5","4","7","5","4","4","6","4","6","7","3","6","5","5","2","3","6","3","6","5","1","6","3","7","5","3","3","6","6","6","6","3","6","5","2","6","5","6","6","7","5","6","3","3","3","7","2","5","6","2","7","595169798766198784","林","574","Female","[""坏她"",""好她"",""好我"",""坏我""]","[""弱她"",""强她"",""强我"",""弱我""]","","","","","","","","","","","","","","","","","","","","","","","","","","","","","","feedback_test","","","","","","","","",""
"1107","","f","psychophysics","38","431849","0.0-8.0-0.0-1.0-0.0-0.14","6","7","5","6","7","5","5","4","4","5","4","0","-3","0","1","1","0","2","1","4","2","5","2","4","2","2","1","4","5","4","7","5","4","4","6","4","6","7","3","6","5","5","2","3","6","3","6","5","1","6","3","7","5","3","3","6","6","6","6","3","6","5","2","6","5","6","6","7","5","6","3","3","3","7","2","5","6","2","7","595169798766198784","林","574","Female","[""坏她"",""好她"",""好我"",""坏我""]","[""弱她"",""强她"",""强我"",""弱我""]","","","","","","","","match","","","","","","","","","","key","f","16.653367999999784","799.9999682108573","445.8333156175091","j","false","nonmatch","img/hexagon.png","好她","坏我","prac_ALT2_moral","practice_moral","","","","","","","","",""
"null","<span style='color:red; font-size: 70px;'>错误! </span>","null","html-keyboard-response","39","432350","0.0-8.0-0.0-1.0-0.0-1.14","6","7","5","6","7","5","5","4","4","5","4","0","-3","0","1","1","0","2","1","4","2","5","2","4","2","2","1","4","5","4","7","5","4","4","6","4","6","7","3","6","5","5","2","3","6","3","6","5","1","6","3","7","5","3","3","6","6","6","6","3","6","5","2","6","5","6","6","7","5","6","3","3","3","7","2","5","6","2","7","595169798766198784","林","574","Female","[""坏她"",""好她"",""好我"",""坏我""]","[""弱她"",""强她"",""强我"",""弱我""]","","","","","","","","","","","","","","","","","","","","","","","","","","","","","","feedback_test","","","","","","","","",""
"1076","","j","psychophysics","40","434429","0.0-8.0-0.0-1.0-0.0-0.15","6","7","5","6","7","5","5","4","4","5","4","0","-3","0","1","1","0","2","1","4","2","5","2","4","2","2","1","4","5","4","7","5","4","4","6","4","6","7","3","6","5","5","2","3","6","3","6","5","1","6","3","7","5","3","3","6","6","6","6","3","6","5","2","6","5","6","6","7","5","6","3","3","3","7","2","5","6","2","7","595169798766198784","林","574","Female","[""坏她"",""好她"",""好我"",""坏我""]","[""弱她"",""强她"",""强我"",""弱我""]","","","","","","","","nonmatch","","","","","","","","","","key","j","16.65416935483893","799.9999682108573","445.8333156175091","j","true","nonmatch","img/ellipse.png","好我","好她","prac_ALT2_moral","practice_moral","","","","","","","","",""
"null","<span style='color:GreenYellow; font-size: 70px;'>正确! </span>","null","html-keyboard-response","41","434929","0.0-8.0-0.0-1.0-0.0-1.15","6","7","5","6","7","5","5","4","4","5","4","0","-3","0","1","1","0","2","1","4","2","5","2","4","2","2","1","4","5","4","7","5","4","4","6","4","6","7","3","6","5","5","2","3","6","3","6","5","1","6","3","7","5","3","3","6","6","6","6","3","6","5","2","6","5","6","6","7","5","6","3","3","3","7","2","5","6","2","7","595169798766198784","林","574","Female","[""坏她"",""好她"",""好我"",""坏我""]","[""弱她"",""强她"",""强我"",""弱我""]","","","","","","","","","","","","","","","","","","","","","","","","","","","","","","feedback_test","","","","","","","","",""
"833","","j","psychophysics","42","436763","0.0-8.0-0.0-1.0-0.0-0.16","6","7","5","6","7","5","5","4","4","5","4","0","-3","0","1","1","0","2","1","4","2","5","2","4","2","2","1","4","5","4","7","5","4","4","6","4","6","7","3","6","5","5","2","3","6","3","6","5","1","6","3","7","5","3","3","6","6","6","6","3","6","5","2","6","5","6","6","7","5","6","3","3","3","7","2","5","6","2","7","595169798766198784","林","574","Female","[""坏她"",""好她"",""好我"",""坏我""]","[""弱她"",""强她"",""强我"",""弱我""]","","","","","","","","nonmatch","","","","","","","","","","key","j","16.654119266055037","799.9999682108573","445.8333156175091","f","false","match","img/triangle.png","好我","好我","prac_ALT2_moral","practice_moral","","","","","","","","",""
"null","<span style='color:red; font-size: 70px;'>错误! </span>","null","html-keyboard-response","43","437265","0.0-8.0-0.0-1.0-0.0-1.16","6","7","5","6","7","5","5","4","4","5","4","0","-3","0","1","1","0","2","1","4","2","5","2","4","2","2","1","4","5","4","7","5","4","4","6","4","6","7","3","6","5","5","2","3","6","3","6","5","1","6","3","7","5","3","3","6","6","6","6","3","6","5","2","6","5","6","6","7","5","6","3","3","3","7","2","5","6","2","7","595169798766198784","林","574","Female","[""坏她"",""好她"",""好我"",""坏我""]","[""弱她"",""强她"",""强我"",""弱我""]","","","","","","","","","","","","","","","","","","","","","","","","","","","","","","feedback_test","","","","","","","","",""
"807","","j","psychophysics","44","439073","0.0-8.0-0.0-1.0-0.0-0.17","6","7","5","6","7","5","5","4","4","5","4","0","-3","0","1","1","0","2","1","4","2","5","2","4","2","2","1","4","5","4","7","5","4","4","6","4","6","7","3","6","5","5","2","3","6","3","6","5","1","6","3","7","5","3","3","6","6","6","6","3","6","5","2","6","5","6","6","7","5","6","3","3","3","7","2","5","6","2","7","595169798766198784","林","574","Female","[""坏她"",""好她"",""好我"",""坏我""]","[""弱她"",""强她"",""强我"",""弱我""]","","","","","","","","nonmatch","","","","","","","","","","key","j","16.640635514018783","799.9999682108573","445.8333156175091","j","true","nonmatch","img/trapezoid.png","好她","坏她","prac_ALT2_moral","practice_moral","","","","","","","","",""
"null","<span style='color:GreenYellow; font-size: 70px;'>正确! </span>","null","html-keyboard-response","45","439585","0.0-8.0-0.0-1.0-0.0-1.17","6","7","5","6","7","5","5","4","4","5","4","0","-3","0","1","1","0","2","1","4","2","5","2","4","2","2","1","4","5","4","7","5","4","4","6","4","6","7","3","6","5","5","2","3","6","3","6","5","1","6","3","7","5","3","3","6","6","6","6","3","6","5","2","6","5","6","6","7","5","6","3","3","3","7","2","5","6","2","7","595169798766198784","林","574","Female","[""坏她"",""好她"",""好我"",""坏我""]","[""弱她"",""强她"",""强我"",""弱我""]","","","","","","","","","","","","","","","","","","","","","","","","","","","","","","feedback_test","","","","","","","","",""
"1034","","j","psychophysics","46","441621","0.0-8.0-0.0-1.0-0.0-0.18","6","7","5","6","7","5","5","4","4","5","4","0","-3","0","1","1","0","2","1","4","2","5","2","4","2","2","1","4","5","4","7","5","4","4","6","4","6","7","3","6","5","5","2","3","6","3","6","5","1","6","3","7","5","3","3","6","6","6","6","3","6","5","2","6","5","6","6","7","5","6","3","3","3","7","2","5","6","2","7","595169798766198784","林","574","Female","[""坏她"",""好她"",""好我"",""坏我""]","[""弱她"",""强她"",""强我"",""弱我""]","","","","","","","","nonmatch","","","","","","","","","","key","j","16.654206611570604","799.9999682108573","445.8333156175091","f","false","match","img/trapezoid.png","坏她","坏她","prac_ALT2_moral","practice_moral","","","","","","","","",""
"null","<span style='color:red; font-size: 70px;'>错误! </span>","null","html-keyboard-response","47","442122","0.0-8.0-0.0-1.0-0.0-1.18","6","7","5","6","7","5","5","4","4","5","4","0","-3","0","1","1","0","2","1","4","2","5","2","4","2","2","1","4","5","4","7","5","4","4","6","4","6","7","3","6","5","5","2","3","6","3","6","5","1","6","3","7","5","3","3","6","6","6","6","3","6","5","2","6","5","6","6","7","5","6","3","3","3","7","2","5","6","2","7","595169798766198784","林","574","Female","[""坏她"",""好她"",""好我"",""坏我""]","[""弱她"",""强她"",""强我"",""弱我""]","","","","","","","","","","","","","","","","","","","","","","","","","","","","","","feedback_test","","","","","","","","",""
"961","","j","psychophysics","48","444084","0.0-8.0-0.0-1.0-0.0-0.19","6","7","5","6","7","5","5","4","4","5","4","0","-3","0","1","1","0","2","1","4","2","5","2","4","2","2","1","4","5","4","7","5","4","4","6","4","6","7","3","6","5","5","2","3","6","3","6","5","1","6","3","7","5","3","3","6","6","6","6","3","6","5","2","6","5","6","6","7","5","6","3","3","3","7","2","5","6","2","7","595169798766198784","林","574","Female","[""坏她"",""好她"",""好我"",""坏我""]","[""弱她"",""强她"",""强我"",""弱我""]","","","","","","","","nonmatch","","","","","","","","","","key","j","16.652034188034193","799.9999682108573","445.8333156175091","j","true","nonmatch","img/ellipse.png","坏我","好她","prac_ALT2_moral","practice_moral","","","","","","","","",""
"null","<span style='color:GreenYellow; font-size: 70px;'>正确! </span>","null","html-keyboard-response","49","444585","0.0-8.0-0.0-1.0-0.0-1.19","6","7","5","6","7","5","5","4","4","5","4","0","-3","0","1","1","0","2","1","4","2","5","2","4","2","2","1","4","5","4","7","5","4","4","6","4","6","7","3","6","5","5","2","3","6","3","6","5","1","6","3","7","5","3","3","6","6","6","6","3","6","5","2","6","5","6","6","7","5","6","3","3","3","7","2","5","6","2","7","595169798766198784","林","574","Female","[""坏她"",""好她"",""好我"",""坏我""]","[""弱她"",""强她"",""强我"",""弱我""]","","","","","","","","","","","","","","","","","","","","","","","","","","","","","","feedback_test","","","","","","","","",""
"1022","","f","psychophysics","50","446611","0.0-8.0-0.0-1.0-0.0-0.20","6","7","5","6","7","5","5","4","4","5","4","0","-3","0","1","1","0","2","1","4","2","5","2","4","2","2","1","4","5","4","7","5","4","4","6","4","6","7","3","6","5","5","2","3","6","3","6","5","1","6","3","7","5","3","3","6","6","6","6","3","6","5","2","6","5","6","6","7","5","6","3","3","3","7","2","5","6","2","7","595169798766198784","林","574","Female","[""坏她"",""好她"",""好我"",""坏我""]","[""弱她"",""强她"",""强我"",""弱我""]","","","","","","","","match","","","","","","","","","","key","f","16.651776859504054","799.9999682108573","445.8333156175091","f","true","match","img/ellipse.png","好她","好她","prac_ALT2_moral","practice_moral","","","","","","","","",""
"null","<span style='color:GreenYellow; font-size: 70px;'>正确! </span>","null","html-keyboard-response","51","447113","0.0-8.0-0.0-1.0-0.0-1.20","6","7","5","6","7","5","5","4","4","5","4","0","-3","0","1","1","0","2","1","4","2","5","2","4","2","2","1","4","5","4","7","5","4","4","6","4","6","7","3","6","5","5","2","3","6","3","6","5","1","6","3","7","5","3","3","6","6","6","6","3","6","5","2","6","5","6","6","7","5","6","3","3","3","7","2","5","6","2","7","595169798766198784","林","574","Female","[""坏她"",""好她"",""好我"",""坏我""]","[""弱她"",""强她"",""强我"",""弱我""]","","","","","","","","","","","","","","","","","","","","","","","","","","","","","","feedback_test","","","","","","","","",""
"1057","","f","psychophysics","52","449171","0.0-8.0-0.0-1.0-0.0-0.21","6","7","5","6","7","5","5","4","4","5","4","0","-3","0","1","1","0","2","1","4","2","5","2","4","2","2","1","4","5","4","7","5","4","4","6","4","6","7","3","6","5","5","2","3","6","3","6","5","1","6","3","7","5","3","3","6","6","6","6","3","6","5","2","6","5","6","6","7","5","6","3","3","3","7","2","5","6","2","7","595169798766198784","林","574","Female","[""坏她"",""好她"",""好我"",""坏我""]","[""弱她"",""强她"",""强我"",""弱我""]","","","","","","","","match","","","","","","","","","","key","f","16.654229508196654","799.9999682108573","445.8333156175091","f","true","match","img/triangle.png","好我","好我","prac_ALT2_moral","practice_moral","","","","","","","","",""
"null","<span style='color:GreenYellow; font-size: 70px;'>正确! </span>","null","html-keyboard-response","53","449672","0.0-8.0-0.0-1.0-0.0-1.21","6","7","5","6","7","5","5","4","4","5","4","0","-3","0","1","1","0","2","1","4","2","5","2","4","2","2","1","4","5","4","7","5","4","4","6","4","6","7","3","6","5","5","2","3","6","3","6","5","1","6","3","7","5","3","3","6","6","6","6","3","6","5","2","6","5","6","6","7","5","6","3","3","3","7","2","5","6","2","7","595169798766198784","林","574","Female","[""坏她"",""好她"",""好我"",""坏我""]","[""弱她"",""强她"",""强我"",""弱我""]","","","","","","","","","","","","","","","","","","","","","","","","","","","","","","feedback_test","","","","","","","","",""
"853","","j","psychophysics","54","451527","0.0-8.0-0.0-1.0-0.0-0.22","6","7","5","6","7","5","5","4","4","5","4","0","-3","0","1","1","0","2","1","4","2","5","2","4","2","2","1","4","5","4","7","5","4","4","6","4","6","7","3","6","5","5","2","3","6","3","6","5","1","6","3","7","5","3","3","6","6","6","6","3","6","5","2","6","5","6","6","7","5","6","3","3","3","7","2","5","6","2","7","595169798766198784","林","574","Female","[""坏她"",""好她"",""好我"",""坏我""]","[""弱她"",""强她"",""强我"",""弱我""]","","","","","","","","nonmatch","","","","","","","","","","key","j","16.6542363636365","799.9999682108573","445.8333156175091","j","true","nonmatch","img/hexagon.png","好我","坏我","prac_ALT2_moral","practice_moral","","","","","","","","",""
"null","<span style='color:GreenYellow; font-size: 70px;'>正确! </span>","null","html-keyboard-response","55","452031","0.0-8.0-0.0-1.0-0.0-1.22","6","7","5","6","7","5","5","4","4","5","4","0","-3","0","1","1","0","2","1","4","2","5","2","4","2","2","1","4","5","4","7","5","4","4","6","4","6","7","3","6","5","5","2","3","6","3","6","5","1","6","3","7","5","3","3","6","6","6","6","3","6","5","2","6","5","6","6","7","5","6","3","3","3","7","2","5","6","2","7","595169798766198784","林","574","Female","[""坏她"",""好她"",""好我"",""坏我""]","[""弱她"",""强她"",""强我"",""弱我""]","","","","","","","","","","","","","","","","","","","","","","","","","","","","","","feedback_test","","","","","","","","",""
"1096","","f","psychophysics","56","454128","0.0-8.0-0.0-1.0-0.0-0.23","6","7","5","6","7","5","5","4","4","5","4","0","-3","0","1","1","0","2","1","4","2","5","2","4","2","2","1","4","5","4","7","5","4","4","6","4","6","7","3","6","5","5","2","3","6","3","6","5","1","6","3","7","5","3","3","6","6","6","6","3","6","5","2","6","5","6","6","7","5","6","3","3","3","7","2","5","6","2","7","595169798766198784","林","574","Female","[""坏她"",""好她"",""好我"",""坏我""]","[""弱她"",""强她"",""强我"",""弱我""]","","","","","","","","match","","","","","","","","","","key","f","16.652752000000326","799.9999682108573","445.8333156175091","f","true","match","img/trapezoid.png","坏她","坏她","prac_ALT2_moral","practice_moral","","","","","","","","",""
"null","<span style='color:GreenYellow; font-size: 70px;'>正确! </span>","null","html-keyboard-response","57","454631","0.0-8.0-0.0-1.0-0.0-1.23","6","7","5","6","7","5","5","4","4","5","4","0","-3","0","1","1","0","2","1","4","2","5","2","4","2","2","1","4","5","4","7","5","4","4","6","4","6","7","3","6","5","5","2","3","6","3","6","5","1","6","3","7","5","3","3","6","6","6","6","3","6","5","2","6","5","6","6","7","5","6","3","3","3","7","2","5","6","2","7","595169798766198784","林","574","Female","[""坏她"",""好她"",""好我"",""坏我""]","[""弱她"",""强她"",""强我"",""弱我""]","","","","","","","","","","","","","","","","","","","","","","","","","","","","","","feedback_test","","","","","","","","",""
"954","","j","psychophysics","58","456588","0.0-8.0-0.0-1.0-0.0-0.24","6","7","5","6","7","5","5","4","4","5","4","0","-3","0","1","1","0","2","1","4","2","5","2","4","2","2","1","4","5","4","7","5","4","4","6","4","6","7","3","6","5","5","2","3","6","3","6","5","1","6","3","7","5","3","3","6","6","6","6","3","6","5","2","6","5","6","6","7","5","6","3","3","3","7","2","5","6","2","7","595169798766198784","林","574","Female","[""坏她"",""好她"",""好我"",""坏我""]","[""弱她"",""强她"",""强我"",""弱我""]","","","","","","","","nonmatch","","","","","","","","","","key","j","16.6534188034189","799.9999682108573","445.8333156175091","j","true","nonmatch","img/trapezoid.png","坏我","坏她","prac_ALT2_moral","practice_moral","","","","","","","","",""
"null","<span style='color:GreenYellow; font-size: 70px;'>正确! </span>","null","html-keyboard-response","59","457088","0.0-8.0-0.0-1.0-0.0-1.24","6","7","5","6","7","5","5","4","4","5","4","0","-3","0","1","1","0","2","1","4","2","5","2","4","2","2","1","4","5","4","7","5","4","4","6","4","6","7","3","6","5","5","2","3","6","3","6","5","1","6","3","7","5","3","3","6","6","6","6","3","6","5","2","6","5","6","6","7","5","6","3","3","3","7","2","5","6","2","7","595169798766198784","林","574","Female","[""坏她"",""好她"",""好我"",""坏我""]","[""弱她"",""强她"",""强我"",""弱我""]","","","","","","","","","","","","","","","","","","","","","","","","","","","","","","feedback_test","","","","","","","","",""
"1154","","f","psychophysics","60","459244","0.0-8.0-0.0-1.0-0.0-0.25","6","7","5","6","7","5","5","4","4","5","4","0","-3","0","1","1","0","2","1","4","2","5","2","4","2","2","1","4","5","4","7","5","4","4","6","4","6","7","3","6","5","5","2","3","6","3","6","5","1","6","3","7","5","3","3","6","6","6","6","3","6","5","2","6","5","6","6","7","5","6","3","3","3","7","2","5","6","2","7","595169798766198784","林","574","Female","[""坏她"",""好她"",""好我"",""坏我""]","[""弱她"",""强她"",""强我"",""弱我""]","","","","","","","","match","","","","","","","","","","key","f","16.65301562500008","799.9999682108573","445.8333156175091","f","true","match","img/trapezoid.png","坏她","坏她","prac_ALT2_moral","practice_moral","","","","","","","","",""
"null","<span style='color:GreenYellow; font-size: 70px;'>正确! </span>","null","html-keyboard-response","61","459745","0.0-8.0-0.0-1.0-0.0-1.25","6","7","5","6","7","5","5","4","4","5","4","0","-3","0","1","1","0","2","1","4","2","5","2","4","2","2","1","4","5","4","7","5","4","4","6","4","6","7","3","6","5","5","2","3","6","3","6","5","1","6","3","7","5","3","3","6","6","6","6","3","6","5","2","6","5","6","6","7","5","6","3","3","3","7","2","5","6","2","7","595169798766198784","林","574","Female","[""坏她"",""好她"",""好我"",""坏我""]","[""弱她"",""强她"",""强我"",""弱我""]","","","","","","","","","","","","","","","","","","","","","","","","","","","","","","feedback_test","","","","","","","","",""
"719","","f","psychophysics","62","461466","0.0-8.0-0.0-1.0-0.0-0.26","6","7","5","6","7","5","5","4","4","5","4","0","-3","0","1","1","0","2","1","4","2","5","2","4","2","2","1","4","5","4","7","5","4","4","6","4","6","7","3","6","5","5","2","3","6","3","6","5","1","6","3","7","5","3","3","6","6","6","6","3","6","5","2","6","5","6","6","7","5","6","3","3","3","7","2","5","6","2","7","595169798766198784","林","574","Female","[""坏她"",""好她"",""好我"",""坏我""]","[""弱她"",""强她"",""强我"",""弱我""]","","","","","","","","match","","","","","","","","","","key","f","16.65409708737839","799.9999682108573","445.8333156175091","f","true","match","img/trapezoid.png","坏她","坏她","prac_ALT2_moral","practice_moral","","","","","","","","",""
"null","<span style='color:GreenYellow; font-size: 70px;'>正确! </span>","null","html-keyboard-response","63","461982","0.0-8.0-0.0-1.0-0.0-1.26","6","7","5","6","7","5","5","4","4","5","4","0","-3","0","1","1","0","2","1","4","2","5","2","4","2","2","1","4","5","4","7","5","4","4","6","4","6","7","3","6","5","5","2","3","6","3","6","5","1","6","3","7","5","3","3","6","6","6","6","3","6","5","2","6","5","6","6","7","5","6","3","3","3","7","2","5","6","2","7","595169798766198784","林","574","Female","[""坏她"",""好她"",""好我"",""坏我""]","[""弱她"",""强她"",""强我"",""弱我""]","","","","","","","","","","","","","","","","","","","","","","","","","","","","","","feedback_test","","","","","","","","",""
"986","","j","psychophysics","64","463970","0.0-8.0-0.0-1.0-0.0-0.27","6","7","5","6","7","5","5","4","4","5","4","0","-3","0","1","1","0","2","1","4","2","5","2","4","2","2","1","4","5","4","7","5","4","4","6","4","6","7","3","6","5","5","2","3","6","3","6","5","1","6","3","7","5","3","3","6","6","6","6","3","6","5","2","6","5","6","6","7","5","6","3","3","3","7","2","5","6","2","7","595169798766198784","林","574","Female","[""坏她"",""好她"",""好我"",""坏我""]","[""弱她"",""强她"",""强我"",""弱我""]","","","","","","","","nonmatch","","","","","","","","","","key","j","16.653762711864655","799.9999682108573","445.8333156175091","j","true","nonmatch","img/ellipse.png","坏她","好她","prac_ALT2_moral","practice_moral","","","","","","","","",""
"null","<span style='color:GreenYellow; font-size: 70px;'>正确! </span>","null","html-keyboard-response","65","464472","0.0-8.0-0.0-1.0-0.0-1.27","6","7","5","6","7","5","5","4","4","5","4","0","-3","0","1","1","0","2","1","4","2","5","2","4","2","2","1","4","5","4","7","5","4","4","6","4","6","7","3","6","5","5","2","3","6","3","6","5","1","6","3","7","5","3","3","6","6","6","6","3","6","5","2","6","5","6","6","7","5","6","3","3","3","7","2","5","6","2","7","595169798766198784","林","574","Female","[""坏她"",""好她"",""好我"",""坏我""]","[""弱她"",""强她"",""强我"",""弱我""]","","","","","","","","","","","","","","","","","","","","","","","","","","","","","","feedback_test","","","","","","","","",""
"852","","f","psychophysics","66","466324","0.0-8.0-0.0-1.0-0.0-0.28","6","7","5","6","7","5","5","4","4","5","4","0","-3","0","1","1","0","2","1","4","2","5","2","4","2","2","1","4","5","4","7","5","4","4","6","4","6","7","3","6","5","5","2","3","6","3","6","5","1","6","3","7","5","3","3","6","6","6","6","3","6","5","2","6","5","6","6","7","5","6","3","3","3","7","2","5","6","2","7","595169798766198784","林","574","Female","[""坏她"",""好她"",""好我"",""坏我""]","[""弱她"",""强她"",""强我"",""弱我""]","","","","","","","","match","","","","","","","","","","key","f","16.65351818181807","799.9999682108573","445.8333156175091","f","true","match","img/ellipse.png","好她","好她","prac_ALT2_moral","practice_moral","","","","","","","","",""
"null","<span style='color:GreenYellow; font-size: 70px;'>正确! </span>","null","html-keyboard-response","67","466826","0.0-8.0-0.0-1.0-0.0-1.28","6","7","5","6","7","5","5","4","4","5","4","0","-3","0","1","1","0","2","1","4","2","5","2","4","2","2","1","4","5","4","7","5","4","4","6","4","6","7","3","6","5","5","2","3","6","3","6","5","1","6","3","7","5","3","3","6","6","6","6","3","6","5","2","6","5","6","6","7","5","6","3","3","3","7","2","5","6","2","7","595169798766198784","林","574","Female","[""坏她"",""好她"",""好我"",""坏我""]","[""弱她"",""强她"",""强我"",""弱我""]","","","","","","","","","","","","","","","","","","","","","","","","","","","","","","feedback_test","","","","","","","","",""
"1083","","f","psychophysics","68","468911","0.0-8.0-0.0-1.0-0.0-0.29","6","7","5","6","7","5","5","4","4","5","4","0","-3","0","1","1","0","2","1","4","2","5","2","4","2","2","1","4","5","4","7","5","4","4","6","4","6","7","3","6","5","5","2","3","6","3","6","5","1","6","3","7","5","3","3","6","6","6","6","3","6","5","2","6","5","6","6","7","5","6","3","3","3","7","2","5","6","2","7","595169798766198784","林","574","Female","[""坏她"",""好她"",""好我"",""坏我""]","[""弱她"",""强她"",""强我"",""弱我""]","","","","","","","","match","","","","","","","","","","key","f","16.653387096774345","799.9999682108573","445.8333156175091","f","true","match","img/hexagon.png","坏我","坏我","prac_ALT2_moral","practice_moral","","","","","","","","",""
"null","<span style='color:GreenYellow; font-size: 70px;'>正确! </span>","null","html-keyboard-response","69","469412","0.0-8.0-0.0-1.0-0.0-1.29","6","7","5","6","7","5","5","4","4","5","4","0","-3","0","1","1","0","2","1","4","2","5","2","4","2","2","1","4","5","4","7","5","4","4","6","4","6","7","3","6","5","5","2","3","6","3","6","5","1","6","3","7","5","3","3","6","6","6","6","3","6","5","2","6","5","6","6","7","5","6","3","3","3","7","2","5","6","2","7","595169798766198784","林","574","Female","[""坏她"",""好她"",""好我"",""坏我""]","[""弱她"",""强她"",""强我"",""弱我""]","","","","","","","","","","","","","","","","","","","","","","","","","","","","","","feedback_test","","","","","","","","",""
"956","","j","psychophysics","70","471369","0.0-8.0-0.0-1.0-0.0-0.30","6","7","5","6","7","5","5","4","4","5","4","0","-3","0","1","1","0","2","1","4","2","5","2","4","2","2","1","4","5","4","7","5","4","4","6","4","6","7","3","6","5","5","2","3","6","3","6","5","1","6","3","7","5","3","3","6","6","6","6","3","6","5","2","6","5","6","6","7","5","6","3","3","3","7","2","5","6","2","7","595169798766198784","林","574","Female","[""坏她"",""好她"",""好我"",""坏我""]","[""弱她"",""强她"",""强我"",""弱我""]","","","","","","","","nonmatch","","","","","","","","","","key","j","16.653655172413984","799.9999682108573","445.8333156175091","j","true","nonmatch","img/trapezoid.png","好她","坏她","prac_ALT2_moral","practice_moral","","","","","","","","",""
"null","<span style='color:GreenYellow; font-size: 70px;'>正确! </span>","null","html-keyboard-response","71","471870","0.0-8.0-0.0-1.0-0.0-1.30","6","7","5","6","7","5","5","4","4","5","4","0","-3","0","1","1","0","2","1","4","2","5","2","4","2","2","1","4","5","4","7","5","4","4","6","4","6","7","3","6","5","5","2","3","6","3","6","5","1","6","3","7","5","3","3","6","6","6","6","3","6","5","2","6","5","6","6","7","5","6","3","3","3","7","2","5","6","2","7","595169798766198784","林","574","Female","[""坏她"",""好她"",""好我"",""坏我""]","[""弱她"",""强她"",""强我"",""弱我""]","","","","","","","","","","","","","","","","","","","","","","","","","","","","","","feedback_test","","","","","","","","",""
"950","","f","psychophysics","72","473823","0.0-8.0-0.0-1.0-0.0-0.31","6","7","5","6","7","5","5","4","4","5","4","0","-3","0","1","1","0","2","1","4","2","5","2","4","2","2","1","4","5","4","7","5","4","4","6","4","6","7","3","6","5","5","2","3","6","3","6","5","1","6","3","7","5","3","3","6","6","6","6","3","6","5","2","6","5","6","6","7","5","6","3","3","3","7","2","5","6","2","7","595169798766198784","林","574","Female","[""坏她"",""好她"",""好我"",""坏我""]","[""弱她"",""强她"",""强我"",""弱我""]","","","","","","","","match","","","","","","","","","","key","f","16.653077586206752","799.9999682108573","445.8333156175091","f","true","match","img/ellipse.png","好她","好她","prac_ALT2_moral","practice_moral","","","","","","","","",""
"null","<span style='color:GreenYellow; font-size: 70px;'>正确! </span>","null","html-keyboard-response","73","474330","0.0-8.0-0.0-1.0-0.0-1.31","6","7","5","6","7","5","5","4","4","5","4","0","-3","0","1","1","0","2","1","4","2","5","2","4","2","2","1","4","5","4","7","5","4","4","6","4","6","7","3","6","5","5","2","3","6","3","6","5","1","6","3","7","5","3","3","6","6","6","6","3","6","5","2","6","5","6","6","7","5","6","3","3","3","7","2","5","6","2","7","595169798766198784","林","574","Female","[""坏她"",""好她"",""好我"",""坏我""]","[""弱她"",""强她"",""强我"",""弱我""]","","","","","","","","","","","","","","","","","","","","","","","","","","","","","","feedback_test","","","","","","","","",""
"940","","f","psychophysics","74","476271","0.0-8.0-0.0-1.0-0.0-0.32","6","7","5","6","7","5","5","4","4","5","4","0","-3","0","1","1","0","2","1","4","2","5","2","4","2","2","1","4","5","4","7","5","4","4","6","4","6","7","3","6","5","5","2","3","6","3","6","5","1","6","3","7","5","3","3","6","6","6","6","3","6","5","2","6","5","6","6","7","5","6","3","3","3","7","2","5","6","2","7","595169798766198784","林","574","Female","[""坏她"",""好她"",""好我"",""坏我""]","[""弱她"",""强她"",""强我"",""弱我""]","","","","","","","","match","","","","","","","","","","key","f","16.653965517241257","799.9999682108573","445.8333156175091","f","true","match","img/ellipse.png","好她","好她","prac_ALT2_moral","practice_moral","","","","","","","","",""
"null","<span style='color:GreenYellow; font-size: 70px;'>正确! </span>","null","html-keyboard-response","75","476773","0.0-8.0-0.0-1.0-0.0-1.32","6","7","5","6","7","5","5","4","4","5","4","0","-3","0","1","1","0","2","1","4","2","5","2","4","2","2","1","4","5","4","7","5","4","4","6","4","6","7","3","6","5","5","2","3","6","3","6","5","1","6","3","7","5","3","3","6","6","6","6","3","6","5","2","6","5","6","6","7","5","6","3","3","3","7","2","5","6","2","7","595169798766198784","林","574","Female","[""坏她"",""好她"",""好我"",""坏我""]","[""弱她"",""强她"",""强我"",""弱我""]","","","","","","","","","","","","","","","","","","","","","","","","","","","","","","feedback_test","","","","","","","","",""
"955","","j","psychophysics","76","478729","0.0-8.0-0.0-1.0-0.0-0.33","6","7","5","6","7","5","5","4","4","5","4","0","-3","0","1","1","0","2","1","4","2","5","2","4","2","2","1","4","5","4","7","5","4","4","6","4","6","7","3","6","5","5","2","3","6","3","6","5","1","6","3","7","5","3","3","6","6","6","6","3","6","5","2","6","5","6","6","7","5","6","3","3","3","7","2","5","6","2","7","595169798766198784","林","574","Female","[""坏她"",""好她"",""好我"",""坏我""]","[""弱她"",""强她"",""强我"",""弱我""]","","","","","","","","nonmatch","","","","","","","","","","key","j","16.653241379310455","799.9999682108573","445.8333156175091","j","true","nonmatch","img/ellipse.png","好我","好她","prac_ALT2_moral","practice_moral","","","","","","","","",""
"null","<span style='color:GreenYellow; font-size: 70px;'>正确! </span>","null","html-keyboard-response","77","479230","0.0-8.0-0.0-1.0-0.0-1.33","6","7","5","6","7","5","5","4","4","5","4","0","-3","0","1","1","0","2","1","4","2","5","2","4","2","2","1","4","5","4","7","5","4","4","6","4","6","7","3","6","5","5","2","3","6","3","6","5","1","6","3","7","5","3","3","6","6","6","6","3","6","5","2","6","5","6","6","7","5","6","3","3","3","7","2","5","6","2","7","595169798766198784","林","574","Female","[""坏她"",""好她"",""好我"",""坏我""]","[""弱她"",""强她"",""强我"",""弱我""]","","","","","","","","","","","","","","","","","","","","","","","","","","","","","","feedback_test","","","","","","","","",""
"828","","f","psychophysics","78","481059","0.0-8.0-0.0-1.0-0.0-0.34","6","7","5","6","7","5","5","4","4","5","4","0","-3","0","1","1","0","2","1","4","2","5","2","4","2","2","1","4","5","4","7","5","4","4","6","4","6","7","3","6","5","5","2","3","6","3","6","5","1","6","3","7","5","3","3","6","6","6","6","3","6","5","2","6","5","6","6","7","5","6","3","3","3","7","2","5","6","2","7","595169798766198784","林","574","Female","[""坏她"",""好她"",""好我"",""坏我""]","[""弱她"",""强她"",""强我"",""弱我""]","","","","","","","","match","","","","","","","","","","key","f","16.646499999999865","799.9999682108573","445.8333156175091","j","false","nonmatch","img/hexagon.png","好我","坏我","prac_ALT2_moral","practice_moral","","","","","","","","",""
"null","<span style='color:red; font-size: 70px;'>错误! </span>","null","html-keyboard-response","79","481559","0.0-8.0-0.0-1.0-0.0-1.34","6","7","5","6","7","5","5","4","4","5","4","0","-3","0","1","1","0","2","1","4","2","5","2","4","2","2","1","4","5","4","7","5","4","4","6","4","6","7","3","6","5","5","2","3","6","3","6","5","1","6","3","7","5","3","3","6","6","6","6","3","6","5","2","6","5","6","6","7","5","6","3","3","3","7","2","5","6","2","7","595169798766198784","林","574","Female","[""坏她"",""好她"",""好我"",""坏我""]","[""弱她"",""强她"",""强我"",""弱我""]","","","","","","","","","","","","","","","","","","","","","","","","","","","","","","feedback_test","","","","","","","","",""
"959","","f","psychophysics","80","483520","0.0-8.0-0.0-1.0-0.0-0.35","6","7","5","6","7","5","5","4","4","5","4","0","-3","0","1","1","0","2","1","4","2","5","2","4","2","2","1","4","5","4","7","5","4","4","6","4","6","7","3","6","5","5","2","3","6","3","6","5","1","6","3","7","5","3","3","6","6","6","6","3","6","5","2","6","5","6","6","7","5","6","3","3","3","7","2","5","6","2","7","595169798766198784","林","574","Female","[""坏她"",""好她"",""好我"",""坏我""]","[""弱她"",""强她"",""强我"",""弱我""]","","","","","","","","match","","","","","","","","","","key","f","16.65404273504262","799.9999682108573","445.8333156175091","f","true","match","img/trapezoid.png","坏她","坏她","prac_ALT2_moral","practice_moral","","","","","","","","",""
"null","<span style='color:GreenYellow; font-size: 70px;'>正确! </span>","null","html-keyboard-response","81","484022","0.0-8.0-0.0-1.0-0.0-1.35","6","7","5","6","7","5","5","4","4","5","4","0","-3","0","1","1","0","2","1","4","2","5","2","4","2","2","1","4","5","4","7","5","4","4","6","4","6","7","3","6","5","5","2","3","6","3","6","5","1","6","3","7","5","3","3","6","6","6","6","3","6","5","2","6","5","6","6","7","5","6","3","3","3","7","2","5","6","2","7","595169798766198784","林","574","Female","[""坏她"",""好她"",""好我"",""坏我""]","[""弱她"",""强她"",""强我"",""弱我""]","","","","","","","","","","","","","","","","","","","","","","","","","","","","","","feedback_test","","","","","","","","",""
"1172","","f","psychophysics","82","486196","0.0-8.0-0.0-1.0-0.0-0.36","6","7","5","6","7","5","5","4","4","5","4","0","-3","0","1","1","0","2","1","4","2","5","2","4","2","2","1","4","5","4","7","5","4","4","6","4","6","7","3","6","5","5","2","3","6","3","6","5","1","6","3","7","5","3","3","6","6","6","6","3","6","5","2","6","5","6","6","7","5","6","3","3","3","7","2","5","6","2","7","595169798766198784","林","574","Female","[""坏她"",""好她"",""好我"",""坏我""]","[""弱她"",""强她"",""强我"",""弱我""]","","","","","","","","match","","","","","","","","","","key","f","16.65372307692305","799.9999682108573","445.8333156175091","f","true","match","img/hexagon.png","坏我","坏我","prac_ALT2_moral","practice_moral","","","","","","","","",""
"null","<span style='color:GreenYellow; font-size: 70px;'>正确! </span>","null","html-keyboard-response","83","486697","0.0-8.0-0.0-1.0-0.0-1.36","6","7","5","6","7","5","5","4","4","5","4","0","-3","0","1","1","0","2","1","4","2","5","2","4","2","2","1","4","5","4","7","5","4","4","6","4","6","7","3","6","5","5","2","3","6","3","6","5","1","6","3","7","5","3","3","6","6","6","6","3","6","5","2","6","5","6","6","7","5","6","3","3","3","7","2","5","6","2","7","595169798766198784","林","574","Female","[""坏她"",""好她"",""好我"",""坏我""]","[""弱她"",""强她"",""强我"",""弱我""]","","","","","","","","","","","","","","","","","","","","","","","","","","","","","","feedback_test","","","","","","","","",""
"971","","j","psychophysics","84","488670","0.0-8.0-0.0-1.0-0.0-0.37","6","7","5","6","7","5","5","4","4","5","4","0","-3","0","1","1","0","2","1","4","2","5","2","4","2","2","1","4","5","4","7","5","4","4","6","4","6","7","3","6","5","5","2","3","6","3","6","5","1","6","3","7","5","3","3","6","6","6","6","3","6","5","2","6","5","6","6","7","5","6","3","3","3","7","2","5","6","2","7","595169798766198784","林","574","Female","[""坏她"",""好她"",""好我"",""坏我""]","[""弱她"",""强她"",""强我"",""弱我""]","","","","","","","","nonmatch","","","","","","","","","","key","j","16.65339316239304","799.9999682108573","445.8333156175091","j","true","nonmatch","img/hexagon.png","坏她","坏我","prac_ALT2_moral","practice_moral","","","","","","","","",""
"null","<span style='color:GreenYellow; font-size: 70px;'>正确! </span>","null","html-keyboard-response","85","489172","0.0-8.0-0.0-1.0-0.0-1.37","6","7","5","6","7","5","5","4","4","5","4","0","-3","0","1","1","0","2","1","4","2","5","2","4","2","2","1","4","5","4","7","5","4","4","6","4","6","7","3","6","5","5","2","3","6","3","6","5","1","6","3","7","5","3","3","6","6","6","6","3","6","5","2","6","5","6","6","7","5","6","3","3","3","7","2","5","6","2","7","595169798766198784","林","574","Female","[""坏她"",""好她"",""好我"",""坏我""]","[""弱她"",""强她"",""强我"",""弱我""]","","","","","","","","","","","","","","","","","","","","","","","","","","","","","","feedback_test","","","","","","","","",""
"1133","","f","psychophysics","86","491309","0.0-8.0-0.0-1.0-0.0-0.38","6","7","5","6","7","5","5","4","4","5","4","0","-3","0","1","1","0","2","1","4","2","5","2","4","2","2","1","4","5","4","7","5","4","4","6","4","6","7","3","6","5","5","2","3","6","3","6","5","1","6","3","7","5","3","3","6","6","6","6","3","6","5","2","6","5","6","6","7","5","6","3","3","3","7","2","5","6","2","7","595169798766198784","林","574","Female","[""坏她"",""好她"",""好我"",""坏我""]","[""弱她"",""强她"",""强我"",""弱我""]","","","","","","","","match","","","","","","","","","","key","f","16.650275590550887","799.9999682108573","445.8333156175091","j","false","nonmatch","img/triangle.png","好她","好我","prac_ALT2_moral","practice_moral","","","","","","","","",""
"null","<span style='color:red; font-size: 70px;'>错误! </span>","null","html-keyboard-response","87","491810","0.0-8.0-0.0-1.0-0.0-1.38","6","7","5","6","7","5","5","4","4","5","4","0","-3","0","1","1","0","2","1","4","2","5","2","4","2","2","1","4","5","4","7","5","4","4","6","4","6","7","3","6","5","5","2","3","6","3","6","5","1","6","3","7","5","3","3","6","6","6","6","3","6","5","2","6","5","6","6","7","5","6","3","3","3","7","2","5","6","2","7","595169798766198784","林","574","Female","[""坏她"",""好她"",""好我"",""坏我""]","[""弱她"",""强她"",""强我"",""弱我""]","","","","","","","","","","","","","","","","","","","","","","","","","","","","","","feedback_test","","","","","","","","",""
"1095","","j","psychophysics","88","493907","0.0-8.0-0.0-1.0-0.0-0.39","6","7","5","6","7","5","5","4","4","5","4","0","-3","0","1","1","0","2","1","4","2","5","2","4","2","2","1","4","5","4","7","5","4","4","6","4","6","7","3","6","5","5","2","3","6","3","6","5","1","6","3","7","5","3","3","6","6","6","6","3","6","5","2","6","5","6","6","7","5","6","3","3","3","7","2","5","6","2","7","595169798766198784","林","574","Female","[""坏她"",""好她"",""好我"",""坏我""]","[""弱她"",""强她"",""强我"",""弱我""]","","","","","","","","nonmatch","","","","","","","","","","key","j","16.653743999999946","799.9999682108573","445.8333156175091","f","false","match","img/hexagon.png","坏我","坏我","prac_ALT2_moral","practice_moral","","","","","","","","",""
"null","<span style='color:red; font-size: 70px;'>错误! </span>","null","html-keyboard-response","89","494412","0.0-8.0-0.0-1.0-0.0-1.39","6","7","5","6","7","5","5","4","4","5","4","0","-3","0","1","1","0","2","1","4","2","5","2","4","2","2","1","4","5","4","7","5","4","4","6","4","6","7","3","6","5","5","2","3","6","3","6","5","1","6","3","7","5","3","3","6","6","6","6","3","6","5","2","6","5","6","6","7","5","6","3","3","3","7","2","5","6","2","7","595169798766198784","林","574","Female","[""坏她"",""好她"",""好我"",""坏我""]","[""弱她"",""强她"",""强我"",""弱我""]","","","","","","","","","","","","","","","","","","","","","","","","","","","","","","feedback_test","","","","","","","","",""
"878","","f","psychophysics","90","496292","0.0-8.0-0.0-1.0-0.0-0.40","6","7","5","6","7","5","5","4","4","5","4","0","-3","0","1","1","0","2","1","4","2","5","2","4","2","2","1","4","5","4","7","5","4","4","6","4","6","7","3","6","5","5","2","3","6","3","6","5","1","6","3","7","5","3","3","6","6","6","6","3","6","5","2","6","5","6","6","7","5","6","3","3","3","7","2","5","6","2","7","595169798766198784","林","574","Female","[""坏她"",""好她"",""好我"",""坏我""]","[""弱她"",""强她"",""强我"",""弱我""]","","","","","","","","match","","","","","","","","","","key","f","16.653946428571153","799.9999682108573","445.8333156175091","f","true","match","img/triangle.png","好我","好我","prac_ALT2_moral","practice_moral","","","","","","","","",""
"null","<span style='color:GreenYellow; font-size: 70px;'>正确! </span>","null","html-keyboard-response","91","496793","0.0-8.0-0.0-1.0-0.0-1.40","6","7","5","6","7","5","5","4","4","5","4","0","-3","0","1","1","0","2","1","4","2","5","2","4","2","2","1","4","5","4","7","5","4","4","6","4","6","7","3","6","5","5","2","3","6","3","6","5","1","6","3","7","5","3","3","6","6","6","6","3","6","5","2","6","5","6","6","7","5","6","3","3","3","7","2","5","6","2","7","595169798766198784","林","574","Female","[""坏她"",""好她"",""好我"",""坏我""]","[""弱她"",""强她"",""强我"",""弱我""]","","","","","","","","","","","","","","","","","","","","","","","","","","","","","","feedback_test","","","","","","","","",""
"836","","j","psychophysics","92","498632","0.0-8.0-0.0-1.0-0.0-0.41","6","7","5","6","7","5","5","4","4","5","4","0","-3","0","1","1","0","2","1","4","2","5","2","4","2","2","1","4","5","4","7","5","4","4","6","4","6","7","3","6","5","5","2","3","6","3","6","5","1","6","3","7","5","3","3","6","6","6","6","3","6","5","2","6","5","6","6","7","5","6","3","3","3","7","2","5","6","2","7","595169798766198784","林","574","Female","[""坏她"",""好她"",""好我"",""坏我""]","[""弱她"",""强她"",""强我"",""弱我""]","","","","","","","","nonmatch","","","","","","","","","","key","j","16.653743119265805","799.9999682108573","445.8333156175091","j","true","nonmatch","img/triangle.png","坏她","好我","prac_ALT2_moral","practice_moral","","","","","","","","",""
"null","<span style='color:GreenYellow; font-size: 70px;'>正确! </span>","null","html-keyboard-response","93","499136","0.0-8.0-0.0-1.0-0.0-1.41","6","7","5","6","7","5","5","4","4","5","4","0","-3","0","1","1","0","2","1","4","2","5","2","4","2","2","1","4","5","4","7","5","4","4","6","4","6","7","3","6","5","5","2","3","6","3","6","5","1","6","3","7","5","3","3","6","6","6","6","3","6","5","2","6","5","6","6","7","5","6","3","3","3","7","2","5","6","2","7","595169798766198784","林","574","Female","[""坏她"",""好她"",""好我"",""坏我""]","[""弱她"",""强她"",""强我"",""弱我""]","","","","","","","","","","","","","","","","","","","","","","","","","","","","","","feedback_test","","","","","","","","",""
"974","","j","psychophysics","94","501110","0.0-8.0-0.0-1.0-0.0-0.42","6","7","5","6","7","5","5","4","4","5","4","0","-3","0","1","1","0","2","1","4","2","5","2","4","2","2","1","4","5","4","7","5","4","4","6","4","6","7","3","6","5","5","2","3","6","3","6","5","1","6","3","7","5","3","3","6","6","6","6","3","6","5","2","6","5","6","6","7","5","6","3","3","3","7","2","5","6","2","7","595169798766198784","林","574","Female","[""坏她"",""好她"",""好我"",""坏我""]","[""弱她"",""强她"",""强我"",""弱我""]","","","","","","","","nonmatch","","","","","","","","","","key","j","16.652760683760867","799.9999682108573","445.8333156175091","j","true","nonmatch","img/hexagon.png","好她","坏我","prac_ALT2_moral","practice_moral","","","","","","","","",""
"null","<span style='color:GreenYellow; font-size: 70px;'>正确! </span>","null","html-keyboard-response","95","501611","0.0-8.0-0.0-1.0-0.0-1.42","6","7","5","6","7","5","5","4","4","5","4","0","-3","0","1","1","0","2","1","4","2","5","2","4","2","2","1","4","5","4","7","5","4","4","6","4","6","7","3","6","5","5","2","3","6","3","6","5","1","6","3","7","5","3","3","6","6","6","6","3","6","5","2","6","5","6","6","7","5","6","3","3","3","7","2","5","6","2","7","595169798766198784","林","574","Female","[""坏她"",""好她"",""好我"",""坏我""]","[""弱她"",""强她"",""强我"",""弱我""]","","","","","","","","","","","","","","","","","","","","","","","","","","","","","","feedback_test","","","","","","","","",""
"830","","f","psychophysics","96","503442","0.0-8.0-0.0-1.0-0.0-0.43","6","7","5","6","7","5","5","4","4","5","4","0","-3","0","1","1","0","2","1","4","2","5","2","4","2","2","1","4","5","4","7","5","4","4","6","4","6","7","3","6","5","5","2","3","6","3","6","5","1","6","3","7","5","3","3","6","6","6","6","3","6","5","2","6","5","6","6","7","5","6","3","3","3","7","2","5","6","2","7","595169798766198784","林","574","Female","[""坏她"",""好她"",""好我"",""坏我""]","[""弱她"",""强她"",""强我"",""弱我""]","","","","","","","","match","","","","","","","","","","key","f","16.643972222222214","799.9999682108573","445.8333156175091","f","true","match","img/triangle.png","好我","好我","prac_ALT2_moral","practice_moral","","","","","","","","",""
"null","<span style='color:GreenYellow; font-size: 70px;'>正确! </span>","null","html-keyboard-response","97","503948","0.0-8.0-0.0-1.0-0.0-1.43","6","7","5","6","7","5","5","4","4","5","4","0","-3","0","1","1","0","2","1","4","2","5","2","4","2","2","1","4","5","4","7","5","4","4","6","4","6","7","3","6","5","5","2","3","6","3","6","5","1","6","3","7","5","3","3","6","6","6","6","3","6","5","2","6","5","6","6","7","5","6","3","3","3","7","2","5","6","2","7","595169798766198784","林","574","Female","[""坏她"",""好她"",""好我"",""坏我""]","[""弱她"",""强她"",""强我"",""弱我""]","","","","","","","","","","","","","","","","","","","","","","","","","","","","","","feedback_test","","","","","","","","",""
"730","","j","psychophysics","98","505681","0.0-8.0-0.0-1.0-0.0-0.44","6","7","5","6","7","5","5","4","4","5","4","0","-3","0","1","1","0","2","1","4","2","5","2","4","2","2","1","4","5","4","7","5","4","4","6","4","6","7","3","6","5","5","2","3","6","3","6","5","1","6","3","7","5","3","3","6","6","6","6","3","6","5","2","6","5","6","6","7","5","6","3","3","3","7","2","5","6","2","7","595169798766198784","林","574","Female","[""坏她"",""好她"",""好我"",""坏我""]","[""弱她"",""强她"",""强我"",""弱我""]","","","","","","","","nonmatch","","","","","","","","","","key","j","16.652786407766648","799.9999682108573","445.8333156175091","j","true","nonmatch","img/triangle.png","坏我","好我","prac_ALT2_moral","practice_moral","","","","","","","","",""
"null","<span style='color:GreenYellow; font-size: 70px;'>正确! </span>","null","html-keyboard-response","99","506181","0.0-8.0-0.0-1.0-0.0-1.44","6","7","5","6","7","5","5","4","4","5","4","0","-3","0","1","1","0","2","1","4","2","5","2","4","2","2","1","4","5","4","7","5","4","4","6","4","6","7","3","6","5","5","2","3","6","3","6","5","1","6","3","7","5","3","3","6","6","6","6","3","6","5","2","6","5","6","6","7","5","6","3","3","3","7","2","5","6","2","7","595169798766198784","林","574","Female","[""坏她"",""好她"",""好我"",""坏我""]","[""弱她"",""强她"",""强我"",""弱我""]","","","","","","","","","","","","","","","","","","","","","","","","","","","","","","feedback_test","","","","","","","","",""
"789","","j","psychophysics","100","507973","0.0-8.0-0.0-1.0-0.0-0.45","6","7","5","6","7","5","5","4","4","5","4","0","-3","0","1","1","0","2","1","4","2","5","2","4","2","2","1","4","5","4","7","5","4","4","6","4","6","7","3","6","5","5","2","3","6","3","6","5","1","6","3","7","5","3","3","6","6","6","6","3","6","5","2","6","5","6","6","7","5","6","3","3","3","7","2","5","6","2","7","595169798766198784","林","574","Female","[""坏她"",""好她"",""好我"",""坏我""]","[""弱她"",""强她"",""强我"",""弱我""]","","","","","","","","nonmatch","","","","","","","","","","key","j","16.654009433962376","799.9999682108573","445.8333156175091","j","true","nonmatch","img/trapezoid.png","好我","坏她","prac_ALT2_moral","practice_moral","","","","","","","","",""
"null","<span style='color:GreenYellow; font-size: 70px;'>正确! </span>","null","html-keyboard-response","101","508474","0.0-8.0-0.0-1.0-0.0-1.45","6","7","5","6","7","5","5","4","4","5","4","0","-3","0","1","1","0","2","1","4","2","5","2","4","2","2","1","4","5","4","7","5","4","4","6","4","6","7","3","6","5","5","2","3","6","3","6","5","1","6","3","7","5","3","3","6","6","6","6","3","6","5","2","6","5","6","6","7","5","6","3","3","3","7","2","5","6","2","7","595169798766198784","林","574","Female","[""坏她"",""好她"",""好我"",""坏我""]","[""弱她"",""强她"",""强我"",""弱我""]","","","","","","","","","","","","","","","","","","","","","","","","","","","","","","feedback_test","","","","","","","","",""
"784","","j","psychophysics","102","510260","0.0-8.0-0.0-1.0-0.0-0.46","6","7","5","6","7","5","5","4","4","5","4","0","-3","0","1","1","0","2","1","4","2","5","2","4","2","2","1","4","5","4","7","5","4","4","6","4","6","7","3","6","5","5","2","3","6","3","6","5","1","6","3","7","5","3","3","6","6","6","6","3","6","5","2","6","5","6","6","7","5","6","3","3","3","7","2","5","6","2","7","595169798766198784","林","574","Female","[""坏她"",""好她"",""好我"",""坏我""]","[""弱她"",""强她"",""强我"",""弱我""]","","","","","","","","nonmatch","","","","","","","","","","key","j","16.65316981132052","799.9999682108573","445.8333156175091","j","true","nonmatch","img/ellipse.png","坏我","好她","prac_ALT2_moral","practice_moral","","","","","","","","",""
"null","<span style='color:GreenYellow; font-size: 70px;'>正确! </span>","null","html-keyboard-response","103","510761","0.0-8.0-0.0-1.0-0.0-1.46","6","7","5","6","7","5","5","4","4","5","4","0","-3","0","1","1","0","2","1","4","2","5","2","4","2","2","1","4","5","4","7","5","4","4","6","4","6","7","3","6","5","5","2","3","6","3","6","5","1","6","3","7","5","3","3","6","6","6","6","3","6","5","2","6","5","6","6","7","5","6","3","3","3","7","2","5","6","2","7","595169798766198784","林","574","Female","[""坏她"",""好她"",""好我"",""坏我""]","[""弱她"",""强她"",""强我"",""弱我""]","","","","","","","","","","","","","","","","","","","","","","","","","","","","","","feedback_test","","","","","","","","",""
"1133","","f","psychophysics","104","512896","0.0-8.0-0.0-1.0-0.0-0.47","6","7","5","6","7","5","5","4","4","5","4","0","-3","0","1","1","0","2","1","4","2","5","2","4","2","2","1","4","5","4","7","5","4","4","6","4","6","7","3","6","5","5","2","3","6","3","6","5","1","6","3","7","5","3","3","6","6","6","6","3","6","5","2","6","5","6","6","7","5","6","3","3","3","7","2","5","6","2","7","595169798766198784","林","574","Female","[""坏她"",""好她"",""好我"",""坏我""]","[""弱她"",""强她"",""强我"",""弱我""]","","","","","","","","match","","","","","","","","","","key","f","16.652456692913105","799.9999682108573","445.8333156175091","f","true","match","img/triangle.png","好我","好我","prac_ALT2_moral","practice_moral","","","","","","","","",""
"null","<span style='color:GreenYellow; font-size: 70px;'>正确! </span>","null","html-keyboard-response","105","513398","0.0-8.0-0.0-1.0-0.0-1.47","6","7","5","6","7","5","5","4","4","5","4","0","-3","0","1","1","0","2","1","4","2","5","2","4","2","2","1","4","5","4","7","5","4","4","6","4","6","7","3","6","5","5","2","3","6","3","6","5","1","6","3","7","5","3","3","6","6","6","6","3","6","5","2","6","5","6","6","7","5","6","3","3","3","7","2","5","6","2","7","595169798766198784","林","574","Female","[""坏她"",""好她"",""好我"",""坏我""]","[""弱她"",""强她"",""强我"",""弱我""]","","","","","","","","","","","","","","","","","","","","","","","","","","","","","","feedback_test","","","","","","","","",""
"1766","<style>.context{color:white; font-size: 35px; line-height:40px}</style>                            <div><p class='context'>您正确回答了69% 的试次。</p><p class='context'>您的平均反应时为956毫秒。</p><p class='context'>恭喜您完成练习。按空格键进入正式实验。</p><p class='footer' style='font-size: 35px; line-height:40px;'>请在进入正式实验实验之前将您的<span style='color: lightgreen;'>食指</span>放在电脑键盘的相应键位上进行按键。</p>"," ","html-keyboard-response","106","515166","0.0-8.0-0.0-2.0","6","7","5","6","7","5","5","4","4","5","4","0","-3","0","1","1","0","2","1","4","2","5","2","4","2","2","1","4","5","4","7","5","4","4","6","4","6","7","3","6","5","5","2","3","6","3","6","5","1","6","3","7","5","3","3","6","6","6","6","3","6","5","2","6","5","6","6","7","5","6","3","3","3","7","2","5","6","2","7","595169798766198784","林","574","Female","[""坏她"",""好她"",""好我"",""坏我""]","[""弱她"",""强她"",""强我"",""弱我""]","","","","","","","","","","","","","","","","","","","","","","","","","","","","","","","","","","","","","","",""
"607","
    <p style='color: white; font-size: 22px'>请您将手指放在按键上，准备进入正式的匹配任务。</p>
    <p> <div style = ""color: green""><按空格键进入下一阶段的匹配任务></div></p>
    "," ","html-keyboard-response","107","515777","0.0-8.0-0.0-3.0","6","7","5","6","7","5","5","4","4","5","4","0","-3","0","1","1","0","2","1","4","2","5","2","4","2","2","1","4","5","4","7","5","4","4","6","4","6","7","3","6","5","5","2","3","6","3","6","5","1","6","3","7","5","3","3","6","6","6","6","3","6","5","2","6","5","6","6","7","5","6","3","3","3","7","2","5","6","2","7","595169798766198784","林","574","Female","[""坏她"",""好她"",""好我"",""坏我""]","[""弱她"",""强她"",""强我"",""弱我""]","","","","","","","","","","","","","","","","","","","","","","","","","","","","","","","","","","","","","","",""
"848","","j","psychophysics","108","517627","0.0-8.0-0.0-4.0-0.0-0.0","6","7","5","6","7","5","5","4","4","5","4","0","-3","0","1","1","0","2","1","4","2","5","2","4","2","2","1","4","5","4","7","5","4","4","6","4","6","7","3","6","5","5","2","3","6","3","6","5","1","6","3","7","5","3","3","6","6","6","6","3","6","5","2","6","5","6","6","7","5","6","3","3","3","7","2","5","6","2","7","595169798766198784","林","574","Female","[""坏她"",""好她"",""好我"",""坏我""]","[""弱她"",""强她"",""强我"",""弱我""]","","","","","","","","nonmatch","","","","","","","","","","key","j","16.648427272727183","799.9999682108573","445.8333156175091","j","true","nonmatch","img/triangle.png","坏她","好我","ALT2","moral","","","","","","","","",""
"null","<span style='color:GreenYellow; font-size: 70px;'>正确! </span>","null","html-keyboard-response","109","518132","0.0-8.0-0.0-4.0-0.0-1.0","6","7","5","6","7","5","5","4","4","5","4","0","-3","0","1","1","0","2","1","4","2","5","2","4","2","2","1","4","5","4","7","5","4","4","6","4","6","7","3","6","5","5","2","3","6","3","6","5","1","6","3","7","5","3","3","6","6","6","6","3","6","5","2","6","5","6","6","7","5","6","3","3","3","7","2","5","6","2","7","595169798766198784","林","574","Female","[""坏她"",""好她"",""好我"",""坏我""]","[""弱她"",""强她"",""强我"",""弱我""]","","","","","","","","","","","","","","","","","","","","","","","","","","","","","","feedback_test","","","","","","","","",""
"791","","f","psychophysics","110","519926","0.0-8.0-0.0-4.0-0.0-0.1","6","7","5","6","7","5","5","4","4","5","4","0","-3","0","1","1","0","2","1","4","2","5","2","4","2","2","1","4","5","4","7","5","4","4","6","4","6","7","3","6","5","5","2","3","6","3","6","5","1","6","3","7","5","3","3","6","6","6","6","3","6","5","2","6","5","6","6","7","5","6","3","3","3","7","2","5","6","2","7","595169798766198784","林","574","Female","[""坏她"",""好她"",""好我"",""坏我""]","[""弱她"",""强她"",""强我"",""弱我""]","","","","","","","","match","","","","","","","","","","key","f","16.653726415094187","799.9999682108573","445.8333156175091","j","false","nonmatch","img/hexagon.png","好我","坏我","ALT2","moral","","","","","","","","",""
"null","<span style='color:red; font-size: 70px;'>错误! </span>","null","html-keyboard-response","111","520427","0.0-8.0-0.0-4.0-0.0-1.1","6","7","5","6","7","5","5","4","4","5","4","0","-3","0","1","1","0","2","1","4","2","5","2","4","2","2","1","4","5","4","7","5","4","4","6","4","6","7","3","6","5","5","2","3","6","3","6","5","1","6","3","7","5","3","3","6","6","6","6","3","6","5","2","6","5","6","6","7","5","6","3","3","3","7","2","5","6","2","7","595169798766198784","林","574","Female","[""坏她"",""好她"",""好我"",""坏我""]","[""弱她"",""强她"",""强我"",""弱我""]","","","","","","","","","","","","","","","","","","","","","","","","","","","","","","feedback_test","","","","","","","","",""
"873","","j","psychophysics","112","522302","0.0-8.0-0.0-4.0-0.0-0.2","6","7","5","6","7","5","5","4","4","5","4","0","-3","0","1","1","0","2","1","4","2","5","2","4","2","2","1","4","5","4","7","5","4","4","6","4","6","7","3","6","5","5","2","3","6","3","6","5","1","6","3","7","5","3","3","6","6","6","6","3","6","5","2","6","5","6","6","7","5","6","3","3","3","7","2","5","6","2","7","595169798766198784","林","574","Female","[""坏她"",""好她"",""好我"",""坏我""]","[""弱她"",""强她"",""强我"",""弱我""]","","","","","","","","nonmatch","","","","","","","","","","key","j","16.65387499999997","799.9999682108573","445.8333156175091","f","false","match","img/trapezoid.png","坏她","坏她","ALT2","moral","","","","","","","","",""
"null","<span style='color:red; font-size: 70px;'>错误! </span>","null","html-keyboard-response","113","522803","0.0-8.0-0.0-4.0-0.0-1.2","6","7","5","6","7","5","5","4","4","5","4","0","-3","0","1","1","0","2","1","4","2","5","2","4","2","2","1","4","5","4","7","5","4","4","6","4","6","7","3","6","5","5","2","3","6","3","6","5","1","6","3","7","5","3","3","6","6","6","6","3","6","5","2","6","5","6","6","7","5","6","3","3","3","7","2","5","6","2","7","595169798766198784","林","574","Female","[""坏她"",""好她"",""好我"",""坏我""]","[""弱她"",""强她"",""强我"",""弱我""]","","","","","","","","","","","","","","","","","","","","","","","","","","","","","","feedback_test","","","","","","","","",""
"879","","f","psychophysics","114","524683","0.0-8.0-0.0-4.0-0.0-0.3","6","7","5","6","7","5","5","4","4","5","4","0","-3","0","1","1","0","2","1","4","2","5","2","4","2","2","1","4","5","4","7","5","4","4","6","4","6","7","3","6","5","5","2","3","6","3","6","5","1","6","3","7","5","3","3","6","6","6","6","3","6","5","2","6","5","6","6","7","5","6","3","3","3","7","2","5","6","2","7","595169798766198784","林","574","Female","[""坏她"",""好她"",""好我"",""坏我""]","[""弱她"",""强她"",""强我"",""弱我""]","","","","","","","","match","","","","","","","","","","key","f","16.653241071428056","799.9999682108573","445.8333156175091","f","true","match","img/ellipse.png","好她","好她","ALT2","moral","","","","","","","","",""
"null","<span style='color:GreenYellow; font-size: 70px;'>正确! </span>","null","html-keyboard-response","115","525186","0.0-8.0-0.0-4.0-0.0-1.3","6","7","5","6","7","5","5","4","4","5","4","0","-3","0","1","1","0","2","1","4","2","5","2","4","2","2","1","4","5","4","7","5","4","4","6","4","6","7","3","6","5","5","2","3","6","3","6","5","1","6","3","7","5","3","3","6","6","6","6","3","6","5","2","6","5","6","6","7","5","6","3","3","3","7","2","5","6","2","7","595169798766198784","林","574","Female","[""坏她"",""好她"",""好我"",""坏我""]","[""弱她"",""强她"",""强我"",""弱我""]","","","","","","","","","","","","","","","","","","","","","","","","","","","","","","feedback_test","","","","","","","","",""
"773","","f","psychophysics","116","526961","0.0-8.0-0.0-4.0-0.0-0.4","6","7","5","6","7","5","5","4","4","5","4","0","-3","0","1","1","0","2","1","4","2","5","2","4","2","2","1","4","5","4","7","5","4","4","6","4","6","7","3","6","5","5","2","3","6","3","6","5","1","6","3","7","5","3","3","6","6","6","6","3","6","5","2","6","5","6","6","7","5","6","3","3","3","7","2","5","6","2","7","595169798766198784","林","574","Female","[""坏她"",""好她"",""好我"",""坏我""]","[""弱她"",""强她"",""强我"",""弱我""]","","","","","","","","match","","","","","","","","","","key","f","16.653424528301123","799.9999682108573","445.8333156175091","f","true","match","img/triangle.png","好我","好我","ALT2","moral","","","","","","","","",""
"null","<span style='color:GreenYellow; font-size: 70px;'>正确! </span>","null","html-keyboard-response","117","527462","0.0-8.0-0.0-4.0-0.0-1.4","6","7","5","6","7","5","5","4","4","5","4","0","-3","0","1","1","0","2","1","4","2","5","2","4","2","2","1","4","5","4","7","5","4","4","6","4","6","7","3","6","5","5","2","3","6","3","6","5","1","6","3","7","5","3","3","6","6","6","6","3","6","5","2","6","5","6","6","7","5","6","3","3","3","7","2","5","6","2","7","595169798766198784","林","574","Female","[""坏她"",""好她"",""好我"",""坏我""]","[""弱她"",""强她"",""强我"",""弱我""]","","","","","","","","","","","","","","","","","","","","","","","","","","","","","","feedback_test","","","","","","","","",""
"1137","","j","psychophysics","118","529601","0.0-8.0-0.0-4.0-0.0-0.5","6","7","5","6","7","5","5","4","4","5","4","0","-3","0","1","1","0","2","1","4","2","5","2","4","2","2","1","4","5","4","7","5","4","4","6","4","6","7","3","6","5","5","2","3","6","3","6","5","1","6","3","7","5","3","3","6","6","6","6","3","6","5","2","6","5","6","6","7","5","6","3","3","3","7","2","5","6","2","7","595169798766198784","林","574","Female","[""坏她"",""好她"",""好我"",""坏我""]","[""弱她"",""强她"",""强我"",""弱我""]","","","","","","","","nonmatch","","","","","","","","","","key","j","16.652984251967617","799.9999682108573","445.8333156175091","j","true","nonmatch","img/trapezoid.png","好她","坏她","ALT2","moral","","","","","","","","",""
"null","<span style='color:GreenYellow; font-size: 70px;'>正确! </span>","null","html-keyboard-response","119","530102","0.0-8.0-0.0-4.0-0.0-1.5","6","7","5","6","7","5","5","4","4","5","4","0","-3","0","1","1","0","2","1","4","2","5","2","4","2","2","1","4","5","4","7","5","4","4","6","4","6","7","3","6","5","5","2","3","6","3","6","5","1","6","3","7","5","3","3","6","6","6","6","3","6","5","2","6","5","6","6","7","5","6","3","3","3","7","2","5","6","2","7","595169798766198784","林","574","Female","[""坏她"",""好她"",""好我"",""坏我""]","[""弱她"",""强她"",""强我"",""弱我""]","","","","","","","","","","","","","","","","","","","","","","","","","","","","","","feedback_test","","","","","","","","",""
"1096","","j","psychophysics","120","532200","0.0-8.0-0.0-4.0-0.0-0.6","6","7","5","6","7","5","5","4","4","5","4","0","-3","0","1","1","0","2","1","4","2","5","2","4","2","2","1","4","5","4","7","5","4","4","6","4","6","7","3","6","5","5","2","3","6","3","6","5","1","6","3","7","5","3","3","6","6","6","6","3","6","5","2","6","5","6","6","7","5","6","3","3","3","7","2","5","6","2","7","595169798766198784","林","574","Female","[""坏她"",""好她"",""好我"",""坏我""]","[""弱她"",""强她"",""强我"",""弱我""]","","","","","","","","nonmatch","","","","","","","","","","key","j","16.653512000000106","799.9999682108573","445.8333156175091","j","true","nonmatch","img/triangle.png","坏我","好我","ALT2","moral","","","","","","","","",""
"null","<span style='color:GreenYellow; font-size: 70px;'>正确! </span>","null","html-keyboard-response","121","532701","0.0-8.0-0.0-4.0-0.0-1.6","6","7","5","6","7","5","5","4","4","5","4","0","-3","0","1","1","0","2","1","4","2","5","2","4","2","2","1","4","5","4","7","5","4","4","6","4","6","7","3","6","5","5","2","3","6","3","6","5","1","6","3","7","5","3","3","6","6","6","6","3","6","5","2","6","5","6","6","7","5","6","3","3","3","7","2","5","6","2","7","595169798766198784","林","574","Female","[""坏她"",""好她"",""好我"",""坏我""]","[""弱她"",""强她"",""强我"",""弱我""]","","","","","","","","","","","","","","","","","","","","","","","","","","","","","","feedback_test","","","","","","","","",""
"813","","j","psychophysics","122","534516","0.0-8.0-0.0-4.0-0.0-0.7","6","7","5","6","7","5","5","4","4","5","4","0","-3","0","1","1","0","2","1","4","2","5","2","4","2","2","1","4","5","4","7","5","4","4","6","4","6","7","3","6","5","5","2","3","6","3","6","5","1","6","3","7","5","3","3","6","6","6","6","3","6","5","2","6","5","6","6","7","5","6","3","3","3","7","2","5","6","2","7","595169798766198784","林","574","Female","[""坏她"",""好她"",""好我"",""坏我""]","[""弱她"",""强她"",""强我"",""弱我""]","","","","","","","","nonmatch","","","","","","","","","","key","j","16.65424074074124","799.9999682108573","445.8333156175091","j","true","nonmatch","img/ellipse.png","坏我","好她","ALT2","moral","","","","","","","","",""
"null","<span style='color:GreenYellow; font-size: 70px;'>正确! </span>","null","html-keyboard-response","123","535021","0.0-8.0-0.0-4.0-0.0-1.7","6","7","5","6","7","5","5","4","4","5","4","0","-3","0","1","1","0","2","1","4","2","5","2","4","2","2","1","4","5","4","7","5","4","4","6","4","6","7","3","6","5","5","2","3","6","3","6","5","1","6","3","7","5","3","3","6","6","6","6","3","6","5","2","6","5","6","6","7","5","6","3","3","3","7","2","5","6","2","7","595169798766198784","林","574","Female","[""坏她"",""好她"",""好我"",""坏我""]","[""弱她"",""强她"",""强我"",""弱我""]","","","","","","","","","","","","","","","","","","","","","","","","","","","","","","feedback_test","","","","","","","","",""
"999","","j","psychophysics","124","537022","0.0-8.0-0.0-4.0-0.0-0.8","6","7","5","6","7","5","5","4","4","5","4","0","-3","0","1","1","0","2","1","4","2","5","2","4","2","2","1","4","5","4","7","5","4","4","6","4","6","7","3","6","5","5","2","3","6","3","6","5","1","6","3","7","5","3","3","6","6","6","6","3","6","5","2","6","5","6","6","7","5","6","3","3","3","7","2","5","6","2","7","595169798766198784","林","574","Female","[""坏她"",""好她"",""好我"",""坏我""]","[""弱她"",""强她"",""强我"",""弱我""]","","","","","","","","nonmatch","","","","","","","","","","key","j","16.65354621848737","799.9999682108573","445.8333156175091","j","true","nonmatch","img/trapezoid.png","坏我","坏她","ALT2","moral","","","","","","","","",""
"null","<span style='color:GreenYellow; font-size: 70px;'>正确! </span>","null","html-keyboard-response","125","537524","0.0-8.0-0.0-4.0-0.0-1.8","6","7","5","6","7","5","5","4","4","5","4","0","-3","0","1","1","0","2","1","4","2","5","2","4","2","2","1","4","5","4","7","5","4","4","6","4","6","7","3","6","5","5","2","3","6","3","6","5","1","6","3","7","5","3","3","6","6","6","6","3","6","5","2","6","5","6","6","7","5","6","3","3","3","7","2","5","6","2","7","595169798766198784","林","574","Female","[""坏她"",""好她"",""好我"",""坏我""]","[""弱她"",""强她"",""强我"",""弱我""]","","","","","","","","","","","","","","","","","","","","","","","","","","","","","","feedback_test","","","","","","","","",""
"1044","","f","psychophysics","126","539570","0.0-8.0-0.0-4.0-0.0-0.9","6","7","5","6","7","5","5","4","4","5","4","0","-3","0","1","1","0","2","1","4","2","5","2","4","2","2","1","4","5","4","7","5","4","4","6","4","6","7","3","6","5","5","2","3","6","3","6","5","1","6","3","7","5","3","3","6","6","6","6","3","6","5","2","6","5","6","6","7","5","6","3","3","3","7","2","5","6","2","7","595169798766198784","林","574","Female","[""坏她"",""好她"",""好我"",""坏我""]","[""弱她"",""强她"",""强我"",""弱我""]","","","","","","","","match","","","","","","","","","","key","f","16.653106557376127","799.9999682108573","445.8333156175091","f","true","match","img/hexagon.png","坏我","坏我","ALT2","moral","","","","","","","","",""
"null","<span style='color:GreenYellow; font-size: 70px;'>正确! </span>","null","html-keyboard-response","127","540070","0.0-8.0-0.0-4.0-0.0-1.9","6","7","5","6","7","5","5","4","4","5","4","0","-3","0","1","1","0","2","1","4","2","5","2","4","2","2","1","4","5","4","7","5","4","4","6","4","6","7","3","6","5","5","2","3","6","3","6","5","1","6","3","7","5","3","3","6","6","6","6","3","6","5","2","6","5","6","6","7","5","6","3","3","3","7","2","5","6","2","7","595169798766198784","林","574","Female","[""坏她"",""好她"",""好我"",""坏我""]","[""弱她"",""强她"",""强我"",""弱我""]","","","","","","","","","","","","","","","","","","","","","","","","","","","","","","feedback_test","","","","","","","","",""
"883","","f","psychophysics","128","541955","0.0-8.0-0.0-4.0-0.0-0.10","6","7","5","6","7","5","5","4","4","5","4","0","-3","0","1","1","0","2","1","4","2","5","2","4","2","2","1","4","5","4","7","5","4","4","6","4","6","7","3","6","5","5","2","3","6","3","6","5","1","6","3","7","5","3","3","6","6","6","6","3","6","5","2","6","5","6","6","7","5","6","3","3","3","7","2","5","6","2","7","595169798766198784","林","574","Female","[""坏她"",""好她"",""好我"",""坏我""]","[""弱她"",""强她"",""强我"",""弱我""]","","","","","","","","match","","","","","","","","","","key","f","16.6534375000005","799.9999682108573","445.8333156175091","f","true","match","img/ellipse.png","好她","好她","ALT2","moral","","","","","","","","",""
"null","<span style='color:GreenYellow; font-size: 70px;'>正确! </span>","null","html-keyboard-response","129","542456","0.0-8.0-0.0-4.0-0.0-1.10","6","7","5","6","7","5","5","4","4","5","4","0","-3","0","1","1","0","2","1","4","2","5","2","4","2","2","1","4","5","4","7","5","4","4","6","4","6","7","3","6","5","5","2","3","6","3","6","5","1","6","3","7","5","3","3","6","6","6","6","3","6","5","2","6","5","6","6","7","5","6","3","3","3","7","2","5","6","2","7","595169798766198784","林","574","Female","[""坏她"",""好她"",""好我"",""坏我""]","[""弱她"",""强她"",""强我"",""弱我""]","","","","","","","","","","","","","","","","","","","","","","","","","","","","","","feedback_test","","","","","","","","",""
"961","","j","psychophysics","130","544419","0.0-8.0-0.0-4.0-0.0-0.11","6","7","5","6","7","5","5","4","4","5","4","0","-3","0","1","1","0","2","1","4","2","5","2","4","2","2","1","4","5","4","7","5","4","4","6","4","6","7","3","6","5","5","2","3","6","3","6","5","1","6","3","7","5","3","3","6","6","6","6","3","6","5","2","6","5","6","6","7","5","6","3","3","3","7","2","5","6","2","7","595169798766198784","林","574","Female","[""坏她"",""好她"",""好我"",""坏我""]","[""弱她"",""强她"",""强我"",""弱我""]","","","","","","","","nonmatch","","","","","","","","","","key","j","16.64935897435977","799.9999682108573","445.8333156175091","f","false","match","img/trapezoid.png","坏她","坏她","ALT2","moral","","","","","","","","",""
"null","<span style='color:red; font-size: 70px;'>错误! </span>","null","html-keyboard-response","131","544920","0.0-8.0-0.0-4.0-0.0-1.11","6","7","5","6","7","5","5","4","4","5","4","0","-3","0","1","1","0","2","1","4","2","5","2","4","2","2","1","4","5","4","7","5","4","4","6","4","6","7","3","6","5","5","2","3","6","3","6","5","1","6","3","7","5","3","3","6","6","6","6","3","6","5","2","6","5","6","6","7","5","6","3","3","3","7","2","5","6","2","7","595169798766198784","林","574","Female","[""坏她"",""好她"",""好我"",""坏我""]","[""弱她"",""强她"",""强我"",""弱我""]","","","","","","","","","","","","","","","","","","","","","","","","","","","","","","feedback_test","","","","","","","","",""
"952","","j","psychophysics","132","546873","0.0-8.0-0.0-4.0-0.0-0.12","6","7","5","6","7","5","5","4","4","5","4","0","-3","0","1","1","0","2","1","4","2","5","2","4","2","2","1","4","5","4","7","5","4","4","6","4","6","7","3","6","5","5","2","3","6","3","6","5","1","6","3","7","5","3","3","6","6","6","6","3","6","5","2","6","5","6","6","7","5","6","3","3","3","7","2","5","6","2","7","595169798766198784","林","574","Female","[""坏她"",""好她"",""好我"",""坏我""]","[""弱她"",""强她"",""强我"",""弱我""]","","","","","","","","nonmatch","","","","","","","","","","key","j","16.65178448275928","799.9999682108573","445.8333156175091","j","true","nonmatch","img/hexagon.png","坏她","坏我","ALT2","moral","","","","","","","","",""
"null","<span style='color:GreenYellow; font-size: 70px;'>正确! </span>","null","html-keyboard-response","133","547374","0.0-8.0-0.0-4.0-0.0-1.12","6","7","5","6","7","5","5","4","4","5","4","0","-3","0","1","1","0","2","1","4","2","5","2","4","2","2","1","4","5","4","7","5","4","4","6","4","6","7","3","6","5","5","2","3","6","3","6","5","1","6","3","7","5","3","3","6","6","6","6","3","6","5","2","6","5","6","6","7","5","6","3","3","3","7","2","5","6","2","7","595169798766198784","林","574","Female","[""坏她"",""好她"",""好我"",""坏我""]","[""弱她"",""强她"",""强我"",""弱我""]","","","","","","","","","","","","","","","","","","","","","","","","","","","","","","feedback_test","","","","","","","","",""
"901","","f","psychophysics","134","549278","0.0-8.0-0.0-4.0-0.0-0.13","6","7","5","6","7","5","5","4","4","5","4","0","-3","0","1","1","0","2","1","4","2","5","2","4","2","2","1","4","5","4","7","5","4","4","6","4","6","7","3","6","5","5","2","3","6","3","6","5","1","6","3","7","5","3","3","6","6","6","6","3","6","5","2","6","5","6","6","7","5","6","3","3","3","7","2","5","6","2","7","595169798766198784","林","574","Female","[""坏她"",""好她"",""好我"",""坏我""]","[""弱她"",""强她"",""强我"",""弱我""]","","","","","","","","match","","","","","","","","","","key","f","16.654469026549332","799.9999682108573","445.8333156175091","j","false","nonmatch","img/ellipse.png","好我","好她","ALT2","moral","","","","","","","","",""
