"rt","stimulus","response","trial_type","trial_index","time_elapsed","internal_node_id","swb_1","swb_2","swb_3","swb_4","swb_5","LOT_1","LOT_2","LOT_3","LOT_4","LOT_5","LOT_6","IPC_1","IPC_2","IPC_3","IPC_4","IPC_5","IPC_6","IPC_7","IPC_8","MorIden_1","MorIden_2","MorIden_3","MorIden_4","MorIden_5","MorIden_6","MorIden_7","MorIden_8","MorIden_9","MorIden_10","moralSeImag_1","moralSeImag_2","moralSeImag_3","moralSeImag_4","moralSeImag_5","moralSeImag_6","moralSeImag_7","moralSeImag_8","moralSeImag_9","sde_1","sde_2","sde_3","sde_4","sde_5","sde_6","sde_7","sde_8","sde_9","sde_10","trap2","sde_11","sde_12","sde_13","sde_14","sde_15","sde_16","sde_17","sde_18","sde_19","sde_20","IM_1","IM_2","IM_3","IM_4","IM_5","IM_6","IM_7","IM_8","IM_9","IM_10","IM_11","IM_12","IM_13","IM_14","IM_15","IM_16","IM_17","IM_18","IM_19","IM_20","subj_idx","friend_name","ParticipantID","Sex","Word","Word2","value","success","timeout","failed_images","failed_audio","failed_video","user_agent","responses","item_order","radio_event_ids","radio_event_times","key_event_times","mouse_event_times","straightlining","zigzagging","honeypot","view_history","response_type","key_press","avg_frame_time","center_x","center_y","correct_response","correct","identity","Image","word","condition","task_id","screen_id","time_stamp","person","valence","domain","math","status","duration","question_order","trap2_item"
"2402","
   <p><div style='color:white; font-size: 25px'>您好，欢迎参加本次实验。</div></p>
   <p><div style='color:white; font-size: 25px'>为充分保障您的权利，请确保您已经知晓并同意《参与实验同意书》以及《数据公开知情同意书》。</div></p>
   <p><div style='color:white; font-size: 25px'>如果您未见过上述内容，请咨询实验员。</div></p>
   <p style='color:white; font-size: 25px'>如果您选择继续实验，则表示您已经清楚两份知情同意书的内容并同意。</p>
   <p><div style = ""color: pink;font-size:30px;"">请确保您记得day0的实验编号，您将在本次实验输入该编号，若您忘记，请咨询实验员后作答。</div></p>
   <p><div style = ""color:lightblue;font-size:25px;"">请您尽可能认真地作答，我们将依据您在各问卷和按键任务中的作答质量发放报酬。</div></p>
   <p> <div style = ""color: green""><按空格键至下页></div> </p>
   "," ","html-keyboard-response","0","2404","0.0-0.0","3","2","2","3","2","5","3","4","5","5","5","0","-1","-2","0","-2","0","0","-2","5","4","4","5","4","4","2","2","4","2","4","5","6","7","4","4","3","4","5","3","2","2","3","2","2","3","3","3","2","1","2","2","6","3","2","2","2","6","3","3","2","2","3","3","2","3","3","5","2","6","5","2","6","5","5","2","2","5","2","1","656295428198760448","夏","397","Female","[""好她"",""好我"",""坏她"",""坏我""]","[""强她"",""强我"",""弱她"",""弱我""]","","","","","","","","","","","","","","","","","","","","","","","","","","","","","","","","","","","","","","",""
"","","","call-function","1","2405","0.0-1.0-0.0","3","2","2","3","2","5","3","4","5","5","5","0","-1","-2","0","-2","0","0","-2","5","4","4","5","4","4","2","2","4","2","4","5","6","7","4","4","3","4","5","3","2","2","3","2","2","3","3","3","2","1","2","2","6","3","2","2","2","6","3","3","2","2","3","3","2","3","3","5","2","6","5","2","6","5","5","2","2","5","2","1","656295428198760448","夏","397","Female","[""好她"",""好我"",""坏她"",""坏我""]","[""强她"",""强我"",""弱她"",""弱我""]","","","","","","","","","","","","","","","","","","","","","","","","","","","","","","","","","","","","","","",""
"10634","","[{""name"":""Sex"",""value"":""1""},{""name"":""friend_name"",""value"":""夏""},{""name"":""ParticipantID"",""value"":""397""}]","survey-html-form","2","13040","0.0-1.0-1.0","3","2","2","3","2","5","3","4","5","5","5","0","-1","-2","0","-2","0","0","-2","5","4","4","5","4","4","2","2","4","2","4","5","6","7","4","4","3","4","5","3","2","2","3","2","2","3","3","3","2","1","2","2","6","3","2","2","2","6","3","3","2","2","3","3","2","3","3","5","2","6","5","2","6","5","5","2","2","5","2","1","656295428198760448","夏","397","Female","[""好她"",""好我"",""坏她"",""坏我""]","[""强她"",""强我"",""弱她"",""弱我""]","","","","","","","","","","","","","","","","","","","","","","","","","","","","","","","","","","","","","","",""
"","","","preload","3","13144","0.0-2.0","3","2","2","3","2","5","3","4","5","5","5","0","-1","-2","0","-2","0","0","-2","5","4","4","5","4","4","2","2","4","2","4","5","6","7","4","4","3","4","5","3","2","2","3","2","2","3","3","3","2","1","2","2","6","3","2","2","2","6","3","3","2","2","3","3","2","3","3","5","2","6","5","2","6","5","5","2","2","5","2","1","656295428198760448","夏","397","Female","[""好她"",""好我"",""坏她"",""坏我""]","[""强她"",""强我"",""弱她"",""弱我""]","","true","false","[]","[]","[]","","","","","","","","","","","","","","","","","","","","","","","","","","","","","","","","",""
"","","","fullscreen","4","14451","0.0-3.0","3","2","2","3","2","5","3","4","5","5","5","0","-1","-2","0","-2","0","0","-2","5","4","4","5","4","4","2","2","4","2","4","5","6","7","4","4","3","4","5","3","2","2","3","2","2","3","3","3","2","1","2","2","6","3","2","2","2","6","3","3","2","2","3","3","2","3","3","5","2","6","5","2","6","5","5","2","2","5","2","1","656295428198760448","夏","397","Female","[""好她"",""好我"",""坏她"",""坏我""]","[""强她"",""强我"",""弱她"",""弱我""]","","true","","","","","{}","","","","","","","","","","","","","","","","","","","","","","","","","","","","","","","",""
"32170.099999427795","","{""Q01"":""3"",""Q02"":""2"",""Q03"":""2"",""Q04"":""3"",""Q05"":""2""}","survey-template","5","46623","0.0-4.0","3","2","2","3","2","5","3","4","5","5","5","0","-1","-2","0","-2","0","0","-2","5","4","4","5","4","4","2","2","4","2","4","5","6","7","4","4","3","4","5","3","2","2","3","2","2","3","3","3","2","1","2","2","6","3","2","2","2","6","3","3","2","2","3","3","2","3","3","5","2","6","5","2","6","5","5","2","2","5","2","1","656295428198760448","夏","397","Female","[""好她"",""好我"",""坏她"",""坏我""]","[""强她"",""强我"",""弱她"",""弱我""]","","","","","","","","{""Q01"":""3"",""Q02"":""2"",""Q03"":""2"",""Q04"":""3"",""Q05"":""2""}","[0,1,2,3,4]","[""Q01"",""Q02"",""Q03"",""Q04"",""Q05""]","[26412.099999427795,28091.89999961853,28765.599999427795,29605.599999427795,31416.89999961853]","[]","[26412.099999427795,27260.800000190735,28091.89999961853,28765.599999427795,29605.599999427795,30393,31416.89999961853,32169.300000190735]","0.6","0.75","0","","","","","","","","","","","","","","","","","","","","","","",""
"17032.699999809265","","{""Q01"":""5"",""Q02"":""3"",""Q03"":""4"",""Q04"":""5"",""Q05"":""5"",""Q06"":""5""}","survey-template","6","63659","0.0-5.0","3","2","2","3","2","5","3","4","5","5","5","0","-1","-2","0","-2","0","0","-2","5","4","4","5","4","4","2","2","4","2","4","5","6","7","4","4","3","4","5","3","2","2","3","2","2","3","3","3","2","1","2","2","6","3","2","2","2","6","3","3","2","2","3","3","2","3","3","5","2","6","5","2","6","5","5","2","2","5","2","1","656295428198760448","夏","397","Female","[""好她"",""好我"",""坏她"",""坏我""]","[""强她"",""强我"",""弱她"",""弱我""]","","","","","","","","{""Q01"":""5"",""Q02"":""3"",""Q03"":""4"",""Q04"":""5"",""Q05"":""5"",""Q06"":""5""}","[0,1,2,3,4,5]","[""Q01"",""Q02"",""Q03"",""Q04"",""Q05"",""Q06""]","[5315.5,8413.300000190735,11545.5,13479.599999427795,15264.300000190735,16271.5]","[]","[4598.300000190735,5315.5,8413.300000190735,11545.5,13479.599999427795,14293.39999961853,15264.300000190735,16271.5,17032.099999427795]","0.3333333333333333","0.4","0","","","","","","","","","","","","","","","","","","","","","","",""
"23683","","{""Q01"":""0"",""Q02"":""-1"",""Q03"":""-2"",""Q04"":""0"",""Q05"":""-2"",""Q06"":""0"",""Q07"":""0"",""Q08"":""-2""}","survey-template","7","87346","0.0-6.0","3","2","2","3","2","5","3","4","5","5","5","0","-1","-2","0","-2","0","0","-2","5","4","4","5","4","4","2","2","4","2","4","5","6","7","4","4","3","4","5","3","2","2","3","2","2","3","3","3","2","1","2","2","6","3","2","2","2","6","3","3","2","2","3","3","2","3","3","5","2","6","5","2","6","5","5","2","2","5","2","1","656295428198760448","夏","397","Female","[""好她"",""好我"",""坏她"",""坏我""]","[""强她"",""强我"",""弱她"",""弱我""]","","","","","","","","{""Q01"":""0"",""Q02"":""-1"",""Q03"":""-2"",""Q04"":""0"",""Q05"":""-2"",""Q06"":""0"",""Q07"":""0"",""Q08"":""-2""}","[0,1,2,3,4,5,6,7]","[""Q01"",""Q02"",""Q03"",""Q05"",""Q06"",""Q07"",""Q08"",""Q04""]","[3075.8999996185303,5202,9402.099999427795,10906.89999961853,14599.29999923706,17416.89999961853,19298.099999427795,21686.79999923706]","[]","[3075.8999996185303,5202,9402.099999427795,10906.89999961853,14599.29999923706,17416.89999961853,19298.099999427795,21686.79999923706,23682]","0.5","0.2857142857142857","0","","","","","","","","","","","","","","","","","","","","","","",""
"58315","","","instructions","8","145662","0.0-7.0","3","2","2","3","2","5","3","4","5","5","5","0","-1","-2","0","-2","0","0","-2","5","4","4","5","4","4","2","2","4","2","4","5","6","7","4","4","3","4","5","3","2","2","3","2","2","3","3","3","2","1","2","2","6","3","2","2","2","6","3","3","2","2","3","3","2","3","3","5","2","6","5","2","6","5","5","2","2","5","2","1","656295428198760448","夏","397","Female","[""好她"",""好我"",""坏她"",""坏我""]","[""强她"",""强我"",""弱她"",""弱我""]","","","","","","","","","","","","","","","","","[{""page_index"":0,""viewing_time"":58314}]","","","","","","","","","","","","","","","","","","","","","",""
"94515","","","instructions","9","240179","0.0-8.0-0.0-0.0","3","2","2","3","2","5","3","4","5","5","5","0","-1","-2","0","-2","0","0","-2","5","4","4","5","4","4","2","2","4","2","4","5","6","7","4","4","3","4","5","3","2","2","3","2","2","3","3","3","2","1","2","2","6","3","2","2","2","6","3","3","2","2","3","3","2","3","3","5","2","6","5","2","6","5","5","2","2","5","2","1","656295428198760448","夏","397","Female","[""好她"",""好我"",""坏她"",""坏我""]","[""强她"",""强我"",""弱她"",""弱我""]","","","","","","","","","","","","","","","","","[{""page_index"":0,""viewing_time"":13061},{""page_index"":1,""viewing_time"":64023},{""page_index"":2,""viewing_time"":15977},{""page_index"":3,""viewing_time"":1453}]","","","","","","","","","","","","","","","","","","","","","",""
"838","","j","psychophysics","10","242021","0.0-8.0-0.0-1.0-0.0-0.0","3","2","2","3","2","5","3","4","5","5","5","0","-1","-2","0","-2","0","0","-2","5","4","4","5","4","4","2","2","4","2","4","5","6","7","4","4","3","4","5","3","2","2","3","2","2","3","3","3","2","1","2","2","6","3","2","2","2","6","3","3","2","2","3","3","2","3","3","5","2","6","5","2","6","5","5","2","2","5","2","1","656295428198760448","夏","397","Female","[""好她"",""好我"",""坏她"",""坏我""]","[""强她"",""强我"",""弱她"",""弱我""]","","","","","","","","match","","","","","","","","","","key","j","16.662385321101024","768","428","f","false","nonmatch","img/square.png","好我","好她","prac_ALT2_moral","practice_moral","","","","","","","","",""
"null","<span style='color:red; font-size: 70px;'>错误! </span>","null","html-keyboard-response","11","242522","0.0-8.0-0.0-1.0-0.0-1.0","3","2","2","3","2","5","3","4","5","5","5","0","-1","-2","0","-2","0","0","-2","5","4","4","5","4","4","2","2","4","2","4","5","6","7","4","4","3","4","5","3","2","2","3","2","2","3","3","3","2","1","2","2","6","3","2","2","2","6","3","3","2","2","3","3","2","3","3","5","2","6","5","2","6","5","5","2","2","5","2","1","656295428198760448","夏","397","Female","[""好她"",""好我"",""坏她"",""坏我""]","[""强她"",""强我"",""弱她"",""弱我""]","","","","","","","","","","","","","","","","","","","","","","","","","","","","","","feedback_test","","","","","","","","",""
"665","","j","psychophysics","12","244189","0.0-8.0-0.0-1.0-0.0-0.1","3","2","2","3","2","5","3","4","5","5","5","0","-1","-2","0","-2","0","0","-2","5","4","4","5","4","4","2","2","4","2","4","5","6","7","4","4","3","4","5","3","2","2","3","2","2","3","3","3","2","1","2","2","6","3","2","2","2","6","3","3","2","2","3","3","2","3","3","5","2","6","5","2","6","5","5","2","2","5","2","1","656295428198760448","夏","397","Female","[""好她"",""好我"",""坏她"",""坏我""]","[""强她"",""强我"",""弱她"",""弱我""]","","","","","","","","match","","","","","","","","","","key","j","16.660606060606003","768","428","j","true","match","img/hexagon.png","坏我","坏我","prac_ALT2_moral","practice_moral","","","","","","","","",""
"null","<span style='color:GreenYellow; font-size: 70px;'>正确! </span>","null","html-keyboard-response","13","244690","0.0-8.0-0.0-1.0-0.0-1.1","3","2","2","3","2","5","3","4","5","5","5","0","-1","-2","0","-2","0","0","-2","5","4","4","5","4","4","2","2","4","2","4","5","6","7","4","4","3","4","5","3","2","2","3","2","2","3","3","3","2","1","2","2","6","3","2","2","2","6","3","3","2","2","3","3","2","3","3","5","2","6","5","2","6","5","5","2","2","5","2","1","656295428198760448","夏","397","Female","[""好她"",""好我"",""坏她"",""坏我""]","[""强她"",""强我"",""弱她"",""弱我""]","","","","","","","","","","","","","","","","","","","","","","","","","","","","","","feedback_test","","","","","","","","",""
"676","","f","psychophysics","14","246367","0.0-8.0-0.0-1.0-0.0-0.2","3","2","2","3","2","5","3","4","5","5","5","0","-1","-2","0","-2","0","0","-2","5","4","4","5","4","4","2","2","4","2","4","5","6","7","4","4","3","4","5","3","2","2","3","2","2","3","3","3","2","1","2","2","6","3","2","2","2","6","3","3","2","2","3","3","2","3","3","5","2","6","5","2","6","5","5","2","2","5","2","1","656295428198760448","夏","397","Female","[""好她"",""好我"",""坏她"",""坏我""]","[""强她"",""强我"",""弱她"",""弱我""]","","","","","","","","nonmatch","","","","","","","","","","key","f","16.658585858585976","768","428","f","true","nonmatch","img/ellipse.png","坏她","好我","prac_ALT2_moral","practice_moral","","","","","","","","",""
"null","<span style='color:GreenYellow; font-size: 70px;'>正确! </span>","null","html-keyboard-response","15","246869","0.0-8.0-0.0-1.0-0.0-1.2","3","2","2","3","2","5","3","4","5","5","5","0","-1","-2","0","-2","0","0","-2","5","4","4","5","4","4","2","2","4","2","4","5","6","7","4","4","3","4","5","3","2","2","3","2","2","3","3","3","2","1","2","2","6","3","2","2","2","6","3","3","2","2","3","3","2","3","3","5","2","6","5","2","6","5","5","2","2","5","2","1","656295428198760448","夏","397","Female","[""好她"",""好我"",""坏她"",""坏我""]","[""强她"",""强我"",""弱她"",""弱我""]","","","","","","","","","","","","","","","","","","","","","","","","","","","","","","feedback_test","","","","","","","","",""
"645","","j","psychophysics","16","248515","0.0-8.0-0.0-1.0-0.0-0.3","3","2","2","3","2","5","3","4","5","5","5","0","-1","-2","0","-2","0","0","-2","5","4","4","5","4","4","2","2","4","2","4","5","6","7","4","4","3","4","5","3","2","2","3","2","2","3","3","3","2","1","2","2","6","3","2","2","2","6","3","3","2","2","3","3","2","3","3","5","2","6","5","2","6","5","5","2","2","5","2","1","656295428198760448","夏","397","Female","[""好她"",""好我"",""坏她"",""坏我""]","[""强她"",""强我"",""弱她"",""弱我""]","","","","","","","","match","","","","","","","","","","key","j","16.65979381443299","768","428","j","true","match","img/diamond.png","坏她","坏她","prac_ALT2_moral","practice_moral","","","","","","","","",""
"null","<span style='color:GreenYellow; font-size: 70px;'>正确! </span>","null","html-keyboard-response","17","249016","0.0-8.0-0.0-1.0-0.0-1.3","3","2","2","3","2","5","3","4","5","5","5","0","-1","-2","0","-2","0","0","-2","5","4","4","5","4","4","2","2","4","2","4","5","6","7","4","4","3","4","5","3","2","2","3","2","2","3","3","3","2","1","2","2","6","3","2","2","2","6","3","3","2","2","3","3","2","3","3","5","2","6","5","2","6","5","5","2","2","5","2","1","656295428198760448","夏","397","Female","[""好她"",""好我"",""坏她"",""坏我""]","[""强她"",""强我"",""弱她"",""弱我""]","","","","","","","","","","","","","","","","","","","","","","","","","","","","","","feedback_test","","","","","","","","",""
"802","","f","psychophysics","18","250820","0.0-8.0-0.0-1.0-0.0-0.4","3","2","2","3","2","5","3","4","5","5","5","0","-1","-2","0","-2","0","0","-2","5","4","4","5","4","4","2","2","4","2","4","5","6","7","4","4","3","4","5","3","2","2","3","2","2","3","3","3","2","1","2","2","6","3","2","2","2","6","3","3","2","2","3","3","2","3","3","5","2","6","5","2","6","5","5","2","2","5","2","1","656295428198760448","夏","397","Female","[""好她"",""好我"",""坏她"",""坏我""]","[""强她"",""强我"",""弱她"",""弱我""]","","","","","","","","nonmatch","","","","","","","","","","key","f","16.661111111111058","768","428","f","true","nonmatch","img/square.png","坏我","好她","prac_ALT2_moral","practice_moral","","","","","","","","",""
"null","<span style='color:GreenYellow; font-size: 70px;'>正确! </span>","null","html-keyboard-response","19","251325","0.0-8.0-0.0-1.0-0.0-1.4","3","2","2","3","2","5","3","4","5","5","5","0","-1","-2","0","-2","0","0","-2","5","4","4","5","4","4","2","2","4","2","4","5","6","7","4","4","3","4","5","3","2","2","3","2","2","3","3","3","2","1","2","2","6","3","2","2","2","6","3","3","2","2","3","3","2","3","3","5","2","6","5","2","6","5","5","2","2","5","2","1","656295428198760448","夏","397","Female","[""好她"",""好我"",""坏她"",""坏我""]","[""强她"",""强我"",""弱她"",""弱我""]","","","","","","","","","","","","","","","","","","","","","","","","","","","","","","feedback_test","","","","","","","","",""
"771","","f","psychophysics","20","253098","0.0-8.0-0.0-1.0-0.0-0.5","3","2","2","3","2","5","3","4","5","5","5","0","-1","-2","0","-2","0","0","-2","5","4","4","5","4","4","2","2","4","2","4","5","6","7","4","4","3","4","5","3","2","2","3","2","2","3","3","3","2","1","2","2","6","3","2","2","2","6","3","3","2","2","3","3","2","3","3","5","2","6","5","2","6","5","5","2","2","5","2","1","656295428198760448","夏","397","Female","[""好她"",""好我"",""坏她"",""坏我""]","[""强她"",""强我"",""弱她"",""弱我""]","","","","","","","","nonmatch","","","","","","","","","","key","f","16.663809523809636","768","428","f","true","nonmatch","img/diamond.png","好我","坏她","prac_ALT2_moral","practice_moral","","","","","","","","",""
"null","<span style='color:GreenYellow; font-size: 70px;'>正确! </span>","null","html-keyboard-response","21","253599","0.0-8.0-0.0-1.0-0.0-1.5","3","2","2","3","2","5","3","4","5","5","5","0","-1","-2","0","-2","0","0","-2","5","4","4","5","4","4","2","2","4","2","4","5","6","7","4","4","3","4","5","3","2","2","3","2","2","3","3","3","2","1","2","2","6","3","2","2","2","6","3","3","2","2","3","3","2","3","3","5","2","6","5","2","6","5","5","2","2","5","2","1","656295428198760448","夏","397","Female","[""好她"",""好我"",""坏她"",""坏我""]","[""强她"",""强我"",""弱她"",""弱我""]","","","","","","","","","","","","","","","","","","","","","","","","","","","","","","feedback_test","","","","","","","","",""
"858","","f","psychophysics","22","255458","0.0-8.0-0.0-1.0-0.0-0.6","3","2","2","3","2","5","3","4","5","5","5","0","-1","-2","0","-2","0","0","-2","5","4","4","5","4","4","2","2","4","2","4","5","6","7","4","4","3","4","5","3","2","2","3","2","2","3","3","3","2","1","2","2","6","3","2","2","2","6","3","3","2","2","3","3","2","3","3","5","2","6","5","2","6","5","5","2","2","5","2","1","656295428198760448","夏","397","Female","[""好她"",""好我"",""坏她"",""坏我""]","[""强她"",""强我"",""弱她"",""弱我""]","","","","","","","","nonmatch","","","","","","","","","","key","f","16.6445454545454","768","428","f","true","nonmatch","img/hexagon.png","坏她","坏我","prac_ALT2_moral","practice_moral","","","","","","","","",""
"null","<span style='color:GreenYellow; font-size: 70px;'>正确! </span>","null","html-keyboard-response","23","255959","0.0-8.0-0.0-1.0-0.0-1.6","3","2","2","3","2","5","3","4","5","5","5","0","-1","-2","0","-2","0","0","-2","5","4","4","5","4","4","2","2","4","2","4","5","6","7","4","4","3","4","5","3","2","2","3","2","2","3","3","3","2","1","2","2","6","3","2","2","2","6","3","3","2","2","3","3","2","3","3","5","2","6","5","2","6","5","5","2","2","5","2","1","656295428198760448","夏","397","Female","[""好她"",""好我"",""坏她"",""坏我""]","[""强她"",""强我"",""弱她"",""弱我""]","","","","","","","","","","","","","","","","","","","","","","","","","","","","","","feedback_test","","","","","","","","",""
"820","","f","psychophysics","24","257780","0.0-8.0-0.0-1.0-0.0-0.7","3","2","2","3","2","5","3","4","5","5","5","0","-1","-2","0","-2","0","0","-2","5","4","4","5","4","4","2","2","4","2","4","5","6","7","4","4","3","4","5","3","2","2","3","2","2","3","3","3","2","1","2","2","6","3","2","2","2","6","3","3","2","2","3","3","2","3","3","5","2","6","5","2","6","5","5","2","2","5","2","1","656295428198760448","夏","397","Female","[""好她"",""好我"",""坏她"",""坏我""]","[""强她"",""强我"",""弱她"",""弱我""]","","","","","","","","nonmatch","","","","","","","","","","key","f","16.662962962963018","768","428","f","true","nonmatch","img/hexagon.png","好我","坏我","prac_ALT2_moral","practice_moral","","","","","","","","",""
"null","<span style='color:GreenYellow; font-size: 70px;'>正确! </span>","null","html-keyboard-response","25","258281","0.0-8.0-0.0-1.0-0.0-1.7","3","2","2","3","2","5","3","4","5","5","5","0","-1","-2","0","-2","0","0","-2","5","4","4","5","4","4","2","2","4","2","4","5","6","7","4","4","3","4","5","3","2","2","3","2","2","3","3","3","2","1","2","2","6","3","2","2","2","6","3","3","2","2","3","3","2","3","3","5","2","6","5","2","6","5","5","2","2","5","2","1","656295428198760448","夏","397","Female","[""好她"",""好我"",""坏她"",""坏我""]","[""强她"",""强我"",""弱她"",""弱我""]","","","","","","","","","","","","","","","","","","","","","","","","","","","","","","feedback_test","","","","","","","","",""
"701","","f","psychophysics","26","259983","0.0-8.0-0.0-1.0-0.0-0.8","3","2","2","3","2","5","3","4","5","5","5","0","-1","-2","0","-2","0","0","-2","5","4","4","5","4","4","2","2","4","2","4","5","6","7","4","4","3","4","5","3","2","2","3","2","2","3","3","3","2","1","2","2","6","3","2","2","2","6","3","3","2","2","3","3","2","3","3","5","2","6","5","2","6","5","5","2","2","5","2","1","656295428198760448","夏","397","Female","[""好她"",""好我"",""坏她"",""坏我""]","[""强她"",""强我"",""弱她"",""弱我""]","","","","","","","","nonmatch","","","","","","","","","","key","f","16.661386138614034","768","428","j","false","match","img/ellipse.png","好我","好我","prac_ALT2_moral","practice_moral","","","","","","","","",""
"null","<span style='color:red; font-size: 70px;'>错误! </span>","null","html-keyboard-response","27","260484","0.0-8.0-0.0-1.0-0.0-1.8","3","2","2","3","2","5","3","4","5","5","5","0","-1","-2","0","-2","0","0","-2","5","4","4","5","4","4","2","2","4","2","4","5","6","7","4","4","3","4","5","3","2","2","3","2","2","3","3","3","2","1","2","2","6","3","2","2","2","6","3","3","2","2","3","3","2","3","3","5","2","6","5","2","6","5","5","2","2","5","2","1","656295428198760448","夏","397","Female","[""好她"",""好我"",""坏她"",""坏我""]","[""强她"",""强我"",""弱她"",""弱我""]","","","","","","","","","","","","","","","","","","","","","","","","","","","","","","feedback_test","","","","","","","","",""
"890","","j","psychophysics","28","262375","0.0-8.0-0.0-1.0-0.0-0.9","3","2","2","3","2","5","3","4","5","5","5","0","-1","-2","0","-2","0","0","-2","5","4","4","5","4","4","2","2","4","2","4","5","6","7","4","4","3","4","5","3","2","2","3","2","2","3","3","3","2","1","2","2","6","3","2","2","2","6","3","3","2","2","3","3","2","3","3","5","2","6","5","2","6","5","5","2","2","5","2","1","656295428198760448","夏","397","Female","[""好她"",""好我"",""坏她"",""坏我""]","[""强她"",""强我"",""弱她"",""弱我""]","","","","","","","","match","","","","","","","","","","key","j","16.661607142857456","768","428","j","true","match","img/diamond.png","坏她","坏她","prac_ALT2_moral","practice_moral","","","","","","","","",""
"null","<span style='color:GreenYellow; font-size: 70px;'>正确! </span>","null","html-keyboard-response","29","262876","0.0-8.0-0.0-1.0-0.0-1.9","3","2","2","3","2","5","3","4","5","5","5","0","-1","-2","0","-2","0","0","-2","5","4","4","5","4","4","2","2","4","2","4","5","6","7","4","4","3","4","5","3","2","2","3","2","2","3","3","3","2","1","2","2","6","3","2","2","2","6","3","3","2","2","3","3","2","3","3","5","2","6","5","2","6","5","5","2","2","5","2","1","656295428198760448","夏","397","Female","[""好她"",""好我"",""坏她"",""坏我""]","[""强她"",""强我"",""弱她"",""弱我""]","","","","","","","","","","","","","","","","","","","","","","","","","","","","","","feedback_test","","","","","","","","",""
"957","","j","psychophysics","30","264836","0.0-8.0-0.0-1.0-0.0-0.10","3","2","2","3","2","5","3","4","5","5","5","0","-1","-2","0","-2","0","0","-2","5","4","4","5","4","4","2","2","4","2","4","5","6","7","4","4","3","4","5","3","2","2","3","2","2","3","3","3","2","1","2","2","6","3","2","2","2","6","3","3","2","2","3","3","2","3","3","5","2","6","5","2","6","5","5","2","2","5","2","1","656295428198760448","夏","397","Female","[""好她"",""好我"",""坏她"",""坏我""]","[""强她"",""强我"",""弱她"",""弱我""]","","","","","","","","match","","","","","","","","","","key","j","16.664102564102663","768","428","j","true","match","img/square.png","好她","好她","prac_ALT2_moral","practice_moral","","","","","","","","",""
"null","<span style='color:GreenYellow; font-size: 70px;'>正确! </span>","null","html-keyboard-response","31","265337","0.0-8.0-0.0-1.0-0.0-1.10","3","2","2","3","2","5","3","4","5","5","5","0","-1","-2","0","-2","0","0","-2","5","4","4","5","4","4","2","2","4","2","4","5","6","7","4","4","3","4","5","3","2","2","3","2","2","3","3","3","2","1","2","2","6","3","2","2","2","6","3","3","2","2","3","3","2","3","3","5","2","6","5","2","6","5","5","2","2","5","2","1","656295428198760448","夏","397","Female","[""好她"",""好我"",""坏她"",""坏我""]","[""强她"",""强我"",""弱她"",""弱我""]","","","","","","","","","","","","","","","","","","","","","","","","","","","","","","feedback_test","","","","","","","","",""
"763","","j","psychophysics","32","267102","0.0-8.0-0.0-1.0-0.0-0.11","3","2","2","3","2","5","3","4","5","5","5","0","-1","-2","0","-2","0","0","-2","5","4","4","5","4","4","2","2","4","2","4","5","6","7","4","4","3","4","5","3","2","2","3","2","2","3","3","3","2","1","2","2","6","3","2","2","2","6","3","3","2","2","3","3","2","3","3","5","2","6","5","2","6","5","5","2","2","5","2","1","656295428198760448","夏","397","Female","[""好她"",""好我"",""坏她"",""坏我""]","[""强她"",""强我"",""弱她"",""弱我""]","","","","","","","","match","","","","","","","","","","key","j","16.65904761904773","768","428","f","false","nonmatch","img/hexagon.png","好她","坏我","prac_ALT2_moral","practice_moral","","","","","","","","",""
"null","<span style='color:red; font-size: 70px;'>错误! </span>","null","html-keyboard-response","33","267603","0.0-8.0-0.0-1.0-0.0-1.11","3","2","2","3","2","5","3","4","5","5","5","0","-1","-2","0","-2","0","0","-2","5","4","4","5","4","4","2","2","4","2","4","5","6","7","4","4","3","4","5","3","2","2","3","2","2","3","3","3","2","1","2","2","6","3","2","2","2","6","3","3","2","2","3","3","2","3","3","5","2","6","5","2","6","5","5","2","2","5","2","1","656295428198760448","夏","397","Female","[""好她"",""好我"",""坏她"",""坏我""]","[""强她"",""强我"",""弱她"",""弱我""]","","","","","","","","","","","","","","","","","","","","","","","","","","","","","","feedback_test","","","","","","","","",""
"874","","f","psychophysics","34","269478","0.0-8.0-0.0-1.0-0.0-0.12","3","2","2","3","2","5","3","4","5","5","5","0","-1","-2","0","-2","0","0","-2","5","4","4","5","4","4","2","2","4","2","4","5","6","7","4","4","3","4","5","3","2","2","3","2","2","3","3","3","2","1","2","2","6","3","2","2","2","6","3","3","2","2","3","3","2","3","3","5","2","6","5","2","6","5","5","2","2","5","2","1","656295428198760448","夏","397","Female","[""好她"",""好我"",""坏她"",""坏我""]","[""强她"",""强我"",""弱她"",""弱我""]","","","","","","","","nonmatch","","","","","","","","","","key","f","16.661261261260947","768","428","f","true","nonmatch","img/ellipse.png","好她","好我","prac_ALT2_moral","practice_moral","","","","","","","","",""
"null","<span style='color:GreenYellow; font-size: 70px;'>正确! </span>","null","html-keyboard-response","35","269980","0.0-8.0-0.0-1.0-0.0-1.12","3","2","2","3","2","5","3","4","5","5","5","0","-1","-2","0","-2","0","0","-2","5","4","4","5","4","4","2","2","4","2","4","5","6","7","4","4","3","4","5","3","2","2","3","2","2","3","3","3","2","1","2","2","6","3","2","2","2","6","3","3","2","2","3","3","2","3","3","5","2","6","5","2","6","5","5","2","2","5","2","1","656295428198760448","夏","397","Female","[""好她"",""好我"",""坏她"",""坏我""]","[""强她"",""强我"",""弱她"",""弱我""]","","","","","","","","","","","","","","","","","","","","","","","","","","","","","","feedback_test","","","","","","","","",""
"868","","f","psychophysics","36","271850","0.0-8.0-0.0-1.0-0.0-0.13","3","2","2","3","2","5","3","4","5","5","5","0","-1","-2","0","-2","0","0","-2","5","4","4","5","4","4","2","2","4","2","4","5","6","7","4","4","3","4","5","3","2","2","3","2","2","3","3","3","2","1","2","2","6","3","2","2","2","6","3","3","2","2","3","3","2","3","3","5","2","6","5","2","6","5","5","2","2","5","2","1","656295428198760448","夏","397","Female","[""好她"",""好我"",""坏她"",""坏我""]","[""强她"",""强我"",""弱她"",""弱我""]","","","","","","","","nonmatch","","","","","","","","","","key","f","16.66396396396407","768","428","f","true","nonmatch","img/square.png","坏她","好她","prac_ALT2_moral","practice_moral","","","","","","","","",""
"null","<span style='color:GreenYellow; font-size: 70px;'>正确! </span>","null","html-keyboard-response","37","272357","0.0-8.0-0.0-1.0-0.0-1.13","3","2","2","3","2","5","3","4","5","5","5","0","-1","-2","0","-2","0","0","-2","5","4","4","5","4","4","2","2","4","2","4","5","6","7","4","4","3","4","5","3","2","2","3","2","2","3","3","3","2","1","2","2","6","3","2","2","2","6","3","3","2","2","3","3","2","3","3","5","2","6","5","2","6","5","5","2","2","5","2","1","656295428198760448","夏","397","Female","[""好她"",""好我"",""坏她"",""坏我""]","[""强她"",""强我"",""弱她"",""弱我""]","","","","","","","","","","","","","","","","","","","","","","","","","","","","","","feedback_test","","","","","","","","",""
"971","","j","psychophysics","38","274330","0.0-8.0-0.0-1.0-0.0-0.14","3","2","2","3","2","5","3","4","5","5","5","0","-1","-2","0","-2","0","0","-2","5","4","4","5","4","4","2","2","4","2","4","5","6","7","4","4","3","4","5","3","2","2","3","2","2","3","3","3","2","1","2","2","6","3","2","2","2","6","3","3","2","2","3","3","2","3","3","5","2","6","5","2","6","5","5","2","2","5","2","1","656295428198760448","夏","397","Female","[""好她"",""好我"",""坏她"",""坏我""]","[""强她"",""强我"",""弱她"",""弱我""]","","","","","","","","match","","","","","","","","","","key","j","16.661016949152543","768","428","f","false","nonmatch","img/diamond.png","坏我","坏她","prac_ALT2_moral","practice_moral","","","","","","","","",""
"null","<span style='color:red; font-size: 70px;'>错误! </span>","null","html-keyboard-response","39","274831","0.0-8.0-0.0-1.0-0.0-1.14","3","2","2","3","2","5","3","4","5","5","5","0","-1","-2","0","-2","0","0","-2","5","4","4","5","4","4","2","2","4","2","4","5","6","7","4","4","3","4","5","3","2","2","3","2","2","3","3","3","2","1","2","2","6","3","2","2","2","6","3","3","2","2","3","3","2","3","3","5","2","6","5","2","6","5","5","2","2","5","2","1","656295428198760448","夏","397","Female","[""好她"",""好我"",""坏她"",""坏我""]","[""强她"",""强我"",""弱她"",""弱我""]","","","","","","","","","","","","","","","","","","","","","","","","","","","","","","feedback_test","","","","","","","","",""
"1136","","j","psychophysics","40","276969","0.0-8.0-0.0-1.0-0.0-0.15","3","2","2","3","2","5","3","4","5","5","5","0","-1","-2","0","-2","0","0","-2","5","4","4","5","4","4","2","2","4","2","4","5","6","7","4","4","3","4","5","3","2","2","3","2","2","3","3","3","2","1","2","2","6","3","2","2","2","6","3","3","2","2","3","3","2","3","3","5","2","6","5","2","6","5","5","2","2","5","2","1","656295428198760448","夏","397","Female","[""好她"",""好我"",""坏她"",""坏我""]","[""强她"",""强我"",""弱她"",""弱我""]","","","","","","","","match","","","","","","","","","","key","j","16.65748031496063","768","428","j","true","match","img/hexagon.png","坏我","坏我","prac_ALT2_moral","practice_moral","","","","","","","","",""
"null","<span style='color:GreenYellow; font-size: 70px;'>正确! </span>","null","html-keyboard-response","41","277470","0.0-8.0-0.0-1.0-0.0-1.15","3","2","2","3","2","5","3","4","5","5","5","0","-1","-2","0","-2","0","0","-2","5","4","4","5","4","4","2","2","4","2","4","5","6","7","4","4","3","4","5","3","2","2","3","2","2","3","3","3","2","1","2","2","6","3","2","2","2","6","3","3","2","2","3","3","2","3","3","5","2","6","5","2","6","5","5","2","2","5","2","1","656295428198760448","夏","397","Female","[""好她"",""好我"",""坏她"",""坏我""]","[""强她"",""强我"",""弱她"",""弱我""]","","","","","","","","","","","","","","","","","","","","","","","","","","","","","","feedback_test","","","","","","","","",""
"875","","f","psychophysics","42","279348","0.0-8.0-0.0-1.0-0.0-0.16","3","2","2","3","2","5","3","4","5","5","5","0","-1","-2","0","-2","0","0","-2","5","4","4","5","4","4","2","2","4","2","4","5","6","7","4","4","3","4","5","3","2","2","3","2","2","3","3","3","2","1","2","2","6","3","2","2","2","6","3","3","2","2","3","3","2","3","3","5","2","6","5","2","6","5","5","2","2","5","2","1","656295428198760448","夏","397","Female","[""好她"",""好我"",""坏她"",""坏我""]","[""强她"",""强我"",""弱她"",""弱我""]","","","","","","","","nonmatch","","","","","","","","","","key","f","16.663392857143272","768","428","f","true","nonmatch","img/ellipse.png","坏我","好我","prac_ALT2_moral","practice_moral","","","","","","","","",""
"null","<span style='color:GreenYellow; font-size: 70px;'>正确! </span>","null","html-keyboard-response","43","279859","0.0-8.0-0.0-1.0-0.0-1.16","3","2","2","3","2","5","3","4","5","5","5","0","-1","-2","0","-2","0","0","-2","5","4","4","5","4","4","2","2","4","2","4","5","6","7","4","4","3","4","5","3","2","2","3","2","2","3","3","3","2","1","2","2","6","3","2","2","2","6","3","3","2","2","3","3","2","3","3","5","2","6","5","2","6","5","5","2","2","5","2","1","656295428198760448","夏","397","Female","[""好她"",""好我"",""坏她"",""坏我""]","[""强她"",""强我"",""弱她"",""弱我""]","","","","","","","","","","","","","","","","","","","","","","","","","","","","","","feedback_test","","","","","","","","",""
"913","","j","psychophysics","44","281772","0.0-8.0-0.0-1.0-0.0-0.17","3","2","2","3","2","5","3","4","5","5","5","0","-1","-2","0","-2","0","0","-2","5","4","4","5","4","4","2","2","4","2","4","5","6","7","4","4","3","4","5","3","2","2","3","2","2","3","3","3","2","1","2","2","6","3","2","2","2","6","3","3","2","2","3","3","2","3","3","5","2","6","5","2","6","5","5","2","2","5","2","1","656295428198760448","夏","397","Female","[""好她"",""好我"",""坏她"",""坏我""]","[""强她"",""强我"",""弱她"",""弱我""]","","","","","","","","match","","","","","","","","","","key","j","16.65929203539823","768","428","j","true","match","img/diamond.png","坏她","坏她","prac_ALT2_moral","practice_moral","","","","","","","","",""
"null","<span style='color:GreenYellow; font-size: 70px;'>正确! </span>","null","html-keyboard-response","45","282273","0.0-8.0-0.0-1.0-0.0-1.17","3","2","2","3","2","5","3","4","5","5","5","0","-1","-2","0","-2","0","0","-2","5","4","4","5","4","4","2","2","4","2","4","5","6","7","4","4","3","4","5","3","2","2","3","2","2","3","3","3","2","1","2","2","6","3","2","2","2","6","3","3","2","2","3","3","2","3","3","5","2","6","5","2","6","5","5","2","2","5","2","1","656295428198760448","夏","397","Female","[""好她"",""好我"",""坏她"",""坏我""]","[""强她"",""强我"",""弱她"",""弱我""]","","","","","","","","","","","","","","","","","","","","","","","","","","","","","","feedback_test","","","","","","","","",""
"829","","f","psychophysics","46","284103","0.0-8.0-0.0-1.0-0.0-0.18","3","2","2","3","2","5","3","4","5","5","5","0","-1","-2","0","-2","0","0","-2","5","4","4","5","4","4","2","2","4","2","4","5","6","7","4","4","3","4","5","3","2","2","3","2","2","3","3","3","2","1","2","2","6","3","2","2","2","6","3","3","2","2","3","3","2","3","3","5","2","6","5","2","6","5","5","2","2","5","2","1","656295428198760448","夏","397","Female","[""好她"",""好我"",""坏她"",""坏我""]","[""强她"",""强我"",""弱她"",""弱我""]","","","","","","","","nonmatch","","","","","","","","","","key","f","16.662962962962748","768","428","j","false","match","img/ellipse.png","好我","好我","prac_ALT2_moral","practice_moral","","","","","","","","",""
"null","<span style='color:red; font-size: 70px;'>错误! </span>","null","html-keyboard-response","47","284604","0.0-8.0-0.0-1.0-0.0-1.18","3","2","2","3","2","5","3","4","5","5","5","0","-1","-2","0","-2","0","0","-2","5","4","4","5","4","4","2","2","4","2","4","5","6","7","4","4","3","4","5","3","2","2","3","2","2","3","3","3","2","1","2","2","6","3","2","2","2","6","3","3","2","2","3","3","2","3","3","5","2","6","5","2","6","5","5","2","2","5","2","1","656295428198760448","夏","397","Female","[""好她"",""好我"",""坏她"",""坏我""]","[""强她"",""强我"",""弱她"",""弱我""]","","","","","","","","","","","","","","","","","","","","","","","","","","","","","","feedback_test","","","","","","","","",""
"854","","j","psychophysics","48","286459","0.0-8.0-0.0-1.0-0.0-0.19","3","2","2","3","2","5","3","4","5","5","5","0","-1","-2","0","-2","0","0","-2","5","4","4","5","4","4","2","2","4","2","4","5","6","7","4","4","3","4","5","3","2","2","3","2","2","3","3","3","2","1","2","2","6","3","2","2","2","6","3","3","2","2","3","3","2","3","3","5","2","6","5","2","6","5","5","2","2","5","2","1","656295428198760448","夏","397","Female","[""好她"",""好我"",""坏她"",""坏我""]","[""强她"",""强我"",""弱她"",""弱我""]","","","","","","","","match","","","","","","","","","","key","j","16.64000000000021","768","428","j","true","match","img/square.png","好她","好她","prac_ALT2_moral","practice_moral","","","","","","","","",""
"null","<span style='color:GreenYellow; font-size: 70px;'>正确! </span>","null","html-keyboard-response","49","286960","0.0-8.0-0.0-1.0-0.0-1.19","3","2","2","3","2","5","3","4","5","5","5","0","-1","-2","0","-2","0","0","-2","5","4","4","5","4","4","2","2","4","2","4","5","6","7","4","4","3","4","5","3","2","2","3","2","2","3","3","3","2","1","2","2","6","3","2","2","2","6","3","3","2","2","3","3","2","3","3","5","2","6","5","2","6","5","5","2","2","5","2","1","656295428198760448","夏","397","Female","[""好她"",""好我"",""坏她"",""坏我""]","[""强她"",""强我"",""弱她"",""弱我""]","","","","","","","","","","","","","","","","","","","","","","","","","","","","","","feedback_test","","","","","","","","",""
"702","","j","psychophysics","50","288664","0.0-8.0-0.0-1.0-0.0-0.20","3","2","2","3","2","5","3","4","5","5","5","0","-1","-2","0","-2","0","0","-2","5","4","4","5","4","4","2","2","4","2","4","5","6","7","4","4","3","4","5","3","2","2","3","2","2","3","3","3","2","1","2","2","6","3","2","2","2","6","3","3","2","2","3","3","2","3","3","5","2","6","5","2","6","5","5","2","2","5","2","1","656295428198760448","夏","397","Female","[""好她"",""好我"",""坏她"",""坏我""]","[""强她"",""强我"",""弱她"",""弱我""]","","","","","","","","match","","","","","","","","","","key","j","16.662376237623416","768","428","j","true","match","img/hexagon.png","坏我","坏我","prac_ALT2_moral","practice_moral","","","","","","","","",""
"null","<span style='color:GreenYellow; font-size: 70px;'>正确! </span>","null","html-keyboard-response","51","289166","0.0-8.0-0.0-1.0-0.0-1.20","3","2","2","3","2","5","3","4","5","5","5","0","-1","-2","0","-2","0","0","-2","5","4","4","5","4","4","2","2","4","2","4","5","6","7","4","4","3","4","5","3","2","2","3","2","2","3","3","3","2","1","2","2","6","3","2","2","2","6","3","3","2","2","3","3","2","3","3","5","2","6","5","2","6","5","5","2","2","5","2","1","656295428198760448","夏","397","Female","[""好她"",""好我"",""坏她"",""坏我""]","[""强她"",""强我"",""弱她"",""弱我""]","","","","","","","","","","","","","","","","","","","","","","","","","","","","","","feedback_test","","","","","","","","",""
"948","","j","psychophysics","52","291115","0.0-8.0-0.0-1.0-0.0-0.21","3","2","2","3","2","5","3","4","5","5","5","0","-1","-2","0","-2","0","0","-2","5","4","4","5","4","4","2","2","4","2","4","5","6","7","4","4","3","4","5","3","2","2","3","2","2","3","3","3","2","1","2","2","6","3","2","2","2","6","3","3","2","2","3","3","2","3","3","5","2","6","5","2","6","5","5","2","2","5","2","1","656295428198760448","夏","397","Female","[""好她"",""好我"",""坏她"",""坏我""]","[""强她"",""强我"",""弱她"",""弱我""]","","","","","","","","match","","","","","","","","","","key","j","16.661206896551825","768","428","j","true","match","img/square.png","好她","好她","prac_ALT2_moral","practice_moral","","","","","","","","",""
"null","<span style='color:GreenYellow; font-size: 70px;'>正确! </span>","null","html-keyboard-response","53","291617","0.0-8.0-0.0-1.0-0.0-1.21","3","2","2","3","2","5","3","4","5","5","5","0","-1","-2","0","-2","0","0","-2","5","4","4","5","4","4","2","2","4","2","4","5","6","7","4","4","3","4","5","3","2","2","3","2","2","3","3","3","2","1","2","2","6","3","2","2","2","6","3","3","2","2","3","3","2","3","3","5","2","6","5","2","6","5","5","2","2","5","2","1","656295428198760448","夏","397","Female","[""好她"",""好我"",""坏她"",""坏我""]","[""强她"",""强我"",""弱她"",""弱我""]","","","","","","","","","","","","","","","","","","","","","","","","","","","","","","feedback_test","","","","","","","","",""
"731","","f","psychophysics","54","293349","0.0-8.0-0.0-1.0-0.0-0.22","3","2","2","3","2","5","3","4","5","5","5","0","-1","-2","0","-2","0","0","-2","5","4","4","5","4","4","2","2","4","2","4","5","6","7","4","4","3","4","5","3","2","2","3","2","2","3","3","3","2","1","2","2","6","3","2","2","2","6","3","3","2","2","3","3","2","3","3","5","2","6","5","2","6","5","5","2","2","5","2","1","656295428198760448","夏","397","Female","[""好她"",""好我"",""坏她"",""坏我""]","[""强她"",""强我"",""弱她"",""弱我""]","","","","","","","","nonmatch","","","","","","","","","","key","f","16.66407766990314","768","428","f","true","nonmatch","img/diamond.png","好她","坏她","prac_ALT2_moral","practice_moral","","","","","","","","",""
"null","<span style='color:GreenYellow; font-size: 70px;'>正确! </span>","null","html-keyboard-response","55","293850","0.0-8.0-0.0-1.0-0.0-1.22","3","2","2","3","2","5","3","4","5","5","5","0","-1","-2","0","-2","0","0","-2","5","4","4","5","4","4","2","2","4","2","4","5","6","7","4","4","3","4","5","3","2","2","3","2","2","3","3","3","2","1","2","2","6","3","2","2","2","6","3","3","2","2","3","3","2","3","3","5","2","6","5","2","6","5","5","2","2","5","2","1","656295428198760448","夏","397","Female","[""好她"",""好我"",""坏她"",""坏我""]","[""强她"",""强我"",""弱她"",""弱我""]","","","","","","","","","","","","","","","","","","","","","","","","","","","","","","feedback_test","","","","","","","","",""
"801","","j","psychophysics","56","295652","0.0-8.0-0.0-1.0-0.0-0.23","3","2","2","3","2","5","3","4","5","5","5","0","-1","-2","0","-2","0","0","-2","5","4","4","5","4","4","2","2","4","2","4","5","6","7","4","4","3","4","5","3","2","2","3","2","2","3","3","3","2","1","2","2","6","3","2","2","2","6","3","3","2","2","3","3","2","3","3","5","2","6","5","2","6","5","5","2","2","5","2","1","656295428198760448","夏","397","Female","[""好她"",""好我"",""坏她"",""坏我""]","[""强她"",""强我"",""弱她"",""弱我""]","","","","","","","","match","","","","","","","","","","key","j","16.662037037037038","768","428","j","true","match","img/ellipse.png","好我","好我","prac_ALT2_moral","practice_moral","","","","","","","","",""
"null","<span style='color:GreenYellow; font-size: 70px;'>正确! </span>","null","html-keyboard-response","57","296153","0.0-8.0-0.0-1.0-0.0-1.23","3","2","2","3","2","5","3","4","5","5","5","0","-1","-2","0","-2","0","0","-2","5","4","4","5","4","4","2","2","4","2","4","5","6","7","4","4","3","4","5","3","2","2","3","2","2","3","3","3","2","1","2","2","6","3","2","2","2","6","3","3","2","2","3","3","2","3","3","5","2","6","5","2","6","5","5","2","2","5","2","1","656295428198760448","夏","397","Female","[""好她"",""好我"",""坏她"",""坏我""]","[""强她"",""强我"",""弱她"",""弱我""]","","","","","","","","","","","","","","","","","","","","","","","","","","","","","","feedback_test","","","","","","","","",""
"746","","j","psychophysics","58","297902","0.0-8.0-0.0-1.0-0.0-0.24","3","2","2","3","2","5","3","4","5","5","5","0","-1","-2","0","-2","0","0","-2","5","4","4","5","4","4","2","2","4","2","4","5","6","7","4","4","3","4","5","3","2","2","3","2","2","3","3","3","2","1","2","2","6","3","2","2","2","6","3","3","2","2","3","3","2","3","3","5","2","6","5","2","6","5","5","2","2","5","2","1","656295428198760448","夏","397","Female","[""好她"",""好我"",""坏她"",""坏我""]","[""强她"",""强我"",""弱她"",""弱我""]","","","","","","","","match","","","","","","","","","","key","j","16.654807692307468","768","428","j","true","match","img/ellipse.png","好我","好我","prac_ALT2_moral","practice_moral","","","","","","","","",""
"null","<span style='color:GreenYellow; font-size: 70px;'>正确! </span>","null","html-keyboard-response","59","298404","0.0-8.0-0.0-1.0-0.0-1.24","3","2","2","3","2","5","3","4","5","5","5","0","-1","-2","0","-2","0","0","-2","5","4","4","5","4","4","2","2","4","2","4","5","6","7","4","4","3","4","5","3","2","2","3","2","2","3","3","3","2","1","2","2","6","3","2","2","2","6","3","3","2","2","3","3","2","3","3","5","2","6","5","2","6","5","5","2","2","5","2","1","656295428198760448","夏","397","Female","[""好她"",""好我"",""坏她"",""坏我""]","[""强她"",""强我"",""弱她"",""弱我""]","","","","","","","","","","","","","","","","","","","","","","","","","","","","","","feedback_test","","","","","","","","",""
"984","","f","psychophysics","60","300389","0.0-8.0-0.0-1.0-0.0-0.25","3","2","2","3","2","5","3","4","5","5","5","0","-1","-2","0","-2","0","0","-2","5","4","4","5","4","4","2","2","4","2","4","5","6","7","4","4","3","4","5","3","2","2","3","2","2","3","3","3","2","1","2","2","6","3","2","2","2","6","3","3","2","2","3","3","2","3","3","5","2","6","5","2","6","5","5","2","2","5","2","1","656295428198760448","夏","397","Female","[""好她"",""好我"",""坏她"",""坏我""]","[""强她"",""强我"",""弱她"",""弱我""]","","","","","","","","nonmatch","","","","","","","","","","key","f","16.661864406779465","768","428","f","true","nonmatch","img/square.png","坏她","好她","prac_ALT2_moral","practice_moral","","","","","","","","",""
"null","<span style='color:GreenYellow; font-size: 70px;'>正确! </span>","null","html-keyboard-response","61","300891","0.0-8.0-0.0-1.0-0.0-1.25","3","2","2","3","2","5","3","4","5","5","5","0","-1","-2","0","-2","0","0","-2","5","4","4","5","4","4","2","2","4","2","4","5","6","7","4","4","3","4","5","3","2","2","3","2","2","3","3","3","2","1","2","2","6","3","2","2","2","6","3","3","2","2","3","3","2","3","3","5","2","6","5","2","6","5","5","2","2","5","2","1","656295428198760448","夏","397","Female","[""好她"",""好我"",""坏她"",""坏我""]","[""强她"",""强我"",""弱她"",""弱我""]","","","","","","","","","","","","","","","","","","","","","","","","","","","","","","feedback_test","","","","","","","","",""
"860","","j","psychophysics","62","302752","0.0-8.0-0.0-1.0-0.0-0.26","3","2","2","3","2","5","3","4","5","5","5","0","-1","-2","0","-2","0","0","-2","5","4","4","5","4","4","2","2","4","2","4","5","6","7","4","4","3","4","5","3","2","2","3","2","2","3","3","3","2","1","2","2","6","3","2","2","2","6","3","3","2","2","3","3","2","3","3","5","2","6","5","2","6","5","5","2","2","5","2","1","656295428198760448","夏","397","Female","[""好她"",""好我"",""坏她"",""坏我""]","[""强她"",""强我"",""弱她"",""弱我""]","","","","","","","","match","","","","","","","","","","key","j","16.659459459459566","768","428","j","true","match","img/hexagon.png","坏我","坏我","prac_ALT2_moral","practice_moral","","","","","","","","",""
"null","<span style='color:GreenYellow; font-size: 70px;'>正确! </span>","null","html-keyboard-response","63","303253","0.0-8.0-0.0-1.0-0.0-1.26","3","2","2","3","2","5","3","4","5","5","5","0","-1","-2","0","-2","0","0","-2","5","4","4","5","4","4","2","2","4","2","4","5","6","7","4","4","3","4","5","3","2","2","3","2","2","3","3","3","2","1","2","2","6","3","2","2","2","6","3","3","2","2","3","3","2","3","3","5","2","6","5","2","6","5","5","2","2","5","2","1","656295428198760448","夏","397","Female","[""好她"",""好我"",""坏她"",""坏我""]","[""强她"",""强我"",""弱她"",""弱我""]","","","","","","","","","","","","","","","","","","","","","","","","","","","","","","feedback_test","","","","","","","","",""
"833","","f","psychophysics","64","305088","0.0-8.0-0.0-1.0-0.0-0.27","3","2","2","3","2","5","3","4","5","5","5","0","-1","-2","0","-2","0","0","-2","5","4","4","5","4","4","2","2","4","2","4","5","6","7","4","4","3","4","5","3","2","2","3","2","2","3","3","3","2","1","2","2","6","3","2","2","2","6","3","3","2","2","3","3","2","3","3","5","2","6","5","2","6","5","5","2","2","5","2","1","656295428198760448","夏","397","Female","[""好她"",""好我"",""坏她"",""坏我""]","[""强她"",""强我"",""弱她"",""弱我""]","","","","","","","","nonmatch","","","","","","","","","","key","f","16.66146788990858","768","428","f","true","nonmatch","img/ellipse.png","坏我","好我","prac_ALT2_moral","practice_moral","","","","","","","","",""
"null","<span style='color:GreenYellow; font-size: 70px;'>正确! </span>","null","html-keyboard-response","65","305588","0.0-8.0-0.0-1.0-0.0-1.27","3","2","2","3","2","5","3","4","5","5","5","0","-1","-2","0","-2","0","0","-2","5","4","4","5","4","4","2","2","4","2","4","5","6","7","4","4","3","4","5","3","2","2","3","2","2","3","3","3","2","1","2","2","6","3","2","2","2","6","3","3","2","2","3","3","2","3","3","5","2","6","5","2","6","5","5","2","2","5","2","1","656295428198760448","夏","397","Female","[""好她"",""好我"",""坏她"",""坏我""]","[""强她"",""强我"",""弱她"",""弱我""]","","","","","","","","","","","","","","","","","","","","","","","","","","","","","","feedback_test","","","","","","","","",""
"997","","f","psychophysics","66","307586","0.0-8.0-0.0-1.0-0.0-0.28","3","2","2","3","2","5","3","4","5","5","5","0","-1","-2","0","-2","0","0","-2","5","4","4","5","4","4","2","2","4","2","4","5","6","7","4","4","3","4","5","3","2","2","3","2","2","3","3","3","2","1","2","2","6","3","2","2","2","6","3","3","2","2","3","3","2","3","3","5","2","6","5","2","6","5","5","2","2","5","2","1","656295428198760448","夏","397","Female","[""好她"",""好我"",""坏她"",""坏我""]","[""强她"",""强我"",""弱她"",""弱我""]","","","","","","","","nonmatch","","","","","","","","","","key","f","16.657983193277214","768","428","f","true","nonmatch","img/diamond.png","好我","坏她","prac_ALT2_moral","practice_moral","","","","","","","","",""
"null","<span style='color:GreenYellow; font-size: 70px;'>正确! </span>","null","html-keyboard-response","67","308087","0.0-8.0-0.0-1.0-0.0-1.28","3","2","2","3","2","5","3","4","5","5","5","0","-1","-2","0","-2","0","0","-2","5","4","4","5","4","4","2","2","4","2","4","5","6","7","4","4","3","4","5","3","2","2","3","2","2","3","3","3","2","1","2","2","6","3","2","2","2","6","3","3","2","2","3","3","2","3","3","5","2","6","5","2","6","5","5","2","2","5","2","1","656295428198760448","夏","397","Female","[""好她"",""好我"",""坏她"",""坏我""]","[""强她"",""强我"",""弱她"",""弱我""]","","","","","","","","","","","","","","","","","","","","","","","","","","","","","","feedback_test","","","","","","","","",""
"950","","j","psychophysics","68","310038","0.0-8.0-0.0-1.0-0.0-0.29","3","2","2","3","2","5","3","4","5","5","5","0","-1","-2","0","-2","0","0","-2","5","4","4","5","4","4","2","2","4","2","4","5","6","7","4","4","3","4","5","3","2","2","3","2","2","3","3","3","2","1","2","2","6","3","2","2","2","6","3","3","2","2","3","3","2","3","3","5","2","6","5","2","6","5","5","2","2","5","2","1","656295428198760448","夏","397","Female","[""好她"",""好我"",""坏她"",""坏我""]","[""强她"",""强我"",""弱她"",""弱我""]","","","","","","","","match","","","","","","","","","","key","j","16.66206896551714","768","428","j","true","match","img/diamond.png","坏她","坏她","prac_ALT2_moral","practice_moral","","","","","","","","",""
"null","<span style='color:GreenYellow; font-size: 70px;'>正确! </span>","null","html-keyboard-response","69","310540","0.0-8.0-0.0-1.0-0.0-1.29","3","2","2","3","2","5","3","4","5","5","5","0","-1","-2","0","-2","0","0","-2","5","4","4","5","4","4","2","2","4","2","4","5","6","7","4","4","3","4","5","3","2","2","3","2","2","3","3","3","2","1","2","2","6","3","2","2","2","6","3","3","2","2","3","3","2","3","3","5","2","6","5","2","6","5","5","2","2","5","2","1","656295428198760448","夏","397","Female","[""好她"",""好我"",""坏她"",""坏我""]","[""强她"",""强我"",""弱她"",""弱我""]","","","","","","","","","","","","","","","","","","","","","","","","","","","","","","feedback_test","","","","","","","","",""
"895","","f","psychophysics","70","312437","0.0-8.0-0.0-1.0-0.0-0.30","3","2","2","3","2","5","3","4","5","5","5","0","-1","-2","0","-2","0","0","-2","5","4","4","5","4","4","2","2","4","2","4","5","6","7","4","4","3","4","5","3","2","2","3","2","2","3","3","3","2","1","2","2","6","3","2","2","2","6","3","3","2","2","3","3","2","3","3","5","2","6","5","2","6","5","5","2","2","5","2","1","656295428198760448","夏","397","Female","[""好她"",""好我"",""坏她"",""坏我""]","[""强她"",""强我"",""弱她"",""弱我""]","","","","","","","","nonmatch","","","","","","","","","","key","f","16.66106194690276","768","428","f","true","nonmatch","img/diamond.png","好她","坏她","prac_ALT2_moral","practice_moral","","","","","","","","",""
"null","<span style='color:GreenYellow; font-size: 70px;'>正确! </span>","null","html-keyboard-response","71","312938","0.0-8.0-0.0-1.0-0.0-1.30","3","2","2","3","2","5","3","4","5","5","5","0","-1","-2","0","-2","0","0","-2","5","4","4","5","4","4","2","2","4","2","4","5","6","7","4","4","3","4","5","3","2","2","3","2","2","3","3","3","2","1","2","2","6","3","2","2","2","6","3","3","2","2","3","3","2","3","3","5","2","6","5","2","6","5","5","2","2","5","2","1","656295428198760448","夏","397","Female","[""好她"",""好我"",""坏她"",""坏我""]","[""强她"",""强我"",""弱她"",""弱我""]","","","","","","","","","","","","","","","","","","","","","","","","","","","","","","feedback_test","","","","","","","","",""
"817","","j","psychophysics","72","314756","0.0-8.0-0.0-1.0-0.0-0.31","3","2","2","3","2","5","3","4","5","5","5","0","-1","-2","0","-2","0","0","-2","5","4","4","5","4","4","2","2","4","2","4","5","6","7","4","4","3","4","5","3","2","2","3","2","2","3","3","3","2","1","2","2","6","3","2","2","2","6","3","3","2","2","3","3","2","3","3","5","2","6","5","2","6","5","5","2","2","5","2","1","656295428198760448","夏","397","Female","[""好她"",""好我"",""坏她"",""坏我""]","[""强她"",""强我"",""弱她"",""弱我""]","","","","","","","","match","","","","","","","","","","key","j","16.660185185185615","768","428","j","true","match","img/ellipse.png","好我","好我","prac_ALT2_moral","practice_moral","","","","","","","","",""
"null","<span style='color:GreenYellow; font-size: 70px;'>正确! </span>","null","html-keyboard-response","73","315258","0.0-8.0-0.0-1.0-0.0-1.31","3","2","2","3","2","5","3","4","5","5","5","0","-1","-2","0","-2","0","0","-2","5","4","4","5","4","4","2","2","4","2","4","5","6","7","4","4","3","4","5","3","2","2","3","2","2","3","3","3","2","1","2","2","6","3","2","2","2","6","3","3","2","2","3","3","2","3","3","5","2","6","5","2","6","5","5","2","2","5","2","1","656295428198760448","夏","397","Female","[""好她"",""好我"",""坏她"",""坏我""]","[""强她"",""强我"",""弱她"",""弱我""]","","","","","","","","","","","","","","","","","","","","","","","","","","","","","","feedback_test","","","","","","","","",""
"857","","j","psychophysics","74","317116","0.0-8.0-0.0-1.0-0.0-0.32","3","2","2","3","2","5","3","4","5","5","5","0","-1","-2","0","-2","0","0","-2","5","4","4","5","4","4","2","2","4","2","4","5","6","7","4","4","3","4","5","3","2","2","3","2","2","3","3","3","2","1","2","2","6","3","2","2","2","6","3","3","2","2","3","3","2","3","3","5","2","6","5","2","6","5","5","2","2","5","2","1","656295428198760448","夏","397","Female","[""好她"",""好我"",""坏她"",""坏我""]","[""强她"",""强我"",""弱她"",""弱我""]","","","","","","","","match","","","","","","","","","","key","j","16.663063063062854","768","428","f","false","nonmatch","img/hexagon.png","坏她","坏我","prac_ALT2_moral","practice_moral","","","","","","","","",""
"null","<span style='color:red; font-size: 70px;'>错误! </span>","null","html-keyboard-response","75","317617","0.0-8.0-0.0-1.0-0.0-1.32","3","2","2","3","2","5","3","4","5","5","5","0","-1","-2","0","-2","0","0","-2","5","4","4","5","4","4","2","2","4","2","4","5","6","7","4","4","3","4","5","3","2","2","3","2","2","3","3","3","2","1","2","2","6","3","2","2","2","6","3","3","2","2","3","3","2","3","3","5","2","6","5","2","6","5","5","2","2","5","2","1","656295428198760448","夏","397","Female","[""好她"",""好我"",""坏她"",""坏我""]","[""强她"",""强我"",""弱她"",""弱我""]","","","","","","","","","","","","","","","","","","","","","","","","","","","","","","feedback_test","","","","","","","","",""
"799","","j","psychophysics","76","319418","0.0-8.0-0.0-1.0-0.0-0.33","3","2","2","3","2","5","3","4","5","5","5","0","-1","-2","0","-2","0","0","-2","5","4","4","5","4","4","2","2","4","2","4","5","6","7","4","4","3","4","5","3","2","2","3","2","2","3","3","3","2","1","2","2","6","3","2","2","2","6","3","3","2","2","3","3","2","3","3","5","2","6","5","2","6","5","5","2","2","5","2","1","656295428198760448","夏","397","Female","[""好她"",""好我"",""坏她"",""坏我""]","[""强她"",""强我"",""弱她"",""弱我""]","","","","","","","","match","","","","","","","","","","key","j","16.66355140186916","768","428","j","true","match","img/square.png","好她","好她","prac_ALT2_moral","practice_moral","","","","","","","","",""
"null","<span style='color:GreenYellow; font-size: 70px;'>正确! </span>","null","html-keyboard-response","77","319919","0.0-8.0-0.0-1.0-0.0-1.33","3","2","2","3","2","5","3","4","5","5","5","0","-1","-2","0","-2","0","0","-2","5","4","4","5","4","4","2","2","4","2","4","5","6","7","4","4","3","4","5","3","2","2","3","2","2","3","3","3","2","1","2","2","6","3","2","2","2","6","3","3","2","2","3","3","2","3","3","5","2","6","5","2","6","5","5","2","2","5","2","1","656295428198760448","夏","397","Female","[""好她"",""好我"",""坏她"",""坏我""]","[""强她"",""强我"",""弱她"",""弱我""]","","","","","","","","","","","","","","","","","","","","","","","","","","","","","","feedback_test","","","","","","","","",""
"890","","f","psychophysics","78","321811","0.0-8.0-0.0-1.0-0.0-0.34","3","2","2","3","2","5","3","4","5","5","5","0","-1","-2","0","-2","0","0","-2","5","4","4","5","4","4","2","2","4","2","4","5","6","7","4","4","3","4","5","3","2","2","3","2","2","3","3","3","2","1","2","2","6","3","2","2","2","6","3","3","2","2","3","3","2","3","3","5","2","6","5","2","6","5","5","2","2","5","2","1","656295428198760448","夏","397","Female","[""好她"",""好我"",""坏她"",""坏我""]","[""强她"",""强我"",""弱她"",""弱我""]","","","","","","","","nonmatch","","","","","","","","","","key","f","16.661946902654766","768","428","f","true","nonmatch","img/square.png","好我","好她","prac_ALT2_moral","practice_moral","","","","","","","","",""
"null","<span style='color:GreenYellow; font-size: 70px;'>正确! </span>","null","html-keyboard-response","79","322312","0.0-8.0-0.0-1.0-0.0-1.34","3","2","2","3","2","5","3","4","5","5","5","0","-1","-2","0","-2","0","0","-2","5","4","4","5","4","4","2","2","4","2","4","5","6","7","4","4","3","4","5","3","2","2","3","2","2","3","3","3","2","1","2","2","6","3","2","2","2","6","3","3","2","2","3","3","2","3","3","5","2","6","5","2","6","5","5","2","2","5","2","1","656295428198760448","夏","397","Female","[""好她"",""好我"",""坏她"",""坏我""]","[""强她"",""强我"",""弱她"",""弱我""]","","","","","","","","","","","","","","","","","","","","","","","","","","","","","","feedback_test","","","","","","","","",""
"913","","f","psychophysics","80","324226","0.0-8.0-0.0-1.0-0.0-0.35","3","2","2","3","2","5","3","4","5","5","5","0","-1","-2","0","-2","0","0","-2","5","4","4","5","4","4","2","2","4","2","4","5","6","7","4","4","3","4","5","3","2","2","3","2","2","3","3","3","2","1","2","2","6","3","2","2","2","6","3","3","2","2","3","3","2","3","3","5","2","6","5","2","6","5","5","2","2","5","2","1","656295428198760448","夏","397","Female","[""好她"",""好我"",""坏她"",""坏我""]","[""强她"",""强我"",""弱她"",""弱我""]","","","","","","","","nonmatch","","","","","","","","","","key","f","16.661403508771624","768","428","f","true","nonmatch","img/hexagon.png","好我","坏我","prac_ALT2_moral","practice_moral","","","","","","","","",""
"null","<span style='color:GreenYellow; font-size: 70px;'>正确! </span>","null","html-keyboard-response","81","324728","0.0-8.0-0.0-1.0-0.0-1.35","3","2","2","3","2","5","3","4","5","5","5","0","-1","-2","0","-2","0","0","-2","5","4","4","5","4","4","2","2","4","2","4","5","6","7","4","4","3","4","5","3","2","2","3","2","2","3","3","3","2","1","2","2","6","3","2","2","2","6","3","3","2","2","3","3","2","3","3","5","2","6","5","2","6","5","5","2","2","5","2","1","656295428198760448","夏","397","Female","[""好她"",""好我"",""坏她"",""坏我""]","[""强她"",""强我"",""弱她"",""弱我""]","","","","","","","","","","","","","","","","","","","","","","","","","","","","","","feedback_test","","","","","","","","",""
"695","","j","psychophysics","82","326424","0.0-8.0-0.0-1.0-0.0-0.36","3","2","2","3","2","5","3","4","5","5","5","0","-1","-2","0","-2","0","0","-2","5","4","4","5","4","4","2","2","4","2","4","5","6","7","4","4","3","4","5","3","2","2","3","2","2","3","3","3","2","1","2","2","6","3","2","2","2","6","3","3","2","2","3","3","2","3","3","5","2","6","5","2","6","5","5","2","2","5","2","1","656295428198760448","夏","397","Female","[""好她"",""好我"",""坏她"",""坏我""]","[""强她"",""强我"",""弱她"",""弱我""]","","","","","","","","match","","","","","","","","","","key","j","16.665999999999766","768","428","f","false","nonmatch","img/ellipse.png","好她","好我","prac_ALT2_moral","practice_moral","","","","","","","","",""
"null","<span style='color:red; font-size: 70px;'>错误! </span>","null","html-keyboard-response","83","326925","0.0-8.0-0.0-1.0-0.0-1.36","3","2","2","3","2","5","3","4","5","5","5","0","-1","-2","0","-2","0","0","-2","5","4","4","5","4","4","2","2","4","2","4","5","6","7","4","4","3","4","5","3","2","2","3","2","2","3","3","3","2","1","2","2","6","3","2","2","2","6","3","3","2","2","3","3","2","3","3","5","2","6","5","2","6","5","5","2","2","5","2","1","656295428198760448","夏","397","Female","[""好她"",""好我"",""坏她"",""坏我""]","[""强她"",""强我"",""弱她"",""弱我""]","","","","","","","","","","","","","","","","","","","","","","","","","","","","","","feedback_test","","","","","","","","",""
"null","","null","psychophysics","84","329129","0.0-8.0-0.0-1.0-0.0-0.37","3","2","2","3","2","5","3","4","5","5","5","0","-1","-2","0","-2","0","0","-2","5","4","4","5","4","4","2","2","4","2","4","5","6","7","4","4","3","4","5","3","2","2","3","2","2","3","3","3","2","1","2","2","6","3","2","2","2","6","3","3","2","2","3","3","2","3","3","5","2","6","5","2","6","5","5","2","2","5","2","1","656295428198760448","夏","397","Female","[""好她"",""好我"",""坏她"",""坏我""]","[""强她"",""强我"",""弱她"",""弱我""]","","","","","","","","null","","","","","","","","","","key","null","16.66183206106879","768","428","j","false","match","img/hexagon.png","坏我","坏我","prac_ALT2_moral","practice_moral","","","","","","","","",""
"null","<span class='add_' style='color:yellow; font-size: 70px;'> 太慢! </span>","null","html-keyboard-response","85","329631","0.0-8.0-0.0-1.0-0.0-1.37","3","2","2","3","2","5","3","4","5","5","5","0","-1","-2","0","-2","0","0","-2","5","4","4","5","4","4","2","2","4","2","4","5","6","7","4","4","3","4","5","3","2","2","3","2","2","3","3","3","2","1","2","2","6","3","2","2","2","6","3","3","2","2","3","3","2","3","3","5","2","6","5","2","6","5","5","2","2","5","2","1","656295428198760448","夏","397","Female","[""好她"",""好我"",""坏她"",""坏我""]","[""强她"",""强我"",""弱她"",""弱我""]","","","","","","","","","","","","","","","","","","","","","","","","","","","","","","feedback_test","","","","","","","","",""
"783","","j","psychophysics","86","331417","0.0-8.0-0.0-1.0-0.0-0.38","3","2","2","3","2","5","3","4","5","5","5","0","-1","-2","0","-2","0","0","-2","5","4","4","5","4","4","2","2","4","2","4","5","6","7","4","4","3","4","5","3","2","2","3","2","2","3","3","3","2","1","2","2","6","3","2","2","2","6","3","3","2","2","3","3","2","3","3","5","2","6","5","2","6","5","5","2","2","5","2","1","656295428198760448","夏","397","Female","[""好她"",""好我"",""坏她"",""坏我""]","[""强她"",""强我"",""弱她"",""弱我""]","","","","","","","","match","","","","","","","","","","key","j","16.65943396226437","768","428","j","true","match","img/diamond.png","坏她","坏她","prac_ALT2_moral","practice_moral","","","","","","","","",""
"null","<span style='color:GreenYellow; font-size: 70px;'>正确! </span>","null","html-keyboard-response","87","331918","0.0-8.0-0.0-1.0-0.0-1.38","3","2","2","3","2","5","3","4","5","5","5","0","-1","-2","0","-2","0","0","-2","5","4","4","5","4","4","2","2","4","2","4","5","6","7","4","4","3","4","5","3","2","2","3","2","2","3","3","3","2","1","2","2","6","3","2","2","2","6","3","3","2","2","3","3","2","3","3","5","2","6","5","2","6","5","5","2","2","5","2","1","656295428198760448","夏","397","Female","[""好她"",""好我"",""坏她"",""坏我""]","[""强她"",""强我"",""弱她"",""弱我""]","","","","","","","","","","","","","","","","","","","","","","","","","","","","","","feedback_test","","","","","","","","",""
"991","","f","psychophysics","88","333910","0.0-8.0-0.0-1.0-0.0-0.39","3","2","2","3","2","5","3","4","5","5","5","0","-1","-2","0","-2","0","0","-2","5","4","4","5","4","4","2","2","4","2","4","5","6","7","4","4","3","4","5","3","2","2","3","2","2","3","3","3","2","1","2","2","6","3","2","2","2","6","3","3","2","2","3","3","2","3","3","5","2","6","5","2","6","5","5","2","2","5","2","1","656295428198760448","夏","397","Female","[""好她"",""好我"",""坏她"",""坏我""]","[""强她"",""强我"",""弱她"",""弱我""]","","","","","","","","nonmatch","","","","","","","","","","key","f","16.66302521008374","768","428","f","true","nonmatch","img/diamond.png","坏我","坏她","prac_ALT2_moral","practice_moral","","","","","","","","",""
"null","<span style='color:GreenYellow; font-size: 70px;'>正确! </span>","null","html-keyboard-response","89","334411","0.0-8.0-0.0-1.0-0.0-1.39","3","2","2","3","2","5","3","4","5","5","5","0","-1","-2","0","-2","0","0","-2","5","4","4","5","4","4","2","2","4","2","4","5","6","7","4","4","3","4","5","3","2","2","3","2","2","3","3","3","2","1","2","2","6","3","2","2","2","6","3","3","2","2","3","3","2","3","3","5","2","6","5","2","6","5","5","2","2","5","2","1","656295428198760448","夏","397","Female","[""好她"",""好我"",""坏她"",""坏我""]","[""强她"",""强我"",""弱她"",""弱我""]","","","","","","","","","","","","","","","","","","","","","","","","","","","","","","feedback_test","","","","","","","","",""
"602","","j","psychophysics","90","336014","0.0-8.0-0.0-1.0-0.0-0.40","3","2","2","3","2","5","3","4","5","5","5","0","-1","-2","0","-2","0","0","-2","5","4","4","5","4","4","2","2","4","2","4","5","6","7","4","4","3","4","5","3","2","2","3","2","2","3","3","3","2","1","2","2","6","3","2","2","2","6","3","3","2","2","3","3","2","3","3","5","2","6","5","2","6","5","5","2","2","5","2","1","656295428198760448","夏","397","Female","[""好她"",""好我"",""坏她"",""坏我""]","[""强她"",""强我"",""弱她"",""弱我""]","","","","","","","","match","","","","","","","","","","key","j","16.66000000000012","768","428","j","true","match","img/diamond.png","坏她","坏她","prac_ALT2_moral","practice_moral","","","","","","","","",""
"null","<span style='color:GreenYellow; font-size: 70px;'>正确! </span>","null","html-keyboard-response","91","336517","0.0-8.0-0.0-1.0-0.0-1.40","3","2","2","3","2","5","3","4","5","5","5","0","-1","-2","0","-2","0","0","-2","5","4","4","5","4","4","2","2","4","2","4","5","6","7","4","4","3","4","5","3","2","2","3","2","2","3","3","3","2","1","2","2","6","3","2","2","2","6","3","3","2","2","3","3","2","3","3","5","2","6","5","2","6","5","5","2","2","5","2","1","656295428198760448","夏","397","Female","[""好她"",""好我"",""坏她"",""坏我""]","[""强她"",""强我"",""弱她"",""弱我""]","","","","","","","","","","","","","","","","","","","","","","","","","","","","","","feedback_test","","","","","","","","",""
"950","","j","psychophysics","92","338468","0.0-8.0-0.0-1.0-0.0-0.41","3","2","2","3","2","5","3","4","5","5","5","0","-1","-2","0","-2","0","0","-2","5","4","4","5","4","4","2","2","4","2","4","5","6","7","4","4","3","4","5","3","2","2","3","2","2","3","3","3","2","1","2","2","6","3","2","2","2","6","3","3","2","2","3","3","2","3","3","5","2","6","5","2","6","5","5","2","2","5","2","1","656295428198760448","夏","397","Female","[""好她"",""好我"",""坏她"",""坏我""]","[""强她"",""强我"",""弱她"",""弱我""]","","","","","","","","match","","","","","","","","","","key","j","16.661206896551825","768","428","j","true","match","img/hexagon.png","坏我","坏我","prac_ALT2_moral","practice_moral","","","","","","","","",""
"null","<span style='color:GreenYellow; font-size: 70px;'>正确! </span>","null","html-keyboard-response","93","338970","0.0-8.0-0.0-1.0-0.0-1.41","3","2","2","3","2","5","3","4","5","5","5","0","-1","-2","0","-2","0","0","-2","5","4","4","5","4","4","2","2","4","2","4","5","6","7","4","4","3","4","5","3","2","2","3","2","2","3","3","3","2","1","2","2","6","3","2","2","2","6","3","3","2","2","3","3","2","3","3","5","2","6","5","2","6","5","5","2","2","5","2","1","656295428198760448","夏","397","Female","[""好她"",""好我"",""坏她"",""坏我""]","[""强她"",""强我"",""弱她"",""弱我""]","","","","","","","","","","","","","","","","","","","","","","","","","","","","","","feedback_test","","","","","","","","",""
"850","","f","psychophysics","94","340822","0.0-8.0-0.0-1.0-0.0-0.42","3","2","2","3","2","5","3","4","5","5","5","0","-1","-2","0","-2","0","0","-2","5","4","4","5","4","4","2","2","4","2","4","5","6","7","4","4","3","4","5","3","2","2","3","2","2","3","3","3","2","1","2","2","6","3","2","2","2","6","3","3","2","2","3","3","2","3","3","5","2","6","5","2","6","5","5","2","2","5","2","1","656295428198760448","夏","397","Female","[""好她"",""好我"",""坏她"",""坏我""]","[""强她"",""强我"",""弱她"",""弱我""]","","","","","","","","nonmatch","","","","","","","","","","key","f","16.660909090909197","768","428","f","true","nonmatch","img/hexagon.png","好她","坏我","prac_ALT2_moral","practice_moral","","","","","","","","",""
"null","<span style='color:GreenYellow; font-size: 70px;'>正确! </span>","null","html-keyboard-response","95","341323","0.0-8.0-0.0-1.0-0.0-1.42","3","2","2","3","2","5","3","4","5","5","5","0","-1","-2","0","-2","0","0","-2","5","4","4","5","4","4","2","2","4","2","4","5","6","7","4","4","3","4","5","3","2","2","3","2","2","3","3","3","2","1","2","2","6","3","2","2","2","6","3","3","2","2","3","3","2","3","3","5","2","6","5","2","6","5","5","2","2","5","2","1","656295428198760448","夏","397","Female","[""好她"",""好我"",""坏她"",""坏我""]","[""强她"",""强我"",""弱她"",""弱我""]","","","","","","","","","","","","","","","","","","","","","","","","","","","","","","feedback_test","","","","","","","","",""
"828","","f","psychophysics","96","343153","0.0-8.0-0.0-1.0-0.0-0.43","3","2","2","3","2","5","3","4","5","5","5","0","-1","-2","0","-2","0","0","-2","5","4","4","5","4","4","2","2","4","2","4","5","6","7","4","4","3","4","5","3","2","2","3","2","2","3","3","3","2","1","2","2","6","3","2","2","2","6","3","3","2","2","3","3","2","3","3","5","2","6","5","2","6","5","5","2","2","5","2","1","656295428198760448","夏","397","Female","[""好她"",""好我"",""坏她"",""坏我""]","[""强她"",""强我"",""弱她"",""弱我""]","","","","","","","","nonmatch","","","","","","","","","","key","f","16.65963302752315","768","428","f","true","nonmatch","img/square.png","坏我","好她","prac_ALT2_moral","practice_moral","","","","","","","","",""
"null","<span style='color:GreenYellow; font-size: 70px;'>正确! </span>","null","html-keyboard-response","97","343654","0.0-8.0-0.0-1.0-0.0-1.43","3","2","2","3","2","5","3","4","5","5","5","0","-1","-2","0","-2","0","0","-2","5","4","4","5","4","4","2","2","4","2","4","5","6","7","4","4","3","4","5","3","2","2","3","2","2","3","3","3","2","1","2","2","6","3","2","2","2","6","3","3","2","2","3","3","2","3","3","5","2","6","5","2","6","5","5","2","2","5","2","1","656295428198760448","夏","397","Female","[""好她"",""好我"",""坏她"",""坏我""]","[""强她"",""强我"",""弱她"",""弱我""]","","","","","","","","","","","","","","","","","","","","","","","","","","","","","","feedback_test","","","","","","","","",""
"684","","f","psychophysics","98","345339","0.0-8.0-0.0-1.0-0.0-0.44","3","2","2","3","2","5","3","4","5","5","5","0","-1","-2","0","-2","0","0","-2","5","4","4","5","4","4","2","2","4","2","4","5","6","7","4","4","3","4","5","3","2","2","3","2","2","3","3","3","2","1","2","2","6","3","2","2","2","6","3","3","2","2","3","3","2","3","3","5","2","6","5","2","6","5","5","2","2","5","2","1","656295428198760448","夏","397","Female","[""好她"",""好我"",""坏她"",""坏我""]","[""强她"",""强我"",""弱她"",""弱我""]","","","","","","","","nonmatch","","","","","","","","","","key","f","16.660999999999767","768","428","f","true","nonmatch","img/ellipse.png","坏她","好我","prac_ALT2_moral","practice_moral","","","","","","","","",""
"null","<span style='color:GreenYellow; font-size: 70px;'>正确! </span>","null","html-keyboard-response","99","345841","0.0-8.0-0.0-1.0-0.0-1.44","3","2","2","3","2","5","3","4","5","5","5","0","-1","-2","0","-2","0","0","-2","5","4","4","5","4","4","2","2","4","2","4","5","6","7","4","4","3","4","5","3","2","2","3","2","2","3","3","3","2","1","2","2","6","3","2","2","2","6","3","3","2","2","3","3","2","3","3","5","2","6","5","2","6","5","5","2","2","5","2","1","656295428198760448","夏","397","Female","[""好她"",""好我"",""坏她"",""坏我""]","[""强她"",""强我"",""弱她"",""弱我""]","","","","","","","","","","","","","","","","","","","","","","","","","","","","","","feedback_test","","","","","","","","",""
"926","","j","psychophysics","100","347769","0.0-8.0-0.0-1.0-0.0-0.45","3","2","2","3","2","5","3","4","5","5","5","0","-1","-2","0","-2","0","0","-2","5","4","4","5","4","4","2","2","4","2","4","5","6","7","4","4","3","4","5","3","2","2","3","2","2","3","3","3","2","1","2","2","6","3","2","2","2","6","3","3","2","2","3","3","2","3","3","5","2","6","5","2","6","5","5","2","2","5","2","1","656295428198760448","夏","397","Female","[""好她"",""好我"",""坏她"",""坏我""]","[""强她"",""强我"",""弱她"",""弱我""]","","","","","","","","match","","","","","","","","","","key","j","16.66260869565177","768","428","j","true","match","img/square.png","好她","好她","prac_ALT2_moral","practice_moral","","","","","","","","",""
"null","<span style='color:GreenYellow; font-size: 70px;'>正确! </span>","null","html-keyboard-response","101","348271","0.0-8.0-0.0-1.0-0.0-1.45","3","2","2","3","2","5","3","4","5","5","5","0","-1","-2","0","-2","0","0","-2","5","4","4","5","4","4","2","2","4","2","4","5","6","7","4","4","3","4","5","3","2","2","3","2","2","3","3","3","2","1","2","2","6","3","2","2","2","6","3","3","2","2","3","3","2","3","3","5","2","6","5","2","6","5","5","2","2","5","2","1","656295428198760448","夏","397","Female","[""好她"",""好我"",""坏她"",""坏我""]","[""强她"",""强我"",""弱她"",""弱我""]","","","","","","","","","","","","","","","","","","","","","","","","","","","","","","feedback_test","","","","","","","","",""
"782","","j","psychophysics","102","350054","0.0-8.0-0.0-1.0-0.0-0.46","3","2","2","3","2","5","3","4","5","5","5","0","-1","-2","0","-2","0","0","-2","5","4","4","5","4","4","2","2","4","2","4","5","6","7","4","4","3","4","5","3","2","2","3","2","2","3","3","3","2","1","2","2","6","3","2","2","2","6","3","3","2","2","3","3","2","3","3","5","2","6","5","2","6","5","5","2","2","5","2","1","656295428198760448","夏","397","Female","[""好她"",""好我"",""坏她"",""坏我""]","[""强她"",""强我"",""弱她"",""弱我""]","","","","","","","","match","","","","","","","","","","key","j","16.65566037735849","768","428","j","true","match","img/ellipse.png","好我","好我","prac_ALT2_moral","practice_moral","","","","","","","","",""
"null","<span style='color:GreenYellow; font-size: 70px;'>正确! </span>","null","html-keyboard-response","103","350555","0.0-8.0-0.0-1.0-0.0-1.46","3","2","2","3","2","5","3","4","5","5","5","0","-1","-2","0","-2","0","0","-2","5","4","4","5","4","4","2","2","4","2","4","5","6","7","4","4","3","4","5","3","2","2","3","2","2","3","3","3","2","1","2","2","6","3","2","2","2","6","3","3","2","2","3","3","2","3","3","5","2","6","5","2","6","5","5","2","2","5","2","1","656295428198760448","夏","397","Female","[""好她"",""好我"",""坏她"",""坏我""]","[""强她"",""强我"",""弱她"",""弱我""]","","","","","","","","","","","","","","","","","","","","","","","","","","","","","","feedback_test","","","","","","","","",""
"1011","","j","psychophysics","104","352567","0.0-8.0-0.0-1.0-0.0-0.47","3","2","2","3","2","5","3","4","5","5","5","0","-1","-2","0","-2","0","0","-2","5","4","4","5","4","4","2","2","4","2","4","5","6","7","4","4","3","4","5","3","2","2","3","2","2","3","3","3","2","1","2","2","6","3","2","2","2","6","3","3","2","2","3","3","2","3","3","5","2","6","5","2","6","5","5","2","2","5","2","1","656295428198760448","夏","397","Female","[""好她"",""好我"",""坏她"",""坏我""]","[""强她"",""强我"",""弱她"",""弱我""]","","","","","","","","match","","","","","","","","","","key","j","16.658333333333335","768","428","j","true","match","img/square.png","好她","好她","prac_ALT2_moral","practice_moral","","","","","","","","",""
"null","<span style='color:GreenYellow; font-size: 70px;'>正确! </span>","null","html-keyboard-response","105","353068","0.0-8.0-0.0-1.0-0.0-1.47","3","2","2","3","2","5","3","4","5","5","5","0","-1","-2","0","-2","0","0","-2","5","4","4","5","4","4","2","2","4","2","4","5","6","7","4","4","3","4","5","3","2","2","3","2","2","3","3","3","2","1","2","2","6","3","2","2","2","6","3","3","2","2","3","3","2","3","3","5","2","6","5","2","6","5","5","2","2","5","2","1","656295428198760448","夏","397","Female","[""好她"",""好我"",""坏她"",""坏我""]","[""强她"",""强我"",""弱她"",""弱我""]","","","","","","","","","","","","","","","","","","","","","","","","","","","","","","feedback_test","","","","","","","","",""
"19323","<style>.context{color:white; font-size: 35px; line-height:40px}</style>                            <div><p class='context'>您正确回答了83% 的试次。</p><p class='context'>您的平均反应时为847毫秒。</p><p class='context'>恭喜您完成练习。按空格键进入正式实验。</p><p class='footer' style='font-size: 35px; line-height:40px;'>请在进入正式实验实验之前将您的<span style='color: lightgreen;'>食指</span>放在电脑键盘的相应键位上进行按键。</p>"," ","html-keyboard-response","106","372393","0.0-8.0-0.0-2.0","3","2","2","3","2","5","3","4","5","5","5","0","-1","-2","0","-2","0","0","-2","5","4","4","5","4","4","2","2","4","2","4","5","6","7","4","4","3","4","5","3","2","2","3","2","2","3","3","3","2","1","2","2","6","3","2","2","2","6","3","3","2","2","3","3","2","3","3","5","2","6","5","2","6","5","5","2","2","5","2","1","656295428198760448","夏","397","Female","[""好她"",""好我"",""坏她"",""坏我""]","[""强她"",""强我"",""弱她"",""弱我""]","","","","","","","","","","","","","","","","","","","","","","","","","","","","","","","","","","","","","","",""
"1609","
    <p style='color: white; font-size: 22px'>请您将手指放在按键上，准备进入正式的匹配任务。</p>
    <p> <div style = ""color: green""><按空格键进入下一阶段的匹配任务></div></p>
    "," ","html-keyboard-response","107","374004","0.0-8.0-0.0-3.0","3","2","2","3","2","5","3","4","5","5","5","0","-1","-2","0","-2","0","0","-2","5","4","4","5","4","4","2","2","4","2","4","5","6","7","4","4","3","4","5","3","2","2","3","2","2","3","3","3","2","1","2","2","6","3","2","2","2","6","3","3","2","2","3","3","2","3","3","5","2","6","5","2","6","5","5","2","2","5","2","1","656295428198760448","夏","397","Female","[""好她"",""好我"",""坏她"",""坏我""]","[""强她"",""强我"",""弱她"",""弱我""]","","","","","","","","","","","","","","","","","","","","","","","","","","","","","","","","","","","","","","",""
"773","","f","psychophysics","108","375779","0.0-8.0-0.0-4.0-0.0-0.0","3","2","2","3","2","5","3","4","5","5","5","0","-1","-2","0","-2","0","0","-2","5","4","4","5","4","4","2","2","4","2","4","5","6","7","4","4","3","4","5","3","2","2","3","2","2","3","3","3","2","1","2","2","6","3","2","2","2","6","3","3","2","2","3","3","2","3","3","5","2","6","5","2","6","5","5","2","2","5","2","1","656295428198760448","夏","397","Female","[""好她"",""好我"",""坏她"",""坏我""]","[""强她"",""强我"",""弱她"",""弱我""]","","","","","","","","nonmatch","","","","","","","","","","key","f","16.664150943396447","768","428","f","true","nonmatch","img/hexagon.png","好她","坏我","ALT2","moral","","","","","","","","",""
"null","<span style='color:GreenYellow; font-size: 70px;'>正确! </span>","null","html-keyboard-response","109","376281","0.0-8.0-0.0-4.0-0.0-1.0","3","2","2","3","2","5","3","4","5","5","5","0","-1","-2","0","-2","0","0","-2","5","4","4","5","4","4","2","2","4","2","4","5","6","7","4","4","3","4","5","3","2","2","3","2","2","3","3","3","2","1","2","2","6","3","2","2","2","6","3","3","2","2","3","3","2","3","3","5","2","6","5","2","6","5","5","2","2","5","2","1","656295428198760448","夏","397","Female","[""好她"",""好我"",""坏她"",""坏我""]","[""强她"",""强我"",""弱她"",""弱我""]","","","","","","","","","","","","","","","","","","","","","","","","","","","","","","feedback_test","","","","","","","","",""
"952","","f","psychophysics","110","378235","0.0-8.0-0.0-4.0-0.0-0.1","3","2","2","3","2","5","3","4","5","5","5","0","-1","-2","0","-2","0","0","-2","5","4","4","5","4","4","2","2","4","2","4","5","6","7","4","4","3","4","5","3","2","2","3","2","2","3","3","3","2","1","2","2","6","3","2","2","2","6","3","3","2","2","3","3","2","3","3","5","2","6","5","2","6","5","5","2","2","5","2","1","656295428198760448","夏","397","Female","[""好她"",""好我"",""坏她"",""坏我""]","[""强她"",""强我"",""弱她"",""弱我""]","","","","","","","","nonmatch","","","","","","","","","","key","f","16.661206896551825","768","428","f","true","nonmatch","img/hexagon.png","好我","坏我","ALT2","moral","","","","","","","","",""
"null","<span style='color:GreenYellow; font-size: 70px;'>正确! </span>","null","html-keyboard-response","111","378735","0.0-8.0-0.0-4.0-0.0-1.1","3","2","2","3","2","5","3","4","5","5","5","0","-1","-2","0","-2","0","0","-2","5","4","4","5","4","4","2","2","4","2","4","5","6","7","4","4","3","4","5","3","2","2","3","2","2","3","3","3","2","1","2","2","6","3","2","2","2","6","3","3","2","2","3","3","2","3","3","5","2","6","5","2","6","5","5","2","2","5","2","1","656295428198760448","夏","397","Female","[""好她"",""好我"",""坏她"",""坏我""]","[""强她"",""强我"",""弱她"",""弱我""]","","","","","","","","","","","","","","","","","","","","","","","","","","","","","","feedback_test","","","","","","","","",""
"877","","j","psychophysics","112","380614","0.0-8.0-0.0-4.0-0.0-0.2","3","2","2","3","2","5","3","4","5","5","5","0","-1","-2","0","-2","0","0","-2","5","4","4","5","4","4","2","2","4","2","4","5","6","7","4","4","3","4","5","3","2","2","3","2","2","3","3","3","2","1","2","2","6","3","2","2","2","6","3","3","2","2","3","3","2","3","3","5","2","6","5","2","6","5","5","2","2","5","2","1","656295428198760448","夏","397","Female","[""好她"",""好我"",""坏她"",""坏我""]","[""强她"",""强我"",""弱她"",""弱我""]","","","","","","","","match","","","","","","","","","","key","j","16.661607142857456","768","428","j","true","match","img/square.png","好她","好她","ALT2","moral","","","","","","","","",""
"null","<span style='color:GreenYellow; font-size: 70px;'>正确! </span>","null","html-keyboard-response","113","381115","0.0-8.0-0.0-4.0-0.0-1.2","3","2","2","3","2","5","3","4","5","5","5","0","-1","-2","0","-2","0","0","-2","5","4","4","5","4","4","2","2","4","2","4","5","6","7","4","4","3","4","5","3","2","2","3","2","2","3","3","3","2","1","2","2","6","3","2","2","2","6","3","3","2","2","3","3","2","3","3","5","2","6","5","2","6","5","5","2","2","5","2","1","656295428198760448","夏","397","Female","[""好她"",""好我"",""坏她"",""坏我""]","[""强她"",""强我"",""弱她"",""弱我""]","","","","","","","","","","","","","","","","","","","","","","","","","","","","","","feedback_test","","","","","","","","",""
"741","","f","psychophysics","114","382858","0.0-8.0-0.0-4.0-0.0-0.3","3","2","2","3","2","5","3","4","5","5","5","0","-1","-2","0","-2","0","0","-2","5","4","4","5","4","4","2","2","4","2","4","5","6","7","4","4","3","4","5","3","2","2","3","2","2","3","3","3","2","1","2","2","6","3","2","2","2","6","3","3","2","2","3","3","2","3","3","5","2","6","5","2","6","5","5","2","2","5","2","1","656295428198760448","夏","397","Female","[""好她"",""好我"",""坏她"",""坏我""]","[""强她"",""强我"",""弱她"",""弱我""]","","","","","","","","nonmatch","","","","","","","","","","key","f","16.66153846153891","768","428","f","true","nonmatch","img/ellipse.png","坏她","好我","ALT2","moral","","","","","","","","",""
"null","<span style='color:GreenYellow; font-size: 70px;'>正确! </span>","null","html-keyboard-response","115","383359","0.0-8.0-0.0-4.0-0.0-1.3","3","2","2","3","2","5","3","4","5","5","5","0","-1","-2","0","-2","0","0","-2","5","4","4","5","4","4","2","2","4","2","4","5","6","7","4","4","3","4","5","3","2","2","3","2","2","3","3","3","2","1","2","2","6","3","2","2","2","6","3","3","2","2","3","3","2","3","3","5","2","6","5","2","6","5","5","2","2","5","2","1","656295428198760448","夏","397","Female","[""好她"",""好我"",""坏她"",""坏我""]","[""强她"",""强我"",""弱她"",""弱我""]","","","","","","","","","","","","","","","","","","","","","","","","","","","","","","feedback_test","","","","","","","","",""
"932","","f","psychophysics","116","385292","0.0-8.0-0.0-4.0-0.0-0.4","3","2","2","3","2","5","3","4","5","5","5","0","-1","-2","0","-2","0","0","-2","5","4","4","5","4","4","2","2","4","2","4","5","6","7","4","4","3","4","5","3","2","2","3","2","2","3","3","3","2","1","2","2","6","3","2","2","2","6","3","3","2","2","3","3","2","3","3","5","2","6","5","2","6","5","5","2","2","5","2","1","656295428198760448","夏","397","Female","[""好她"",""好我"",""坏她"",""坏我""]","[""强她"",""强我"",""弱她"",""弱我""]","","","","","","","","nonmatch","","","","","","","","","","key","f","16.659999999999695","768","428","f","true","nonmatch","img/square.png","坏我","好她","ALT2","moral","","","","","","","","",""
"null","<span style='color:GreenYellow; font-size: 70px;'>正确! </span>","null","html-keyboard-response","117","385792","0.0-8.0-0.0-4.0-0.0-1.4","3","2","2","3","2","5","3","4","5","5","5","0","-1","-2","0","-2","0","0","-2","5","4","4","5","4","4","2","2","4","2","4","5","6","7","4","4","3","4","5","3","2","2","3","2","2","3","3","3","2","1","2","2","6","3","2","2","2","6","3","3","2","2","3","3","2","3","3","5","2","6","5","2","6","5","5","2","2","5","2","1","656295428198760448","夏","397","Female","[""好她"",""好我"",""坏她"",""坏我""]","[""强她"",""强我"",""弱她"",""弱我""]","","","","","","","","","","","","","","","","","","","","","","","","","","","","","","feedback_test","","","","","","","","",""
"933","","f","psychophysics","118","387727","0.0-8.0-0.0-4.0-0.0-0.5","3","2","2","3","2","5","3","4","5","5","5","0","-1","-2","0","-2","0","0","-2","5","4","4","5","4","4","2","2","4","2","4","5","6","7","4","4","3","4","5","3","2","2","3","2","2","3","3","3","2","1","2","2","6","3","2","2","2","6","3","3","2","2","3","3","2","3","3","5","2","6","5","2","6","5","5","2","2","5","2","1","656295428198760448","夏","397","Female","[""好她"",""好我"",""坏她"",""坏我""]","[""强她"",""强我"",""弱她"",""弱我""]","","","","","","","","nonmatch","","","","","","","","","","key","f","16.660869565217393","768","428","f","true","nonmatch","img/square.png","坏她","好她","ALT2","moral","","","","","","","","",""
"null","<span style='color:GreenYellow; font-size: 70px;'>正确! </span>","null","html-keyboard-response","119","388228","0.0-8.0-0.0-4.0-0.0-1.5","3","2","2","3","2","5","3","4","5","5","5","0","-1","-2","0","-2","0","0","-2","5","4","4","5","4","4","2","2","4","2","4","5","6","7","4","4","3","4","5","3","2","2","3","2","2","3","3","3","2","1","2","2","6","3","2","2","2","6","3","3","2","2","3","3","2","3","3","5","2","6","5","2","6","5","5","2","2","5","2","1","656295428198760448","夏","397","Female","[""好她"",""好我"",""坏她"",""坏我""]","[""强她"",""强我"",""弱她"",""弱我""]","","","","","","","","","","","","","","","","","","","","","","","","","","","","","","feedback_test","","","","","","","","",""
"803","","f","psychophysics","120","390034","0.0-8.0-0.0-4.0-0.0-0.6","3","2","2","3","2","5","3","4","5","5","5","0","-1","-2","0","-2","0","0","-2","5","4","4","5","4","4","2","2","4","2","4","5","6","7","4","4","3","4","5","3","2","2","3","2","2","3","3","3","2","1","2","2","6","3","2","2","2","6","3","3","2","2","3","3","2","3","3","5","2","6","5","2","6","5","5","2","2","5","2","1","656295428198760448","夏","397","Female","[""好她"",""好我"",""坏她"",""坏我""]","[""强她"",""强我"",""弱她"",""弱我""]","","","","","","","","nonmatch","","","","","","","","","","key","f","16.6588785046729","768","428","f","true","nonmatch","img/diamond.png","坏我","坏她","ALT2","moral","","","","","","","","",""
"null","<span style='color:GreenYellow; font-size: 70px;'>正确! </span>","null","html-keyboard-response","121","390534","0.0-8.0-0.0-4.0-0.0-1.6","3","2","2","3","2","5","3","4","5","5","5","0","-1","-2","0","-2","0","0","-2","5","4","4","5","4","4","2","2","4","2","4","5","6","7","4","4","3","4","5","3","2","2","3","2","2","3","3","3","2","1","2","2","6","3","2","2","2","6","3","3","2","2","3","3","2","3","3","5","2","6","5","2","6","5","5","2","2","5","2","1","656295428198760448","夏","397","Female","[""好她"",""好我"",""坏她"",""坏我""]","[""强她"",""强我"",""弱她"",""弱我""]","","","","","","","","","","","","","","","","","","","","","","","","","","","","","","feedback_test","","","","","","","","",""
"807","","j","psychophysics","122","392343","0.0-8.0-0.0-4.0-0.0-0.7","3","2","2","3","2","5","3","4","5","5","5","0","-1","-2","0","-2","0","0","-2","5","4","4","5","4","4","2","2","4","2","4","5","6","7","4","4","3","4","5","3","2","2","3","2","2","3","3","3","2","1","2","2","6","3","2","2","2","6","3","3","2","2","3","3","2","3","3","5","2","6","5","2","6","5","5","2","2","5","2","1","656295428198760448","夏","397","Female","[""好她"",""好我"",""坏她"",""坏我""]","[""强她"",""强我"",""弱她"",""弱我""]","","","","","","","","match","","","","","","","","","","key","j","16.661111111111328","768","428","j","true","match","img/hexagon.png","坏我","坏我","ALT2","moral","","","","","","","","",""
"null","<span style='color:GreenYellow; font-size: 70px;'>正确! </span>","null","html-keyboard-response","123","392844","0.0-8.0-0.0-4.0-0.0-1.7","3","2","2","3","2","5","3","4","5","5","5","0","-1","-2","0","-2","0","0","-2","5","4","4","5","4","4","2","2","4","2","4","5","6","7","4","4","3","4","5","3","2","2","3","2","2","3","3","3","2","1","2","2","6","3","2","2","2","6","3","3","2","2","3","3","2","3","3","5","2","6","5","2","6","5","5","2","2","5","2","1","656295428198760448","夏","397","Female","[""好她"",""好我"",""坏她"",""坏我""]","[""强她"",""强我"",""弱她"",""弱我""]","","","","","","","","","","","","","","","","","","","","","","","","","","","","","","feedback_test","","","","","","","","",""
"721","","f","psychophysics","124","394566","0.0-8.0-0.0-4.0-0.0-0.8","3","2","2","3","2","5","3","4","5","5","5","0","-1","-2","0","-2","0","0","-2","5","4","4","5","4","4","2","2","4","2","4","5","6","7","4","4","3","4","5","3","2","2","3","2","2","3","3","3","2","1","2","2","6","3","2","2","2","6","3","3","2","2","3","3","2","3","3","5","2","6","5","2","6","5","5","2","2","5","2","1","656295428198760448","夏","397","Female","[""好她"",""好我"",""坏她"",""坏我""]","[""强她"",""强我"",""弱她"",""弱我""]","","","","","","","","nonmatch","","","","","","","","","","key","f","16.659803921569083","768","428","f","true","nonmatch","img/diamond.png","好我","坏她","ALT2","moral","","","","","","","","",""
"null","<span style='color:GreenYellow; font-size: 70px;'>正确! </span>","null","html-keyboard-response","125","395067","0.0-8.0-0.0-4.0-0.0-1.8","3","2","2","3","2","5","3","4","5","5","5","0","-1","-2","0","-2","0","0","-2","5","4","4","5","4","4","2","2","4","2","4","5","6","7","4","4","3","4","5","3","2","2","3","2","2","3","3","3","2","1","2","2","6","3","2","2","2","6","3","3","2","2","3","3","2","3","3","5","2","6","5","2","6","5","5","2","2","5","2","1","656295428198760448","夏","397","Female","[""好她"",""好我"",""坏她"",""坏我""]","[""强她"",""强我"",""弱她"",""弱我""]","","","","","","","","","","","","","","","","","","","","","","","","","","","","","","feedback_test","","","","","","","","",""
"666","","j","psychophysics","126","396735","0.0-8.0-0.0-4.0-0.0-0.9","3","2","2","3","2","5","3","4","5","5","5","0","-1","-2","0","-2","0","0","-2","5","4","4","5","4","4","2","2","4","2","4","5","6","7","4","4","3","4","5","3","2","2","3","2","2","3","3","3","2","1","2","2","6","3","2","2","2","6","3","3","2","2","3","3","2","3","3","5","2","6","5","2","6","5","5","2","2","5","2","1","656295428198760448","夏","397","Female","[""好她"",""好我"",""坏她"",""坏我""]","[""强她"",""强我"",""弱她"",""弱我""]","","","","","","","","match","","","","","","","","","","key","j","16.64545454545478","768","428","j","true","match","img/diamond.png","坏她","坏她","ALT2","moral","","","","","","","","",""
"null","<span style='color:GreenYellow; font-size: 70px;'>正确! </span>","null","html-keyboard-response","127","397237","0.0-8.0-0.0-4.0-0.0-1.9","3","2","2","3","2","5","3","4","5","5","5","0","-1","-2","0","-2","0","0","-2","5","4","4","5","4","4","2","2","4","2","4","5","6","7","4","4","3","4","5","3","2","2","3","2","2","3","3","3","2","1","2","2","6","3","2","2","2","6","3","3","2","2","3","3","2","3","3","5","2","6","5","2","6","5","5","2","2","5","2","1","656295428198760448","夏","397","Female","[""好她"",""好我"",""坏她"",""坏我""]","[""强她"",""强我"",""弱她"",""弱我""]","","","","","","","","","","","","","","","","","","","","","","","","","","","","","","feedback_test","","","","","","","","",""
"630","","j","psychophysics","128","398869","0.0-8.0-0.0-4.0-0.0-0.10","3","2","2","3","2","5","3","4","5","5","5","0","-1","-2","0","-2","0","0","-2","5","4","4","5","4","4","2","2","4","2","4","5","6","7","4","4","3","4","5","3","2","2","3","2","2","3","3","3","2","1","2","2","6","3","2","2","2","6","3","3","2","2","3","3","2","3","3","5","2","6","5","2","6","5","5","2","2","5","2","1","656295428198760448","夏","397","Female","[""好她"",""好我"",""坏她"",""坏我""]","[""强她"",""强我"",""弱她"",""弱我""]","","","","","","","","match","","","","","","","","","","key","j","16.660824742268403","768","428","j","true","match","img/hexagon.png","坏我","坏我","ALT2","moral","","","","","","","","",""
"null","<span style='color:GreenYellow; font-size: 70px;'>正确! </span>","null","html-keyboard-response","129","399370","0.0-8.0-0.0-4.0-0.0-1.10","3","2","2","3","2","5","3","4","5","5","5","0","-1","-2","0","-2","0","0","-2","5","4","4","5","4","4","2","2","4","2","4","5","6","7","4","4","3","4","5","3","2","2","3","2","2","3","3","3","2","1","2","2","6","3","2","2","2","6","3","3","2","2","3","3","2","3","3","5","2","6","5","2","6","5","5","2","2","5","2","1","656295428198760448","夏","397","Female","[""好她"",""好我"",""坏她"",""坏我""]","[""强她"",""强我"",""弱她"",""弱我""]","","","","","","","","","","","","","","","","","","","","","","","","","","","","","","feedback_test","","","","","","","","",""
"533","","j","psychophysics","130","400904","0.0-8.0-0.0-4.0-0.0-0.11","3","2","2","3","2","5","3","4","5","5","5","0","-1","-2","0","-2","0","0","-2","5","4","4","5","4","4","2","2","4","2","4","5","6","7","4","4","3","4","5","3","2","2","3","2","2","3","3","3","2","1","2","2","6","3","2","2","2","6","3","3","2","2","3","3","2","3","3","5","2","6","5","2","6","5","5","2","2","5","2","1","656295428198760448","夏","397","Female","[""好她"",""好我"",""坏她"",""坏我""]","[""强她"",""强我"",""弱她"",""弱我""]","","","","","","","","match","","","","","","","","","","key","j","16.660439560439304","768","428","j","true","match","img/hexagon.png","坏我","坏我","ALT2","moral","","","","","","","","",""
"null","<span style='color:GreenYellow; font-size: 70px;'>正确! </span>","null","html-keyboard-response","131","401405","0.0-8.0-0.0-4.0-0.0-1.11","3","2","2","3","2","5","3","4","5","5","5","0","-1","-2","0","-2","0","0","-2","5","4","4","5","4","4","2","2","4","2","4","5","6","7","4","4","3","4","5","3","2","2","3","2","2","3","3","3","2","1","2","2","6","3","2","2","2","6","3","3","2","2","3","3","2","3","3","5","2","6","5","2","6","5","5","2","2","5","2","1","656295428198760448","夏","397","Female","[""好她"",""好我"",""坏她"",""坏我""]","[""强她"",""强我"",""弱她"",""弱我""]","","","","","","","","","","","","","","","","","","","","","","","","","","","","","","feedback_test","","","","","","","","",""
"805","","f","psychophysics","132","403211","0.0-8.0-0.0-4.0-0.0-0.12","3","2","2","3","2","5","3","4","5","5","5","0","-1","-2","0","-2","0","0","-2","5","4","4","5","4","4","2","2","4","2","4","5","6","7","4","4","3","4","5","3","2","2","3","2","2","3","3","3","2","1","2","2","6","3","2","2","2","6","3","3","2","2","3","3","2","3","3","5","2","6","5","2","6","5","5","2","2","5","2","1","656295428198760448","夏","397","Female","[""好她"",""好我"",""坏她"",""坏我""]","[""强她"",""强我"",""弱她"",""弱我""]","","","","","","","","nonmatch","","","","","","","","","","key","f","16.66074766355151","768","428","f","true","nonmatch","img/ellipse.png","好她","好我","ALT2","moral","","","","","","","","",""
"null","<span style='color:GreenYellow; font-size: 70px;'>正确! </span>","null","html-keyboard-response","133","403724","0.0-8.0-0.0-4.0-0.0-1.12","3","2","2","3","2","5","3","4","5","5","5","0","-1","-2","0","-2","0","0","-2","5","4","4","5","4","4","2","2","4","2","4","5","6","7","4","4","3","4","5","3","2","2","3","2","2","3","3","3","2","1","2","2","6","3","2","2","2","6","3","3","2","2","3","3","2","3","3","5","2","6","5","2","6","5","5","2","2","5","2","1","656295428198760448","夏","397","Female","[""好她"",""好我"",""坏她"",""坏我""]","[""强她"",""强我"",""弱她"",""弱我""]","","","","","","","","","","","","","","","","","","","","","","","","","","","","","","feedback_test","","","","","","","","",""
"1021","","f","psychophysics","134","405746","0.0-8.0-0.0-4.0-0.0-0.13","3","2","2","3","2","5","3","4","5","5","5","0","-1","-2","0","-2","0","0","-2","5","4","4","5","4","4","2","2","4","2","4","5","6","7","4","4","3","4","5","3","2","2","3","2","2","3","3","3","2","1","2","2","6","3","2","2","2","6","3","3","2","2","3","3","2","3","3","5","2","6","5","2","6","5","5","2","2","5","2","1","656295428198760448","夏","397","Female","[""好她"",""好我"",""坏她"",""坏我""]","[""强她"",""强我"",""弱她"",""弱我""]","","","","","","","","nonmatch","","","","","","","","","","key","f","16.661666666666374","768","428","f","true","nonmatch","img/square.png","好我","好她","ALT2","moral","","","","","","","","",""
"null","<span style='color:GreenYellow; font-size: 70px;'>正确! </span>","null","html-keyboard-response","135","406248","0.0-8.0-0.0-4.0-0.0-1.13","3","2","2","3","2","5","3","4","5","5","5","0","-1","-2","0","-2","0","0","-2","5","4","4","5","4","4","2","2","4","2","4","5","6","7","4","4","3","4","5","3","2","2","3","2","2","3","3","3","2","1","2","2","6","3","2","2","2","6","3","3","2","2","3","3","2","3","3","5","2","6","5","2","6","5","5","2","2","5","2","1","656295428198760448","夏","397","Female","[""好她"",""好我"",""坏她"",""坏我""]","[""强她"",""强我"",""弱她"",""弱我""]","","","","","","","","","","","","","","","","","","","","","","","","","","","","","","feedback_test","","","","","","","","",""
"972","","f","psychophysics","136","408220","0.0-8.0-0.0-4.0-0.0-0.14","3","2","2","3","2","5","3","4","5","5","5","0","-1","-2","0","-2","0","0","-2","5","4","4","5","4","4","2","2","4","2","4","5","6","7","4","4","3","4","5","3","2","2","3","2","2","3","3","3","2","1","2","2","6","3","2","2","2","6","3","3","2","2","3","3","2","3","3","5","2","6","5","2","6","5","5","2","2","5","2","1","656295428198760448","夏","397","Female","[""好她"",""好我"",""坏她"",""坏我""]","[""强她"",""强我"",""弱她"",""弱我""]","","","","","","","","nonmatch","","","","","","","","","","key","f","16.662393162393162","768","428","j","false","match","img/ellipse.png","好我","好我","ALT2","moral","","","","","","","","",""
"null","<span style='color:red; font-size: 70px;'>错误! </span>","null","html-keyboard-response","137","408722","0.0-8.0-0.0-4.0-0.0-1.14","3","2","2","3","2","5","3","4","5","5","5","0","-1","-2","0","-2","0","0","-2","5","4","4","5","4","4","2","2","4","2","4","5","6","7","4","4","3","4","5","3","2","2","3","2","2","3","3","3","2","1","2","2","6","3","2","2","2","6","3","3","2","2","3","3","2","3","3","5","2","6","5","2","6","5","5","2","2","5","2","1","656295428198760448","夏","397","Female","[""好她"",""好我"",""坏她"",""坏我""]","[""强她"",""强我"",""弱她"",""弱我""]","","","","","","","","","","","","","","","","","","","","","","","","","","","","","","feedback_test","","","","","","","","",""
