"rt","stimulus","response","trial_type","trial_index","time_elapsed","internal_node_id","swb_1","swb_2","swb_3","swb_4","swb_5","LOT_1","LOT_2","LOT_3","LOT_4","LOT_5","LOT_6","IPC_1","IPC_2","IPC_3","IPC_4","IPC_5","IPC_6","IPC_7","IPC_8","MorIden_1","MorIden_2","MorIden_3","MorIden_4","MorIden_5","MorIden_6","MorIden_7","MorIden_8","MorIden_9","MorIden_10","moralSeImag_1","moralSeImag_2","moralSeImag_3","moralSeImag_4","moralSeImag_5","moralSeImag_6","moralSeImag_7","moralSeImag_8","moralSeImag_9","sde_1","sde_2","sde_3","sde_4","sde_5","sde_6","sde_7","sde_8","sde_9","sde_10","trap2","sde_11","sde_12","sde_13","sde_14","sde_15","sde_16","sde_17","sde_18","sde_19","sde_20","IM_1","IM_2","IM_3","IM_4","IM_5","IM_6","IM_7","IM_8","IM_9","IM_10","IM_11","IM_12","IM_13","IM_14","IM_15","IM_16","IM_17","IM_18","IM_19","IM_20","subj_idx","friend_name","ParticipantID","Sex","Word","Word2","value","success","timeout","failed_images","failed_audio","failed_video","user_agent","responses","item_order","radio_event_ids","radio_event_times","key_event_times","mouse_event_times","straightlining","zigzagging","honeypot","view_history","response_type","key_press","avg_frame_time","center_x","center_y","correct_response","correct","identity","Image","word","condition","task_id","screen_id","time_stamp","person","valence","domain","math","status","duration","question_order","trap2_item"
"2841","
   <p><div style='color:white; font-size: 25px'>您好，欢迎参加本次实验。</div></p>
   <p><div style='color:white; font-size: 25px'>为充分保障您的权利，请确保您已经知晓并同意《参与实验同意书》以及《数据公开知情同意书》。</div></p>
   <p><div style='color:white; font-size: 25px'>如果您未见过上述内容，请咨询实验员。</div></p>
   <p style='color:white; font-size: 25px'>如果您选择继续实验，则表示您已经清楚两份知情同意书的内容并同意。</p>
   <p><div style = ""color: pink;font-size:30px;"">请确保您记得day0的实验编号，您将在本次实验输入该编号，若您忘记，请咨询实验员后作答。</div></p>
   <p><div style = ""color:lightblue;font-size:25px;"">请您尽可能认真地作答，我们将依据您在各问卷和按键任务中的作答质量发放报酬。</div></p>
   <p> <div style = ""color: green""><按空格键至下页></div> </p>
   "," ","html-keyboard-response","0","2844","0.0-0.0","5","5","5","5","4","4","3","3","3","4","4","1","0","0","1","-1","0","0","1","4","3","5","5","2","3","3","3","4","4","7","8","6","8","7","5","5","7","6","4","3","3","3","4","2","5","1","5","2","1","4","2","5","6","4","4","4","3","3","4","3","4","3","5","3","6","3","4","6","5","4","6","7","4","3","5","3","4","3","5","781990149121904642","王","148","Female","[""好我"",""坏她"",""坏我"",""好她""]","[""强我"",""弱她"",""弱我"",""强她""]","","","","","","","","","","","","","","","","","","","","","","","","","","","","","","","","","","","","","","",""
"","","","call-function","1","2845","0.0-1.0-0.0","5","5","5","5","4","4","3","3","3","4","4","1","0","0","1","-1","0","0","1","4","3","5","5","2","3","3","3","4","4","7","8","6","8","7","5","5","7","6","4","3","3","3","4","2","5","1","5","2","1","4","2","5","6","4","4","4","3","3","4","3","4","3","5","3","6","3","4","6","5","4","6","7","4","3","5","3","4","3","5","781990149121904642","王","148","Female","[""好我"",""坏她"",""坏我"",""好她""]","[""强我"",""弱她"",""弱我"",""强她""]","","","","","","","","","","","","","","","","","","","","","","","","","","","","","","","","","","","","","","",""
"12115","","[{""name"":""Sex"",""value"":""1""},{""name"":""friend_name"",""value"":""王""},{""name"":""ParticipantID"",""value"":""148""}]","survey-html-form","2","14961","0.0-1.0-1.0","5","5","5","5","4","4","3","3","3","4","4","1","0","0","1","-1","0","0","1","4","3","5","5","2","3","3","3","4","4","7","8","6","8","7","5","5","7","6","4","3","3","3","4","2","5","1","5","2","1","4","2","5","6","4","4","4","3","3","4","3","4","3","5","3","6","3","4","6","5","4","6","7","4","3","5","3","4","3","5","781990149121904642","王","148","Female","[""好我"",""坏她"",""坏我"",""好她""]","[""强我"",""弱她"",""弱我"",""强她""]","","","","","","","","","","","","","","","","","","","","","","","","","","","","","","","","","","","","","","",""
"","","","preload","3","15431","0.0-2.0","5","5","5","5","4","4","3","3","3","4","4","1","0","0","1","-1","0","0","1","4","3","5","5","2","3","3","3","4","4","7","8","6","8","7","5","5","7","6","4","3","3","3","4","2","5","1","5","2","1","4","2","5","6","4","4","4","3","3","4","3","4","3","5","3","6","3","4","6","5","4","6","7","4","3","5","3","4","3","5","781990149121904642","王","148","Female","[""好我"",""坏她"",""坏我"",""好她""]","[""强我"",""弱她"",""弱我"",""强她""]","","true","false","[]","[]","[]","","","","","","","","","","","","","","","","","","","","","","","","","","","","","","","","",""
"","","","fullscreen","4","18118","0.0-3.0","5","5","5","5","4","4","3","3","3","4","4","1","0","0","1","-1","0","0","1","4","3","5","5","2","3","3","3","4","4","7","8","6","8","7","5","5","7","6","4","3","3","3","4","2","5","1","5","2","1","4","2","5","6","4","4","4","3","3","4","3","4","3","5","3","6","3","4","6","5","4","6","7","4","3","5","3","4","3","5","781990149121904642","王","148","Female","[""好我"",""坏她"",""坏我"",""好她""]","[""强我"",""弱她"",""弱我"",""强她""]","","true","","","","","{}","","","","","","","","","","","","","","","","","","","","","","","","","","","","","","","",""
"18273.5","","{""Q01"":""5"",""Q02"":""5"",""Q03"":""5"",""Q04"":""5"",""Q05"":""4""}","survey-template","5","36394","0.0-4.0","5","5","5","5","4","4","3","3","3","4","4","1","0","0","1","-1","0","0","1","4","3","5","5","2","3","3","3","4","4","7","8","6","8","7","5","5","7","6","4","3","3","3","4","2","5","1","5","2","1","4","2","5","6","4","4","4","3","3","4","3","4","3","5","3","6","3","4","6","5","4","6","7","4","3","5","3","4","3","5","781990149121904642","王","148","Female","[""好我"",""坏她"",""坏我"",""好她""]","[""强我"",""弱她"",""弱我"",""强她""]","","","","","","","","{""Q01"":""5"",""Q02"":""5"",""Q03"":""5"",""Q04"":""5"",""Q05"":""4""}","[0,1,2,3,4]","[""Q01"",""Q02"",""Q03"",""Q04"",""Q05""]","[3194.7999999970198,4796.4000000059605,8577.40000000596,10074.90000000596,12574.70000000298]","[]","[3194.7999999970198,4796.4000000059605,6366.9000000059605,8001.79999999702,8577.40000000596,10074.90000000596,12574.70000000298,18272.59999999404]","0.8","0.25","0","","","","","","","","","","","","","","","","","","","","","","",""
"22860.59999999404","","{""Q01"":""4"",""Q02"":""3"",""Q03"":""3"",""Q04"":""3"",""Q05"":""4"",""Q06"":""4""}","survey-template","6","59259","0.0-5.0","5","5","5","5","4","4","3","3","3","4","4","1","0","0","1","-1","0","0","1","4","3","5","5","2","3","3","3","4","4","7","8","6","8","7","5","5","7","6","4","3","3","3","4","2","5","1","5","2","1","4","2","5","6","4","4","4","3","3","4","3","4","3","5","3","6","3","4","6","5","4","6","7","4","3","5","3","4","3","5","781990149121904642","王","148","Female","[""好我"",""坏她"",""坏我"",""好她""]","[""强我"",""弱她"",""弱我"",""强她""]","","","","","","","","{""Q01"":""4"",""Q02"":""3"",""Q03"":""3"",""Q04"":""3"",""Q05"":""4"",""Q06"":""4""}","[0,1,2,3,4,5]","[""Q01"",""Q02"",""Q03"",""Q04"",""Q05"",""Q06""]","[2693.0999999940395,6661.29999999702,8567.39999999106,15016.699999988079,17667.29999999702,21577.39999999106]","[]","[2693.0999999940395,6661.29999999702,8567.39999999106,15016.699999988079,17667.29999999702,21577.39999999106,22859.79999999702]","0.5","0.4","0","","","","","","","","","","","","","","","","","","","","","","",""
"25910.80000001192","","{""Q01"":""1"",""Q02"":""0"",""Q03"":""0"",""Q04"":""1"",""Q05"":""-1"",""Q06"":""0"",""Q07"":""0"",""Q08"":""1""}","survey-template","7","85172","0.0-6.0","5","5","5","5","4","4","3","3","3","4","4","1","0","0","1","-1","0","0","1","4","3","5","5","2","3","3","3","4","4","7","8","6","8","7","5","5","7","6","4","3","3","3","4","2","5","1","5","2","1","4","2","5","6","4","4","4","3","3","4","3","4","3","5","3","6","3","4","6","5","4","6","7","4","3","5","3","4","3","5","781990149121904642","王","148","Female","[""好我"",""坏她"",""坏我"",""好她""]","[""强我"",""弱她"",""弱我"",""强她""]","","","","","","","","{""Q01"":""1"",""Q02"":""0"",""Q03"":""0"",""Q04"":""1"",""Q05"":""-1"",""Q06"":""0"",""Q07"":""0"",""Q08"":""1""}","[0,1,2,3,4,5,6,7]","[""Q01"",""Q02"",""Q03"",""Q04"",""Q05"",""Q06"",""Q07"",""Q08""]","[4768.9000000059605,9663.20000000298,12011.300000011921,15231,18868.90000000596,20615.70000000298,22977.70000000298,24966.90000000596]","[]","[4768.9000000059605,8093,9663.20000000298,11546.800000011921,12011.300000011921,15231,18868.90000000596,20615.70000000298,22977.70000000298,24966.90000000596,25910]","0.5","0.5714285714285714","0","","","","","","","","","","","","","","","","","","","","","","",""
"6926","","","instructions","8","92100","0.0-7.0","5","5","5","5","4","4","3","3","3","4","4","1","0","0","1","-1","0","0","1","4","3","5","5","2","3","3","3","4","4","7","8","6","8","7","5","5","7","6","4","3","3","3","4","2","5","1","5","2","1","4","2","5","6","4","4","4","3","3","4","3","4","3","5","3","6","3","4","6","5","4","6","7","4","3","5","3","4","3","5","781990149121904642","王","148","Female","[""好我"",""坏她"",""坏我"",""好她""]","[""强我"",""弱她"",""弱我"",""强她""]","","","","","","","","","","","","","","","","","[{""page_index"":0,""viewing_time"":6925}]","","","","","","","","","","","","","","","","","","","","","",""
"38631","","","instructions","9","130732","0.0-8.0-0.0-0.0","5","5","5","5","4","4","3","3","3","4","4","1","0","0","1","-1","0","0","1","4","3","5","5","2","3","3","3","4","4","7","8","6","8","7","5","5","7","6","4","3","3","3","4","2","5","1","5","2","1","4","2","5","6","4","4","4","3","3","4","3","4","3","5","3","6","3","4","6","5","4","6","7","4","3","5","3","4","3","5","781990149121904642","王","148","Female","[""好我"",""坏她"",""坏我"",""好她""]","[""强我"",""弱她"",""弱我"",""强她""]","","","","","","","","","","","","","","","","","[{""page_index"":0,""viewing_time"":9468},{""page_index"":1,""viewing_time"":22494},{""page_index"":2,""viewing_time"":2780},{""page_index"":3,""viewing_time"":3888}]","","","","","","","","","","","","","","","","","","","","","",""
"971","","f","psychophysics","10","132711","0.0-8.0-0.0-1.0-0.0-0.0","5","5","5","5","4","4","3","3","3","4","4","1","0","0","1","-1","0","0","1","4","3","5","5","2","3","3","3","4","4","7","8","6","8","7","5","5","7","6","4","3","3","3","4","2","5","1","5","2","1","4","2","5","6","4","4","4","3","3","4","3","4","3","5","3","6","3","4","6","5","4","6","7","4","3","5","3","4","3","5","781990149121904642","王","148","Female","[""好我"",""坏她"",""坏我"",""好她""]","[""强我"",""弱她"",""弱我"",""强她""]","","","","","","","","match","","","","","","","","","","key","f","16.810367521367723","691.8918681138917","385.22521198632825","f","true","match","img/hexagon.png","好我","好我","prac_ALT2_moral","practice_moral","","","","","","","","",""
"null","<span style='color:GreenYellow; font-size: 70px;'>正确! </span>","null","html-keyboard-response","11","133217","0.0-8.0-0.0-1.0-0.0-1.0","5","5","5","5","4","4","3","3","3","4","4","1","0","0","1","-1","0","0","1","4","3","5","5","2","3","3","3","4","4","7","8","6","8","7","5","5","7","6","4","3","3","3","4","2","5","1","5","2","1","4","2","5","6","4","4","4","3","3","4","3","4","3","5","3","6","3","4","6","5","4","6","7","4","3","5","3","4","3","5","781990149121904642","王","148","Female","[""好我"",""坏她"",""坏我"",""好她""]","[""强我"",""弱她"",""弱我"",""强她""]","","","","","","","","","","","","","","","","","","","","","","","","","","","","","","feedback_test","","","","","","","","",""
"726","","f","psychophysics","12","134949","0.0-8.0-0.0-1.0-0.0-0.1","5","5","5","5","4","4","3","3","3","4","4","1","0","0","1","-1","0","0","1","4","3","5","5","2","3","3","3","4","4","7","8","6","8","7","5","5","7","6","4","3","3","3","4","2","5","1","5","2","1","4","2","5","6","4","4","4","3","3","4","3","4","3","5","3","6","3","4","6","5","4","6","7","4","3","5","3","4","3","5","781990149121904642","王","148","Female","[""好我"",""坏她"",""坏我"",""好她""]","[""强我"",""弱她"",""弱我"",""强她""]","","","","","","","","match","","","","","","","","","","key","f","16.668854368931967","691.8918681138917","385.22521198632825","j","false","nonmatch","img/ellipse.png","好我","好她","prac_ALT2_moral","practice_moral","","","","","","","","",""
"null","<span style='color:red; font-size: 70px;'>错误! </span>","null","html-keyboard-response","13","135455","0.0-8.0-0.0-1.0-0.0-1.1","5","5","5","5","4","4","3","3","3","4","4","1","0","0","1","-1","0","0","1","4","3","5","5","2","3","3","3","4","4","7","8","6","8","7","5","5","7","6","4","3","3","3","4","2","5","1","5","2","1","4","2","5","6","4","4","4","3","3","4","3","4","3","5","3","6","3","4","6","5","4","6","7","4","3","5","3","4","3","5","781990149121904642","王","148","Female","[""好我"",""坏她"",""坏我"",""好她""]","[""强我"",""弱她"",""弱我"",""强她""]","","","","","","","","","","","","","","","","","","","","","","","","","","","","","","feedback_test","","","","","","","","",""
"847","","f","psychophysics","14","137311","0.0-8.0-0.0-1.0-0.0-0.2","5","5","5","5","4","4","3","3","3","4","4","1","0","0","1","-1","0","0","1","4","3","5","5","2","3","3","3","4","4","7","8","6","8","7","5","5","7","6","4","3","3","3","4","2","5","1","5","2","1","4","2","5","6","4","4","4","3","3","4","3","4","3","5","3","6","3","4","6","5","4","6","7","4","3","5","3","4","3","5","781990149121904642","王","148","Female","[""好我"",""坏她"",""坏我"",""好她""]","[""强我"",""弱她"",""弱我"",""强她""]","","","","","","","","match","","","","","","","","","","key","f","16.668727272727253","691.8918681138917","385.22521198632825","j","false","nonmatch","img/triangle.png","好她","坏她","prac_ALT2_moral","practice_moral","","","","","","","","",""
"null","<span style='color:red; font-size: 70px;'>错误! </span>","null","html-keyboard-response","15","137817","0.0-8.0-0.0-1.0-0.0-1.2","5","5","5","5","4","4","3","3","3","4","4","1","0","0","1","-1","0","0","1","4","3","5","5","2","3","3","3","4","4","7","8","6","8","7","5","5","7","6","4","3","3","3","4","2","5","1","5","2","1","4","2","5","6","4","4","4","3","3","4","3","4","3","5","3","6","3","4","6","5","4","6","7","4","3","5","3","4","3","5","781990149121904642","王","148","Female","[""好我"",""坏她"",""坏我"",""好她""]","[""强我"",""弱她"",""弱我"",""强她""]","","","","","","","","","","","","","","","","","","","","","","","","","","","","","","feedback_test","","","","","","","","",""
"680","","j","psychophysics","16","139503","0.0-8.0-0.0-1.0-0.0-0.3","5","5","5","5","4","4","3","3","3","4","4","1","0","0","1","-1","0","0","1","4","3","5","5","2","3","3","3","4","4","7","8","6","8","7","5","5","7","6","4","3","3","3","4","2","5","1","5","2","1","4","2","5","6","4","4","4","3","3","4","3","4","3","5","3","6","3","4","6","5","4","6","7","4","3","5","3","4","3","5","781990149121904642","王","148","Female","[""好我"",""坏她"",""坏我"",""好她""]","[""强我"",""弱她"",""弱我"",""强她""]","","","","","","","","nonmatch","","","","","","","","","","key","j","16.668220000000147","691.8918681138917","385.22521198632825","j","true","nonmatch","img/hexagon.png","坏她","好我","prac_ALT2_moral","practice_moral","","","","","","","","",""
"null","<span style='color:GreenYellow; font-size: 70px;'>正确! </span>","null","html-keyboard-response","17","140008","0.0-8.0-0.0-1.0-0.0-1.3","5","5","5","5","4","4","3","3","3","4","4","1","0","0","1","-1","0","0","1","4","3","5","5","2","3","3","3","4","4","7","8","6","8","7","5","5","7","6","4","3","3","3","4","2","5","1","5","2","1","4","2","5","6","4","4","4","3","3","4","3","4","3","5","3","6","3","4","6","5","4","6","7","4","3","5","3","4","3","5","781990149121904642","王","148","Female","[""好我"",""坏她"",""坏我"",""好她""]","[""强我"",""弱她"",""弱我"",""强她""]","","","","","","","","","","","","","","","","","","","","","","","","","","","","","","feedback_test","","","","","","","","",""
"775","","j","psychophysics","18","141791","0.0-8.0-0.0-1.0-0.0-0.4","5","5","5","5","4","4","3","3","3","4","4","1","0","0","1","-1","0","0","1","4","3","5","5","2","3","3","3","4","4","7","8","6","8","7","5","5","7","6","4","3","3","3","4","2","5","1","5","2","1","4","2","5","6","4","4","4","3","3","4","3","4","3","5","3","6","3","4","6","5","4","6","7","4","3","5","3","4","3","5","781990149121904642","王","148","Female","[""好我"",""坏她"",""坏我"",""好她""]","[""强我"",""弱她"",""弱我"",""强她""]","","","","","","","","nonmatch","","","","","","","","","","key","j","16.666518867924374","691.8918681138917","385.22521198632825","j","true","nonmatch","img/triangle.png","好我","坏她","prac_ALT2_moral","practice_moral","","","","","","","","",""
"null","<span style='color:GreenYellow; font-size: 70px;'>正确! </span>","null","html-keyboard-response","19","142296","0.0-8.0-0.0-1.0-0.0-1.4","5","5","5","5","4","4","3","3","3","4","4","1","0","0","1","-1","0","0","1","4","3","5","5","2","3","3","3","4","4","7","8","6","8","7","5","5","7","6","4","3","3","3","4","2","5","1","5","2","1","4","2","5","6","4","4","4","3","3","4","3","4","3","5","3","6","3","4","6","5","4","6","7","4","3","5","3","4","3","5","781990149121904642","王","148","Female","[""好我"",""坏她"",""坏我"",""好她""]","[""强我"",""弱她"",""弱我"",""强她""]","","","","","","","","","","","","","","","","","","","","","","","","","","","","","","feedback_test","","","","","","","","",""
"911","","f","psychophysics","20","144213","0.0-8.0-0.0-1.0-0.0-0.5","5","5","5","5","4","4","3","3","3","4","4","1","0","0","1","-1","0","0","1","4","3","5","5","2","3","3","3","4","4","7","8","6","8","7","5","5","7","6","4","3","3","3","4","2","5","1","5","2","1","4","2","5","6","4","4","4","3","3","4","3","4","3","5","3","6","3","4","6","5","4","6","7","4","3","5","3","4","3","5","781990149121904642","王","148","Female","[""好我"",""坏她"",""坏我"",""好她""]","[""强我"",""弱她"",""弱我"",""强她""]","","","","","","","","match","","","","","","","","","","key","f","16.669973684210593","691.8918681138917","385.22521198632825","f","true","match","img/ellipse.png","好她","好她","prac_ALT2_moral","practice_moral","","","","","","","","",""
"null","<span style='color:GreenYellow; font-size: 70px;'>正确! </span>","null","html-keyboard-response","21","144725","0.0-8.0-0.0-1.0-0.0-1.5","5","5","5","5","4","4","3","3","3","4","4","1","0","0","1","-1","0","0","1","4","3","5","5","2","3","3","3","4","4","7","8","6","8","7","5","5","7","6","4","3","3","3","4","2","5","1","5","2","1","4","2","5","6","4","4","4","3","3","4","3","4","3","5","3","6","3","4","6","5","4","6","7","4","3","5","3","4","3","5","781990149121904642","王","148","Female","[""好我"",""坏她"",""坏我"",""好她""]","[""强我"",""弱她"",""弱我"",""强她""]","","","","","","","","","","","","","","","","","","","","","","","","","","","","","","feedback_test","","","","","","","","",""
"955","","j","psychophysics","22","146690","0.0-8.0-0.0-1.0-0.0-0.6","5","5","5","5","4","4","3","3","3","4","4","1","0","0","1","-1","0","0","1","4","3","5","5","2","3","3","3","4","4","7","8","6","8","7","5","5","7","6","4","3","3","3","4","2","5","1","5","2","1","4","2","5","6","4","4","4","3","3","4","3","4","3","5","3","6","3","4","6","5","4","6","7","4","3","5","3","4","3","5","781990149121904642","王","148","Female","[""好我"",""坏她"",""坏我"",""好她""]","[""强我"",""弱她"",""弱我"",""强她""]","","","","","","","","nonmatch","","","","","","","","","","key","j","16.6662136752138","691.8918681138917","385.22521198632825","f","false","match","img/square.png","坏我","坏我","prac_ALT2_moral","practice_moral","","","","","","","","",""
"null","<span style='color:red; font-size: 70px;'>错误! </span>","null","html-keyboard-response","23","147192","0.0-8.0-0.0-1.0-0.0-1.6","5","5","5","5","4","4","3","3","3","4","4","1","0","0","1","-1","0","0","1","4","3","5","5","2","3","3","3","4","4","7","8","6","8","7","5","5","7","6","4","3","3","3","4","2","5","1","5","2","1","4","2","5","6","4","4","4","3","3","4","3","4","3","5","3","6","3","4","6","5","4","6","7","4","3","5","3","4","3","5","781990149121904642","王","148","Female","[""好我"",""坏她"",""坏我"",""好她""]","[""强我"",""弱她"",""弱我"",""强她""]","","","","","","","","","","","","","","","","","","","","","","","","","","","","","","feedback_test","","","","","","","","",""
"916","","j","psychophysics","24","149115","0.0-8.0-0.0-1.0-0.0-0.7","5","5","5","5","4","4","3","3","3","4","4","1","0","0","1","-1","0","0","1","4","3","5","5","2","3","3","3","4","4","7","8","6","8","7","5","5","7","6","4","3","3","3","4","2","5","1","5","2","1","4","2","5","6","4","4","4","3","3","4","3","4","3","5","3","6","3","4","6","5","4","6","7","4","3","5","3","4","3","5","781990149121904642","王","148","Female","[""好我"",""坏她"",""坏我"",""好她""]","[""强我"",""弱她"",""弱我"",""强她""]","","","","","","","","nonmatch","","","","","","","","","","key","j","16.668236842105294","691.8918681138917","385.22521198632825","f","false","match","img/triangle.png","坏她","坏她","prac_ALT2_moral","practice_moral","","","","","","","","",""
"null","<span style='color:red; font-size: 70px;'>错误! </span>","null","html-keyboard-response","25","149636","0.0-8.0-0.0-1.0-0.0-1.7","5","5","5","5","4","4","3","3","3","4","4","1","0","0","1","-1","0","0","1","4","3","5","5","2","3","3","3","4","4","7","8","6","8","7","5","5","7","6","4","3","3","3","4","2","5","1","5","2","1","4","2","5","6","4","4","4","3","3","4","3","4","3","5","3","6","3","4","6","5","4","6","7","4","3","5","3","4","3","5","781990149121904642","王","148","Female","[""好我"",""坏她"",""坏我"",""好她""]","[""强我"",""弱她"",""弱我"",""强她""]","","","","","","","","","","","","","","","","","","","","","","","","","","","","","","feedback_test","","","","","","","","",""
"1068","","f","psychophysics","26","151707","0.0-8.0-0.0-1.0-0.0-0.8","5","5","5","5","4","4","3","3","3","4","4","1","0","0","1","-1","0","0","1","4","3","5","5","2","3","3","3","4","4","7","8","6","8","7","5","5","7","6","4","3","3","3","4","2","5","1","5","2","1","4","2","5","6","4","4","4","3","3","4","3","4","3","5","3","6","3","4","6","5","4","6","7","4","3","5","3","4","3","5","781990149121904642","王","148","Female","[""好我"",""坏她"",""坏我"",""好她""]","[""强我"",""弱她"",""弱我"",""强她""]","","","","","","","","match","","","","","","","","","","key","f","16.66601612903234","691.8918681138917","385.22521198632825","f","true","match","img/triangle.png","坏她","坏她","prac_ALT2_moral","practice_moral","","","","","","","","",""
"null","<span style='color:GreenYellow; font-size: 70px;'>正确! </span>","null","html-keyboard-response","27","152215","0.0-8.0-0.0-1.0-0.0-1.8","5","5","5","5","4","4","3","3","3","4","4","1","0","0","1","-1","0","0","1","4","3","5","5","2","3","3","3","4","4","7","8","6","8","7","5","5","7","6","4","3","3","3","4","2","5","1","5","2","1","4","2","5","6","4","4","4","3","3","4","3","4","3","5","3","6","3","4","6","5","4","6","7","4","3","5","3","4","3","5","781990149121904642","王","148","Female","[""好我"",""坏她"",""坏我"",""好她""]","[""强我"",""弱她"",""弱我"",""强她""]","","","","","","","","","","","","","","","","","","","","","","","","","","","","","","feedback_test","","","","","","","","",""
"920","","j","psychophysics","28","154143","0.0-8.0-0.0-1.0-0.0-0.9","5","5","5","5","4","4","3","3","3","4","4","1","0","0","1","-1","0","0","1","4","3","5","5","2","3","3","3","4","4","7","8","6","8","7","5","5","7","6","4","3","3","3","4","2","5","1","5","2","1","4","2","5","6","4","4","4","3","3","4","3","4","3","5","3","6","3","4","6","5","4","6","7","4","3","5","3","4","3","5","781990149121904642","王","148","Female","[""好我"",""坏她"",""坏我"",""好她""]","[""强我"",""弱她"",""弱我"",""强她""]","","","","","","","","nonmatch","","","","","","","","","","key","j","16.668347826086833","691.8918681138917","385.22521198632825","j","true","nonmatch","img/hexagon.png","坏我","好我","prac_ALT2_moral","practice_moral","","","","","","","","",""
"null","<span style='color:GreenYellow; font-size: 70px;'>正确! </span>","null","html-keyboard-response","29","154649","0.0-8.0-0.0-1.0-0.0-1.9","5","5","5","5","4","4","3","3","3","4","4","1","0","0","1","-1","0","0","1","4","3","5","5","2","3","3","3","4","4","7","8","6","8","7","5","5","7","6","4","3","3","3","4","2","5","1","5","2","1","4","2","5","6","4","4","4","3","3","4","3","4","3","5","3","6","3","4","6","5","4","6","7","4","3","5","3","4","3","5","781990149121904642","王","148","Female","[""好我"",""坏她"",""坏我"",""好她""]","[""强我"",""弱她"",""弱我"",""强她""]","","","","","","","","","","","","","","","","","","","","","","","","","","","","","","feedback_test","","","","","","","","",""
"739","","j","psychophysics","30","156395","0.0-8.0-0.0-1.0-0.0-0.10","5","5","5","5","4","4","3","3","3","4","4","1","0","0","1","-1","0","0","1","4","3","5","5","2","3","3","3","4","4","7","8","6","8","7","5","5","7","6","4","3","3","3","4","2","5","1","5","2","1","4","2","5","6","4","4","4","3","3","4","3","4","3","5","3","6","3","4","6","5","4","6","7","4","3","5","3","4","3","5","781990149121904642","王","148","Female","[""好我"",""坏她"",""坏我"",""好她""]","[""强我"",""弱她"",""弱我"",""强她""]","","","","","","","","nonmatch","","","","","","","","","","key","j","16.667317307692148","691.8918681138917","385.22521198632825","j","true","nonmatch","img/hexagon.png","好她","好我","prac_ALT2_moral","practice_moral","","","","","","","","",""
"null","<span style='color:GreenYellow; font-size: 70px;'>正确! </span>","null","html-keyboard-response","31","156903","0.0-8.0-0.0-1.0-0.0-1.10","5","5","5","5","4","4","3","3","3","4","4","1","0","0","1","-1","0","0","1","4","3","5","5","2","3","3","3","4","4","7","8","6","8","7","5","5","7","6","4","3","3","3","4","2","5","1","5","2","1","4","2","5","6","4","4","4","3","3","4","3","4","3","5","3","6","3","4","6","5","4","6","7","4","3","5","3","4","3","5","781990149121904642","王","148","Female","[""好我"",""坏她"",""坏我"",""好她""]","[""强我"",""弱她"",""弱我"",""强她""]","","","","","","","","","","","","","","","","","","","","","","","","","","","","","","feedback_test","","","","","","","","",""
"794","","f","psychophysics","32","158700","0.0-8.0-0.0-1.0-0.0-0.11","5","5","5","5","4","4","3","3","3","4","4","1","0","0","1","-1","0","0","1","4","3","5","5","2","3","3","3","4","4","7","8","6","8","7","5","5","7","6","4","3","3","3","4","2","5","1","5","2","1","4","2","5","6","4","4","4","3","3","4","3","4","3","5","3","6","3","4","6","5","4","6","7","4","3","5","3","4","3","5","781990149121904642","王","148","Female","[""好我"",""坏她"",""坏我"",""好她""]","[""强我"",""弱她"",""弱我"",""强她""]","","","","","","","","match","","","","","","","","","","key","f","16.668102803738257","691.8918681138917","385.22521198632825","f","true","match","img/ellipse.png","好她","好她","prac_ALT2_moral","practice_moral","","","","","","","","",""
"null","<span style='color:GreenYellow; font-size: 70px;'>正确! </span>","null","html-keyboard-response","33","159208","0.0-8.0-0.0-1.0-0.0-1.11","5","5","5","5","4","4","3","3","3","4","4","1","0","0","1","-1","0","0","1","4","3","5","5","2","3","3","3","4","4","7","8","6","8","7","5","5","7","6","4","3","3","3","4","2","5","1","5","2","1","4","2","5","6","4","4","4","3","3","4","3","4","3","5","3","6","3","4","6","5","4","6","7","4","3","5","3","4","3","5","781990149121904642","王","148","Female","[""好我"",""坏她"",""坏我"",""好她""]","[""强我"",""弱她"",""弱我"",""强她""]","","","","","","","","","","","","","","","","","","","","","","","","","","","","","","feedback_test","","","","","","","","",""
"840","","f","psychophysics","34","161056","0.0-8.0-0.0-1.0-0.0-0.12","5","5","5","5","4","4","3","3","3","4","4","1","0","0","1","-1","0","0","1","4","3","5","5","2","3","3","3","4","4","7","8","6","8","7","5","5","7","6","4","3","3","3","4","2","5","1","5","2","1","4","2","5","6","4","4","4","3","3","4","3","4","3","5","3","6","3","4","6","5","4","6","7","4","3","5","3","4","3","5","781990149121904642","王","148","Female","[""好我"",""坏她"",""坏我"",""好她""]","[""强我"",""弱她"",""弱我"",""强她""]","","","","","","","","match","","","","","","","","","","key","f","16.666999999999813","691.8918681138917","385.22521198632825","f","true","match","img/hexagon.png","好我","好我","prac_ALT2_moral","practice_moral","","","","","","","","",""
"null","<span style='color:GreenYellow; font-size: 70px;'>正确! </span>","null","html-keyboard-response","35","161560","0.0-8.0-0.0-1.0-0.0-1.12","5","5","5","5","4","4","3","3","3","4","4","1","0","0","1","-1","0","0","1","4","3","5","5","2","3","3","3","4","4","7","8","6","8","7","5","5","7","6","4","3","3","3","4","2","5","1","5","2","1","4","2","5","6","4","4","4","3","3","4","3","4","3","5","3","6","3","4","6","5","4","6","7","4","3","5","3","4","3","5","781990149121904642","王","148","Female","[""好我"",""坏她"",""坏我"",""好她""]","[""强我"",""弱她"",""弱我"",""强她""]","","","","","","","","","","","","","","","","","","","","","","","","","","","","","","feedback_test","","","","","","","","",""
"622","","j","psychophysics","36","163190","0.0-8.0-0.0-1.0-0.0-0.13","5","5","5","5","4","4","3","3","3","4","4","1","0","0","1","-1","0","0","1","4","3","5","5","2","3","3","3","4","4","7","8","6","8","7","5","5","7","6","4","3","3","3","4","2","5","1","5","2","1","4","2","5","6","4","4","4","3","3","4","3","4","3","5","3","6","3","4","6","5","4","6","7","4","3","5","3","4","3","5","781990149121904642","王","148","Female","[""好我"",""坏她"",""坏我"",""好她""]","[""强我"",""弱她"",""弱我"",""强她""]","","","","","","","","nonmatch","","","","","","","","","","key","j","16.665670103092854","691.8918681138917","385.22521198632825","j","true","nonmatch","img/square.png","好我","坏我","prac_ALT2_moral","practice_moral","","","","","","","","",""
"null","<span style='color:GreenYellow; font-size: 70px;'>正确! </span>","null","html-keyboard-response","37","163695","0.0-8.0-0.0-1.0-0.0-1.13","5","5","5","5","4","4","3","3","3","4","4","1","0","0","1","-1","0","0","1","4","3","5","5","2","3","3","3","4","4","7","8","6","8","7","5","5","7","6","4","3","3","3","4","2","5","1","5","2","1","4","2","5","6","4","4","4","3","3","4","3","4","3","5","3","6","3","4","6","5","4","6","7","4","3","5","3","4","3","5","781990149121904642","王","148","Female","[""好我"",""坏她"",""坏我"",""好她""]","[""强我"",""弱她"",""弱我"",""强她""]","","","","","","","","","","","","","","","","","","","","","","","","","","","","","","feedback_test","","","","","","","","",""
"769","","j","psychophysics","38","165474","0.0-8.0-0.0-1.0-0.0-0.14","5","5","5","5","4","4","3","3","3","4","4","1","0","0","1","-1","0","0","1","4","3","5","5","2","3","3","3","4","4","7","8","6","8","7","5","5","7","6","4","3","3","3","4","2","5","1","5","2","1","4","2","5","6","4","4","4","3","3","4","3","4","3","5","3","6","3","4","6","5","4","6","7","4","3","5","3","4","3","5","781990149121904642","王","148","Female","[""好我"",""坏她"",""坏我"",""好她""]","[""强我"",""弱她"",""弱我"",""强她""]","","","","","","","","nonmatch","","","","","","","","","","key","j","16.665783018867963","691.8918681138917","385.22521198632825","f","false","match","img/square.png","坏我","坏我","prac_ALT2_moral","practice_moral","","","","","","","","",""
"null","<span style='color:red; font-size: 70px;'>错误! </span>","null","html-keyboard-response","39","165975","0.0-8.0-0.0-1.0-0.0-1.14","5","5","5","5","4","4","3","3","3","4","4","1","0","0","1","-1","0","0","1","4","3","5","5","2","3","3","3","4","4","7","8","6","8","7","5","5","7","6","4","3","3","3","4","2","5","1","5","2","1","4","2","5","6","4","4","4","3","3","4","3","4","3","5","3","6","3","4","6","5","4","6","7","4","3","5","3","4","3","5","781990149121904642","王","148","Female","[""好我"",""坏她"",""坏我"",""好她""]","[""强我"",""弱她"",""弱我"",""强她""]","","","","","","","","","","","","","","","","","","","","","","","","","","","","","","feedback_test","","","","","","","","",""
"1002","","f","psychophysics","40","167986","0.0-8.0-0.0-1.0-0.0-0.15","5","5","5","5","4","4","3","3","3","4","4","1","0","0","1","-1","0","0","1","4","3","5","5","2","3","3","3","4","4","7","8","6","8","7","5","5","7","6","4","3","3","3","4","2","5","1","5","2","1","4","2","5","6","4","4","4","3","3","4","3","4","3","5","3","6","3","4","6","5","4","6","7","4","3","5","3","4","3","5","781990149121904642","王","148","Female","[""好我"",""坏她"",""坏我"",""好她""]","[""强我"",""弱她"",""弱我"",""强她""]","","","","","","","","match","","","","","","","","","","key","f","16.666210084033693","691.8918681138917","385.22521198632825","f","true","match","img/ellipse.png","好她","好她","prac_ALT2_moral","practice_moral","","","","","","","","",""
"null","<span style='color:GreenYellow; font-size: 70px;'>正确! </span>","null","html-keyboard-response","41","168487","0.0-8.0-0.0-1.0-0.0-1.15","5","5","5","5","4","4","3","3","3","4","4","1","0","0","1","-1","0","0","1","4","3","5","5","2","3","3","3","4","4","7","8","6","8","7","5","5","7","6","4","3","3","3","4","2","5","1","5","2","1","4","2","5","6","4","4","4","3","3","4","3","4","3","5","3","6","3","4","6","5","4","6","7","4","3","5","3","4","3","5","781990149121904642","王","148","Female","[""好我"",""坏她"",""坏我"",""好她""]","[""强我"",""弱她"",""弱我"",""强她""]","","","","","","","","","","","","","","","","","","","","","","","","","","","","","","feedback_test","","","","","","","","",""
"756","","j","psychophysics","42","170245","0.0-8.0-0.0-1.0-0.0-0.16","5","5","5","5","4","4","3","3","3","4","4","1","0","0","1","-1","0","0","1","4","3","5","5","2","3","3","3","4","4","7","8","6","8","7","5","5","7","6","4","3","3","3","4","2","5","1","5","2","1","4","2","5","6","4","4","4","3","3","4","3","4","3","5","3","6","3","4","6","5","4","6","7","4","3","5","3","4","3","5","781990149121904642","王","148","Female","[""好我"",""坏她"",""坏我"",""好她""]","[""强我"",""弱她"",""弱我"",""强她""]","","","","","","","","nonmatch","","","","","","","","","","key","j","16.620884615384757","691.8918681138917","385.22521198632825","f","false","match","img/triangle.png","坏她","坏她","prac_ALT2_moral","practice_moral","","","","","","","","",""
"null","<span style='color:red; font-size: 70px;'>错误! </span>","null","html-keyboard-response","43","170752","0.0-8.0-0.0-1.0-0.0-1.16","5","5","5","5","4","4","3","3","3","4","4","1","0","0","1","-1","0","0","1","4","3","5","5","2","3","3","3","4","4","7","8","6","8","7","5","5","7","6","4","3","3","3","4","2","5","1","5","2","1","4","2","5","6","4","4","4","3","3","4","3","4","3","5","3","6","3","4","6","5","4","6","7","4","3","5","3","4","3","5","781990149121904642","王","148","Female","[""好我"",""坏她"",""坏我"",""好她""]","[""强我"",""弱她"",""弱我"",""强她""]","","","","","","","","","","","","","","","","","","","","","","","","","","","","","","feedback_test","","","","","","","","",""
"729","","j","psychophysics","44","172486","0.0-8.0-0.0-1.0-0.0-0.17","5","5","5","5","4","4","3","3","3","4","4","1","0","0","1","-1","0","0","1","4","3","5","5","2","3","3","3","4","4","7","8","6","8","7","5","5","7","6","4","3","3","3","4","2","5","1","5","2","1","4","2","5","6","4","4","4","3","3","4","3","4","3","5","3","6","3","4","6","5","4","6","7","4","3","5","3","4","3","5","781990149121904642","王","148","Female","[""好我"",""坏她"",""坏我"",""好她""]","[""强我"",""弱她"",""弱我"",""强她""]","","","","","","","","nonmatch","","","","","","","","","","key","j","16.668747572815477","691.8918681138917","385.22521198632825","j","true","nonmatch","img/square.png","坏她","坏我","prac_ALT2_moral","practice_moral","","","","","","","","",""
"null","<span style='color:GreenYellow; font-size: 70px;'>正确! </span>","null","html-keyboard-response","45","172991","0.0-8.0-0.0-1.0-0.0-1.17","5","5","5","5","4","4","3","3","3","4","4","1","0","0","1","-1","0","0","1","4","3","5","5","2","3","3","3","4","4","7","8","6","8","7","5","5","7","6","4","3","3","3","4","2","5","1","5","2","1","4","2","5","6","4","4","4","3","3","4","3","4","3","5","3","6","3","4","6","5","4","6","7","4","3","5","3","4","3","5","781990149121904642","王","148","Female","[""好我"",""坏她"",""坏我"",""好她""]","[""强我"",""弱她"",""弱我"",""强她""]","","","","","","","","","","","","","","","","","","","","","","","","","","","","","","feedback_test","","","","","","","","",""
"648","","j","psychophysics","46","174649","0.0-8.0-0.0-1.0-0.0-0.18","5","5","5","5","4","4","3","3","3","4","4","1","0","0","1","-1","0","0","1","4","3","5","5","2","3","3","3","4","4","7","8","6","8","7","5","5","7","6","4","3","3","3","4","2","5","1","5","2","1","4","2","5","6","4","4","4","3","3","4","3","4","3","5","3","6","3","4","6","5","4","6","7","4","3","5","3","4","3","5","781990149121904642","王","148","Female","[""好我"",""坏她"",""坏我"",""好她""]","[""强我"",""弱她"",""弱我"",""强她""]","","","","","","","","nonmatch","","","","","","","","","","key","j","16.666918367347016","691.8918681138917","385.22521198632825","f","false","match","img/square.png","坏我","坏我","prac_ALT2_moral","practice_moral","","","","","","","","",""
"null","<span style='color:red; font-size: 70px;'>错误! </span>","null","html-keyboard-response","47","175151","0.0-8.0-0.0-1.0-0.0-1.18","5","5","5","5","4","4","3","3","3","4","4","1","0","0","1","-1","0","0","1","4","3","5","5","2","3","3","3","4","4","7","8","6","8","7","5","5","7","6","4","3","3","3","4","2","5","1","5","2","1","4","2","5","6","4","4","4","3","3","4","3","4","3","5","3","6","3","4","6","5","4","6","7","4","3","5","3","4","3","5","781990149121904642","王","148","Female","[""好我"",""坏她"",""坏我"",""好她""]","[""强我"",""弱她"",""弱我"",""强她""]","","","","","","","","","","","","","","","","","","","","","","","","","","","","","","feedback_test","","","","","","","","",""
"null","","null","psychophysics","48","177356","0.0-8.0-0.0-1.0-0.0-0.19","5","5","5","5","4","4","3","3","3","4","4","1","0","0","1","-1","0","0","1","4","3","5","5","2","3","3","3","4","4","7","8","6","8","7","5","5","7","6","4","3","3","3","4","2","5","1","5","2","1","4","2","5","6","4","4","4","3","3","4","3","4","3","5","3","6","3","4","6","5","4","6","7","4","3","5","3","4","3","5","781990149121904642","王","148","Female","[""好我"",""坏她"",""坏我"",""好她""]","[""强我"",""弱她"",""弱我"",""强她""]","","","","","","","","null","","","","","","","","","","key","null","16.66831297709923","691.8918681138917","385.22521198632825","j","false","nonmatch","img/ellipse.png","坏她","好她","prac_ALT2_moral","practice_moral","","","","","","","","",""
"null","<span class='add_' style='color:yellow; font-size: 70px;'> 太慢! </span>","null","html-keyboard-response","49","177864","0.0-8.0-0.0-1.0-0.0-1.19","5","5","5","5","4","4","3","3","3","4","4","1","0","0","1","-1","0","0","1","4","3","5","5","2","3","3","3","4","4","7","8","6","8","7","5","5","7","6","4","3","3","3","4","2","5","1","5","2","1","4","2","5","6","4","4","4","3","3","4","3","4","3","5","3","6","3","4","6","5","4","6","7","4","3","5","3","4","3","5","781990149121904642","王","148","Female","[""好我"",""坏她"",""坏我"",""好她""]","[""强我"",""弱她"",""弱我"",""强她""]","","","","","","","","","","","","","","","","","","","","","","","","","","","","","","feedback_test","","","","","","","","",""
"689","","f","psychophysics","50","179560","0.0-8.0-0.0-1.0-0.0-0.20","5","5","5","5","4","4","3","3","3","4","4","1","0","0","1","-1","0","0","1","4","3","5","5","2","3","3","3","4","4","7","8","6","8","7","5","5","7","6","4","3","3","3","4","2","5","1","5","2","1","4","2","5","6","4","4","4","3","3","4","3","4","3","5","3","6","3","4","6","5","4","6","7","4","3","5","3","4","3","5","781990149121904642","王","148","Female","[""好我"",""坏她"",""坏我"",""好她""]","[""强我"",""弱她"",""弱我"",""强她""]","","","","","","","","match","","","","","","","","","","key","f","16.666267326732726","691.8918681138917","385.22521198632825","f","true","match","img/hexagon.png","好我","好我","prac_ALT2_moral","practice_moral","","","","","","","","",""
"null","<span style='color:GreenYellow; font-size: 70px;'>正确! </span>","null","html-keyboard-response","51","180064","0.0-8.0-0.0-1.0-0.0-1.20","5","5","5","5","4","4","3","3","3","4","4","1","0","0","1","-1","0","0","1","4","3","5","5","2","3","3","3","4","4","7","8","6","8","7","5","5","7","6","4","3","3","3","4","2","5","1","5","2","1","4","2","5","6","4","4","4","3","3","4","3","4","3","5","3","6","3","4","6","5","4","6","7","4","3","5","3","4","3","5","781990149121904642","王","148","Female","[""好我"",""坏她"",""坏我"",""好她""]","[""强我"",""弱她"",""弱我"",""强她""]","","","","","","","","","","","","","","","","","","","","","","","","","","","","","","feedback_test","","","","","","","","",""
"890","","j","psychophysics","52","181961","0.0-8.0-0.0-1.0-0.0-0.21","5","5","5","5","4","4","3","3","3","4","4","1","0","0","1","-1","0","0","1","4","3","5","5","2","3","3","3","4","4","7","8","6","8","7","5","5","7","6","4","3","3","3","4","2","5","1","5","2","1","4","2","5","6","4","4","4","3","3","4","3","4","3","5","3","6","3","4","6","5","4","6","7","4","3","5","3","4","3","5","781990149121904642","王","148","Female","[""好我"",""坏她"",""坏我"",""好她""]","[""强我"",""弱她"",""弱我"",""强她""]","","","","","","","","nonmatch","","","","","","","","","","key","j","16.668035398230195","691.8918681138917","385.22521198632825","j","true","nonmatch","img/ellipse.png","坏我","好她","prac_ALT2_moral","practice_moral","","","","","","","","",""
"null","<span style='color:GreenYellow; font-size: 70px;'>正确! </span>","null","html-keyboard-response","53","182464","0.0-8.0-0.0-1.0-0.0-1.21","5","5","5","5","4","4","3","3","3","4","4","1","0","0","1","-1","0","0","1","4","3","5","5","2","3","3","3","4","4","7","8","6","8","7","5","5","7","6","4","3","3","3","4","2","5","1","5","2","1","4","2","5","6","4","4","4","3","3","4","3","4","3","5","3","6","3","4","6","5","4","6","7","4","3","5","3","4","3","5","781990149121904642","王","148","Female","[""好我"",""坏她"",""坏我"",""好她""]","[""强我"",""弱她"",""弱我"",""强她""]","","","","","","","","","","","","","","","","","","","","","","","","","","","","","","feedback_test","","","","","","","","",""
"835","","j","psychophysics","54","184306","0.0-8.0-0.0-1.0-0.0-0.22","5","5","5","5","4","4","3","3","3","4","4","1","0","0","1","-1","0","0","1","4","3","5","5","2","3","3","3","4","4","7","8","6","8","7","5","5","7","6","4","3","3","3","4","2","5","1","5","2","1","4","2","5","6","4","4","4","3","3","4","3","4","3","5","3","6","3","4","6","5","4","6","7","4","3","5","3","4","3","5","781990149121904642","王","148","Female","[""好我"",""坏她"",""坏我"",""好她""]","[""强我"",""弱她"",""弱我"",""强她""]","","","","","","","","nonmatch","","","","","","","","","","key","j","16.66676363636348","691.8918681138917","385.22521198632825","j","true","nonmatch","img/triangle.png","坏我","坏她","prac_ALT2_moral","practice_moral","","","","","","","","",""
"null","<span style='color:GreenYellow; font-size: 70px;'>正确! </span>","null","html-keyboard-response","55","184808","0.0-8.0-0.0-1.0-0.0-1.22","5","5","5","5","4","4","3","3","3","4","4","1","0","0","1","-1","0","0","1","4","3","5","5","2","3","3","3","4","4","7","8","6","8","7","5","5","7","6","4","3","3","3","4","2","5","1","5","2","1","4","2","5","6","4","4","4","3","3","4","3","4","3","5","3","6","3","4","6","5","4","6","7","4","3","5","3","4","3","5","781990149121904642","王","148","Female","[""好我"",""坏她"",""坏我"",""好她""]","[""强我"",""弱她"",""弱我"",""强她""]","","","","","","","","","","","","","","","","","","","","","","","","","","","","","","feedback_test","","","","","","","","",""
"675","","j","psychophysics","56","186491","0.0-8.0-0.0-1.0-0.0-0.23","5","5","5","5","4","4","3","3","3","4","4","1","0","0","1","-1","0","0","1","4","3","5","5","2","3","3","3","4","4","7","8","6","8","7","5","5","7","6","4","3","3","3","4","2","5","1","5","2","1","4","2","5","6","4","4","4","3","3","4","3","4","3","5","3","6","3","4","6","5","4","6","7","4","3","5","3","4","3","5","781990149121904642","王","148","Female","[""好我"",""坏她"",""坏我"",""好她""]","[""强我"",""弱她"",""弱我"",""强她""]","","","","","","","","nonmatch","","","","","","","","","","key","j","16.666059999999998","691.8918681138917","385.22521198632825","j","true","nonmatch","img/square.png","好她","坏我","prac_ALT2_moral","practice_moral","","","","","","","","",""
"null","<span style='color:GreenYellow; font-size: 70px;'>正确! </span>","null","html-keyboard-response","57","186992","0.0-8.0-0.0-1.0-0.0-1.23","5","5","5","5","4","4","3","3","3","4","4","1","0","0","1","-1","0","0","1","4","3","5","5","2","3","3","3","4","4","7","8","6","8","7","5","5","7","6","4","3","3","3","4","2","5","1","5","2","1","4","2","5","6","4","4","4","3","3","4","3","4","3","5","3","6","3","4","6","5","4","6","7","4","3","5","3","4","3","5","781990149121904642","王","148","Female","[""好我"",""坏她"",""坏我"",""好她""]","[""强我"",""弱她"",""弱我"",""强她""]","","","","","","","","","","","","","","","","","","","","","","","","","","","","","","feedback_test","","","","","","","","",""
"765","","f","psychophysics","58","188765","0.0-8.0-0.0-1.0-0.0-0.24","5","5","5","5","4","4","3","3","3","4","4","1","0","0","1","-1","0","0","1","4","3","5","5","2","3","3","3","4","4","7","8","6","8","7","5","5","7","6","4","3","3","3","4","2","5","1","5","2","1","4","2","5","6","4","4","4","3","3","4","3","4","3","5","3","6","3","4","6","5","4","6","7","4","3","5","3","4","3","5","781990149121904642","王","148","Female","[""好我"",""坏她"",""坏我"",""好她""]","[""强我"",""弱她"",""弱我"",""强她""]","","","","","","","","match","","","","","","","","","","key","f","16.666009523809354","691.8918681138917","385.22521198632825","f","true","match","img/square.png","坏我","坏我","prac_ALT2_moral","practice_moral","","","","","","","","",""
"null","<span style='color:GreenYellow; font-size: 70px;'>正确! </span>","null","html-keyboard-response","59","189271","0.0-8.0-0.0-1.0-0.0-1.24","5","5","5","5","4","4","3","3","3","4","4","1","0","0","1","-1","0","0","1","4","3","5","5","2","3","3","3","4","4","7","8","6","8","7","5","5","7","6","4","3","3","3","4","2","5","1","5","2","1","4","2","5","6","4","4","4","3","3","4","3","4","3","5","3","6","3","4","6","5","4","6","7","4","3","5","3","4","3","5","781990149121904642","王","148","Female","[""好我"",""坏她"",""坏我"",""好她""]","[""强我"",""弱她"",""弱我"",""强她""]","","","","","","","","","","","","","","","","","","","","","","","","","","","","","","feedback_test","","","","","","","","",""
"734","","j","psychophysics","60","191007","0.0-8.0-0.0-1.0-0.0-0.25","5","5","5","5","4","4","3","3","3","4","4","1","0","0","1","-1","0","0","1","4","3","5","5","2","3","3","3","4","4","7","8","6","8","7","5","5","7","6","4","3","3","3","4","2","5","1","5","2","1","4","2","5","6","4","4","4","3","3","4","3","4","3","5","3","6","3","4","6","5","4","6","7","4","3","5","3","4","3","5","781990149121904642","王","148","Female","[""好我"",""坏她"",""坏我"",""好她""]","[""强我"",""弱她"",""弱我"",""强她""]","","","","","","","","nonmatch","","","","","","","","","","key","j","16.66571844660183","691.8918681138917","385.22521198632825","f","false","match","img/hexagon.png","好我","好我","prac_ALT2_moral","practice_moral","","","","","","","","",""
"null","<span style='color:red; font-size: 70px;'>错误! </span>","null","html-keyboard-response","61","191512","0.0-8.0-0.0-1.0-0.0-1.25","5","5","5","5","4","4","3","3","3","4","4","1","0","0","1","-1","0","0","1","4","3","5","5","2","3","3","3","4","4","7","8","6","8","7","5","5","7","6","4","3","3","3","4","2","5","1","5","2","1","4","2","5","6","4","4","4","3","3","4","3","4","3","5","3","6","3","4","6","5","4","6","7","4","3","5","3","4","3","5","781990149121904642","王","148","Female","[""好我"",""坏她"",""坏我"",""好她""]","[""强我"",""弱她"",""弱我"",""强她""]","","","","","","","","","","","","","","","","","","","","","","","","","","","","","","feedback_test","","","","","","","","",""
"838","","j","psychophysics","62","193358","0.0-8.0-0.0-1.0-0.0-0.26","5","5","5","5","4","4","3","3","3","4","4","1","0","0","1","-1","0","0","1","4","3","5","5","2","3","3","3","4","4","7","8","6","8","7","5","5","7","6","4","3","3","3","4","2","5","1","5","2","1","4","2","5","6","4","4","4","3","3","4","3","4","3","5","3","6","3","4","6","5","4","6","7","4","3","5","3","4","3","5","781990149121904642","王","148","Female","[""好我"",""坏她"",""坏我"",""好她""]","[""强我"",""弱她"",""弱我"",""强她""]","","","","","","","","nonmatch","","","","","","","","","","key","j","16.66927272727295","691.8918681138917","385.22521198632825","j","true","nonmatch","img/hexagon.png","好她","好我","prac_ALT2_moral","practice_moral","","","","","","","","",""
"null","<span style='color:GreenYellow; font-size: 70px;'>正确! </span>","null","html-keyboard-response","63","193863","0.0-8.0-0.0-1.0-0.0-1.26","5","5","5","5","4","4","3","3","3","4","4","1","0","0","1","-1","0","0","1","4","3","5","5","2","3","3","3","4","4","7","8","6","8","7","5","5","7","6","4","3","3","3","4","2","5","1","5","2","1","4","2","5","6","4","4","4","3","3","4","3","4","3","5","3","6","3","4","6","5","4","6","7","4","3","5","3","4","3","5","781990149121904642","王","148","Female","[""好我"",""坏她"",""坏我"",""好她""]","[""强我"",""弱她"",""弱我"",""强她""]","","","","","","","","","","","","","","","","","","","","","","","","","","","","","","feedback_test","","","","","","","","",""
"null","","null","psychophysics","64","196073","0.0-8.0-0.0-1.0-0.0-0.27","5","5","5","5","4","4","3","3","3","4","4","1","0","0","1","-1","0","0","1","4","3","5","5","2","3","3","3","4","4","7","8","6","8","7","5","5","7","6","4","3","3","3","4","2","5","1","5","2","1","4","2","5","6","4","4","4","3","3","4","3","4","3","5","3","6","3","4","6","5","4","6","7","4","3","5","3","4","3","5","781990149121904642","王","148","Female","[""好我"",""坏她"",""坏我"",""好她""]","[""强我"",""弱她"",""弱我"",""强她""]","","","","","","","","null","","","","","","","","","","key","null","16.66813740458025","691.8918681138917","385.22521198632825","j","false","nonmatch","img/square.png","坏她","坏我","prac_ALT2_moral","practice_moral","","","","","","","","",""
"null","<span class='add_' style='color:yellow; font-size: 70px;'> 太慢! </span>","null","html-keyboard-response","65","196576","0.0-8.0-0.0-1.0-0.0-1.27","5","5","5","5","4","4","3","3","3","4","4","1","0","0","1","-1","0","0","1","4","3","5","5","2","3","3","3","4","4","7","8","6","8","7","5","5","7","6","4","3","3","3","4","2","5","1","5","2","1","4","2","5","6","4","4","4","3","3","4","3","4","3","5","3","6","3","4","6","5","4","6","7","4","3","5","3","4","3","5","781990149121904642","王","148","Female","[""好我"",""坏她"",""坏我"",""好她""]","[""强我"",""弱她"",""弱我"",""强她""]","","","","","","","","","","","","","","","","","","","","","","","","","","","","","","feedback_test","","","","","","","","",""
"756","","f","psychophysics","66","198339","0.0-8.0-0.0-1.0-0.0-0.28","5","5","5","5","4","4","3","3","3","4","4","1","0","0","1","-1","0","0","1","4","3","5","5","2","3","3","3","4","4","7","8","6","8","7","5","5","7","6","4","3","3","3","4","2","5","1","5","2","1","4","2","5","6","4","4","4","3","3","4","3","4","3","5","3","6","3","4","6","5","4","6","7","4","3","5","3","4","3","5","781990149121904642","王","148","Female","[""好我"",""坏她"",""坏我"",""好她""]","[""强我"",""弱她"",""弱我"",""强她""]","","","","","","","","match","","","","","","","","","","key","f","16.66710476190478","691.8918681138917","385.22521198632825","f","true","match","img/hexagon.png","好我","好我","prac_ALT2_moral","practice_moral","","","","","","","","",""
"null","<span style='color:GreenYellow; font-size: 70px;'>正确! </span>","null","html-keyboard-response","67","198848","0.0-8.0-0.0-1.0-0.0-1.28","5","5","5","5","4","4","3","3","3","4","4","1","0","0","1","-1","0","0","1","4","3","5","5","2","3","3","3","4","4","7","8","6","8","7","5","5","7","6","4","3","3","3","4","2","5","1","5","2","1","4","2","5","6","4","4","4","3","3","4","3","4","3","5","3","6","3","4","6","5","4","6","7","4","3","5","3","4","3","5","781990149121904642","王","148","Female","[""好我"",""坏她"",""坏我"",""好她""]","[""强我"",""弱她"",""弱我"",""强她""]","","","","","","","","","","","","","","","","","","","","","","","","","","","","","","feedback_test","","","","","","","","",""
"920","","j","psychophysics","68","200775","0.0-8.0-0.0-1.0-0.0-0.29","5","5","5","5","4","4","3","3","3","4","4","1","0","0","1","-1","0","0","1","4","3","5","5","2","3","3","3","4","4","7","8","6","8","7","5","5","7","6","4","3","3","3","4","2","5","1","5","2","1","4","2","5","6","4","4","4","3","3","4","3","4","3","5","3","6","3","4","6","5","4","6","7","4","3","5","3","4","3","5","781990149121904642","王","148","Female","[""好我"",""坏她"",""坏我"",""好她""]","[""强我"",""弱她"",""弱我"",""强她""]","","","","","","","","nonmatch","","","","","","","","","","key","j","16.668043478260717","691.8918681138917","385.22521198632825","f","false","match","img/triangle.png","坏她","坏她","prac_ALT2_moral","practice_moral","","","","","","","","",""
"null","<span style='color:red; font-size: 70px;'>错误! </span>","null","html-keyboard-response","69","201280","0.0-8.0-0.0-1.0-0.0-1.29","5","5","5","5","4","4","3","3","3","4","4","1","0","0","1","-1","0","0","1","4","3","5","5","2","3","3","3","4","4","7","8","6","8","7","5","5","7","6","4","3","3","3","4","2","5","1","5","2","1","4","2","5","6","4","4","4","3","3","4","3","4","3","5","3","6","3","4","6","5","4","6","7","4","3","5","3","4","3","5","781990149121904642","王","148","Female","[""好我"",""坏她"",""坏我"",""好她""]","[""强我"",""弱她"",""弱我"",""强她""]","","","","","","","","","","","","","","","","","","","","","","","","","","","","","","feedback_test","","","","","","","","",""
"711","","j","psychophysics","70","202999","0.0-8.0-0.0-1.0-0.0-0.30","5","5","5","5","4","4","3","3","3","4","4","1","0","0","1","-1","0","0","1","4","3","5","5","2","3","3","3","4","4","7","8","6","8","7","5","5","7","6","4","3","3","3","4","2","5","1","5","2","1","4","2","5","6","4","4","4","3","3","4","3","4","3","5","3","6","3","4","6","5","4","6","7","4","3","5","3","4","3","5","781990149121904642","王","148","Female","[""好我"",""坏她"",""坏我"",""好她""]","[""强我"",""弱她"",""弱我"",""强她""]","","","","","","","","nonmatch","","","","","","","","","","key","j","16.66863725490197","691.8918681138917","385.22521198632825","j","true","nonmatch","img/square.png","好她","坏我","prac_ALT2_moral","practice_moral","","","","","","","","",""
"null","<span style='color:GreenYellow; font-size: 70px;'>正确! </span>","null","html-keyboard-response","71","203504","0.0-8.0-0.0-1.0-0.0-1.30","5","5","5","5","4","4","3","3","3","4","4","1","0","0","1","-1","0","0","1","4","3","5","5","2","3","3","3","4","4","7","8","6","8","7","5","5","7","6","4","3","3","3","4","2","5","1","5","2","1","4","2","5","6","4","4","4","3","3","4","3","4","3","5","3","6","3","4","6","5","4","6","7","4","3","5","3","4","3","5","781990149121904642","王","148","Female","[""好我"",""坏她"",""坏我"",""好她""]","[""强我"",""弱她"",""弱我"",""强她""]","","","","","","","","","","","","","","","","","","","","","","","","","","","","","","feedback_test","","","","","","","","",""
"1021","","j","psychophysics","72","205527","0.0-8.0-0.0-1.0-0.0-0.31","5","5","5","5","4","4","3","3","3","4","4","1","0","0","1","-1","0","0","1","4","3","5","5","2","3","3","3","4","4","7","8","6","8","7","5","5","7","6","4","3","3","3","4","2","5","1","5","2","1","4","2","5","6","4","4","4","3","3","4","3","4","3","5","3","6","3","4","6","5","4","6","7","4","3","5","3","4","3","5","781990149121904642","王","148","Female","[""好我"",""坏她"",""坏我"",""好她""]","[""强我"",""弱她"",""弱我"",""强她""]","","","","","","","","nonmatch","","","","","","","","","","key","j","16.66833333333343","691.8918681138917","385.22521198632825","f","false","match","img/triangle.png","坏她","坏她","prac_ALT2_moral","practice_moral","","","","","","","","",""
"null","<span style='color:red; font-size: 70px;'>错误! </span>","null","html-keyboard-response","73","206039","0.0-8.0-0.0-1.0-0.0-1.31","5","5","5","5","4","4","3","3","3","4","4","1","0","0","1","-1","0","0","1","4","3","5","5","2","3","3","3","4","4","7","8","6","8","7","5","5","7","6","4","3","3","3","4","2","5","1","5","2","1","4","2","5","6","4","4","4","3","3","4","3","4","3","5","3","6","3","4","6","5","4","6","7","4","3","5","3","4","3","5","781990149121904642","王","148","Female","[""好我"",""坏她"",""坏我"",""好她""]","[""强我"",""弱她"",""弱我"",""强她""]","","","","","","","","","","","","","","","","","","","","","","","","","","","","","","feedback_test","","","","","","","","",""
"884","","j","psychophysics","74","207932","0.0-8.0-0.0-1.0-0.0-0.32","5","5","5","5","4","4","3","3","3","4","4","1","0","0","1","-1","0","0","1","4","3","5","5","2","3","3","3","4","4","7","8","6","8","7","5","5","7","6","4","3","3","3","4","2","5","1","5","2","1","4","2","5","6","4","4","4","3","3","4","3","4","3","5","3","6","3","4","6","5","4","6","7","4","3","5","3","4","3","5","781990149121904642","王","148","Female","[""好我"",""坏她"",""坏我"",""好她""]","[""强我"",""弱她"",""弱我"",""强她""]","","","","","","","","nonmatch","","","","","","","","","","key","j","16.666500000000138","691.8918681138917","385.22521198632825","f","false","match","img/square.png","坏我","坏我","prac_ALT2_moral","practice_moral","","","","","","","","",""
"null","<span style='color:red; font-size: 70px;'>错误! </span>","null","html-keyboard-response","75","208440","0.0-8.0-0.0-1.0-0.0-1.32","5","5","5","5","4","4","3","3","3","4","4","1","0","0","1","-1","0","0","1","4","3","5","5","2","3","3","3","4","4","7","8","6","8","7","5","5","7","6","4","3","3","3","4","2","5","1","5","2","1","4","2","5","6","4","4","4","3","3","4","3","4","3","5","3","6","3","4","6","5","4","6","7","4","3","5","3","4","3","5","781990149121904642","王","148","Female","[""好我"",""坏她"",""坏我"",""好她""]","[""强我"",""弱她"",""弱我"",""强她""]","","","","","","","","","","","","","","","","","","","","","","","","","","","","","","feedback_test","","","","","","","","",""
"670","","f","psychophysics","76","210118","0.0-8.0-0.0-1.0-0.0-0.33","5","5","5","5","4","4","3","3","3","4","4","1","0","0","1","-1","0","0","1","4","3","5","5","2","3","3","3","4","4","7","8","6","8","7","5","5","7","6","4","3","3","3","4","2","5","1","5","2","1","4","2","5","6","4","4","4","3","3","4","3","4","3","5","3","6","3","4","6","5","4","6","7","4","3","5","3","4","3","5","781990149121904642","王","148","Female","[""好我"",""坏她"",""坏我"",""好她""]","[""强我"",""弱她"",""弱我"",""强她""]","","","","","","","","match","","","","","","","","","","key","f","16.66703030303023","691.8918681138917","385.22521198632825","f","true","match","img/hexagon.png","好我","好我","prac_ALT2_moral","practice_moral","","","","","","","","",""
"null","<span style='color:GreenYellow; font-size: 70px;'>正确! </span>","null","html-keyboard-response","77","210625","0.0-8.0-0.0-1.0-0.0-1.33","5","5","5","5","4","4","3","3","3","4","4","1","0","0","1","-1","0","0","1","4","3","5","5","2","3","3","3","4","4","7","8","6","8","7","5","5","7","6","4","3","3","3","4","2","5","1","5","2","1","4","2","5","6","4","4","4","3","3","4","3","4","3","5","3","6","3","4","6","5","4","6","7","4","3","5","3","4","3","5","781990149121904642","王","148","Female","[""好我"",""坏她"",""坏我"",""好她""]","[""强我"",""弱她"",""弱我"",""强她""]","","","","","","","","","","","","","","","","","","","","","","","","","","","","","","feedback_test","","","","","","","","",""
"930","","j","psychophysics","78","212561","0.0-8.0-0.0-1.0-0.0-0.34","5","5","5","5","4","4","3","3","3","4","4","1","0","0","1","-1","0","0","1","4","3","5","5","2","3","3","3","4","4","7","8","6","8","7","5","5","7","6","4","3","3","3","4","2","5","1","5","2","1","4","2","5","6","4","4","4","3","3","4","3","4","3","5","3","6","3","4","6","5","4","6","7","4","3","5","3","4","3","5","781990149121904642","王","148","Female","[""好我"",""坏她"",""坏我"",""好她""]","[""强我"",""弱她"",""弱我"",""强她""]","","","","","","","","nonmatch","","","","","","","","","","key","j","16.66787826086941","691.8918681138917","385.22521198632825","j","true","nonmatch","img/triangle.png","好我","坏她","prac_ALT2_moral","practice_moral","","","","","","","","",""
"null","<span style='color:GreenYellow; font-size: 70px;'>正确! </span>","null","html-keyboard-response","79","213068","0.0-8.0-0.0-1.0-0.0-1.34","5","5","5","5","4","4","3","3","3","4","4","1","0","0","1","-1","0","0","1","4","3","5","5","2","3","3","3","4","4","7","8","6","8","7","5","5","7","6","4","3","3","3","4","2","5","1","5","2","1","4","2","5","6","4","4","4","3","3","4","3","4","3","5","3","6","3","4","6","5","4","6","7","4","3","5","3","4","3","5","781990149121904642","王","148","Female","[""好我"",""坏她"",""坏我"",""好她""]","[""强我"",""弱她"",""弱我"",""强她""]","","","","","","","","","","","","","","","","","","","","","","","","","","","","","","feedback_test","","","","","","","","",""
"918","","f","psychophysics","80","214990","0.0-8.0-0.0-1.0-0.0-0.35","5","5","5","5","4","4","3","3","3","4","4","1","0","0","1","-1","0","0","1","4","3","5","5","2","3","3","3","4","4","7","8","6","8","7","5","5","7","6","4","3","3","3","4","2","5","1","5","2","1","4","2","5","6","4","4","4","3","3","4","3","4","3","5","3","6","3","4","6","5","4","6","7","4","3","5","3","4","3","5","781990149121904642","王","148","Female","[""好我"",""坏她"",""坏我"",""好她""]","[""强我"",""弱她"",""弱我"",""强她""]","","","","","","","","match","","","","","","","","","","key","f","16.66672173913052","691.8918681138917","385.22521198632825","j","false","nonmatch","img/triangle.png","好她","坏她","prac_ALT2_moral","practice_moral","","","","","","","","",""
"null","<span style='color:red; font-size: 70px;'>错误! </span>","null","html-keyboard-response","81","215496","0.0-8.0-0.0-1.0-0.0-1.35","5","5","5","5","4","4","3","3","3","4","4","1","0","0","1","-1","0","0","1","4","3","5","5","2","3","3","3","4","4","7","8","6","8","7","5","5","7","6","4","3","3","3","4","2","5","1","5","2","1","4","2","5","6","4","4","4","3","3","4","3","4","3","5","3","6","3","4","6","5","4","6","7","4","3","5","3","4","3","5","781990149121904642","王","148","Female","[""好我"",""坏她"",""坏我"",""好她""]","[""强我"",""弱她"",""弱我"",""强她""]","","","","","","","","","","","","","","","","","","","","","","","","","","","","","","feedback_test","","","","","","","","",""
"607","","f","psychophysics","82","217111","0.0-8.0-0.0-1.0-0.0-0.36","5","5","5","5","4","4","3","3","3","4","4","1","0","0","1","-1","0","0","1","4","3","5","5","2","3","3","3","4","4","7","8","6","8","7","5","5","7","6","4","3","3","3","4","2","5","1","5","2","1","4","2","5","6","4","4","4","3","3","4","3","4","3","5","3","6","3","4","6","5","4","6","7","4","3","5","3","4","3","5","781990149121904642","王","148","Female","[""好我"",""坏她"",""坏我"",""好她""]","[""强我"",""弱她"",""弱我"",""强她""]","","","","","","","","match","","","","","","","","","","key","f","16.66861458333339","691.8918681138917","385.22521198632825","f","true","match","img/ellipse.png","好她","好她","prac_ALT2_moral","practice_moral","","","","","","","","",""
"null","<span style='color:GreenYellow; font-size: 70px;'>正确! </span>","null","html-keyboard-response","83","217616","0.0-8.0-0.0-1.0-0.0-1.36","5","5","5","5","4","4","3","3","3","4","4","1","0","0","1","-1","0","0","1","4","3","5","5","2","3","3","3","4","4","7","8","6","8","7","5","5","7","6","4","3","3","3","4","2","5","1","5","2","1","4","2","5","6","4","4","4","3","3","4","3","4","3","5","3","6","3","4","6","5","4","6","7","4","3","5","3","4","3","5","781990149121904642","王","148","Female","[""好我"",""坏她"",""坏我"",""好她""]","[""强我"",""弱她"",""弱我"",""强她""]","","","","","","","","","","","","","","","","","","","","","","","","","","","","","","feedback_test","","","","","","","","",""
"719","","j","psychophysics","84","219341","0.0-8.0-0.0-1.0-0.0-0.37","5","5","5","5","4","4","3","3","3","4","4","1","0","0","1","-1","0","0","1","4","3","5","5","2","3","3","3","4","4","7","8","6","8","7","5","5","7","6","4","3","3","3","4","2","5","1","5","2","1","4","2","5","6","4","4","4","3","3","4","3","4","3","5","3","6","3","4","6","5","4","6","7","4","3","5","3","4","3","5","781990149121904642","王","148","Female","[""好我"",""坏她"",""坏我"",""好她""]","[""强我"",""弱她"",""弱我"",""强她""]","","","","","","","","nonmatch","","","","","","","","","","key","j","16.667388349514653","691.8918681138917","385.22521198632825","j","true","nonmatch","img/ellipse.png","好我","好她","prac_ALT2_moral","practice_moral","","","","","","","","",""
"null","<span style='color:GreenYellow; font-size: 70px;'>正确! </span>","null","html-keyboard-response","85","219848","0.0-8.0-0.0-1.0-0.0-1.37","5","5","5","5","4","4","3","3","3","4","4","1","0","0","1","-1","0","0","1","4","3","5","5","2","3","3","3","4","4","7","8","6","8","7","5","5","7","6","4","3","3","3","4","2","5","1","5","2","1","4","2","5","6","4","4","4","3","3","4","3","4","3","5","3","6","3","4","6","5","4","6","7","4","3","5","3","4","3","5","781990149121904642","王","148","Female","[""好我"",""坏她"",""坏我"",""好她""]","[""强我"",""弱她"",""弱我"",""强她""]","","","","","","","","","","","","","","","","","","","","","","","","","","","","","","feedback_test","","","","","","","","",""
"1038","","j","psychophysics","86","221892","0.0-8.0-0.0-1.0-0.0-0.38","5","5","5","5","4","4","3","3","3","4","4","1","0","0","1","-1","0","0","1","4","3","5","5","2","3","3","3","4","4","7","8","6","8","7","5","5","7","6","4","3","3","3","4","2","5","1","5","2","1","4","2","5","6","4","4","4","3","3","4","3","4","3","5","3","6","3","4","6","5","4","6","7","4","3","5","3","4","3","5","781990149121904642","王","148","Female","[""好我"",""坏她"",""坏我"",""好她""]","[""强我"",""弱她"",""弱我"",""强她""]","","","","","","","","nonmatch","","","","","","","","","","key","j","16.667483606557294","691.8918681138917","385.22521198632825","f","false","match","img/ellipse.png","好她","好她","prac_ALT2_moral","practice_moral","","","","","","","","",""
"null","<span style='color:red; font-size: 70px;'>错误! </span>","null","html-keyboard-response","87","222400","0.0-8.0-0.0-1.0-0.0-1.38","5","5","5","5","4","4","3","3","3","4","4","1","0","0","1","-1","0","0","1","4","3","5","5","2","3","3","3","4","4","7","8","6","8","7","5","5","7","6","4","3","3","3","4","2","5","1","5","2","1","4","2","5","6","4","4","4","3","3","4","3","4","3","5","3","6","3","4","6","5","4","6","7","4","3","5","3","4","3","5","781990149121904642","王","148","Female","[""好我"",""坏她"",""坏我"",""好她""]","[""强我"",""弱她"",""弱我"",""强她""]","","","","","","","","","","","","","","","","","","","","","","","","","","","","","","feedback_test","","","","","","","","",""
"581","","j","psychophysics","88","223987","0.0-8.0-0.0-1.0-0.0-0.39","5","5","5","5","4","4","3","3","3","4","4","1","0","0","1","-1","0","0","1","4","3","5","5","2","3","3","3","4","4","7","8","6","8","7","5","5","7","6","4","3","3","3","4","2","5","1","5","2","1","4","2","5","6","4","4","4","3","3","4","3","4","3","5","3","6","3","4","6","5","4","6","7","4","3","5","3","4","3","5","781990149121904642","王","148","Female","[""好我"",""坏她"",""坏我"",""好她""]","[""强我"",""弱她"",""弱我"",""强她""]","","","","","","","","nonmatch","","","","","","","","","","key","j","16.667765957447006","691.8918681138917","385.22521198632825","f","false","match","img/triangle.png","坏她","坏她","prac_ALT2_moral","practice_moral","","","","","","","","",""
"null","<span style='color:red; font-size: 70px;'>错误! </span>","null","html-keyboard-response","89","224495","0.0-8.0-0.0-1.0-0.0-1.39","5","5","5","5","4","4","3","3","3","4","4","1","0","0","1","-1","0","0","1","4","3","5","5","2","3","3","3","4","4","7","8","6","8","7","5","5","7","6","4","3","3","3","4","2","5","1","5","2","1","4","2","5","6","4","4","4","3","3","4","3","4","3","5","3","6","3","4","6","5","4","6","7","4","3","5","3","4","3","5","781990149121904642","王","148","Female","[""好我"",""坏她"",""坏我"",""好她""]","[""强我"",""弱她"",""弱我"",""强她""]","","","","","","","","","","","","","","","","","","","","","","","","","","","","","","feedback_test","","","","","","","","",""
"733","","j","psychophysics","90","226237","0.0-8.0-0.0-1.0-0.0-0.40","5","5","5","5","4","4","3","3","3","4","4","1","0","0","1","-1","0","0","1","4","3","5","5","2","3","3","3","4","4","7","8","6","8","7","5","5","7","6","4","3","3","3","4","2","5","1","5","2","1","4","2","5","6","4","4","4","3","3","4","3","4","3","5","3","6","3","4","6","5","4","6","7","4","3","5","3","4","3","5","781990149121904642","王","148","Female","[""好我"",""坏她"",""坏我"",""好她""]","[""强我"",""弱她"",""弱我"",""强她""]","","","","","","","","nonmatch","","","","","","","","","","key","j","16.66633980582526","691.8918681138917","385.22521198632825","j","true","nonmatch","img/hexagon.png","坏我","好我","prac_ALT2_moral","practice_moral","","","","","","","","",""
"null","<span style='color:GreenYellow; font-size: 70px;'>正确! </span>","null","html-keyboard-response","91","226743","0.0-8.0-0.0-1.0-0.0-1.40","5","5","5","5","4","4","3","3","3","4","4","1","0","0","1","-1","0","0","1","4","3","5","5","2","3","3","3","4","4","7","8","6","8","7","5","5","7","6","4","3","3","3","4","2","5","1","5","2","1","4","2","5","6","4","4","4","3","3","4","3","4","3","5","3","6","3","4","6","5","4","6","7","4","3","5","3","4","3","5","781990149121904642","王","148","Female","[""好我"",""坏她"",""坏我"",""好她""]","[""强我"",""弱她"",""弱我"",""强她""]","","","","","","","","","","","","","","","","","","","","","","","","","","","","","","feedback_test","","","","","","","","",""
"null","","null","psychophysics","92","228954","0.0-8.0-0.0-1.0-0.0-0.41","5","5","5","5","4","4","3","3","3","4","4","1","0","0","1","-1","0","0","1","4","3","5","5","2","3","3","3","4","4","7","8","6","8","7","5","5","7","6","4","3","3","3","4","2","5","1","5","2","1","4","2","5","6","4","4","4","3","3","4","3","4","3","5","3","6","3","4","6","5","4","6","7","4","3","5","3","4","3","5","781990149121904642","王","148","Female","[""好我"",""坏她"",""坏我"",""好她""]","[""强我"",""弱她"",""弱我"",""强她""]","","","","","","","","null","","","","","","","","","","key","null","16.665816793893196","691.8918681138917","385.22521198632825","f","false","match","img/square.png","坏我","坏我","prac_ALT2_moral","practice_moral","","","","","","","","",""
"null","<span class='add_' style='color:yellow; font-size: 70px;'> 太慢! </span>","null","html-keyboard-response","93","229463","0.0-8.0-0.0-1.0-0.0-1.41","5","5","5","5","4","4","3","3","3","4","4","1","0","0","1","-1","0","0","1","4","3","5","5","2","3","3","3","4","4","7","8","6","8","7","5","5","7","6","4","3","3","3","4","2","5","1","5","2","1","4","2","5","6","4","4","4","3","3","4","3","4","3","5","3","6","3","4","6","5","4","6","7","4","3","5","3","4","3","5","781990149121904642","王","148","Female","[""好我"",""坏她"",""坏我"",""好她""]","[""强我"",""弱她"",""弱我"",""强她""]","","","","","","","","","","","","","","","","","","","","","","","","","","","","","","feedback_test","","","","","","","","",""
"1168","","f","psychophysics","94","231639","0.0-8.0-0.0-1.0-0.0-0.42","5","5","5","5","4","4","3","3","3","4","4","1","0","0","1","-1","0","0","1","4","3","5","5","2","3","3","3","4","4","7","8","6","8","7","5","5","7","6","4","3","3","3","4","2","5","1","5","2","1","4","2","5","6","4","4","4","3","3","4","3","4","3","5","3","6","3","4","6","5","4","6","7","4","3","5","3","4","3","5","781990149121904642","王","148","Female","[""好我"",""坏她"",""坏我"",""好她""]","[""强我"",""弱她"",""弱我"",""强她""]","","","","","","","","match","","","","","","","","","","key","f","16.66843846153844","691.8918681138917","385.22521198632825","j","false","nonmatch","img/ellipse.png","坏她","好她","prac_ALT2_moral","practice_moral","","","","","","","","",""
"null","<span style='color:red; font-size: 70px;'>错误! </span>","null","html-keyboard-response","95","232144","0.0-8.0-0.0-1.0-0.0-1.42","5","5","5","5","4","4","3","3","3","4","4","1","0","0","1","-1","0","0","1","4","3","5","5","2","3","3","3","4","4","7","8","6","8","7","5","5","7","6","4","3","3","3","4","2","5","1","5","2","1","4","2","5","6","4","4","4","3","3","4","3","4","3","5","3","6","3","4","6","5","4","6","7","4","3","5","3","4","3","5","781990149121904642","王","148","Female","[""好我"",""坏她"",""坏我"",""好她""]","[""强我"",""弱她"",""弱我"",""强她""]","","","","","","","","","","","","","","","","","","","","","","","","","","","","","","feedback_test","","","","","","","","",""
"761","","j","psychophysics","96","233912","0.0-8.0-0.0-1.0-0.0-0.43","5","5","5","5","4","4","3","3","3","4","4","1","0","0","1","-1","0","0","1","4","3","5","5","2","3","3","3","4","4","7","8","6","8","7","5","5","7","6","4","3","3","3","4","2","5","1","5","2","1","4","2","5","6","4","4","4","3","3","4","3","4","3","5","3","6","3","4","6","5","4","6","7","4","3","5","3","4","3","5","781990149121904642","王","148","Female","[""好我"",""坏她"",""坏我"",""好她""]","[""强我"",""弱她"",""弱我"",""强她""]","","","","","","","","nonmatch","","","","","","","","","","key","j","16.667457142856993","691.8918681138917","385.22521198632825","j","true","nonmatch","img/hexagon.png","坏她","好我","prac_ALT2_moral","practice_moral","","","","","","","","",""
"null","<span style='color:GreenYellow; font-size: 70px;'>正确! </span>","null","html-keyboard-response","97","234416","0.0-8.0-0.0-1.0-0.0-1.43","5","5","5","5","4","4","3","3","3","4","4","1","0","0","1","-1","0","0","1","4","3","5","5","2","3","3","3","4","4","7","8","6","8","7","5","5","7","6","4","3","3","3","4","2","5","1","5","2","1","4","2","5","6","4","4","4","3","3","4","3","4","3","5","3","6","3","4","6","5","4","6","7","4","3","5","3","4","3","5","781990149121904642","王","148","Female","[""好我"",""坏她"",""坏我"",""好她""]","[""强我"",""弱她"",""弱我"",""强她""]","","","","","","","","","","","","","","","","","","","","","","","","","","","","","","feedback_test","","","","","","","","",""
"866","","j","psychophysics","98","236287","0.0-8.0-0.0-1.0-0.0-0.44","5","5","5","5","4","4","3","3","3","4","4","1","0","0","1","-1","0","0","1","4","3","5","5","2","3","3","3","4","4","7","8","6","8","7","5","5","7","6","4","3","3","3","4","2","5","1","5","2","1","4","2","5","6","4","4","4","3","3","4","3","4","3","5","3","6","3","4","6","5","4","6","7","4","3","5","3","4","3","5","781990149121904642","王","148","Female","[""好我"",""坏她"",""坏我"",""好她""]","[""强我"",""弱她"",""弱我"",""强她""]","","","","","","","","nonmatch","","","","","","","","","","key","j","16.664927927927934","691.8918681138917","385.22521198632825","j","true","nonmatch","img/triangle.png","坏我","坏她","prac_ALT2_moral","practice_moral","","","","","","","","",""
"null","<span style='color:GreenYellow; font-size: 70px;'>正确! </span>","null","html-keyboard-response","99","236792","0.0-8.0-0.0-1.0-0.0-1.44","5","5","5","5","4","4","3","3","3","4","4","1","0","0","1","-1","0","0","1","4","3","5","5","2","3","3","3","4","4","7","8","6","8","7","5","5","7","6","4","3","3","3","4","2","5","1","5","2","1","4","2","5","6","4","4","4","3","3","4","3","4","3","5","3","6","3","4","6","5","4","6","7","4","3","5","3","4","3","5","781990149121904642","王","148","Female","[""好我"",""坏她"",""坏我"",""好她""]","[""强我"",""弱她"",""弱我"",""强她""]","","","","","","","","","","","","","","","","","","","","","","","","","","","","","","feedback_test","","","","","","","","",""
"792","","f","psychophysics","100","238591","0.0-8.0-0.0-1.0-0.0-0.45","5","5","5","5","4","4","3","3","3","4","4","1","0","0","1","-1","0","0","1","4","3","5","5","2","3","3","3","4","4","7","8","6","8","7","5","5","7","6","4","3","3","3","4","2","5","1","5","2","1","4","2","5","6","4","4","4","3","3","4","3","4","3","5","3","6","3","4","6","5","4","6","7","4","3","5","3","4","3","5","781990149121904642","王","148","Female","[""好我"",""坏她"",""坏我"",""好她""]","[""强我"",""弱她"",""弱我"",""强她""]","","","","","","","","match","","","","","","","","","","key","f","16.666046728971892","691.8918681138917","385.22521198632825","f","true","match","img/ellipse.png","好她","好她","prac_ALT2_moral","practice_moral","","","","","","","","",""
"null","<span style='color:GreenYellow; font-size: 70px;'>正确! </span>","null","html-keyboard-response","101","239097","0.0-8.0-0.0-1.0-0.0-1.45","5","5","5","5","4","4","3","3","3","4","4","1","0","0","1","-1","0","0","1","4","3","5","5","2","3","3","3","4","4","7","8","6","8","7","5","5","7","6","4","3","3","3","4","2","5","1","5","2","1","4","2","5","6","4","4","4","3","3","4","3","4","3","5","3","6","3","4","6","5","4","6","7","4","3","5","3","4","3","5","781990149121904642","王","148","Female","[""好我"",""坏她"",""坏我"",""好她""]","[""强我"",""弱她"",""弱我"",""强她""]","","","","","","","","","","","","","","","","","","","","","","","","","","","","","","feedback_test","","","","","","","","",""
"910","","j","psychophysics","102","241014","0.0-8.0-0.0-1.0-0.0-0.46","5","5","5","5","4","4","3","3","3","4","4","1","0","0","1","-1","0","0","1","4","3","5","5","2","3","3","3","4","4","7","8","6","8","7","5","5","7","6","4","3","3","3","4","2","5","1","5","2","1","4","2","5","6","4","4","4","3","3","4","3","4","3","5","3","6","3","4","6","5","4","6","7","4","3","5","3","4","3","5","781990149121904642","王","148","Female","[""好我"",""坏她"",""坏我"",""好她""]","[""强我"",""弱她"",""弱我"",""强她""]","","","","","","","","nonmatch","","","","","","","","","","key","j","16.67007894736838","691.8918681138917","385.22521198632825","j","true","nonmatch","img/square.png","好我","坏我","prac_ALT2_moral","practice_moral","","","","","","","","",""
"null","<span style='color:GreenYellow; font-size: 70px;'>正确! </span>","null","html-keyboard-response","103","241520","0.0-8.0-0.0-1.0-0.0-1.46","5","5","5","5","4","4","3","3","3","4","4","1","0","0","1","-1","0","0","1","4","3","5","5","2","3","3","3","4","4","7","8","6","8","7","5","5","7","6","4","3","3","3","4","2","5","1","5","2","1","4","2","5","6","4","4","4","3","3","4","3","4","3","5","3","6","3","4","6","5","4","6","7","4","3","5","3","4","3","5","781990149121904642","王","148","Female","[""好我"",""坏她"",""坏我"",""好她""]","[""强我"",""弱她"",""弱我"",""强她""]","","","","","","","","","","","","","","","","","","","","","","","","","","","","","","feedback_test","","","","","","","","",""
"817","","j","psychophysics","104","243338","0.0-8.0-0.0-1.0-0.0-0.47","5","5","5","5","4","4","3","3","3","4","4","1","0","0","1","-1","0","0","1","4","3","5","5","2","3","3","3","4","4","7","8","6","8","7","5","5","7","6","4","3","3","3","4","2","5","1","5","2","1","4","2","5","6","4","4","4","3","3","4","3","4","3","5","3","6","3","4","6","5","4","6","7","4","3","5","3","4","3","5","781990149121904642","王","148","Female","[""好我"",""坏她"",""坏我"",""好她""]","[""强我"",""弱她"",""弱我"",""强她""]","","","","","","","","nonmatch","","","","","","","","","","key","j","16.645851851851923","691.8918681138917","385.22521198632825","j","true","nonmatch","img/ellipse.png","坏我","好她","prac_ALT2_moral","practice_moral","","","","","","","","",""
"null","<span style='color:GreenYellow; font-size: 70px;'>正确! </span>","null","html-keyboard-response","105","243847","0.0-8.0-0.0-1.0-0.0-1.47","5","5","5","5","4","4","3","3","3","4","4","1","0","0","1","-1","0","0","1","4","3","5","5","2","3","3","3","4","4","7","8","6","8","7","5","5","7","6","4","3","3","3","4","2","5","1","5","2","1","4","2","5","6","4","4","4","3","3","4","3","4","3","5","3","6","3","4","6","5","4","6","7","4","3","5","3","4","3","5","781990149121904642","王","148","Female","[""好我"",""坏她"",""坏我"",""好她""]","[""强我"",""弱她"",""弱我"",""强她""]","","","","","","","","","","","","","","","","","","","","","","","","","","","","","","feedback_test","","","","","","","","",""
"5094","<style>.context{color:white; font-size: 35px; line-height:40px}</style>                            <div><p class='context'>您正确回答了63% 的试次。</p><p class='context'>您的平均反应时为801毫秒。</p><p class='context'>恭喜您完成练习。按空格键进入正式实验。</p><p class='footer' style='font-size: 35px; line-height:40px;'>请在进入正式实验实验之前将您的<span style='color: lightgreen;'>食指</span>放在电脑键盘的相应键位上进行按键。</p>"," ","html-keyboard-response","106","248946","0.0-8.0-0.0-2.0","5","5","5","5","4","4","3","3","3","4","4","1","0","0","1","-1","0","0","1","4","3","5","5","2","3","3","3","4","4","7","8","6","8","7","5","5","7","6","4","3","3","3","4","2","5","1","5","2","1","4","2","5","6","4","4","4","3","3","4","3","4","3","5","3","6","3","4","6","5","4","6","7","4","3","5","3","4","3","5","781990149121904642","王","148","Female","[""好我"",""坏她"",""坏我"",""好她""]","[""强我"",""弱她"",""弱我"",""强她""]","","","","","","","","","","","","","","","","","","","","","","","","","","","","","","","","","","","","","","",""
"3303","
    <p style='color: white; font-size: 22px'>请您将手指放在按键上，准备进入正式的匹配任务。</p>
    <p> <div style = ""color: green""><按空格键进入下一阶段的匹配任务></div></p>
    "," ","html-keyboard-response","107","252251","0.0-8.0-0.0-3.0","5","5","5","5","4","4","3","3","3","4","4","1","0","0","1","-1","0","0","1","4","3","5","5","2","3","3","3","4","4","7","8","6","8","7","5","5","7","6","4","3","3","3","4","2","5","1","5","2","1","4","2","5","6","4","4","4","3","3","4","3","4","3","5","3","6","3","4","6","5","4","6","7","4","3","5","3","4","3","5","781990149121904642","王","148","Female","[""好我"",""坏她"",""坏我"",""好她""]","[""强我"",""弱她"",""弱我"",""强她""]","","","","","","","","","","","","","","","","","","","","","","","","","","","","","","","","","","","","","","",""
"573","","f","psychophysics","108","253828","0.0-8.0-0.0-4.0-0.0-0.0","5","5","5","5","4","4","3","3","3","4","4","1","0","0","1","-1","0","0","1","4","3","5","5","2","3","3","3","4","4","7","8","6","8","7","5","5","7","6","4","3","3","3","4","2","5","1","5","2","1","4","2","5","6","4","4","4","3","3","4","3","4","3","5","3","6","3","4","6","5","4","6","7","4","3","5","3","4","3","5","781990149121904642","王","148","Female","[""好我"",""坏她"",""坏我"",""好她""]","[""强我"",""弱她"",""弱我"",""强她""]","","","","","","","","match","","","","","","","","","","key","f","16.66751063829802","691.8918681138917","385.22521198632825","f","true","match","img/hexagon.png","好我","好我","ALT2","moral","","","","","","","","",""
"null","<span style='color:GreenYellow; font-size: 70px;'>正确! </span>","null","html-keyboard-response","109","254335","0.0-8.0-0.0-4.0-0.0-1.0","5","5","5","5","4","4","3","3","3","4","4","1","0","0","1","-1","0","0","1","4","3","5","5","2","3","3","3","4","4","7","8","6","8","7","5","5","7","6","4","3","3","3","4","2","5","1","5","2","1","4","2","5","6","4","4","4","3","3","4","3","4","3","5","3","6","3","4","6","5","4","6","7","4","3","5","3","4","3","5","781990149121904642","王","148","Female","[""好我"",""坏她"",""坏我"",""好她""]","[""强我"",""弱她"",""弱我"",""强她""]","","","","","","","","","","","","","","","","","","","","","","","","","","","","","","feedback_test","","","","","","","","",""
"581","","j","psychophysics","110","255918","0.0-8.0-0.0-4.0-0.0-0.1","5","5","5","5","4","4","3","3","3","4","4","1","0","0","1","-1","0","0","1","4","3","5","5","2","3","3","3","4","4","7","8","6","8","7","5","5","7","6","4","3","3","3","4","2","5","1","5","2","1","4","2","5","6","4","4","4","3","3","4","3","4","3","5","3","6","3","4","6","5","4","6","7","4","3","5","3","4","3","5","781990149121904642","王","148","Female","[""好我"",""坏她"",""坏我"",""好她""]","[""强我"",""弱她"",""弱我"",""强她""]","","","","","","","","nonmatch","","","","","","","","","","key","j","16.667361702127543","691.8918681138917","385.22521198632825","f","false","match","img/square.png","坏我","坏我","ALT2","moral","","","","","","","","",""
"null","<span style='color:red; font-size: 70px;'>错误! </span>","null","html-keyboard-response","111","256424","0.0-8.0-0.0-4.0-0.0-1.1","5","5","5","5","4","4","3","3","3","4","4","1","0","0","1","-1","0","0","1","4","3","5","5","2","3","3","3","4","4","7","8","6","8","7","5","5","7","6","4","3","3","3","4","2","5","1","5","2","1","4","2","5","6","4","4","4","3","3","4","3","4","3","5","3","6","3","4","6","5","4","6","7","4","3","5","3","4","3","5","781990149121904642","王","148","Female","[""好我"",""坏她"",""坏我"",""好她""]","[""强我"",""弱她"",""弱我"",""强她""]","","","","","","","","","","","","","","","","","","","","","","","","","","","","","","feedback_test","","","","","","","","",""
"825","","j","psychophysics","112","258256","0.0-8.0-0.0-4.0-0.0-0.2","5","5","5","5","4","4","3","3","3","4","4","1","0","0","1","-1","0","0","1","4","3","5","5","2","3","3","3","4","4","7","8","6","8","7","5","5","7","6","4","3","3","3","4","2","5","1","5","2","1","4","2","5","6","4","4","4","3","3","4","3","4","3","5","3","6","3","4","6","5","4","6","7","4","3","5","3","4","3","5","781990149121904642","王","148","Female","[""好我"",""坏她"",""坏我"",""好她""]","[""强我"",""弱她"",""弱我"",""强她""]","","","","","","","","nonmatch","","","","","","","","","","key","j","16.667807339449784","691.8918681138917","385.22521198632825","j","true","nonmatch","img/ellipse.png","好我","好她","ALT2","moral","","","","","","","","",""
"null","<span style='color:GreenYellow; font-size: 70px;'>正确! </span>","null","html-keyboard-response","113","258760","0.0-8.0-0.0-4.0-0.0-1.2","5","5","5","5","4","4","3","3","3","4","4","1","0","0","1","-1","0","0","1","4","3","5","5","2","3","3","3","4","4","7","8","6","8","7","5","5","7","6","4","3","3","3","4","2","5","1","5","2","1","4","2","5","6","4","4","4","3","3","4","3","4","3","5","3","6","3","4","6","5","4","6","7","4","3","5","3","4","3","5","781990149121904642","王","148","Female","[""好我"",""坏她"",""坏我"",""好她""]","[""强我"",""弱她"",""弱我"",""强她""]","","","","","","","","","","","","","","","","","","","","","","","","","","","","","","feedback_test","","","","","","","","",""
"664","","j","psychophysics","114","260432","0.0-8.0-0.0-4.0-0.0-0.3","5","5","5","5","4","4","3","3","3","4","4","1","0","0","1","-1","0","0","1","4","3","5","5","2","3","3","3","4","4","7","8","6","8","7","5","5","7","6","4","3","3","3","4","2","5","1","5","2","1","4","2","5","6","4","4","4","3","3","4","3","4","3","5","3","6","3","4","6","5","4","6","7","4","3","5","3","4","3","5","781990149121904642","王","148","Female","[""好我"",""坏她"",""坏我"",""好她""]","[""强我"",""弱她"",""弱我"",""强她""]","","","","","","","","nonmatch","","","","","","","","","","key","j","16.66773737373737","691.8918681138917","385.22521198632825","j","true","nonmatch","img/square.png","坏她","坏我","ALT2","moral","","","","","","","","",""
"null","<span style='color:GreenYellow; font-size: 70px;'>正确! </span>","null","html-keyboard-response","115","260936","0.0-8.0-0.0-4.0-0.0-1.3","5","5","5","5","4","4","3","3","3","4","4","1","0","0","1","-1","0","0","1","4","3","5","5","2","3","3","3","4","4","7","8","6","8","7","5","5","7","6","4","3","3","3","4","2","5","1","5","2","1","4","2","5","6","4","4","4","3","3","4","3","4","3","5","3","6","3","4","6","5","4","6","7","4","3","5","3","4","3","5","781990149121904642","王","148","Female","[""好我"",""坏她"",""坏我"",""好她""]","[""强我"",""弱她"",""弱我"",""强她""]","","","","","","","","","","","","","","","","","","","","","","","","","","","","","","feedback_test","","","","","","","","",""
"1121","","f","psychophysics","116","263058","0.0-8.0-0.0-4.0-0.0-0.4","5","5","5","5","4","4","3","3","3","4","4","1","0","0","1","-1","0","0","1","4","3","5","5","2","3","3","3","4","4","7","8","6","8","7","5","5","7","6","4","3","3","3","4","2","5","1","5","2","1","4","2","5","6","4","4","4","3","3","4","3","4","3","5","3","6","3","4","6","5","4","6","7","4","3","5","3","4","3","5","781990149121904642","王","148","Female","[""好我"",""坏她"",""坏我"",""好她""]","[""强我"",""弱她"",""弱我"",""强她""]","","","","","","","","match","","","","","","","","","","key","f","16.658206349206417","691.8918681138917","385.22521198632825","j","false","nonmatch","img/ellipse.png","坏她","好她","ALT2","moral","","","","","","","","",""
"null","<span style='color:red; font-size: 70px;'>错误! </span>","null","html-keyboard-response","117","263560","0.0-8.0-0.0-4.0-0.0-1.4","5","5","5","5","4","4","3","3","3","4","4","1","0","0","1","-1","0","0","1","4","3","5","5","2","3","3","3","4","4","7","8","6","8","7","5","5","7","6","4","3","3","3","4","2","5","1","5","2","1","4","2","5","6","4","4","4","3","3","4","3","4","3","5","3","6","3","4","6","5","4","6","7","4","3","5","3","4","3","5","781990149121904642","王","148","Female","[""好我"",""坏她"",""坏我"",""好她""]","[""强我"",""弱她"",""弱我"",""强她""]","","","","","","","","","","","","","","","","","","","","","","","","","","","","","","feedback_test","","","","","","","","",""
"918","","f","psychophysics","118","265485","0.0-8.0-0.0-4.0-0.0-0.5","5","5","5","5","4","4","3","3","3","4","4","1","0","0","1","-1","0","0","1","4","3","5","5","2","3","3","3","4","4","7","8","6","8","7","5","5","7","6","4","3","3","3","4","2","5","1","5","2","1","4","2","5","6","4","4","4","3","3","4","3","4","3","5","3","6","3","4","6","5","4","6","7","4","3","5","3","4","3","5","781990149121904642","王","148","Female","[""好我"",""坏她"",""坏我"",""好她""]","[""强我"",""弱她"",""弱我"",""强她""]","","","","","","","","match","","","","","","","","","","key","f","16.668736842105556","691.8918681138917","385.22521198632825","f","true","match","img/ellipse.png","好她","好她","ALT2","moral","","","","","","","","",""
"null","<span style='color:GreenYellow; font-size: 70px;'>正确! </span>","null","html-keyboard-response","119","265992","0.0-8.0-0.0-4.0-0.0-1.5","5","5","5","5","4","4","3","3","3","4","4","1","0","0","1","-1","0","0","1","4","3","5","5","2","3","3","3","4","4","7","8","6","8","7","5","5","7","6","4","3","3","3","4","2","5","1","5","2","1","4","2","5","6","4","4","4","3","3","4","3","4","3","5","3","6","3","4","6","5","4","6","7","4","3","5","3","4","3","5","781990149121904642","王","148","Female","[""好我"",""坏她"",""坏我"",""好她""]","[""强我"",""弱她"",""弱我"",""强她""]","","","","","","","","","","","","","","","","","","","","","","","","","","","","","","feedback_test","","","","","","","","",""
"753","","j","psychophysics","120","267753","0.0-8.0-0.0-4.0-0.0-0.6","5","5","5","5","4","4","3","3","3","4","4","1","0","0","1","-1","0","0","1","4","3","5","5","2","3","3","3","4","4","7","8","6","8","7","5","5","7","6","4","3","3","3","4","2","5","1","5","2","1","4","2","5","6","4","4","4","3","3","4","3","4","3","5","3","6","3","4","6","5","4","6","7","4","3","5","3","4","3","5","781990149121904642","王","148","Female","[""好我"",""坏她"",""坏我"",""好她""]","[""强我"",""弱她"",""弱我"",""强她""]","","","","","","","","nonmatch","","","","","","","","","","key","j","16.665567307692143","691.8918681138917","385.22521198632825","j","true","nonmatch","img/square.png","好我","坏我","ALT2","moral","","","","","","","","",""
"null","<span style='color:GreenYellow; font-size: 70px;'>正确! </span>","null","html-keyboard-response","121","268256","0.0-8.0-0.0-4.0-0.0-1.6","5","5","5","5","4","4","3","3","3","4","4","1","0","0","1","-1","0","0","1","4","3","5","5","2","3","3","3","4","4","7","8","6","8","7","5","5","7","6","4","3","3","3","4","2","5","1","5","2","1","4","2","5","6","4","4","4","3","3","4","3","4","3","5","3","6","3","4","6","5","4","6","7","4","3","5","3","4","3","5","781990149121904642","王","148","Female","[""好我"",""坏她"",""坏我"",""好她""]","[""强我"",""弱她"",""弱我"",""强她""]","","","","","","","","","","","","","","","","","","","","","","","","","","","","","","feedback_test","","","","","","","","",""
"1170","","f","psychophysics","122","270433","0.0-8.0-0.0-4.0-0.0-0.7","5","5","5","5","4","4","3","3","3","4","4","1","0","0","1","-1","0","0","1","4","3","5","5","2","3","3","3","4","4","7","8","6","8","7","5","5","7","6","4","3","3","3","4","2","5","1","5","2","1","4","2","5","6","4","4","4","3","3","4","3","4","3","5","3","6","3","4","6","5","4","6","7","4","3","5","3","4","3","5","781990149121904642","王","148","Female","[""好我"",""坏她"",""坏我"",""好她""]","[""强我"",""弱她"",""弱我"",""强她""]","","","","","","","","match","","","","","","","","","","key","f","16.667666666666786","691.8918681138917","385.22521198632825","f","true","match","img/triangle.png","坏她","坏她","ALT2","moral","","","","","","","","",""
"null","<span style='color:GreenYellow; font-size: 70px;'>正确! </span>","null","html-keyboard-response","123","270936","0.0-8.0-0.0-4.0-0.0-1.7","5","5","5","5","4","4","3","3","3","4","4","1","0","0","1","-1","0","0","1","4","3","5","5","2","3","3","3","4","4","7","8","6","8","7","5","5","7","6","4","3","3","3","4","2","5","1","5","2","1","4","2","5","6","4","4","4","3","3","4","3","4","3","5","3","6","3","4","6","5","4","6","7","4","3","5","3","4","3","5","781990149121904642","王","148","Female","[""好我"",""坏她"",""坏我"",""好她""]","[""强我"",""弱她"",""弱我"",""强她""]","","","","","","","","","","","","","","","","","","","","","","","","","","","","","","feedback_test","","","","","","","","",""
"853","","j","psychophysics","124","272792","0.0-8.0-0.0-4.0-0.0-0.8","5","5","5","5","4","4","3","3","3","4","4","1","0","0","1","-1","0","0","1","4","3","5","5","2","3","3","3","4","4","7","8","6","8","7","5","5","7","6","4","3","3","3","4","2","5","1","5","2","1","4","2","5","6","4","4","4","3","3","4","3","4","3","5","3","6","3","4","6","5","4","6","7","4","3","5","3","4","3","5","781990149121904642","王","148","Female","[""好我"",""坏她"",""坏我"",""好她""]","[""强我"",""弱她"",""弱我"",""强她""]","","","","","","","","nonmatch","","","","","","","","","","key","j","16.556490909091238","691.8918681138917","385.22521198632825","j","true","nonmatch","img/ellipse.png","坏我","好她","ALT2","moral","","","","","","","","",""
"null","<span style='color:GreenYellow; font-size: 70px;'>正确! </span>","null","html-keyboard-response","125","273296","0.0-8.0-0.0-4.0-0.0-1.8","5","5","5","5","4","4","3","3","3","4","4","1","0","0","1","-1","0","0","1","4","3","5","5","2","3","3","3","4","4","7","8","6","8","7","5","5","7","6","4","3","3","3","4","2","5","1","5","2","1","4","2","5","6","4","4","4","3","3","4","3","4","3","5","3","6","3","4","6","5","4","6","7","4","3","5","3","4","3","5","781990149121904642","王","148","Female","[""好我"",""坏她"",""坏我"",""好她""]","[""强我"",""弱她"",""弱我"",""强她""]","","","","","","","","","","","","","","","","","","","","","","","","","","","","","","feedback_test","","","","","","","","",""
"742","","j","psychophysics","126","275045","0.0-8.0-0.0-4.0-0.0-0.9","5","5","5","5","4","4","3","3","3","4","4","1","0","0","1","-1","0","0","1","4","3","5","5","2","3","3","3","4","4","7","8","6","8","7","5","5","7","6","4","3","3","3","4","2","5","1","5","2","1","4","2","5","6","4","4","4","3","3","4","3","4","3","5","3","6","3","4","6","5","4","6","7","4","3","5","3","4","3","5","781990149121904642","王","148","Female","[""好我"",""坏她"",""坏我"",""好她""]","[""强我"",""弱她"",""弱我"",""强她""]","","","","","","","","nonmatch","","","","","","","","","","key","j","16.667124999999942","691.8918681138917","385.22521198632825","j","true","nonmatch","img/square.png","好她","坏我","ALT2","moral","","","","","","","","",""
"null","<span style='color:GreenYellow; font-size: 70px;'>正确! </span>","null","html-keyboard-response","127","275552","0.0-8.0-0.0-4.0-0.0-1.9","5","5","5","5","4","4","3","3","3","4","4","1","0","0","1","-1","0","0","1","4","3","5","5","2","3","3","3","4","4","7","8","6","8","7","5","5","7","6","4","3","3","3","4","2","5","1","5","2","1","4","2","5","6","4","4","4","3","3","4","3","4","3","5","3","6","3","4","6","5","4","6","7","4","3","5","3","4","3","5","781990149121904642","王","148","Female","[""好我"",""坏她"",""坏我"",""好她""]","[""强我"",""弱她"",""弱我"",""强她""]","","","","","","","","","","","","","","","","","","","","","","","","","","","","","","feedback_test","","","","","","","","",""
"1086","","j","psychophysics","128","277639","0.0-8.0-0.0-4.0-0.0-0.10","5","5","5","5","4","4","3","3","3","4","4","1","0","0","1","-1","0","0","1","4","3","5","5","2","3","3","3","4","4","7","8","6","8","7","5","5","7","6","4","3","3","3","4","2","5","1","5","2","1","4","2","5","6","4","4","4","3","3","4","3","4","3","5","3","6","3","4","6","5","4","6","7","4","3","5","3","4","3","5","781990149121904642","王","148","Female","[""好我"",""坏她"",""坏我"",""好她""]","[""强我"",""弱她"",""弱我"",""强她""]","","","","","","","","nonmatch","","","","","","","","","","key","j","16.581879032257994","691.8918681138917","385.22521198632825","j","true","nonmatch","img/triangle.png","好我","坏她","ALT2","moral","","","","","","","","",""
"null","<span style='color:GreenYellow; font-size: 70px;'>正确! </span>","null","html-keyboard-response","129","278144","0.0-8.0-0.0-4.0-0.0-1.10","5","5","5","5","4","4","3","3","3","4","4","1","0","0","1","-1","0","0","1","4","3","5","5","2","3","3","3","4","4","7","8","6","8","7","5","5","7","6","4","3","3","3","4","2","5","1","5","2","1","4","2","5","6","4","4","4","3","3","4","3","4","3","5","3","6","3","4","6","5","4","6","7","4","3","5","3","4","3","5","781990149121904642","王","148","Female","[""好我"",""坏她"",""坏我"",""好她""]","[""强我"",""弱她"",""弱我"",""强她""]","","","","","","","","","","","","","","","","","","","","","","","","","","","","","","feedback_test","","","","","","","","",""
"797","","j","psychophysics","130","279949","0.0-8.0-0.0-4.0-0.0-0.11","5","5","5","5","4","4","3","3","3","4","4","1","0","0","1","-1","0","0","1","4","3","5","5","2","3","3","3","4","4","7","8","6","8","7","5","5","7","6","4","3","3","3","4","2","5","1","5","2","1","4","2","5","6","4","4","4","3","3","4","3","4","3","5","3","6","3","4","6","5","4","6","7","4","3","5","3","4","3","5","781990149121904642","王","148","Female","[""好我"",""坏她"",""坏我"",""好她""]","[""强我"",""弱她"",""弱我"",""强她""]","","","","","","","","nonmatch","","","","","","","","","","key","j","16.666794392522903","691.8918681138917","385.22521198632825","f","false","match","img/square.png","坏我","坏我","ALT2","moral","","","","","","","","",""
"null","<span style='color:red; font-size: 70px;'>错误! </span>","null","html-keyboard-response","131","280457","0.0-8.0-0.0-4.0-0.0-1.11","5","5","5","5","4","4","3","3","3","4","4","1","0","0","1","-1","0","0","1","4","3","5","5","2","3","3","3","4","4","7","8","6","8","7","5","5","7","6","4","3","3","3","4","2","5","1","5","2","1","4","2","5","6","4","4","4","3","3","4","3","4","3","5","3","6","3","4","6","5","4","6","7","4","3","5","3","4","3","5","781990149121904642","王","148","Female","[""好我"",""坏她"",""坏我"",""好她""]","[""强我"",""弱她"",""弱我"",""强她""]","","","","","","","","","","","","","","","","","","","","","","","","","","","","","","feedback_test","","","","","","","","",""
"603","","f","psychophysics","132","282067","0.0-8.0-0.0-4.0-0.0-0.12","5","5","5","5","4","4","3","3","3","4","4","1","0","0","1","-1","0","0","1","4","3","5","5","2","3","3","3","4","4","7","8","6","8","7","5","5","7","6","4","3","3","3","4","2","5","1","5","2","1","4","2","5","6","4","4","4","3","3","4","3","4","3","5","3","6","3","4","6","5","4","6","7","4","3","5","3","4","3","5","781990149121904642","王","148","Female","[""好我"",""坏她"",""坏我"",""好她""]","[""强我"",""弱她"",""弱我"",""强她""]","","","","","","","","match","","","","","","","","","","key","f","16.666526315789547","691.8918681138917","385.22521198632825","f","true","match","img/ellipse.png","好她","好她","ALT2","moral","","","","","","","","",""
"null","<span style='color:GreenYellow; font-size: 70px;'>正确! </span>","null","html-keyboard-response","133","282576","0.0-8.0-0.0-4.0-0.0-1.12","5","5","5","5","4","4","3","3","3","4","4","1","0","0","1","-1","0","0","1","4","3","5","5","2","3","3","3","4","4","7","8","6","8","7","5","5","7","6","4","3","3","3","4","2","5","1","5","2","1","4","2","5","6","4","4","4","3","3","4","3","4","3","5","3","6","3","4","6","5","4","6","7","4","3","5","3","4","3","5","781990149121904642","王","148","Female","[""好我"",""坏她"",""坏我"",""好她""]","[""强我"",""弱她"",""弱我"",""强她""]","","","","","","","","","","","","","","","","","","","","","","","","","","","","","","feedback_test","","","","","","","","",""
"null","","null","psychophysics","134","284784","0.0-8.0-0.0-4.0-0.0-0.13","5","5","5","5","4","4","3","3","3","4","4","1","0","0","1","-1","0","0","1","4","3","5","5","2","3","3","3","4","4","7","8","6","8","7","5","5","7","6","4","3","3","3","4","2","5","1","5","2","1","4","2","5","6","4","4","4","3","3","4","3","4","3","5","3","6","3","4","6","5","4","6","7","4","3","5","3","4","3","5","781990149121904642","王","148","Female","[""好我"",""坏她"",""坏我"",""好她""]","[""强我"",""弱她"",""弱我"",""强她""]","","","","","","","","null","","","","","","","","","","key","null","16.66566412213733","691.8918681138917","385.22521198632825","f","false","match","img/triangle.png","坏她","坏她","ALT2","moral","","","","","","","","",""
"null","<span class='add_' style='color:yellow; font-size: 70px;'> 太慢! </span>","null","html-keyboard-response","135","285287","0.0-8.0-0.0-4.0-0.0-1.13","5","5","5","5","4","4","3","3","3","4","4","1","0","0","1","-1","0","0","1","4","3","5","5","2","3","3","3","4","4","7","8","6","8","7","5","5","7","6","4","3","3","3","4","2","5","1","5","2","1","4","2","5","6","4","4","4","3","3","4","3","4","3","5","3","6","3","4","6","5","4","6","7","4","3","5","3","4","3","5","781990149121904642","王","148","Female","[""好我"",""坏她"",""坏我"",""好她""]","[""强我"",""弱她"",""弱我"",""强她""]","","","","","","","","","","","","","","","","","","","","","","","","","","","","","","feedback_test","","","","","","","","",""
