"rt","stimulus","response","trial_type","trial_index","time_elapsed","internal_node_id","swb_1","swb_2","swb_3","swb_4","swb_5","LOT_1","LOT_2","LOT_3","LOT_4","LOT_5","LOT_6","IPC_1","IPC_2","IPC_3","IPC_4","IPC_5","IPC_6","IPC_7","IPC_8","MorIden_1","MorIden_2","MorIden_3","MorIden_4","MorIden_5","MorIden_6","MorIden_7","MorIden_8","MorIden_9","MorIden_10","moralSeImag_1","moralSeImag_2","moralSeImag_3","moralSeImag_4","moralSeImag_5","moralSeImag_6","moralSeImag_7","moralSeImag_8","moralSeImag_9","sde_1","sde_2","sde_3","sde_4","sde_5","sde_6","sde_7","sde_8","sde_9","sde_10","trap2","sde_11","sde_12","sde_13","sde_14","sde_15","sde_16","sde_17","sde_18","sde_19","sde_20","IM_1","IM_2","IM_3","IM_4","IM_5","IM_6","IM_7","IM_8","IM_9","IM_10","IM_11","IM_12","IM_13","IM_14","IM_15","IM_16","IM_17","IM_18","IM_19","IM_20","subj_idx","friend_name","ParticipantID","Sex","Word","Word2","value","success","timeout","failed_images","failed_audio","failed_video","user_agent","responses","item_order","radio_event_ids","radio_event_times","key_event_times","mouse_event_times","straightlining","zigzagging","honeypot","task_id","screen_id","time_stamp","response_type","key_press","avg_frame_time","center_x","center_y","person","word","valence","domain","math","correct_response","correct","status","identity","view_history","duration","Image","condition","question_order","trap2_item"
"3166","
   <p><div style='color:white; font-size: 25px'>您好，欢迎参加本次实验。</div></p>
   <p><div style='color:white; font-size: 25px'>为充分保障您的权利，请确保您已经知晓并同意《参与实验同意书》以及《数据公开知情同意书》。</div></p>
   <p><div style='color:white; font-size: 25px'>如果您未见过上述内容，请咨询实验员。</div></p>
   <p style='color:white; font-size: 25px'>如果您选择继续实验，则表示您已经清楚两份知情同意书的内容并同意。</p>
   <p><div style = ""color: pink;font-size:30px;"">请确保您记得day0的实验编号，您将在本次实验输入该编号，若您忘记，请咨询实验员后作答。</div></p>
   <p><div style = ""color:lightblue;font-size:25px;"">请您尽可能认真地作答，我们将依据您在各问卷和按键任务中的作答质量发放报酬。</div></p>
   <p> <div style = ""color: green""><按空格键至下页></div> </p>
   "," ","html-keyboard-response","0","3174","0.0-0.0","5","5","6","5","6","5","4","4","4","4","5","-1","1","0","1","-1","1","1","0","4","4","5","5","5","4","4","5","4","4","7","8","7","8","8","7","8","7","8","5","4","5","4","4","3","5","2","4","4","1","5","3","6","4","4","6","4","4","5","4","4","5","6","5","3","6","6","5","6","5","6","5","4","6","6","5","5","5","4","6","787037378752811010","李","402","Male","[""坏他"",""好我"",""坏我"",""好他""]","[""弱他"",""强我"",""弱我"",""强他""]","","","","","","","","","","","","","","","","","","","","","","","","","","","","","","","","","","","","","","",""
"","","","call-function","1","3176","0.0-1.0-0.0","5","5","6","5","6","5","4","4","4","4","5","-1","1","0","1","-1","1","1","0","4","4","5","5","5","4","4","5","4","4","7","8","7","8","8","7","8","7","8","5","4","5","4","4","3","5","2","4","4","1","5","3","6","4","4","6","4","4","5","4","4","5","6","5","3","6","6","5","6","5","6","5","4","6","6","5","5","5","4","6","787037378752811010","李","402","Male","[""坏他"",""好我"",""坏我"",""好他""]","[""弱他"",""强我"",""弱我"",""强他""]","","","","","","","","","","","","","","","","","","","","","","","","","","","","","","","","","","","","","","",""
"36284","","[{""name"":""Sex"",""value"":""0""},{""name"":""friend_name"",""value"":""李""},{""name"":""ParticipantID"",""value"":""402""}]","survey-html-form","2","39464","0.0-1.0-1.0","5","5","6","5","6","5","4","4","4","4","5","-1","1","0","1","-1","1","1","0","4","4","5","5","5","4","4","5","4","4","7","8","7","8","8","7","8","7","8","5","4","5","4","4","3","5","2","4","4","1","5","3","6","4","4","6","4","4","5","4","4","5","6","5","3","6","6","5","6","5","6","5","4","6","6","5","5","5","4","6","787037378752811010","李","402","Male","[""坏他"",""好我"",""坏我"",""好他""]","[""弱他"",""强我"",""弱我"",""强他""]","","","","","","","","","","","","","","","","","","","","","","","","","","","","","","","","","","","","","","",""
"","","","preload","3","40500","0.0-2.0","5","5","6","5","6","5","4","4","4","4","5","-1","1","0","1","-1","1","1","0","4","4","5","5","5","4","4","5","4","4","7","8","7","8","8","7","8","7","8","5","4","5","4","4","3","5","2","4","4","1","5","3","6","4","4","6","4","4","5","4","4","5","6","5","3","6","6","5","6","5","6","5","4","6","6","5","5","5","4","6","787037378752811010","李","402","Male","[""坏他"",""好我"",""坏我"",""好他""]","[""弱他"",""强我"",""弱我"",""强他""]","","true","false","[]","[]","[]","","","","","","","","","","","","","","","","","","","","","","","","","","","","","","","","",""
"","","","fullscreen","4","41702","0.0-3.0","5","5","6","5","6","5","4","4","4","4","5","-1","1","0","1","-1","1","1","0","4","4","5","5","5","4","4","5","4","4","7","8","7","8","8","7","8","7","8","5","4","5","4","4","3","5","2","4","4","1","5","3","6","4","4","6","4","4","5","4","4","5","6","5","3","6","6","5","6","5","6","5","4","6","6","5","5","5","4","6","787037378752811010","李","402","Male","[""坏他"",""好我"",""坏我"",""好他""]","[""弱他"",""强我"",""弱我"",""强他""]","","true","","","","","{}","","","","","","","","","","","","","","","","","","","","","","","","","","","","","","","",""
"8486","","{""Q01"":""5"",""Q02"":""5"",""Q03"":""6"",""Q04"":""5"",""Q05"":""6""}","survey-template","5","50195","0.0-4.0","5","5","6","5","6","5","4","4","4","4","5","-1","1","0","1","-1","1","1","0","4","4","5","5","5","4","4","5","4","4","7","8","7","8","8","7","8","7","8","5","4","5","4","4","3","5","2","4","4","1","5","3","6","4","4","6","4","4","5","4","4","5","6","5","3","6","6","5","6","5","6","5","4","6","6","5","5","5","4","6","787037378752811010","李","402","Male","[""坏他"",""好我"",""坏我"",""好他""]","[""弱他"",""强我"",""弱我"",""强他""]","","","","","","","","{""Q01"":""5"",""Q02"":""5"",""Q03"":""6"",""Q04"":""5"",""Q05"":""6""}","[0,1,2,3,4]","[""Q01"",""Q02"",""Q03"",""Q04"",""Q05""]","[1867,4002.5,5091,6786.700000001118,8026.700000001118]","[]","[1867,4002.5,5091,6786.700000001118,8026.700000001118,8482.900000000373]","0.6","0.75","0","","","","","","","","","","","","","","","","","","","","","","",""
"10919.400000000373","","{""Q01"":""5"",""Q02"":""4"",""Q03"":""4"",""Q04"":""4"",""Q05"":""4"",""Q06"":""5""}","survey-template","6","61129","0.0-5.0","5","5","6","5","6","5","4","4","4","4","5","-1","1","0","1","-1","1","1","0","4","4","5","5","5","4","4","5","4","4","7","8","7","8","8","7","8","7","8","5","4","5","4","4","3","5","2","4","4","1","5","3","6","4","4","6","4","4","5","4","4","5","6","5","3","6","6","5","6","5","6","5","4","6","6","5","5","5","4","6","787037378752811010","李","402","Male","[""坏他"",""好我"",""坏我"",""好他""]","[""弱他"",""强我"",""弱我"",""强他""]","","","","","","","","{""Q01"":""5"",""Q02"":""4"",""Q03"":""4"",""Q04"":""4"",""Q05"":""4"",""Q06"":""5""}","[0,1,2,3,4,5]","[""Q01"",""Q02"",""Q03"",""Q04"",""Q05"",""Q06""]","[2293.699999999255,4477.5999999996275,5541.299999998882,7333.199999999255,8061.199999999255,9549.299999998882]","[]","[2293.699999999255,4477.5999999996275,5541.299999998882,6549.4000000003725,7333.199999999255,8061.199999999255,9549.299999998882,10917.400000000373]","0.5","0","0","","","","","","","","","","","","","","","","","","","","","","",""
"15308.699999999255","","{""Q01"":""-1"",""Q02"":""1"",""Q03"":""0"",""Q04"":""1"",""Q05"":""-1"",""Q06"":""1"",""Q07"":""1"",""Q08"":""0""}","survey-template","7","76452","0.0-6.0","5","5","6","5","6","5","4","4","4","4","5","-1","1","0","1","-1","1","1","0","4","4","5","5","5","4","4","5","4","4","7","8","7","8","8","7","8","7","8","5","4","5","4","4","3","5","2","4","4","1","5","3","6","4","4","6","4","4","5","4","4","5","6","5","3","6","6","5","6","5","6","5","4","6","6","5","5","5","4","6","787037378752811010","李","402","Male","[""坏他"",""好我"",""坏我"",""好他""]","[""弱他"",""强我"",""弱我"",""强他""]","","","","","","","","{""Q01"":""-1"",""Q02"":""1"",""Q03"":""0"",""Q04"":""1"",""Q05"":""-1"",""Q06"":""1"",""Q07"":""1"",""Q08"":""0""}","[0,1,2,3,4,5,6,7]","[""Q01"",""Q02"",""Q03"",""Q04"",""Q05"",""Q06"",""Q07"",""Q08""]","[3025.39999999851,4984.5999999996275,6393.0999999996275,7921.39999999851,9057.199999999255,10913.199999999255,12777.199999999255,14265.099999999627]","[]","[3025.39999999851,4984.5999999996275,6393.0999999996275,7921.39999999851,9057.199999999255,10913.199999999255,12777.199999999255,14265.099999999627,15305.199999999255]","0.5","0.42857142857142855","0","","","","","","","","","","","","","","","","","","","","","","",""
"35527","
    <p><div style='color:white;font-size:35px; line-height:20px;'>词汇评估任务</div></p><br>
    <p><div style='color:white;font-size:25px; line-height:20px;'>请再次回忆该亲密的朋友，你们至少2年前就认识了，并且最近2年经常见面。</div></p>
    <p><div style='color:white;font-size:25px; line-height:20px;'>在本实验中，您将会看到一些形容词。</div></p>
    <p><div style='color:yellow;font-size:25px; line-height:20px;'>您的任务是判断这些形容词是否符合对您自己或您的朋友的描述。</div></p><p style='font-size:35px'>符合按<span style=""color:lightgreen""> f 键</span>，不符合按<span style=""color:red""> j 键</span></p>","0","html-button-response","8","111991","0.0-7.0-0.0","5","5","6","5","6","5","4","4","4","4","5","-1","1","0","1","-1","1","1","0","4","4","5","5","5","4","4","5","4","4","7","8","7","8","8","7","8","7","8","5","4","5","4","4","3","5","2","4","4","1","5","3","6","4","4","6","4","4","5","4","4","5","6","5","3","6","6","5","6","5","6","5","4","6","6","5","5","5","4","6","787037378752811010","李","402","Male","[""坏他"",""好我"",""坏我"",""好他""]","[""弱他"",""强我"",""弱我"",""强他""]","","","","","","","","","","","","","","","","","SRET_EW","EW_instructions","Tue Dec 19 2023 13:42:24 GMT+0800 (中国标准时间)","","","","","","","","","","","","","","","","","","","",""
"null","","null","psychophysics","9","115021","0.0-7.0-1.0-0.0","5","5","6","5","6","5","4","4","4","4","5","-1","1","0","1","-1","1","1","0","4","4","5","5","5","4","4","5","4","4","7","8","7","8","8","7","8","7","8","5","4","5","4","4","3","5","2","4","4","1","5","3","6","4","4","6","4","4","5","4","4","5","6","5","3","6","6","5","6","5","6","5","4","6","6","5","5","5","4","6","787037378752811010","李","402","Male","[""坏他"",""好我"",""坏我"",""好他""]","[""弱他"",""强我"",""弱我"",""强他""]","","","","","","","","","","","","","","","","","SRET_EW","EW_practice","","key","null","17.638837209302267","683","380","朋友","徇私","Negative","morality","","","","","","","","","","",""
"null","","null","psychophysics","10","118027","0.0-7.0-1.0-0.1","5","5","6","5","6","5","4","4","4","4","5","-1","1","0","1","-1","1","1","0","4","4","5","5","5","4","4","5","4","4","7","8","7","8","8","7","8","7","8","5","4","5","4","4","3","5","2","4","4","1","5","3","6","4","4","6","4","4","5","4","4","5","6","5","3","6","6","5","6","5","6","5","4","6","6","5","5","5","4","6","787037378752811010","李","402","Male","[""坏他"",""好我"",""坏我"",""好他""]","[""弱他"",""强我"",""弱我"",""强他""]","","","","","","","","","","","","","","","","","SRET_EW","EW_practice","","key","null","16.66546368715085","683","380","自己","刻板","Negative","ability","","","","","","","","","","",""
"null","","null","psychophysics","11","121036","0.0-7.0-1.0-0.2","5","5","6","5","6","5","4","4","4","4","5","-1","1","0","1","-1","1","1","0","4","4","5","5","5","4","4","5","4","4","7","8","7","8","8","7","8","7","8","5","4","5","4","4","3","5","2","4","4","1","5","3","6","4","4","6","4","4","5","4","4","5","6","5","3","6","6","5","6","5","6","5","4","6","6","5","5","5","4","6","787037378752811010","李","402","Male","[""坏他"",""好我"",""坏我"",""好他""]","[""弱他"",""强我"",""弱我"",""强他""]","","","","","","","","","","","","","","","","","SRET_EW","EW_practice","","key","null","16.758463687150833","683","380","自己","严谨","Positive","ability","","","","","","","","","","",""
"null","","null","psychophysics","12","124042","0.0-7.0-1.0-0.3","5","5","6","5","6","5","4","4","4","4","5","-1","1","0","1","-1","1","1","0","4","4","5","5","5","4","4","5","4","4","7","8","7","8","8","7","8","7","8","5","4","5","4","4","3","5","2","4","4","1","5","3","6","4","4","6","4","4","5","4","4","5","6","5","3","6","6","5","6","5","6","5","4","6","6","5","5","5","4","6","787037378752811010","李","402","Male","[""坏他"",""好我"",""坏我"",""好他""]","[""弱他"",""强我"",""弱我"",""强他""]","","","","","","","","","","","","","","","","","SRET_EW","EW_practice","","key","null","16.853903954802195","683","380","朋友","忠实","Positive","morality","","","","","","","","","","",""
"6808","
    <p><div style='color:white;font-size:35px; line-height:20px;'>请您再次阅读实验要求</div></p><br>
    <p><div style='color:white;font-size:25px; line-height:20px;'>请回忆某一个亲密的朋友，你们至少2年前就认识了，并且最近2年经常见面。</div></p>
    <p><div style='color:white;font-size:25px; line-height:20px;'>在本实验中，您将会看到一些形容词。</div></p>
    <p><div style='color:yellow;font-size:25px; line-height:20px;'>您的任务是判断这些形容词是否符合对您自己或您的朋友的描述。</div></p>
    <p><div class='footer' style='font-size:25px; line-height:20px;'>如果对本实验还有不清楚之处，请立即向实验员咨询。</p><p style='font-size:25px; line-height:20px;'>如果您明白了规则：</p><p style='font-size:22px; line-height:20px;'>请按 继续 进入正式实验</p>
    </div>
    <p style='font-size:35px'>符合按<span style=""color:lightgreen""> f 键</span>，不符合按<span style=""color:red""> j 键</span></p>","0","html-button-response","13","130854","0.0-7.0-2.0","5","5","6","5","6","5","4","4","4","4","5","-1","1","0","1","-1","1","1","0","4","4","5","5","5","4","4","5","4","4","7","8","7","8","8","7","8","7","8","5","4","5","4","4","3","5","2","4","4","1","5","3","6","4","4","6","4","4","5","4","4","5","6","5","3","6","6","5","6","5","6","5","4","6","6","5","5","5","4","6","787037378752811010","李","402","Male","[""坏他"",""好我"",""坏我"",""好他""]","[""弱他"",""强我"",""弱我"",""强他""]","","","","","","","","","","","","","","","","","SRET_EW","prac_instructions","Tue Dec 19 2023 13:42:24 GMT+0800 (中国标准时间)","","","","","","","","","","","","","","","","","","","",""
"null","","null","psychophysics","14","133869","0.0-7.0-3.0-0.0","5","5","6","5","6","5","4","4","4","4","5","-1","1","0","1","-1","1","1","0","4","4","5","5","5","4","4","5","4","4","7","8","7","8","8","7","8","7","8","5","4","5","4","4","3","5","2","4","4","1","5","3","6","4","4","6","4","4","5","4","4","5","6","5","3","6","6","5","6","5","6","5","4","6","6","5","5","5","4","6","787037378752811010","李","402","Male","[""坏他"",""好我"",""坏我"",""好他""]","[""弱他"",""强我"",""弱我"",""强他""]","","","","","","","","","","","","","","","","","SRET","EW_formal","","key","null","16.852033519553046","683","380","自己","坚贞","Positive","morality","","","","","","","","","","",""
"929","","j","psychophysics","15","135805","0.0-7.0-3.0-0.1","5","5","6","5","6","5","4","4","4","4","5","-1","1","0","1","-1","1","1","0","4","4","5","5","5","4","4","5","4","4","7","8","7","8","8","7","8","7","8","5","4","5","4","4","3","5","2","4","4","1","5","3","6","4","4","6","4","4","5","4","4","5","6","5","3","6","6","5","6","5","6","5","4","6","6","5","5","5","4","6","787037378752811010","李","402","Male","[""坏他"",""好我"",""坏我"",""好他""]","[""弱他"",""强我"",""弱我"",""强他""]","","","","","","","","no","","","","","","","","","SRET","EW_formal","","key","j","16.811921052631398","683","380","朋友","迷糊","Negative","ability","","","","","","","","","","",""
"942","","f","psychophysics","16","137754","0.0-7.0-3.0-0.2","5","5","6","5","6","5","4","4","4","4","5","-1","1","0","1","-1","1","1","0","4","4","5","5","5","4","4","5","4","4","7","8","7","8","8","7","8","7","8","5","4","5","4","4","3","5","2","4","4","1","5","3","6","4","4","6","4","4","5","4","4","5","6","5","3","6","6","5","6","5","6","5","4","6","6","5","5","5","4","6","787037378752811010","李","402","Male","[""坏他"",""好我"",""坏我"",""好他""]","[""弱他"",""强我"",""弱我"",""强他""]","","","","","","","","yes","","","","","","","","","SRET","EW_formal","","key","f","16.665612068965356","683","380","朋友","务实","Positive","ability","","","","","","","","","","",""
"1041","","j","psychophysics","17","139805","0.0-7.0-3.0-0.3","5","5","6","5","6","5","4","4","4","4","5","-1","1","0","1","-1","1","1","0","4","4","5","5","5","4","4","5","4","4","7","8","7","8","8","7","8","7","8","5","4","5","4","4","3","5","2","4","4","1","5","3","6","4","4","6","4","4","5","4","4","5","6","5","3","6","6","5","6","5","6","5","4","6","6","5","5","5","4","6","787037378752811010","李","402","Male","[""坏他"",""好我"",""坏我"",""好他""]","[""弱他"",""强我"",""弱我"",""强他""]","","","","","","","","no","","","","","","","","","SRET","EW_formal","","key","j","16.943049999999978","683","380","自己","说谎","Negative","morality","","","","","","","","","","",""
"1108","","j","psychophysics","18","141920","0.0-7.0-3.0-0.4","5","5","6","5","6","5","4","4","4","4","5","-1","1","0","1","-1","1","1","0","4","4","5","5","5","4","4","5","4","4","7","8","7","8","8","7","8","7","8","5","4","5","4","4","3","5","2","4","4","1","5","3","6","4","4","6","4","4","5","4","4","5","6","5","3","6","6","5","6","5","6","5","4","6","6","5","5","5","4","6","787037378752811010","李","402","Male","[""坏他"",""好我"",""坏我"",""好他""]","[""弱他"",""强我"",""弱我"",""强他""]","","","","","","","","no","","","","","","","","","SRET","EW_formal","","key","j","16.665507936507872","683","380","朋友","无助","Negative","ability","","","","","","","","","","",""
"1044","","f","psychophysics","19","143969","0.0-7.0-3.0-0.5","5","5","6","5","6","5","4","4","4","4","5","-1","1","0","1","-1","1","1","0","4","4","5","5","5","4","4","5","4","4","7","8","7","8","8","7","8","7","8","5","4","5","4","4","3","5","2","4","4","1","5","3","6","4","4","6","4","4","5","4","4","5","6","5","3","6","6","5","6","5","6","5","4","6","6","5","5","5","4","6","787037378752811010","李","402","Male","[""坏他"",""好我"",""坏我"",""好他""]","[""弱他"",""强我"",""弱我"",""强他""]","","","","","","","","yes","","","","","","","","","SRET","EW_formal","","key","f","16.66685950413225","683","380","自己","勤奋","Positive","ability","","","","","","","","","","",""
"1089","","f","psychophysics","20","146061","0.0-7.0-3.0-0.6","5","5","6","5","6","5","4","4","4","4","5","-1","1","0","1","-1","1","1","0","4","4","5","5","5","4","4","5","4","4","7","8","7","8","8","7","8","7","8","5","4","5","4","4","3","5","2","4","4","1","5","3","6","4","4","6","4","4","5","4","4","5","6","5","3","6","6","5","6","5","6","5","4","6","6","5","5","5","4","6","787037378752811010","李","402","Male","[""坏他"",""好我"",""坏我"",""好他""]","[""弱他"",""强我"",""弱我"",""强他""]","","","","","","","","yes","","","","","","","","","SRET","EW_formal","","key","f","17.07605737704926","683","380","朋友","中用","Positive","ability","","","","","","","","","","",""
"1099","","f","psychophysics","21","148167","0.0-7.0-3.0-0.7","5","5","6","5","6","5","4","4","4","4","5","-1","1","0","1","-1","1","1","0","4","4","5","5","5","4","4","5","4","4","7","8","7","8","8","7","8","7","8","5","4","5","4","4","3","5","2","4","4","1","5","3","6","4","4","6","4","4","5","4","4","5","6","5","3","6","6","5","6","5","6","5","4","6","6","5","5","5","4","6","787037378752811010","李","402","Male","[""坏他"",""好我"",""坏我"",""好他""]","[""弱他"",""强我"",""弱我"",""强他""]","","","","","","","","yes","","","","","","","","","SRET","EW_formal","","key","f","16.937040650406455","683","380","自己","慈悲","Positive","morality","","","","","","","","","","",""
"1066","","j","psychophysics","22","150245","0.0-7.0-3.0-0.8","5","5","6","5","6","5","4","4","4","4","5","-1","1","0","1","-1","1","1","0","4","4","5","5","5","4","4","5","4","4","7","8","7","8","8","7","8","7","8","5","4","5","4","4","3","5","2","4","4","1","5","3","6","4","4","6","4","4","5","4","4","5","6","5","3","6","6","5","6","5","6","5","4","6","6","5","5","5","4","6","787037378752811010","李","402","Male","[""坏他"",""好我"",""坏我"",""好他""]","[""弱他"",""强我"",""弱我"",""强他""]","","","","","","","","no","","","","","","","","","SRET","EW_formal","","key","j","16.665838709677523","683","380","朋友","虚伪","Negative","morality","","","","","","","","","","",""
"972","","j","psychophysics","23","152222","0.0-7.0-3.0-0.9","5","5","6","5","6","5","4","4","4","4","5","-1","1","0","1","-1","1","1","0","4","4","5","5","5","4","4","5","4","4","7","8","7","8","8","7","8","7","8","5","4","5","4","4","3","5","2","4","4","1","5","3","6","4","4","6","4","4","5","4","4","5","6","5","3","6","6","5","6","5","6","5","4","6","6","5","5","5","4","6","787037378752811010","李","402","Male","[""坏他"",""好我"",""坏我"",""好他""]","[""弱他"",""强我"",""弱我"",""强他""]","","","","","","","","no","","","","","","","","","SRET","EW_formal","","key","j","16.665779661016995","683","380","朋友","淫乱","Negative","morality","","","","","","","","","","",""
"1161","","f","psychophysics","24","154389","0.0-7.0-3.0-0.10","5","5","6","5","6","5","4","4","4","4","5","-1","1","0","1","-1","1","1","0","4","4","5","5","5","4","4","5","4","4","7","8","7","8","8","7","8","7","8","5","4","5","4","4","3","5","2","4","4","1","5","3","6","4","4","6","4","4","5","4","4","5","6","5","3","6","6","5","6","5","6","5","4","6","6","5","5","5","4","6","787037378752811010","李","402","Male","[""坏他"",""好我"",""坏我"",""好他""]","[""弱他"",""强我"",""弱我"",""强他""]","","","","","","","","yes","","","","","","","","","SRET","EW_formal","","key","f","16.66596124030996","683","380","自己","业余","Negative","ability","","","","","","","","","","",""
"1209","","f","psychophysics","25","156604","0.0-7.0-3.0-0.11","5","5","6","5","6","5","4","4","4","4","5","-1","1","0","1","-1","1","1","0","4","4","5","5","5","4","4","5","4","4","7","8","7","8","8","7","8","7","8","5","4","5","4","4","3","5","2","4","4","1","5","3","6","4","4","6","4","4","5","4","4","5","6","5","3","6","6","5","6","5","6","5","4","6","6","5","5","5","4","6","787037378752811010","李","402","Male","[""坏他"",""好我"",""坏我"",""好他""]","[""弱他"",""强我"",""弱我"",""强他""]","","","","","","","","yes","","","","","","","","","SRET","EW_formal","","key","f","16.792351145038243","683","380","朋友","忠诚","Positive","morality","","","","","","","","","","",""
"1241","","f","psychophysics","26","158853","0.0-7.0-3.0-0.12","5","5","6","5","6","5","4","4","4","4","5","-1","1","0","1","-1","1","1","0","4","4","5","5","5","4","4","5","4","4","7","8","7","8","8","7","8","7","8","5","4","5","4","4","3","5","2","4","4","1","5","3","6","4","4","6","4","4","5","4","4","5","6","5","3","6","6","5","6","5","6","5","4","6","6","5","5","5","4","6","787037378752811010","李","402","Male","[""坏他"",""好我"",""坏我"",""好他""]","[""弱他"",""强我"",""弱我"",""强他""]","","","","","","","","yes","","","","","","","","","SRET","EW_formal","","key","f","16.665074626865636","683","380","自己","沉着","Positive","ability","","","","","","","","","","",""
"1553","","f","psychophysics","27","161412","0.0-7.0-3.0-0.13","5","5","6","5","6","5","4","4","4","4","5","-1","1","0","1","-1","1","1","0","4","4","5","5","5","4","4","5","4","4","7","8","7","8","8","7","8","7","8","5","4","5","4","4","3","5","2","4","4","1","5","3","6","4","4","6","4","4","5","4","4","5","6","5","3","6","6","5","6","5","6","5","4","6","6","5","5","5","4","6","787037378752811010","李","402","Male","[""坏他"",""好我"",""坏我"",""好他""]","[""弱他"",""强我"",""弱我"",""强他""]","","","","","","","","yes","","","","","","","","","SRET","EW_formal","","key","f","16.66574342105263","683","380","朋友","自律","Positive","ability","","","","","","","","","","",""
"851","","f","psychophysics","28","163269","0.0-7.0-3.0-0.14","5","5","6","5","6","5","4","4","4","4","5","-1","1","0","1","-1","1","1","0","4","4","5","5","5","4","4","5","4","4","7","8","7","8","8","7","8","7","8","5","4","5","4","4","3","5","2","4","4","1","5","3","6","4","4","6","4","4","5","4","4","5","6","5","3","6","6","5","6","5","6","5","4","6","6","5","5","5","4","6","787037378752811010","李","402","Male","[""坏他"",""好我"",""坏我"",""好他""]","[""弱他"",""强我"",""弱我"",""强他""]","","","","","","","","yes","","","","","","","","","SRET","EW_formal","","key","f","16.66509909909911","683","380","自己","厚道","Positive","morality","","","","","","","","","","",""
"1129","","j","psychophysics","29","165405","0.0-7.0-3.0-0.15","5","5","6","5","6","5","4","4","4","4","5","-1","1","0","1","-1","1","1","0","4","4","5","5","5","4","4","5","4","4","7","8","7","8","8","7","8","7","8","5","4","5","4","4","3","5","2","4","4","1","5","3","6","4","4","6","4","4","5","4","4","5","6","5","3","6","6","5","6","5","6","5","4","6","6","5","5","5","4","6","787037378752811010","李","402","Male","[""坏他"",""好我"",""坏我"",""好他""]","[""弱他"",""强我"",""弱我"",""强他""]","","","","","","","","no","","","","","","","","","SRET","EW_formal","","key","j","16.666251968503946","683","380","朋友","外行","Negative","ability","","","","","","","","","","",""
"1067","","f","psychophysics","30","167481","0.0-7.0-3.0-0.16","5","5","6","5","6","5","4","4","4","4","5","-1","1","0","1","-1","1","1","0","4","4","5","5","5","4","4","5","4","4","7","8","7","8","8","7","8","7","8","5","4","5","4","4","3","5","2","4","4","1","5","3","6","4","4","6","4","4","5","4","4","5","6","5","3","6","6","5","6","5","6","5","4","6","6","5","5","5","4","6","787037378752811010","李","402","Male","[""坏他"",""好我"",""坏我"",""好他""]","[""弱他"",""强我"",""弱我"",""强他""]","","","","","","","","yes","","","","","","","","","SRET","EW_formal","","key","f","16.77874590163921","683","380","朋友","果断","Positive","ability","","","","","","","","","","",""
"1145","","j","psychophysics","31","169637","0.0-7.0-3.0-0.17","5","5","6","5","6","5","4","4","4","4","5","-1","1","0","1","-1","1","1","0","4","4","5","5","5","4","4","5","4","4","7","8","7","8","8","7","8","7","8","5","4","5","4","4","3","5","2","4","4","1","5","3","6","4","4","6","4","4","5","4","4","5","6","5","3","6","6","5","6","5","6","5","4","6","6","5","5","5","4","6","787037378752811010","李","402","Male","[""坏他"",""好我"",""坏我"",""好他""]","[""弱他"",""强我"",""弱我"",""强他""]","","","","","","","","no","","","","","","","","","SRET","EW_formal","","key","j","16.942818897637892","683","380","朋友","愚蠢","Negative","ability","","","","","","","","","","",""
"1000","","f","psychophysics","32","171644","0.0-7.0-3.0-0.18","5","5","6","5","6","5","4","4","4","4","5","-1","1","0","1","-1","1","1","0","4","4","5","5","5","4","4","5","4","4","7","8","7","8","8","7","8","7","8","5","4","5","4","4","3","5","2","4","4","1","5","3","6","4","4","6","4","4","5","4","4","5","6","5","3","6","6","5","6","5","6","5","4","6","6","5","5","5","4","6","787037378752811010","李","402","Male","[""坏他"",""好我"",""坏我"",""好他""]","[""弱他"",""强我"",""弱我"",""强他""]","","","","","","","","yes","","","","","","","","","SRET","EW_formal","","key","f","16.95733333333335","683","380","自己","细心","Positive","ability","","","","","","","","","","",""
"1303","","f","psychophysics","33","173951","0.0-7.0-3.0-0.19","5","5","6","5","6","5","4","4","4","4","5","-1","1","0","1","-1","1","1","0","4","4","5","5","5","4","4","5","4","4","7","8","7","8","8","7","8","7","8","5","4","5","4","4","3","5","2","4","4","1","5","3","6","4","4","6","4","4","5","4","4","5","6","5","3","6","6","5","6","5","6","5","4","6","6","5","5","5","4","6","787037378752811010","李","402","Male","[""坏他"",""好我"",""坏我"",""好他""]","[""弱他"",""强我"",""弱我"",""强他""]","","","","","","","","yes","","","","","","","","","SRET","EW_formal","","key","f","16.665340579710218","683","380","自己","犹豫","Negative","ability","","","","","","","","","","",""
"980","","f","psychophysics","34","175936","0.0-7.0-3.0-0.20","5","5","6","5","6","5","4","4","4","4","5","-1","1","0","1","-1","1","1","0","4","4","5","5","5","4","4","5","4","4","7","8","7","8","8","7","8","7","8","5","4","5","4","4","3","5","2","4","4","1","5","3","6","4","4","6","4","4","5","4","4","5","6","5","3","6","6","5","6","5","6","5","4","6","6","5","5","5","4","6","787037378752811010","李","402","Male","[""坏他"",""好我"",""坏我"",""好他""]","[""弱他"",""强我"",""弱我"",""强他""]","","","","","","","","yes","","","","","","","","","SRET","EW_formal","","key","f","16.666525423728764","683","380","自己","忠良","Positive","morality","","","","","","","","","","",""
"1297","","f","psychophysics","35","178237","0.0-7.0-3.0-0.21","5","5","6","5","6","5","4","4","4","4","5","-1","1","0","1","-1","1","1","0","4","4","5","5","5","4","4","5","4","4","7","8","7","8","8","7","8","7","8","5","4","5","4","4","3","5","2","4","4","1","5","3","6","4","4","6","4","4","5","4","4","5","6","5","3","6","6","5","6","5","6","5","4","6","6","5","5","5","4","6","787037378752811010","李","402","Male","[""坏他"",""好我"",""坏我"",""好他""]","[""弱他"",""强我"",""弱我"",""强他""]","","","","","","","","yes","","","","","","","","","SRET","EW_formal","","key","f","16.788529411764852","683","380","朋友","善心","Positive","morality","","","","","","","","","","",""
"1441","","j","psychophysics","36","180685","0.0-7.0-3.0-0.22","5","5","6","5","6","5","4","4","4","4","5","-1","1","0","1","-1","1","1","0","4","4","5","5","5","4","4","5","4","4","7","8","7","8","8","7","8","7","8","5","4","5","4","4","3","5","2","4","4","1","5","3","6","4","4","6","4","4","5","4","4","5","6","5","3","6","6","5","6","5","6","5","4","6","6","5","5","5","4","6","787037378752811010","李","402","Male","[""坏他"",""好我"",""坏我"",""好他""]","[""弱他"",""强我"",""弱我"",""强他""]","","","","","","","","no","","","","","","","","","SRET","EW_formal","","key","j","16.665623287671313","683","380","自己","无赖","Negative","morality","","","","","","","","","","",""
"1065","","j","psychophysics","37","182756","0.0-7.0-3.0-0.23","5","5","6","5","6","5","4","4","4","4","5","-1","1","0","1","-1","1","1","0","4","4","5","5","5","4","4","5","4","4","7","8","7","8","8","7","8","7","8","5","4","5","4","4","3","5","2","4","4","1","5","3","6","4","4","6","4","4","5","4","4","5","6","5","3","6","6","5","6","5","6","5","4","6","6","5","5","5","4","6","787037378752811010","李","402","Male","[""坏他"",""好我"",""坏我"",""好他""]","[""弱他"",""强我"",""弱我"",""强他""]","","","","","","","","no","","","","","","","","","SRET","EW_formal","","key","j","16.6659593495935","683","380","自己","贪腐","Negative","morality","","","","","","","","","","",""
"1238","","j","psychophysics","38","185004","0.0-7.0-3.0-0.24","5","5","6","5","6","5","4","4","4","4","5","-1","1","0","1","-1","1","1","0","4","4","5","5","5","4","4","5","4","4","7","8","7","8","8","7","8","7","8","5","4","5","4","4","3","5","2","4","4","1","5","3","6","4","4","6","4","4","5","4","4","5","6","5","3","6","6","5","6","5","6","5","4","6","6","5","5","5","4","6","787037378752811010","李","402","Male","[""坏他"",""好我"",""坏我"",""好他""]","[""弱他"",""强我"",""弱我"",""强他""]","","","","","","","","no","","","","","","","","","SRET","EW_formal","","key","j","16.66638059701502","683","380","自己","卑鄙","Negative","morality","","","","","","","","","","",""
"1092","","j","psychophysics","39","187108","0.0-7.0-3.0-0.25","5","5","6","5","6","5","4","4","4","4","5","-1","1","0","1","-1","1","1","0","4","4","5","5","5","4","4","5","4","4","7","8","7","8","8","7","8","7","8","5","4","5","4","4","3","5","2","4","4","1","5","3","6","4","4","6","4","4","5","4","4","5","6","5","3","6","6","5","6","5","6","5","4","6","6","5","5","5","4","6","787037378752811010","李","402","Male","[""坏他"",""好我"",""坏我"",""好他""]","[""弱他"",""强我"",""弱我"",""强他""]","","","","","","","","no","","","","","","","","","SRET","EW_formal","","key","j","16.66623999999999","683","380","自己","失信","Negative","morality","","","","","","","","","","",""
"1209","","j","psychophysics","40","189325","0.0-7.0-3.0-0.26","5","5","6","5","6","5","4","4","4","4","5","-1","1","0","1","-1","1","1","0","4","4","5","5","5","4","4","5","4","4","7","8","7","8","8","7","8","7","8","5","4","5","4","4","3","5","2","4","4","1","5","3","6","4","4","6","4","4","5","4","4","5","6","5","3","6","6","5","6","5","6","5","4","6","6","5","5","5","4","6","787037378752811010","李","402","Male","[""坏他"",""好我"",""坏我"",""好他""]","[""弱他"",""强我"",""弱我"",""强他""]","","","","","","","","no","","","","","","","","","SRET","EW_formal","","key","j","16.665651515151584","683","380","朋友","拖拉","Negative","ability","","","","","","","","","","",""
"1618","","f","psychophysics","41","191950","0.0-7.0-3.0-0.27","5","5","6","5","6","5","4","4","4","4","5","-1","1","0","1","-1","1","1","0","4","4","5","5","5","4","4","5","4","4","7","8","7","8","8","7","8","7","8","5","4","5","4","4","3","5","2","4","4","1","5","3","6","4","4","6","4","4","5","4","4","5","6","5","3","6","6","5","6","5","6","5","4","6","6","5","5","5","4","6","787037378752811010","李","402","Male","[""坏他"",""好我"",""坏我"",""好他""]","[""弱他"",""强我"",""弱我"",""强他""]","","","","","","","","yes","","","","","","","","","SRET","EW_formal","","key","f","16.666076433120978","683","380","朋友","博学","Positive","ability","","","","","","","","","","",""
"1152","","j","psychophysics","42","194109","0.0-7.0-3.0-0.28","5","5","6","5","6","5","4","4","4","4","5","-1","1","0","1","-1","1","1","0","4","4","5","5","5","4","4","5","4","4","7","8","7","8","8","7","8","7","8","5","4","5","4","4","3","5","2","4","4","1","5","3","6","4","4","6","4","4","5","4","4","5","6","5","3","6","6","5","6","5","6","5","4","6","6","5","5","5","4","6","787037378752811010","李","402","Male","[""坏他"",""好我"",""坏我"",""好他""]","[""弱他"",""强我"",""弱我"",""强他""]","","","","","","","","no","","","","","","","","","SRET","EW_formal","","key","j","16.666179687499834","683","380","朋友","奸险","Negative","morality","","","","","","","","","","",""
"1240","","j","psychophysics","43","196357","0.0-7.0-3.0-0.29","5","5","6","5","6","5","4","4","4","4","5","-1","1","0","1","-1","1","1","0","4","4","5","5","5","4","4","5","4","4","7","8","7","8","8","7","8","7","8","5","4","5","4","4","3","5","2","4","4","1","5","3","6","4","4","6","4","4","5","4","4","5","6","5","3","6","6","5","6","5","6","5","4","6","6","5","5","5","4","6","787037378752811010","李","402","Male","[""坏他"",""好我"",""坏我"",""好他""]","[""弱他"",""强我"",""弱我"",""强他""]","","","","","","","","no","","","","","","","","","SRET","EW_formal","","key","j","16.791308270676517","683","380","自己","自私","Negative","morality","","","","","","","","","","",""
"910","","f","psychophysics","44","198277","0.0-7.0-3.0-0.30","5","5","6","5","6","5","4","4","4","4","5","-1","1","0","1","-1","1","1","0","4","4","5","5","5","4","4","5","4","4","7","8","7","8","8","7","8","7","8","5","4","5","4","4","3","5","2","4","4","1","5","3","6","4","4","6","4","4","5","4","4","5","6","5","3","6","6","5","6","5","6","5","4","6","6","5","5","5","4","6","787037378752811010","李","402","Male","[""坏他"",""好我"",""坏我"",""好他""]","[""弱他"",""强我"",""弱我"",""强他""]","","","","","","","","yes","","","","","","","","","SRET","EW_formal","","key","f","16.665359649122763","683","380","自己","利落","Positive","ability","","","","","","","","","","",""
"949","","f","psychophysics","45","200232","0.0-7.0-3.0-0.31","5","5","6","5","6","5","4","4","4","4","5","-1","1","0","1","-1","1","1","0","4","4","5","5","5","4","4","5","4","4","7","8","7","8","8","7","8","7","8","5","4","5","4","4","3","5","2","4","4","1","5","3","6","4","4","6","4","4","5","4","4","5","6","5","3","6","6","5","6","5","6","5","4","6","6","5","5","5","4","6","787037378752811010","李","402","Male","[""坏他"",""好我"",""坏我"",""好他""]","[""弱他"",""强我"",""弱我"",""强他""]","","","","","","","","yes","","","","","","","","","SRET","EW_formal","","key","f","16.665551724138165","683","380","自己","奉献","Positive","morality","","","","","","","","","","",""
"1001","","f","psychophysics","46","202237","0.0-7.0-3.0-0.32","5","5","6","5","6","5","4","4","4","4","5","-1","1","0","1","-1","1","1","0","4","4","5","5","5","4","4","5","4","4","7","8","7","8","8","7","8","7","8","5","4","5","4","4","3","5","2","4","4","1","5","3","6","4","4","6","4","4","5","4","4","5","6","5","3","6","6","5","6","5","6","5","4","6","6","5","5","5","4","6","787037378752811010","李","402","Male","[""坏他"",""好我"",""坏我"",""好他""]","[""弱他"",""强我"",""弱我"",""强他""]","","","","","","","","yes","","","","","","","","","SRET","EW_formal","","key","f","16.665791666666824","683","380","朋友","淡泊","Positive","morality","","","","","","","","","","",""
"881","","f","psychophysics","47","204126","0.0-7.0-3.0-0.33","5","5","6","5","6","5","4","4","4","4","5","-1","1","0","1","-1","1","1","0","4","4","5","5","5","4","4","5","4","4","7","8","7","8","8","7","8","7","8","5","4","5","4","4","3","5","2","4","4","1","5","3","6","4","4","6","4","4","5","4","4","5","6","5","3","6","6","5","6","5","6","5","4","6","6","5","5","5","4","6","787037378752811010","李","402","Male","[""坏他"",""好我"",""坏我"",""好他""]","[""弱他"",""强我"",""弱我"",""强他""]","","","","","","","","yes","","","","","","","","","SRET","EW_formal","","key","f","16.666303571428735","683","380","朋友","仁爱","Positive","morality","","","","","","","","","","",""
"844","","f","psychophysics","48","205973","0.0-7.0-3.0-0.34","5","5","6","5","6","5","4","4","4","4","5","-1","1","0","1","-1","1","1","0","4","4","5","5","5","4","4","5","4","4","7","8","7","8","8","7","8","7","8","5","4","5","4","4","3","5","2","4","4","1","5","3","6","4","4","6","4","4","5","4","4","5","6","5","3","6","6","5","6","5","6","5","4","6","6","5","5","5","4","6","787037378752811010","李","402","Male","[""坏他"",""好我"",""坏我"",""好他""]","[""弱他"",""强我"",""弱我"",""强他""]","","","","","","","","yes","","","","","","","","","SRET","EW_formal","","key","f","16.818688073394437","683","380","朋友","守信","Positive","morality","","","","","","","","","","",""
"867","","f","psychophysics","49","207847","0.0-7.0-3.0-0.35","5","5","6","5","6","5","4","4","4","4","5","-1","1","0","1","-1","1","1","0","4","4","5","5","5","4","4","5","4","4","7","8","7","8","8","7","8","7","8","5","4","5","4","4","3","5","2","4","4","1","5","3","6","4","4","6","4","4","5","4","4","5","6","5","3","6","6","5","6","5","6","5","4","6","6","5","5","5","4","6","787037378752811010","李","402","Male","[""坏他"",""好我"",""坏我"",""好他""]","[""弱他"",""强我"",""弱我"",""强他""]","","","","","","","","yes","","","","","","","","","SRET","EW_formal","","key","f","16.81671818181825","683","380","朋友","果决","Positive","ability","","","","","","","","","","",""
"1120","","f","psychophysics","50","209973","0.0-7.0-3.0-0.36","5","5","6","5","6","5","4","4","4","4","5","-1","1","0","1","-1","1","1","0","4","4","5","5","5","4","4","5","4","4","7","8","7","8","8","7","8","7","8","5","4","5","4","4","3","5","2","4","4","1","5","3","6","4","4","6","4","4","5","4","4","5","6","5","3","6","6","5","6","5","6","5","4","6","6","5","5","5","4","6","787037378752811010","李","402","Male","[""坏他"",""好我"",""坏我"",""好他""]","[""弱他"",""强我"",""弱我"",""强他""]","","","","","","","","yes","","","","","","","","","SRET","EW_formal","","key","f","16.66560629921265","683","380","自己","敏捷","Positive","ability","","","","","","","","","","",""
"968","","j","psychophysics","51","211950","0.0-7.0-3.0-0.37","5","5","6","5","6","5","4","4","4","4","5","-1","1","0","1","-1","1","1","0","4","4","5","5","5","4","4","5","4","4","7","8","7","8","8","7","8","7","8","5","4","5","4","4","3","5","2","4","4","1","5","3","6","4","4","6","4","4","5","4","4","5","6","5","3","6","6","5","6","5","6","5","4","6","6","5","5","5","4","6","787037378752811010","李","402","Male","[""坏他"",""好我"",""坏我"",""好他""]","[""弱他"",""强我"",""弱我"",""强他""]","","","","","","","","no","","","","","","","","","SRET","EW_formal","","key","j","16.808709401709454","683","380","朋友","歹毒","Negative","morality","","","","","","","","","","",""
"891","","j","psychophysics","52","213848","0.0-7.0-3.0-0.38","5","5","6","5","6","5","4","4","4","4","5","-1","1","0","1","-1","1","1","0","4","4","5","5","5","4","4","5","4","4","7","8","7","8","8","7","8","7","8","5","4","5","4","4","3","5","2","4","4","1","5","3","6","4","4","6","4","4","5","4","4","5","6","5","3","6","6","5","6","5","6","5","4","6","6","5","5","5","4","6","787037378752811010","李","402","Male","[""坏他"",""好我"",""坏我"",""好他""]","[""弱他"",""强我"",""弱我"",""强他""]","","","","","","","","no","","","","","","","","","SRET","EW_formal","","key","j","16.665785714285708","683","380","朋友","怠惰","Negative","ability","","","","","","","","","","",""
"1163","","f","psychophysics","53","216016","0.0-7.0-3.0-0.39","5","5","6","5","6","5","4","4","4","4","5","-1","1","0","1","-1","1","1","0","4","4","5","5","5","4","4","5","4","4","7","8","7","8","8","7","8","7","8","5","4","5","4","4","3","5","2","4","4","1","5","3","6","4","4","6","4","4","5","4","4","5","6","5","3","6","6","5","6","5","6","5","4","6","6","5","5","5","4","6","787037378752811010","李","402","Male","[""坏他"",""好我"",""坏我"",""好他""]","[""弱他"",""强我"",""弱我"",""强他""]","","","","","","","","yes","","","","","","","","","SRET","EW_formal","","key","f","16.794891472868198","683","380","朋友","爱国","Positive","morality","","","","","","","","","","",""
"817","","j","psychophysics","54","217837","0.0-7.0-3.0-0.40","5","5","6","5","6","5","4","4","4","4","5","-1","1","0","1","-1","1","1","0","4","4","5","5","5","4","4","5","4","4","7","8","7","8","8","7","8","7","8","5","4","5","4","4","3","5","2","4","4","1","5","3","6","4","4","6","4","4","5","4","4","5","6","5","3","6","6","5","6","5","6","5","4","6","6","5","5","5","4","6","787037378752811010","李","402","Male","[""坏他"",""好我"",""坏我"",""好他""]","[""弱他"",""强我"",""弱我"",""强他""]","","","","","","","","no","","","","","","","","","SRET","EW_formal","","key","j","16.665685185185186","683","380","自己","不仁","Negative","morality","","","","","","","","","","",""
"966","","f","psychophysics","55","219816","0.0-7.0-3.0-0.41","5","5","6","5","6","5","4","4","4","4","5","-1","1","0","1","-1","1","1","0","4","4","5","5","5","4","4","5","4","4","7","8","7","8","8","7","8","7","8","5","4","5","4","4","3","5","2","4","4","1","5","3","6","4","4","6","4","4","5","4","4","5","6","5","3","6","6","5","6","5","6","5","4","6","6","5","5","5","4","6","787037378752811010","李","402","Male","[""坏他"",""好我"",""坏我"",""好他""]","[""弱他"",""强我"",""弱我"",""强他""]","","","","","","","","yes","","","","","","","","","SRET","EW_formal","","key","f","16.665282051281956","683","380","自己","忠义","Positive","morality","","","","","","","","","","",""
"952","","f","psychophysics","56","221773","0.0-7.0-3.0-0.42","5","5","6","5","6","5","4","4","4","4","5","-1","1","0","1","-1","1","1","0","4","4","5","5","5","4","4","5","4","4","7","8","7","8","8","7","8","7","8","5","4","5","4","4","3","5","2","4","4","1","5","3","6","4","4","6","4","4","5","4","4","5","6","5","3","6","6","5","6","5","6","5","4","6","6","5","5","5","4","6","787037378752811010","李","402","Male","[""坏他"",""好我"",""坏我"",""好他""]","[""弱他"",""强我"",""弱我"",""强他""]","","","","","","","","yes","","","","","","","","","SRET","EW_formal","","key","f","16.665264957265045","683","380","朋友","敬业","Positive","morality","","","","","","","","","","",""
"881","","f","psychophysics","57","223663","0.0-7.0-3.0-0.43","5","5","6","5","6","5","4","4","4","4","5","-1","1","0","1","-1","1","1","0","4","4","5","5","5","4","4","5","4","4","7","8","7","8","8","7","8","7","8","5","4","5","4","4","3","5","2","4","4","1","5","3","6","4","4","6","4","4","5","4","4","5","6","5","3","6","6","5","6","5","6","5","4","6","6","5","5","5","4","6","787037378752811010","李","402","Male","[""坏他"",""好我"",""坏我"",""好他""]","[""弱他"",""强我"",""弱我"",""强他""]","","","","","","","","yes","","","","","","","","","SRET","EW_formal","","key","f","16.666312500000068","683","380","自己","守时","Positive","morality","","","","","","","","","","",""
"946","","f","psychophysics","58","225615","0.0-7.0-3.0-0.44","5","5","6","5","6","5","4","4","4","4","5","-1","1","0","1","-1","1","1","0","4","4","5","5","5","4","4","5","4","4","7","8","7","8","8","7","8","7","8","5","4","5","4","4","3","5","2","4","4","1","5","3","6","4","4","6","4","4","5","4","4","5","6","5","3","6","6","5","6","5","6","5","4","6","6","5","5","5","4","6","787037378752811010","李","402","Male","[""坏他"",""好我"",""坏我"",""好他""]","[""弱他"",""强我"",""弱我"",""强他""]","","","","","","","","yes","","","","","","","","","SRET","EW_formal","","key","f","16.666077586207017","683","380","自己","高尚","Positive","morality","","","","","","","","","","",""
"1064","","f","psychophysics","59","227685","0.0-7.0-3.0-0.45","5","5","6","5","6","5","4","4","4","4","5","-1","1","0","1","-1","1","1","0","4","4","5","5","5","4","4","5","4","4","7","8","7","8","8","7","8","7","8","5","4","5","4","4","3","5","2","4","4","1","5","3","6","4","4","6","4","4","5","4","4","5","6","5","3","6","6","5","6","5","6","5","4","6","6","5","5","5","4","6","787037378752811010","李","402","Male","[""坏他"",""好我"",""坏我"",""好他""]","[""弱他"",""强我"",""弱我"",""强他""]","","","","","","","","yes","","","","","","","","","SRET","EW_formal","","key","f","16.80095934959335","683","380","朋友","变通","Positive","ability","","","","","","","","","","",""
"896","","j","psychophysics","60","229589","0.0-7.0-3.0-0.46","5","5","6","5","6","5","4","4","4","4","5","-1","1","0","1","-1","1","1","0","4","4","5","5","5","4","4","5","4","4","7","8","7","8","8","7","8","7","8","5","4","5","4","4","3","5","2","4","4","1","5","3","6","4","4","6","4","4","5","4","4","5","6","5","3","6","6","5","6","5","6","5","4","6","6","5","5","5","4","6","787037378752811010","李","402","Male","[""坏他"",""好我"",""坏我"",""好他""]","[""弱他"",""强我"",""弱我"",""强他""]","","","","","","","","no","","","","","","","","","SRET","EW_formal","","key","j","16.8139285714286","683","380","朋友","不端","Negative","morality","","","","","","","","","","",""
"1111","","j","psychophysics","61","231709","0.0-7.0-3.0-0.47","5","5","6","5","6","5","4","4","4","4","5","-1","1","0","1","-1","1","1","0","4","4","5","5","5","4","4","5","4","4","7","8","7","8","8","7","8","7","8","5","4","5","4","4","3","5","2","4","4","1","5","3","6","4","4","6","4","4","5","4","4","5","6","5","3","6","6","5","6","5","6","5","4","6","6","5","5","5","4","6","787037378752811010","李","402","Male","[""坏他"",""好我"",""坏我"",""好他""]","[""弱他"",""强我"",""弱我"",""强他""]","","","","","","","","no","","","","","","","","","SRET","EW_formal","","key","j","16.665634920634883","683","380","朋友","刻薄","Negative","morality","","","","","","","","","","",""
"878","","f","psychophysics","62","233589","0.0-7.0-3.0-0.48","5","5","6","5","6","5","4","4","4","4","5","-1","1","0","1","-1","1","1","0","4","4","5","5","5","4","4","5","4","4","7","8","7","8","8","7","8","7","8","5","4","5","4","4","3","5","2","4","4","1","5","3","6","4","4","6","4","4","5","4","4","5","6","5","3","6","6","5","6","5","6","5","4","6","6","5","5","5","4","6","787037378752811010","李","402","Male","[""坏他"",""好我"",""坏我"",""好他""]","[""弱他"",""强我"",""弱我"",""强他""]","","","","","","","","yes","","","","","","","","","SRET","EW_formal","","key","f","16.66600892857137","683","380","朋友","学霸","Positive","ability","","","","","","","","","","",""
"1287","","f","psychophysics","63","235884","0.0-7.0-3.0-0.49","5","5","6","5","6","5","4","4","4","4","5","-1","1","0","1","-1","1","1","0","4","4","5","5","5","4","4","5","4","4","7","8","7","8","8","7","8","7","8","5","4","5","4","4","3","5","2","4","4","1","5","3","6","4","4","6","4","4","5","4","4","5","6","5","3","6","6","5","6","5","6","5","4","6","6","5","5","5","4","6","787037378752811010","李","402","Male","[""坏他"",""好我"",""坏我"",""好他""]","[""弱他"",""强我"",""弱我"",""强他""]","","","","","","","","yes","","","","","","","","","SRET","EW_formal","","key","f","16.788139705882394","683","380","自己","无为","Negative","ability","","","","","","","","","","",""
"1071","","f","psychophysics","64","237966","0.0-7.0-3.0-0.50","5","5","6","5","6","5","4","4","4","4","5","-1","1","0","1","-1","1","1","0","4","4","5","5","5","4","4","5","4","4","7","8","7","8","8","7","8","7","8","5","4","5","4","4","3","5","2","4","4","1","5","3","6","4","4","6","4","4","5","4","4","5","6","5","3","6","6","5","6","5","6","5","4","6","6","5","5","5","4","6","787037378752811010","李","402","Male","[""坏他"",""好我"",""坏我"",""好他""]","[""弱他"",""强我"",""弱我"",""强他""]","","","","","","","","yes","","","","","","","","","SRET","EW_formal","","key","f","16.666048387096748","683","380","朋友","高洁","Positive","morality","","","","","","","","","","",""
"842","","f","psychophysics","65","239815","0.0-7.0-3.0-0.51","5","5","6","5","6","5","4","4","4","4","5","-1","1","0","1","-1","1","1","0","4","4","5","5","5","4","4","5","4","4","7","8","7","8","8","7","8","7","8","5","4","5","4","4","3","5","2","4","4","1","5","3","6","4","4","6","4","4","5","4","4","5","6","5","3","6","6","5","6","5","6","5","4","6","6","5","5","5","4","6","787037378752811010","李","402","Male","[""坏他"",""好我"",""坏我"",""好他""]","[""弱他"",""强我"",""弱我"",""强他""]","","","","","","","","yes","","","","","","","","","SRET","EW_formal","","key","f","16.666036363636323","683","380","朋友","智慧","Positive","ability","","","","","","","","","","",""
"984","","f","psychophysics","66","241805","0.0-7.0-3.0-0.52","5","5","6","5","6","5","4","4","4","4","5","-1","1","0","1","-1","1","1","0","4","4","5","5","5","4","4","5","4","4","7","8","7","8","8","7","8","7","8","5","4","5","4","4","3","5","2","4","4","1","5","3","6","4","4","6","4","4","5","4","4","5","6","5","3","6","6","5","6","5","6","5","4","6","6","5","5","5","4","6","787037378752811010","李","402","Male","[""坏他"",""好我"",""坏我"",""好他""]","[""弱他"",""强我"",""弱我"",""强他""]","","","","","","","","yes","","","","","","","","","SRET","EW_formal","","key","f","16.666127118643846","683","380","朋友","依靠","Negative","ability","","","","","","","","","","",""
"1219","","f","psychophysics","67","244032","0.0-7.0-3.0-0.53","5","5","6","5","6","5","4","4","4","4","5","-1","1","0","1","-1","1","1","0","4","4","5","5","5","4","4","5","4","4","7","8","7","8","8","7","8","7","8","5","4","5","4","4","3","5","2","4","4","1","5","3","6","4","4","6","4","4","5","4","4","5","6","5","3","6","6","5","6","5","6","5","4","6","6","5","5","5","4","6","787037378752811010","李","402","Male","[""坏他"",""好我"",""坏我"",""好他""]","[""弱他"",""强我"",""弱我"",""强他""]","","","","","","","","yes","","","","","","","","","SRET","EW_formal","","key","f","16.665684210526262","683","380","自己","顶事","Positive","ability","","","","","","","","","","",""
"1113","","f","psychophysics","68","246149","0.0-7.0-3.0-0.54","5","5","6","5","6","5","4","4","4","4","5","-1","1","0","1","-1","1","1","0","4","4","5","5","5","4","4","5","4","4","7","8","7","8","8","7","8","7","8","5","4","5","4","4","3","5","2","4","4","1","5","3","6","4","4","6","4","4","5","4","4","5","6","5","3","6","6","5","6","5","6","5","4","6","6","5","5","5","4","6","787037378752811010","李","402","Male","[""坏他"",""好我"",""坏我"",""好他""]","[""弱他"",""强我"",""弱我"",""强他""]","","","","","","","","yes","","","","","","","","","SRET","EW_formal","","key","f","16.798976000000025","683","380","自己","独立","Positive","ability","","","","","","","","","","",""
"832","","f","psychophysics","69","247988","0.0-7.0-3.0-0.55","5","5","6","5","6","5","4","4","4","4","5","-1","1","0","1","-1","1","1","0","4","4","5","5","5","4","4","5","4","4","7","8","7","8","8","7","8","7","8","5","4","5","4","4","3","5","2","4","4","1","5","3","6","4","4","6","4","4","5","4","4","5","6","5","3","6","6","5","6","5","6","5","4","6","6","5","5","5","4","6","787037378752811010","李","402","Male","[""坏他"",""好我"",""坏我"",""好他""]","[""弱他"",""强我"",""弱我"",""强他""]","","","","","","","","yes","","","","","","","","","SRET","EW_formal","","key","f","16.665018348623796","683","380","自己","热心","Positive","morality","","","","","","","","","","",""
"824","","j","psychophysics","70","249821","0.0-7.0-3.0-0.56","5","5","6","5","6","5","4","4","4","4","5","-1","1","0","1","-1","1","1","0","4","4","5","5","5","4","4","5","4","4","7","8","7","8","8","7","8","7","8","5","4","5","4","4","3","5","2","4","4","1","5","3","6","4","4","6","4","4","5","4","4","5","6","5","3","6","6","5","6","5","6","5","4","6","6","5","5","5","4","6","787037378752811010","李","402","Male","[""坏他"",""好我"",""坏我"",""好他""]","[""弱他"",""强我"",""弱我"",""强他""]","","","","","","","","no","","","","","","","","","SRET","EW_formal","","key","j","16.820212962963087","683","380","朋友","蛇蝎","Negative","morality","","","","","","","","","","",""
"905","","f","psychophysics","71","251732","0.0-7.0-3.0-0.57","5","5","6","5","6","5","4","4","4","4","5","-1","1","0","1","-1","1","1","0","4","4","5","5","5","4","4","5","4","4","7","8","7","8","8","7","8","7","8","5","4","5","4","4","3","5","2","4","4","1","5","3","6","4","4","6","4","4","5","4","4","5","6","5","3","6","6","5","6","5","6","5","4","6","6","5","5","5","4","6","787037378752811010","李","402","Male","[""坏他"",""好我"",""坏我"",""好他""]","[""弱他"",""强我"",""弱我"",""强他""]","","","","","","","","yes","","","","","","","","","SRET","EW_formal","","key","f","16.665657894736924","683","380","自己","稳健","Positive","ability","","","","","","","","","","",""
"1024","","j","psychophysics","72","253765","0.0-7.0-3.0-0.58","5","5","6","5","6","5","4","4","4","4","5","-1","1","0","1","-1","1","1","0","4","4","5","5","5","4","4","5","4","4","7","8","7","8","8","7","8","7","8","5","4","5","4","4","3","5","2","4","4","1","5","3","6","4","4","6","4","4","5","4","4","5","6","5","3","6","6","5","6","5","6","5","4","6","6","5","5","5","4","6","787037378752811010","李","402","Male","[""坏他"",""好我"",""坏我"",""好他""]","[""弱他"",""强我"",""弱我"",""强他""]","","","","","","","","no","","","","","","","","","SRET","EW_formal","","key","j","16.66623966942141","683","380","自己","弱智","Negative","ability","","","","","","","","","","",""
"857","","j","psychophysics","73","255631","0.0-7.0-3.0-0.59","5","5","6","5","6","5","4","4","4","4","5","-1","1","0","1","-1","1","1","0","4","4","5","5","5","4","4","5","4","4","7","8","7","8","8","7","8","7","8","5","4","5","4","4","3","5","2","4","4","1","5","3","6","4","4","6","4","4","5","4","4","5","6","5","3","6","6","5","6","5","6","5","4","6","6","5","5","5","4","6","787037378752811010","李","402","Male","[""坏他"",""好我"",""坏我"",""好他""]","[""弱他"",""强我"",""弱我"",""强他""]","","","","","","","","no","","","","","","","","","SRET","EW_formal","","key","j","16.665972972973062","683","380","自己","缺德","Negative","morality","","","","","","","","","","",""
"1319","","j","psychophysics","74","257957","0.0-7.0-3.0-0.60","5","5","6","5","6","5","4","4","4","4","5","-1","1","0","1","-1","1","1","0","4","4","5","5","5","4","4","5","4","4","7","8","7","8","8","7","8","7","8","5","4","5","4","4","3","5","2","4","4","1","5","3","6","4","4","6","4","4","5","4","4","5","6","5","3","6","6","5","6","5","6","5","4","6","6","5","5","5","4","6","787037378752811010","李","402","Male","[""坏他"",""好我"",""坏我"",""好他""]","[""弱他"",""强我"",""弱我"",""强他""]","","","","","","","","no","","","","","","","","","SRET","EW_formal","","key","j","16.665840579710135","683","380","朋友","无能","Negative","ability","","","","","","","","","","",""
"1147","","j","psychophysics","75","260112","0.0-7.0-3.0-0.61","5","5","6","5","6","5","4","4","4","4","5","-1","1","0","1","-1","1","1","0","4","4","5","5","5","4","4","5","4","4","7","8","7","8","8","7","8","7","8","5","4","5","4","4","3","5","2","4","4","1","5","3","6","4","4","6","4","4","5","4","4","5","6","5","3","6","6","5","6","5","6","5","4","6","6","5","5","5","4","6","787037378752811010","李","402","Male","[""坏他"",""好我"",""坏我"",""好他""]","[""弱他"",""强我"",""弱我"",""强他""]","","","","","","","","no","","","","","","","","","SRET","EW_formal","","key","j","16.666148437500397","683","380","自己","黑心","Negative","morality","","","","","","","","","","",""
"1351","","f","psychophysics","76","262469","0.0-7.0-3.0-0.62","5","5","6","5","6","5","4","4","4","4","5","-1","1","0","1","-1","1","1","0","4","4","5","5","5","4","4","5","4","4","7","8","7","8","8","7","8","7","8","5","4","5","4","4","3","5","2","4","4","1","5","3","6","4","4","6","4","4","5","4","4","5","6","5","3","6","6","5","6","5","6","5","4","6","6","5","5","5","4","6","787037378752811010","李","402","Male","[""坏他"",""好我"",""坏我"",""好他""]","[""弱他"",""强我"",""弱我"",""强他""]","","","","","","","","yes","","","","","","","","","SRET","EW_formal","","key","f","16.665957446808264","683","380","朋友","屈才","Negative","ability","","","","","","","","","","",""
"1032","","j","psychophysics","77","264514","0.0-7.0-3.0-0.63","5","5","6","5","6","5","4","4","4","4","5","-1","1","0","1","-1","1","1","0","4","4","5","5","5","4","4","5","4","4","7","8","7","8","8","7","8","7","8","5","4","5","4","4","3","5","2","4","4","1","5","3","6","4","4","6","4","4","5","4","4","5","6","5","3","6","6","5","6","5","6","5","4","6","6","5","5","5","4","6","787037378752811010","李","402","Male","[""坏他"",""好我"",""坏我"",""好他""]","[""弱他"",""强我"",""弱我"",""强他""]","","","","","","","","no","","","","","","","","","SRET","EW_formal","","key","j","16.665330578512435","683","380","朋友","邪恶","Negative","morality","","","","","","","","","","",""
"888","","j","psychophysics","78","266405","0.0-7.0-3.0-0.64","5","5","6","5","6","5","4","4","4","4","5","-1","1","0","1","-1","1","1","0","4","4","5","5","5","4","4","5","4","4","7","8","7","8","8","7","8","7","8","5","4","5","4","4","3","5","2","4","4","1","5","3","6","4","4","6","4","4","5","4","4","5","6","5","3","6","6","5","6","5","6","5","4","6","6","5","5","5","4","6","787037378752811010","李","402","Male","[""坏他"",""好我"",""坏我"",""好他""]","[""弱他"",""强我"",""弱我"",""强他""]","","","","","","","","no","","","","","","","","","SRET","EW_formal","","key","j","16.665610619469348","683","380","自己","盲目","Negative","ability","","","","","","","","","","",""
"826","","f","psychophysics","79","268237","0.0-7.0-3.0-0.65","5","5","6","5","6","5","4","4","4","4","5","-1","1","0","1","-1","1","1","0","4","4","5","5","5","4","4","5","4","4","7","8","7","8","8","7","8","7","8","5","4","5","4","4","3","5","2","4","4","1","5","3","6","4","4","6","4","4","5","4","4","5","6","5","3","6","6","5","6","5","6","5","4","6","6","5","5","5","4","6","787037378752811010","李","402","Male","[""坏他"",""好我"",""坏我"",""好他""]","[""弱他"",""强我"",""弱我"",""强他""]","","","","","","","","yes","","","","","","","","","SRET","EW_formal","","key","f","16.66581651376114","683","380","自己","守法","Positive","morality","","","","","","","","","","",""
"1018","","f","psychophysics","80","270264","0.0-7.0-3.0-0.66","5","5","6","5","6","5","4","4","4","4","5","-1","1","0","1","-1","1","1","0","4","4","5","5","5","4","4","5","4","4","7","8","7","8","8","7","8","7","8","5","4","5","4","4","3","5","2","4","4","1","5","3","6","4","4","6","4","4","5","4","4","5","6","5","3","6","6","5","6","5","6","5","4","6","6","5","5","5","4","6","787037378752811010","李","402","Male","[""坏他"",""好我"",""坏我"",""好他""]","[""弱他"",""强我"",""弱我"",""强他""]","","","","","","","","yes","","","","","","","","","SRET","EW_formal","","key","f","16.666115702479626","683","380","自己","新手","Negative","ability","","","","","","","","","","",""
"1399","","j","psychophysics","81","272669","0.0-7.0-3.0-0.67","5","5","6","5","6","5","4","4","4","4","5","-1","1","0","1","-1","1","1","0","4","4","5","5","5","4","4","5","4","4","7","8","7","8","8","7","8","7","8","5","4","5","4","4","3","5","2","4","4","1","5","3","6","4","4","6","4","4","5","4","4","5","6","5","3","6","6","5","6","5","6","5","4","6","6","5","5","5","4","6","787037378752811010","李","402","Male","[""坏他"",""好我"",""坏我"",""好他""]","[""弱他"",""强我"",""弱我"",""强他""]","","","","","","","","no","","","","","","","","","SRET","EW_formal","","key","j","16.782908450704294","683","380","自己","势利","Negative","morality","","","","","","","","","","",""
"1018","","f","psychophysics","82","274698","0.0-7.0-3.0-0.68","5","5","6","5","6","5","4","4","4","4","5","-1","1","0","1","-1","1","1","0","4","4","5","5","5","4","4","5","4","4","7","8","7","8","8","7","8","7","8","5","4","5","4","4","3","5","2","4","4","1","5","3","6","4","4","6","4","4","5","4","4","5","6","5","3","6","6","5","6","5","6","5","4","6","6","5","5","5","4","6","787037378752811010","李","402","Male","[""坏他"",""好我"",""坏我"",""好他""]","[""弱他"",""强我"",""弱我"",""强他""]","","","","","","","","yes","","","","","","","","","SRET","EW_formal","","key","f","16.6654545454547","683","380","自己","专注","Positive","ability","","","","","","","","","","",""
"1031","","j","psychophysics","83","276733","0.0-7.0-3.0-0.69","5","5","6","5","6","5","4","4","4","4","5","-1","1","0","1","-1","1","1","0","4","4","5","5","5","4","4","5","4","4","7","8","7","8","8","7","8","7","8","5","4","5","4","4","3","5","2","4","4","1","5","3","6","4","4","6","4","4","5","4","4","5","6","5","3","6","6","5","6","5","6","5","4","6","6","5","5","5","4","6","787037378752811010","李","402","Male","[""坏他"",""好我"",""坏我"",""好他""]","[""弱他"",""强我"",""弱我"",""强他""]","","","","","","","","no","","","","","","","","","SRET","EW_formal","","key","j","16.665628099173773","683","380","自己","短浅","Negative","ability","","","","","","","","","","",""
"1303","","j","psychophysics","84","279047","0.0-7.0-3.0-0.70","5","5","6","5","6","5","4","4","4","4","5","-1","1","0","1","-1","1","1","0","4","4","5","5","5","4","4","5","4","4","7","8","7","8","8","7","8","7","8","5","4","5","4","4","3","5","2","4","4","1","5","3","6","4","4","6","4","4","5","4","4","5","6","5","3","6","6","5","6","5","6","5","4","6","6","5","5","5","4","6","787037378752811010","李","402","Male","[""坏他"",""好我"",""坏我"",""好他""]","[""弱他"",""强我"",""弱我"",""强他""]","","","","","","","","no","","","","","","","","","SRET","EW_formal","","key","j","16.66564492753621","683","380","朋友","不良","Negative","morality","","","","","","","","","","",""
"1243","","f","psychophysics","85","281297","0.0-7.0-3.0-0.71","5","5","6","5","6","5","4","4","4","4","5","-1","1","0","1","-1","1","1","0","4","4","5","5","5","4","4","5","4","4","7","8","7","8","8","7","8","7","8","5","4","5","4","4","3","5","2","4","4","1","5","3","6","4","4","6","4","4","5","4","4","5","6","5","3","6","6","5","6","5","6","5","4","6","6","5","5","5","4","6","787037378752811010","李","402","Male","[""坏他"",""好我"",""坏我"",""好他""]","[""弱他"",""强我"",""弱我"",""强他""]","","","","","","","","yes","","","","","","","","","SRET","EW_formal","","key","f","16.666059701492376","683","380","朋友","逞能","Negative","ability","","","","","","","","","","",""
"847","","j","psychophysics","86","283149","0.0-7.0-3.0-0.72","5","5","6","5","6","5","4","4","4","4","5","-1","1","0","1","-1","1","1","0","4","4","5","5","5","4","4","5","4","4","7","8","7","8","8","7","8","7","8","5","4","5","4","4","3","5","2","4","4","1","5","3","6","4","4","6","4","4","5","4","4","5","6","5","3","6","6","5","6","5","6","5","4","6","6","5","5","5","4","6","787037378752811010","李","402","Male","[""坏他"",""好我"",""坏我"",""好他""]","[""弱他"",""强我"",""弱我"",""强他""]","","","","","","","","no","","","","","","","","","SRET","EW_formal","","key","j","16.66531818181816","683","380","自己","废物","Negative","ability","","","","","","","","","","",""
"815","","f","psychophysics","87","284973","0.0-7.0-3.0-0.73","5","5","6","5","6","5","4","4","4","4","5","-1","1","0","1","-1","1","1","0","4","4","5","5","5","4","4","5","4","4","7","8","7","8","8","7","8","7","8","5","4","5","4","4","3","5","2","4","4","1","5","3","6","4","4","6","4","4","5","4","4","5","6","5","3","6","6","5","6","5","6","5","4","6","6","5","5","5","4","6","787037378752811010","李","402","Male","[""坏他"",""好我"",""坏我"",""好他""]","[""弱他"",""强我"",""弱我"",""强他""]","","","","","","","","yes","","","","","","","","","SRET","EW_formal","","key","f","16.665268518518403","683","380","自己","君子","Positive","morality","","","","","","","","","","",""
"1072","","f","psychophysics","88","287046","0.0-7.0-3.0-0.74","5","5","6","5","6","5","4","4","4","4","5","-1","1","0","1","-1","1","1","0","4","4","5","5","5","4","4","5","4","4","7","8","7","8","8","7","8","7","8","5","4","5","4","4","3","5","2","4","4","1","5","3","6","4","4","6","4","4","5","4","4","5","6","5","3","6","6","5","6","5","6","5","4","6","6","5","5","5","4","6","787037378752811010","李","402","Male","[""坏他"",""好我"",""坏我"",""好他""]","[""弱他"",""强我"",""弱我"",""强他""]","","","","","","","","yes","","","","","","","","","SRET","EW_formal","","key","f","16.66573387096803","683","380","朋友","坚持","Positive","ability","","","","","","","","","","",""
"1016","","j","psychophysics","89","289069","0.0-7.0-3.0-0.75","5","5","6","5","6","5","4","4","4","4","5","-1","1","0","1","-1","1","1","0","4","4","5","5","5","4","4","5","4","4","7","8","7","8","8","7","8","7","8","5","4","5","4","4","3","5","2","4","4","1","5","3","6","4","4","6","4","4","5","4","4","5","6","5","3","6","6","5","6","5","6","5","4","6","6","5","5","5","4","6","787037378752811010","李","402","Male","[""坏他"",""好我"",""坏我"",""好他""]","[""弱他"",""强我"",""弱我"",""强他""]","","","","","","","","no","","","","","","","","","SRET","EW_formal","","key","j","16.948127118643704","683","380","自己","龌龊","Negative","morality","","","","","","","","","","",""
"951","","j","psychophysics","90","291029","0.0-7.0-3.0-0.76","5","5","6","5","6","5","4","4","4","4","5","-1","1","0","1","-1","1","1","0","4","4","5","5","5","4","4","5","4","4","7","8","7","8","8","7","8","7","8","5","4","5","4","4","3","5","2","4","4","1","5","3","6","4","4","6","4","4","5","4","4","5","6","5","3","6","6","5","6","5","6","5","4","6","6","5","5","5","4","6","787037378752811010","李","402","Male","[""坏他"",""好我"",""坏我"",""好他""]","[""弱他"",""强我"",""弱我"",""强他""]","","","","","","","","no","","","","","","","","","SRET","EW_formal","","key","j","16.665743589743528","683","380","朋友","拜金","Negative","morality","","","","","","","","","","",""
"1135","","j","psychophysics","91","293172","0.0-7.0-3.0-0.77","5","5","6","5","6","5","4","4","4","4","5","-1","1","0","1","-1","1","1","0","4","4","5","5","5","4","4","5","4","4","7","8","7","8","8","7","8","7","8","5","4","5","4","4","3","5","2","4","4","1","5","3","6","4","4","6","4","4","5","4","4","5","6","5","3","6","6","5","6","5","6","5","4","6","6","5","5","5","4","6","787037378752811010","李","402","Male","[""坏他"",""好我"",""坏我"",""好他""]","[""弱他"",""强我"",""弱我"",""强他""]","","","","","","","","no","","","","","","","","","SRET","EW_formal","","key","j","16.665433070866214","683","380","自己","驽钝","Negative","ability","","","","","","","","","","",""
"1290","","f","psychophysics","92","295469","0.0-7.0-3.0-0.78","5","5","6","5","6","5","4","4","4","4","5","-1","1","0","1","-1","1","1","0","4","4","5","5","5","4","4","5","4","4","7","8","7","8","8","7","8","7","8","5","4","5","4","4","3","5","2","4","4","1","5","3","6","4","4","6","4","4","5","4","4","5","6","5","3","6","6","5","6","5","6","5","4","6","6","5","5","5","4","6","787037378752811010","李","402","Male","[""坏他"",""好我"",""坏我"",""好他""]","[""弱他"",""强我"",""弱我"",""强他""]","","","","","","","","yes","","","","","","","","","SRET","EW_formal","","key","f","16.78749264705916","683","380","朋友","逞强","Negative","ability","","","","","","","","","","",""
"903","","f","psychophysics","93","297380","0.0-7.0-3.0-0.79","5","5","6","5","6","5","4","4","4","4","5","-1","1","0","1","-1","1","1","0","4","4","5","5","5","4","4","5","4","4","7","8","7","8","8","7","8","7","8","5","4","5","4","4","3","5","2","4","4","1","5","3","6","4","4","6","4","4","5","4","4","5","6","5","3","6","6","5","6","5","6","5","4","6","6","5","5","5","4","6","787037378752811010","李","402","Male","[""坏他"",""好我"",""坏我"",""好他""]","[""弱他"",""强我"",""弱我"",""强他""]","","","","","","","","yes","","","","","","","","","SRET","EW_formal","","key","f","16.665429824561375","683","380","朋友","廉明","Positive","morality","","","","","","","","","","",""
"1175","","j","psychophysics","94","299565","0.0-7.0-3.0-0.80","5","5","6","5","6","5","4","4","4","4","5","-1","1","0","1","-1","1","1","0","4","4","5","5","5","4","4","5","4","4","7","8","7","8","8","7","8","7","8","5","4","5","4","4","3","5","2","4","4","1","5","3","6","4","4","6","4","4","5","4","4","5","6","5","3","6","6","5","6","5","6","5","4","6","6","5","5","5","4","6","787037378752811010","李","402","Male","[""坏他"",""好我"",""坏我"",""好他""]","[""弱他"",""强我"",""弱我"",""强他""]","","","","","","","","no","","","","","","","","","SRET","EW_formal","","key","j","16.79514728682188","683","380","自己","无敌","Positive","ability","","","","","","","","","","",""
"1191","","j","psychophysics","95","301764","0.0-7.0-3.0-0.81","5","5","6","5","6","5","4","4","4","4","5","-1","1","0","1","-1","1","1","0","4","4","5","5","5","4","4","5","4","4","7","8","7","8","8","7","8","7","8","5","4","5","4","4","3","5","2","4","4","1","5","3","6","4","4","6","4","4","5","4","4","5","6","5","3","6","6","5","6","5","6","5","4","6","6","5","5","5","4","6","787037378752811010","李","402","Male","[""坏他"",""好我"",""坏我"",""好他""]","[""弱他"",""强我"",""弱我"",""强他""]","","","","","","","","no","","","","","","","","","SRET","EW_formal","","key","j","16.66545038167938","683","380","自己","马虎","Negative","ability","","","","","","","","","","",""
"741","","f","psychophysics","96","303516","0.0-7.0-3.0-0.82","5","5","6","5","6","5","4","4","4","4","5","-1","1","0","1","-1","1","1","0","4","4","5","5","5","4","4","5","4","4","7","8","7","8","8","7","8","7","8","5","4","5","4","4","3","5","2","4","4","1","5","3","6","4","4","6","4","4","5","4","4","5","6","5","3","6","6","5","6","5","6","5","4","6","6","5","5","5","4","6","787037378752811010","李","402","Male","[""坏他"",""好我"",""坏我"",""好他""]","[""弱他"",""强我"",""弱我"",""强他""]","","","","","","","","yes","","","","","","","","","SRET","EW_formal","","key","f","16.827611650485494","683","380","朋友","毅力","Positive","ability","","","","","","","","","","",""
"844","","f","psychophysics","97","305372","0.0-7.0-3.0-0.83","5","5","6","5","6","5","4","4","4","4","5","-1","1","0","1","-1","1","1","0","4","4","5","5","5","4","4","5","4","4","7","8","7","8","8","7","8","7","8","5","4","5","4","4","3","5","2","4","4","1","5","3","6","4","4","6","4","4","5","4","4","5","6","5","3","6","6","5","6","5","6","5","4","6","6","5","5","5","4","6","787037378752811010","李","402","Male","[""坏他"",""好我"",""坏我"",""好他""]","[""弱他"",""强我"",""弱我"",""强他""]","","","","","","","","yes","","","","","","","","","SRET","EW_formal","","key","f","16.66587272727259","683","380","朋友","文明","Positive","morality","","","","","","","","","","",""
"1604","","f","psychophysics","98","307980","0.0-7.0-3.0-0.84","5","5","6","5","6","5","4","4","4","4","5","-1","1","0","1","-1","1","1","0","4","4","5","5","5","4","4","5","4","4","7","8","7","8","8","7","8","7","8","5","4","5","4","4","3","5","2","4","4","1","5","3","6","4","4","6","4","4","5","4","4","5","6","5","3","6","6","5","6","5","6","5","4","6","6","5","5","5","4","6","787037378752811010","李","402","Male","[""坏他"",""好我"",""坏我"",""好他""]","[""弱他"",""强我"",""弱我"",""强他""]","","","","","","","","yes","","","","","","","","","SRET","EW_formal","","key","f","16.66555128205129","683","380","自己","缓慢","Negative","ability","","","","","","","","","","",""
"797","","f","psychophysics","99","309788","0.0-7.0-3.0-0.85","5","5","6","5","6","5","4","4","4","4","5","-1","1","0","1","-1","1","1","0","4","4","5","5","5","4","4","5","4","4","7","8","7","8","8","7","8","7","8","5","4","5","4","4","3","5","2","4","4","1","5","3","6","4","4","6","4","4","5","4","4","5","6","5","3","6","6","5","6","5","6","5","4","6","6","5","5","5","4","6","787037378752811010","李","402","Male","[""坏他"",""好我"",""坏我"",""好他""]","[""弱他"",""强我"",""弱我"",""强他""]","","","","","","","","yes","","","","","","","","","SRET","EW_formal","","key","f","16.666093457943898","683","380","自己","主见","Positive","ability","","","","","","","","","","",""
"943","","j","psychophysics","100","311732","0.0-7.0-3.0-0.86","5","5","6","5","6","5","4","4","4","4","5","-1","1","0","1","-1","1","1","0","4","4","5","5","5","4","4","5","4","4","7","8","7","8","8","7","8","7","8","5","4","5","4","4","3","5","2","4","4","1","5","3","6","4","4","6","4","4","5","4","4","5","6","5","3","6","6","5","6","5","6","5","4","6","6","5","5","5","4","6","787037378752811010","李","402","Male","[""坏他"",""好我"",""坏我"",""好他""]","[""弱他"",""强我"",""弱我"",""强他""]","","","","","","","","no","","","","","","","","","SRET","EW_formal","","key","j","16.66478448275854","683","380","朋友","低俗","Negative","morality","","","","","","","","","","",""
"1218","","f","psychophysics","101","313966","0.0-7.0-3.0-0.87","5","5","6","5","6","5","4","4","4","4","5","-1","1","0","1","-1","1","1","0","4","4","5","5","5","4","4","5","4","4","7","8","7","8","8","7","8","7","8","5","4","5","4","4","3","5","2","4","4","1","5","3","6","4","4","6","4","4","5","4","4","5","6","5","3","6","6","5","6","5","6","5","4","6","6","5","5","5","4","6","787037378752811010","李","402","Male","[""坏他"",""好我"",""坏我"",""好他""]","[""弱他"",""强我"",""弱我"",""强他""]","","","","","","","","yes","","","","","","","","","SRET","EW_formal","","key","f","16.66619548872218","683","380","朋友","素养","Positive","morality","","","","","","","","","","",""
"5983","
    <p><div style='color:white;font-size:35px; line-height:20px;'>计算任务</div></p><br>
    <p><div style='color:red;font-size:25px; line-height:20px;'>接下来，您将看到一些四则运算题，<b>请从键盘选择 0-9 进行反应。</b></div></p>
    <p><div style='color:red;font-size:25px; line-height:20px;'>请尽可能快地进行计算，计算的速度和正确率将影响报酬的发放。</div></p>
    <p><div class='footer' style='color:white;font-size:25px; line-height:20px;'>如果对本实验还有不清楚之处，请立即向实验员咨询。</p><p style='color:white;font-size:25px; line-height:20px;'>如果您明白了规则：</p><p style='color:white;font-size:22px; line-height:20px;'>请按 继续 进入练习</p>
    </div>
    ","0","html-button-response","102","319951","0.0-7.0-4.0","5","5","6","5","6","5","4","4","4","4","5","-1","1","0","1","-1","1","1","0","4","4","5","5","5","4","4","5","4","4","7","8","7","8","8","7","8","7","8","5","4","5","4","4","3","5","2","4","4","1","5","3","6","4","4","6","4","4","5","4","4","5","6","5","3","6","6","5","6","5","6","5","4","6","6","5","5","5","4","6","787037378752811010","李","402","Male","[""坏他"",""好我"",""坏我"",""好他""]","[""弱他"",""强我"",""弱我"",""强他""]","","","","","","","","","","","","","","","","","SRET_math","math_instructions","Tue Dec 19 2023 13:42:24 GMT+0800 (中国标准时间)","","","","","","","","","","","","","","","","","","","",""
"2327","","1","psychophysics","103","322285","0.0-7.0-5.0-0.0","5","5","6","5","6","5","4","4","4","4","5","-1","1","0","1","-1","1","1","0","4","4","5","5","5","4","4","5","4","4","7","8","7","8","8","7","8","7","8","5","4","5","4","4","3","5","2","4","4","1","5","3","6","4","4","6","4","4","5","4","4","5","6","5","3","6","6","5","6","5","6","5","4","6","6","5","5","5","4","6","787037378752811010","李","402","Male","[""坏他"",""好我"",""坏我"",""好他""]","[""弱他"",""强我"",""弱我"",""强他""]","","","","","","","","1","","","","","","","","","SRET","SRET_math_calculate","","key","1","16.665250000000068","683","380","","","","","30-29= ?","1","1","","","","","","","",""
"1845","","7","psychophysics","104","324165","0.0-7.0-5.0-0.1","5","5","6","5","6","5","4","4","4","4","5","-1","1","0","1","-1","1","1","0","4","4","5","5","5","4","4","5","4","4","7","8","7","8","8","7","8","7","8","5","4","5","4","4","3","5","2","4","4","1","5","3","6","4","4","6","4","4","5","4","4","5","6","5","3","6","6","5","6","5","6","5","4","6","6","5","5","5","4","6","787037378752811010","李","402","Male","[""坏他"",""好我"",""坏我"",""好他""]","[""弱他"",""强我"",""弱我"",""强他""]","","","","","","","","7","","","","","","","","","SRET","SRET_math_calculate","","key","7","16.66625892857181","683","380","","","","","4+3= ?","7","1","","","","","","","",""
"1902","","8","psychophysics","105","326069","0.0-7.0-5.0-0.2","5","5","6","5","6","5","4","4","4","4","5","-1","1","0","1","-1","1","1","0","4","4","5","5","5","4","4","5","4","4","7","8","7","8","8","7","8","7","8","5","4","5","4","4","3","5","2","4","4","1","5","3","6","4","4","6","4","4","5","4","4","5","6","5","3","6","6","5","6","5","6","5","4","6","6","5","5","5","4","6","787037378752811010","李","402","Male","[""坏他"",""好我"",""坏我"",""好他""]","[""弱他"",""强我"",""弱我"",""强他""]","","","","","","","","8","","","","","","","","","SRET","SRET_math_calculate","","key","8","16.66577876106201","683","380","","","","","13-5= ?","8","1","","","","","","","",""
"1918","","8","psychophysics","106","327993","0.0-7.0-5.0-0.3","5","5","6","5","6","5","4","4","4","4","5","-1","1","0","1","-1","1","1","0","4","4","5","5","5","4","4","5","4","4","7","8","7","8","8","7","8","7","8","5","4","5","4","4","3","5","2","4","4","1","5","3","6","4","4","6","4","4","5","4","4","5","6","5","3","6","6","5","6","5","6","5","4","6","6","5","5","5","4","6","787037378752811010","李","402","Male","[""坏他"",""好我"",""坏我"",""好他""]","[""弱他"",""强我"",""弱我"",""强他""]","","","","","","","","8","","","","","","","","","SRET","SRET_math_calculate","","key","8","16.66585087719304","683","380","","","","","4*2= ?","8","1","","","","","","","",""
"1780","","3","psychophysics","107","329806","0.0-7.0-5.0-0.4","5","5","6","5","6","5","4","4","4","4","5","-1","1","0","1","-1","1","1","0","4","4","5","5","5","4","4","5","4","4","7","8","7","8","8","7","8","7","8","5","4","5","4","4","3","5","2","4","4","1","5","3","6","4","4","6","4","4","5","4","4","5","6","5","3","6","6","5","6","5","6","5","4","6","6","5","5","5","4","6","787037378752811010","李","402","Male","[""坏他"",""好我"",""坏我"",""好他""]","[""弱他"",""强我"",""弱我"",""强他""]","","","","","","","","3","","","","","","","","","SRET","SRET_math_calculate","","key","3","16.82155140186932","683","380","","","","","3*1= ?","3","1","","","","","","","",""
"2105","","5","psychophysics","108","331950","0.0-7.0-5.0-0.5","5","5","6","5","6","5","4","4","4","4","5","-1","1","0","1","-1","1","1","0","4","4","5","5","5","4","4","5","4","4","7","8","7","8","8","7","8","7","8","5","4","5","4","4","3","5","2","4","4","1","5","3","6","4","4","6","4","4","5","4","4","5","6","5","3","6","6","5","6","5","6","5","4","6","6","5","5","5","4","6","787037378752811010","李","402","Male","[""坏他"",""好我"",""坏我"",""好他""]","[""弱他"",""强我"",""弱我"",""强他""]","","","","","","","","5","","","","","","","","","SRET","SRET_math_calculate","","key","5","16.796700787401893","683","380","","","","","10-5= ?","5","1","","","","","","","",""
"1791","","0","psychophysics","109","333745","0.0-7.0-5.0-0.6","5","5","6","5","6","5","4","4","4","4","5","-1","1","0","1","-1","1","1","0","4","4","5","5","5","4","4","5","4","4","7","8","7","8","8","7","8","7","8","5","4","5","4","4","3","5","2","4","4","1","5","3","6","4","4","6","4","4","5","4","4","5","6","5","3","6","6","5","6","5","6","5","4","6","6","5","5","5","4","6","787037378752811010","李","402","Male","[""坏他"",""好我"",""坏我"",""好他""]","[""弱他"",""强我"",""弱我"",""强他""]","","","","","","","","0","","","","","","","","","SRET","SRET_math_calculate","","key","0","16.665757009345565","683","380","","","","","1-1= ?","0","1","","","","","","","",""
"1866","","7","psychophysics","110","335614","0.0-7.0-5.0-0.7","5","5","6","5","6","5","4","4","4","4","5","-1","1","0","1","-1","1","1","0","4","4","5","5","5","4","4","5","4","4","7","8","7","8","8","7","8","7","8","5","4","5","4","4","3","5","2","4","4","1","5","3","6","4","4","6","4","4","5","4","4","5","6","5","3","6","6","5","6","5","6","5","4","6","6","5","5","5","4","6","787037378752811010","李","402","Male","[""坏他"",""好我"",""坏我"",""好他""]","[""弱他"",""强我"",""弱我"",""强他""]","","","","","","","","7","","","","","","","","","SRET","SRET_math_calculate","","key","7","16.817199999999932","683","380","","","","","6+1= ?","7","1","","","","","","","",""
"1894","","0","psychophysics","111","337512","0.0-7.0-5.0-0.8","5","5","6","5","6","5","4","4","4","4","5","-1","1","0","1","-1","1","1","0","4","4","5","5","5","4","4","5","4","4","7","8","7","8","8","7","8","7","8","5","4","5","4","4","3","5","2","4","4","1","5","3","6","4","4","6","4","4","5","4","4","5","6","5","3","6","6","5","6","5","6","5","4","6","6","5","5","5","4","6","787037378752811010","李","402","Male","[""坏他"",""好我"",""坏我"",""好他""]","[""弱他"",""强我"",""弱我"",""强他""]","","","","","","","","0","","","","","","","","","SRET","SRET_math_calculate","","key","0","16.665672566371853","683","380","","","","","5*0= ?","0","1","","","","","","","",""
"1945","","8","psychophysics","112","339495","0.0-7.0-5.0-0.9","5","5","6","5","6","5","4","4","4","4","5","-1","1","0","1","-1","1","1","0","4","4","5","5","5","4","4","5","4","4","7","8","7","8","8","7","8","7","8","5","4","5","4","4","3","5","2","4","4","1","5","3","6","4","4","6","4","4","5","4","4","5","6","5","3","6","6","5","6","5","6","5","4","6","6","5","5","5","4","6","787037378752811010","李","402","Male","[""坏他"",""好我"",""坏我"",""好他""]","[""弱他"",""强我"",""弱我"",""强他""]","","","","","","","","8","","","","","","","","","SRET","SRET_math_calculate","","key","8","16.665889830508572","683","380","","","","","1*8= ?","8","1","","","","","","","",""
"1803","","9","psychophysics","113","341302","0.0-7.0-5.0-0.10","5","5","6","5","6","5","4","4","4","4","5","-1","1","0","1","-1","1","1","0","4","4","5","5","5","4","4","5","4","4","7","8","7","8","8","7","8","7","8","5","4","5","4","4","3","5","2","4","4","1","5","3","6","4","4","6","4","4","5","4","4","5","6","5","3","6","6","5","6","5","6","5","4","6","6","5","5","5","4","6","787037378752811010","李","402","Male","[""坏他"",""好我"",""坏我"",""好他""]","[""弱他"",""强我"",""弱我"",""强他""]","","","","","","","","9","","","","","","","","","SRET","SRET_math_calculate","","key","9","16.665598130840962","683","380","","","","","2+7= ?","9","1","","","","","","","",""
"1774","","5","psychophysics","114","343079","0.0-7.0-5.0-0.11","5","5","6","5","6","5","4","4","4","4","5","-1","1","0","1","-1","1","1","0","4","4","5","5","5","4","4","5","4","4","7","8","7","8","8","7","8","7","8","5","4","5","4","4","3","5","2","4","4","1","5","3","6","4","4","6","4","4","5","4","4","5","6","5","3","6","6","5","6","5","6","5","4","6","6","5","5","5","4","6","787037378752811010","李","402","Male","[""坏他"",""好我"",""坏我"",""好他""]","[""弱他"",""强我"",""弱我"",""强他""]","","","","","","","","5","","","","","","","","","SRET","SRET_math_calculate","","key","5","16.824990476190578","683","380","","","","","15-10= ?","5","1","","","","","","","",""
"1899","","9","psychophysics","115","344981","0.0-7.0-5.0-0.12","5","5","6","5","6","5","4","4","4","4","5","-1","1","0","1","-1","1","1","0","4","4","5","5","5","4","4","5","4","4","7","8","7","8","8","7","8","7","8","5","4","5","4","4","3","5","2","4","4","1","5","3","6","4","4","6","4","4","5","4","4","5","6","5","3","6","6","5","6","5","6","5","4","6","6","5","5","5","4","6","787037378752811010","李","402","Male","[""坏他"",""好我"",""坏我"",""好他""]","[""弱他"",""强我"",""弱我"",""强他""]","","","","","","","","9","","","","","","","","","SRET","SRET_math_calculate","","key","9","16.66603539822998","683","380","","","","","5+4= ?","9","1","","","","","","","",""
"1846","","2","psychophysics","116","346830","0.0-7.0-5.0-0.13","5","5","6","5","6","5","4","4","4","4","5","-1","1","0","1","-1","1","1","0","4","4","5","5","5","4","4","5","4","4","7","8","7","8","8","7","8","7","8","5","4","5","4","4","3","5","2","4","4","1","5","3","6","4","4","6","4","4","5","4","4","5","6","5","3","6","6","5","6","5","6","5","4","6","6","5","5","5","4","6","787037378752811010","李","402","Male","[""坏他"",""好我"",""坏我"",""好他""]","[""弱他"",""强我"",""弱我"",""强他""]","","","","","","","","2","","","","","","","","","SRET","SRET_math_calculate","","key","2","16.66537272727265","683","380","","","","","12/6= ?","2","1","","","","","","","",""
"1965","","3","psychophysics","117","348797","0.0-7.0-5.0-0.14","5","5","6","5","6","5","4","4","4","4","5","-1","1","0","1","-1","1","1","0","4","4","5","5","5","4","4","5","4","4","7","8","7","8","8","7","8","7","8","5","4","5","4","4","3","5","2","4","4","1","5","3","6","4","4","6","4","4","5","4","4","5","6","5","3","6","6","5","6","5","6","5","4","6","6","5","5","5","4","6","787037378752811010","李","402","Male","[""坏他"",""好我"",""坏我"",""好他""]","[""弱他"",""强我"",""弱我"",""强他""]","","","","","","","","3","","","","","","","","","SRET","SRET_math_calculate","","key","3","16.665042735042714","683","380","","","","","9/3= ?","3","1","","","","","","","",""
"2127","","0","psychophysics","118","350927","0.0-7.0-5.0-0.15","5","5","6","5","6","5","4","4","4","4","5","-1","1","0","1","-1","1","1","0","4","4","5","5","5","4","4","5","4","4","7","8","7","8","8","7","8","7","8","5","4","5","4","4","3","5","2","4","4","1","5","3","6","4","4","6","4","4","5","4","4","5","6","5","3","6","6","5","6","5","6","5","4","6","6","5","5","5","4","6","787037378752811010","李","402","Male","[""坏他"",""好我"",""坏我"",""好他""]","[""弱他"",""强我"",""弱我"",""强他""]","","","","","","","","0","","","","","","","","","SRET","SRET_math_calculate","","key","0","16.666456692913496","683","380","","","","","22-22= ?","0","1","","","","","","","",""
"1964","","3","psychophysics","119","352894","0.0-7.0-5.0-0.16","5","5","6","5","6","5","4","4","4","4","5","-1","1","0","1","-1","1","1","0","4","4","5","5","5","4","4","5","4","4","7","8","7","8","8","7","8","7","8","5","4","5","4","4","3","5","2","4","4","1","5","3","6","4","4","6","4","4","5","4","4","5","6","5","3","6","6","5","6","5","6","5","4","6","6","5","5","5","4","6","787037378752811010","李","402","Male","[""坏他"",""好我"",""坏我"",""好他""]","[""弱他"",""强我"",""弱我"",""强他""]","","","","","","","","3","","","","","","","","","SRET","SRET_math_calculate","","key","3","16.665743589743528","683","380","","","","","6/2= ?","3","1","","","","","","","",""
"1931","","0","psychophysics","120","354830","0.0-7.0-5.0-0.17","5","5","6","5","6","5","4","4","4","4","5","-1","1","0","1","-1","1","1","0","4","4","5","5","5","4","4","5","4","4","7","8","7","8","8","7","8","7","8","5","4","5","4","4","3","5","2","4","4","1","5","3","6","4","4","6","4","4","5","4","4","5","6","5","3","6","6","5","6","5","6","5","4","6","6","5","5","5","4","6","787037378752811010","李","402","Male","[""坏他"",""好我"",""坏我"",""好他""]","[""弱他"",""强我"",""弱我"",""强他""]","","","","","","","","0","","","","","","","","","SRET","SRET_math_calculate","","key","0","16.66521739130435","683","380","","","","","32-32= ?","0","1","","","","","","","",""
"1852","","7","psychophysics","121","356686","0.0-7.0-5.0-0.18","5","5","6","5","6","5","4","4","4","4","5","-1","1","0","1","-1","1","1","0","4","4","5","5","5","4","4","5","4","4","7","8","7","8","8","7","8","7","8","5","4","5","4","4","3","5","2","4","4","1","5","3","6","4","4","6","4","4","5","4","4","5","6","5","3","6","6","5","6","5","6","5","4","6","6","5","5","5","4","6","787037378752811010","李","402","Male","[""坏他"",""好我"",""坏我"",""好他""]","[""弱他"",""强我"",""弱我"",""强他""]","","","","","","","","7","","","","","","","","","SRET","SRET_math_calculate","","key","7","16.818770642201695","683","380","","","","","7*1=  ?","7","1","","","","","","","",""
"1837","","9","psychophysics","122","358527","0.0-7.0-5.0-0.19","5","5","6","5","6","5","4","4","4","4","5","-1","1","0","1","-1","1","1","0","4","4","5","5","5","4","4","5","4","4","7","8","7","8","8","7","8","7","8","5","4","5","4","4","3","5","2","4","4","1","5","3","6","4","4","6","4","4","5","4","4","5","6","5","3","6","6","5","6","5","6","5","4","6","6","5","5","5","4","6","787037378752811010","李","402","Male","[""坏他"",""好我"",""坏我"",""好他""]","[""弱他"",""强我"",""弱我"",""强他""]","","","","","","","","9","","","","","","","","","SRET","SRET_math_calculate","","key","9","16.66529090909118","683","380","","","","","4+5= ?","9","1","","","","","","","",""
"1955","","7","psychophysics","123","360485","0.0-7.0-5.0-0.20","5","5","6","5","6","5","4","4","4","4","5","-1","1","0","1","-1","1","1","0","4","4","5","5","5","4","4","5","4","4","7","8","7","8","8","7","8","7","8","5","4","5","4","4","3","5","2","4","4","1","5","3","6","4","4","6","4","4","5","4","4","5","6","5","3","6","6","5","6","5","6","5","4","6","6","5","5","5","4","6","787037378752811010","李","402","Male","[""坏他"",""好我"",""坏我"",""好他""]","[""弱他"",""强我"",""弱我"",""强他""]","","","","","","","","7","","","","","","","","","SRET","SRET_math_calculate","","key","7","16.66560344827604","683","380","","","","","12-5= ?","7","1","","","","","","","",""
"1949","","2","psychophysics","124","362438","0.0-7.0-5.0-0.21","5","5","6","5","6","5","4","4","4","4","5","-1","1","0","1","-1","1","1","0","4","4","5","5","5","4","4","5","4","4","7","8","7","8","8","7","8","7","8","5","4","5","4","4","3","5","2","4","4","1","5","3","6","4","4","6","4","4","5","4","4","5","6","5","3","6","6","5","6","5","6","5","4","6","6","5","5","5","4","6","787037378752811010","李","402","Male","[""坏他"",""好我"",""坏我"",""好他""]","[""弱他"",""强我"",""弱我"",""强他""]","","","","","","","","2","","","","","","","","","SRET","SRET_math_calculate","","key","2","16.811408695651966","683","380","","","","","90/45= ?","2","1","","","","","","","",""
"1988","","6","psychophysics","125","364438","0.0-7.0-5.0-0.22","5","5","6","5","6","5","4","4","4","4","5","-1","1","0","1","-1","1","1","0","4","4","5","5","5","4","4","5","4","4","7","8","7","8","8","7","8","7","8","5","4","5","4","4","3","5","2","4","4","1","5","3","6","4","4","6","4","4","5","4","4","5","6","5","3","6","6","5","6","5","6","5","4","6","6","5","5","5","4","6","787037378752811010","李","402","Male","[""坏他"",""好我"",""坏我"",""好他""]","[""弱他"",""强我"",""弱我"",""强他""]","","","","","","","","6","","","","","","","","","SRET","SRET_math_calculate","","key","6","16.666033613445638","683","380","","","","","4+2= ?","6","1","","","","","","","",""
"1828","","8","psychophysics","126","366302","0.0-7.0-5.0-0.23","5","5","6","5","6","5","4","4","4","4","5","-1","1","0","1","-1","1","1","0","4","4","5","5","5","4","4","5","4","4","7","8","7","8","8","7","8","7","8","5","4","5","4","4","3","5","2","4","4","1","5","3","6","4","4","6","4","4","5","4","4","5","6","5","3","6","6","5","6","5","6","5","4","6","6","5","5","5","4","6","787037378752811010","李","402","Male","[""坏他"",""好我"",""坏我"",""好他""]","[""弱他"",""强我"",""弱我"",""强他""]","","","","","","","","8","","","","","","","","","SRET","SRET_math_calculate","","key","8","16.81735454545441","683","380","","","","","3+5= ?","8","1","","","","","","","",""
"1796","","5","psychophysics","127","368133","0.0-7.0-5.0-0.24","5","5","6","5","6","5","4","4","4","4","5","-1","1","0","1","-1","1","1","0","4","4","5","5","5","4","4","5","4","4","7","8","7","8","8","7","8","7","8","5","4","5","4","4","3","5","2","4","4","1","5","3","6","4","4","6","4","4","5","4","4","5","6","5","3","6","6","5","6","5","6","5","4","6","6","5","5","5","4","6","787037378752811010","李","402","Male","[""坏他"",""好我"",""坏我"",""好他""]","[""弱他"",""强我"",""弱我"",""强他""]","","","","","","","","5","","","","","","","","","SRET","SRET_math_calculate","","key","5","16.820027777777998","683","380","","","","","12-7= ?","5","1","","","","","","","",""
"1843","","7","psychophysics","128","370013","0.0-7.0-5.0-0.25","5","5","6","5","6","5","4","4","4","4","5","-1","1","0","1","-1","1","1","0","4","4","5","5","5","4","4","5","4","4","7","8","7","8","8","7","8","7","8","5","4","5","4","4","3","5","2","4","4","1","5","3","6","4","4","6","4","4","5","4","4","5","6","5","3","6","6","5","6","5","6","5","4","6","6","5","5","5","4","6","787037378752811010","李","402","Male","[""坏他"",""好我"",""坏我"",""好他""]","[""弱他"",""强我"",""弱我"",""强他""]","","","","","","","","7","","","","","","","","","SRET","SRET_math_calculate","","key","7","16.665803571428633","683","380","","","","","1+6= ?","7","1","","","","","","","",""
"1918","","6","psychophysics","129","371933","0.0-7.0-5.0-0.26","5","5","6","5","6","5","4","4","4","4","5","-1","1","0","1","-1","1","1","0","4","4","5","5","5","4","4","5","4","4","7","8","7","8","8","7","8","7","8","5","4","5","4","4","3","5","2","4","4","1","5","3","6","4","4","6","4","4","5","4","4","5","6","5","3","6","6","5","6","5","6","5","4","6","6","5","5","5","4","6","787037378752811010","李","402","Male","[""坏他"",""好我"",""坏我"",""好他""]","[""弱他"",""强我"",""弱我"",""强他""]","","","","","","","","6","","","","","","","","","SRET","SRET_math_calculate","","key","6","16.665464912280296","683","380","","","","","11-5= ?","6","1","","","","","","","",""
"1998","","7","psychophysics","130","373934","0.0-7.0-5.0-0.27","5","5","6","5","6","5","4","4","4","4","5","-1","1","0","1","-1","1","1","0","4","4","5","5","5","4","4","5","4","4","7","8","7","8","8","7","8","7","8","5","4","5","4","4","3","5","2","4","4","1","5","3","6","4","4","6","4","4","5","4","4","5","6","5","3","6","6","5","6","5","6","5","4","6","6","5","5","5","4","6","787037378752811010","李","402","Male","[""坏他"",""好我"",""坏我"",""好他""]","[""弱他"",""强我"",""弱我"",""强他""]","","","","","","","","7","","","","","","","","","SRET","SRET_math_calculate","","key","7","16.665705882352796","683","380","","","","","8-1= ?","7","1","","","","","","","",""
"1969","","9","psychophysics","131","375910","0.0-7.0-5.0-0.28","5","5","6","5","6","5","4","4","4","4","5","-1","1","0","1","-1","1","1","0","4","4","5","5","5","4","4","5","4","4","7","8","7","8","8","7","8","7","8","5","4","5","4","4","3","5","2","4","4","1","5","3","6","4","4","6","4","4","5","4","4","5","6","5","3","6","6","5","6","5","6","5","4","6","6","5","5","5","4","6","787037378752811010","李","402","Male","[""坏他"",""好我"",""坏我"",""好他""]","[""弱他"",""强我"",""弱我"",""强他""]","","","","","","","","9","","","","","","","","","SRET","SRET_math_calculate","","key","9","16.665728813559664","683","380","","","","","6+3= ?","9","1","","","","","","","",""
"1830","","5","psychophysics","132","377742","0.0-7.0-5.0-0.29","5","5","6","5","6","5","4","4","4","4","5","-1","1","0","1","-1","1","1","0","4","4","5","5","5","4","4","5","4","4","7","8","7","8","8","7","8","7","8","5","4","5","4","4","3","5","2","4","4","1","5","3","6","4","4","6","4","4","5","4","4","5","6","5","3","6","6","5","6","5","6","5","4","6","6","5","5","5","4","6","787037378752811010","李","402","Male","[""坏他"",""好我"",""坏我"",""好他""]","[""弱他"",""强我"",""弱我"",""强他""]","","","","","","","","5","","","","","","","","","SRET","SRET_math_calculate","","key","5","16.666688073394443","683","380","","","","","4+1= ?","5","1","","","","","","","",""
"1901","","2","psychophysics","133","379645","0.0-7.0-5.0-0.30","5","5","6","5","6","5","4","4","4","4","5","-1","1","0","1","-1","1","1","0","4","4","5","5","5","4","4","5","4","4","7","8","7","8","8","7","8","7","8","5","4","5","4","4","3","5","2","4","4","1","5","3","6","4","4","6","4","4","5","4","4","5","6","5","3","6","6","5","6","5","6","5","4","6","6","5","5","5","4","6","787037378752811010","李","402","Male","[""坏他"",""好我"",""坏我"",""好他""]","[""弱他"",""强我"",""弱我"",""强他""]","","","","","","","","2","","","","","","","","","SRET","SRET_math_calculate","","key","2","16.66584955752195","683","380","","","","","19-17= ?","2","1","","","","","","","",""
"1839","","3","psychophysics","134","381485","0.0-7.0-5.0-0.31","5","5","6","5","6","5","4","4","4","4","5","-1","1","0","1","-1","1","1","0","4","4","5","5","5","4","4","5","4","4","7","8","7","8","8","7","8","7","8","5","4","5","4","4","3","5","2","4","4","1","5","3","6","4","4","6","4","4","5","4","4","5","6","5","3","6","6","5","6","5","6","5","4","6","6","5","5","5","4","6","787037378752811010","李","402","Male","[""坏他"",""好我"",""坏我"",""好他""]","[""弱他"",""强我"",""弱我"",""强他""]","","","","","","","","3","","","","","","","","","SRET","SRET_math_calculate","","key","3","16.665862385321347","683","380","","","","","11-8= ?","3","1","","","","","","","",""
"1980","","3","psychophysics","135","383469","0.0-7.0-5.0-0.32","5","5","6","5","6","5","4","4","4","4","5","-1","1","0","1","-1","1","1","0","4","4","5","5","5","4","4","5","4","4","7","8","7","8","8","7","8","7","8","5","4","5","4","4","3","5","2","4","4","1","5","3","6","4","4","6","4","4","5","4","4","5","6","5","3","6","6","5","6","5","6","5","4","6","6","5","5","5","4","6","787037378752811010","李","402","Male","[""坏他"",""好我"",""坏我"",""好他""]","[""弱他"",""强我"",""弱我"",""强他""]","","","","","","","","3","","","","","","","","","SRET","SRET_math_calculate","","key","3","16.808316239316024","683","380","","","","","21/7=  ?","3","1","","","","","","","",""
"1798","","5","psychophysics","136","385293","0.0-7.0-5.0-0.33","5","5","6","5","6","5","4","4","4","4","5","-1","1","0","1","-1","1","1","0","4","4","5","5","5","4","4","5","4","4","7","8","7","8","8","7","8","7","8","5","4","5","4","4","3","5","2","4","4","1","5","3","6","4","4","6","4","4","5","4","4","5","6","5","3","6","6","5","6","5","6","5","4","6","6","5","5","5","4","6","787037378752811010","李","402","Male","[""坏他"",""好我"",""坏我"",""好他""]","[""弱他"",""强我"",""弱我"",""强他""]","","","","","","","","5","","","","","","","","","SRET","SRET_math_calculate","","key","5","16.665761467890167","683","380","","","","","2+3= ?","5","1","","","","","","","",""
"1934","","0","psychophysics","137","387229","0.0-7.0-5.0-0.34","5","5","6","5","6","5","4","4","4","4","5","-1","1","0","1","-1","1","1","0","4","4","5","5","5","4","4","5","4","4","7","8","7","8","8","7","8","7","8","5","4","5","4","4","3","5","2","4","4","1","5","3","6","4","4","6","4","4","5","4","4","5","6","5","3","6","6","5","6","5","6","5","4","6","6","5","5","5","4","6","787037378752811010","李","402","Male","[""坏他"",""好我"",""坏我"",""好他""]","[""弱他"",""强我"",""弱我"",""强他""]","","","","","","","","0","","","","","","","","","SRET","SRET_math_calculate","","key","0","16.665182608695517","683","380","","","","","7*0= ?","0","1","","","","","","","",""
"1903","","1","psychophysics","138","389134","0.0-7.0-5.0-0.35","5","5","6","5","6","5","4","4","4","4","5","-1","1","0","1","-1","1","1","0","4","4","5","5","5","4","4","5","4","4","7","8","7","8","8","7","8","7","8","5","4","5","4","4","3","5","2","4","4","1","5","3","6","4","4","6","4","4","5","4","4","5","6","5","3","6","6","5","6","5","6","5","4","6","6","5","5","5","4","6","787037378752811010","李","402","Male","[""坏他"",""好我"",""坏我"",""好他""]","[""弱他"",""强我"",""弱我"",""强他""]","","","","","","","","1","","","","","","","","","SRET","SRET_math_calculate","","key","1","16.666168141592937","683","380","","","","","9-8= ?","1","1","","","","","","","",""
"1829","","8","psychophysics","139","390965","0.0-7.0-5.0-0.36","5","5","6","5","6","5","4","4","4","4","5","-1","1","0","1","-1","1","1","0","4","4","5","5","5","4","4","5","4","4","7","8","7","8","8","7","8","7","8","5","4","5","4","4","3","5","2","4","4","1","5","3","6","4","4","6","4","4","5","4","4","5","6","5","3","6","6","5","6","5","6","5","4","6","6","5","5","5","4","6","787037378752811010","李","402","Male","[""坏他"",""好我"",""坏我"",""好他""]","[""弱他"",""强我"",""弱我"",""强他""]","","","","","","","","8","","","","","","","","","SRET","SRET_math_calculate","","key","8","16.665807339449312","683","380","","","","","2*4= ?","8","1","","","","","","","",""
"1862","","3","psychophysics","140","392829","0.0-7.0-5.0-0.37","5","5","6","5","6","5","4","4","4","4","5","-1","1","0","1","-1","1","1","0","4","4","5","5","5","4","4","5","4","4","7","8","7","8","8","7","8","7","8","5","4","5","4","4","3","5","2","4","4","1","5","3","6","4","4","6","4","4","5","4","4","5","6","5","3","6","6","5","6","5","6","5","4","6","6","5","5","5","4","6","787037378752811010","李","402","Male","[""坏他"",""好我"",""坏我"",""好他""]","[""弱他"",""强我"",""弱我"",""强他""]","","","","","","","","3","","","","","","","","","SRET","SRET_math_calculate","","key","3","16.66526126126163","683","380","","","","","1+2= ?","3","1","","","","","","","",""
"1911","","8","psychophysics","141","394742","0.0-7.0-5.0-0.38","5","5","6","5","6","5","4","4","4","4","5","-1","1","0","1","-1","1","1","0","4","4","5","5","5","4","4","5","4","4","7","8","7","8","8","7","8","7","8","5","4","5","4","4","3","5","2","4","4","1","5","3","6","4","4","6","4","4","5","4","4","5","6","5","3","6","6","5","6","5","6","5","4","6","6","5","5","5","4","6","787037378752811010","李","402","Male","[""坏他"",""好我"",""坏我"",""好他""]","[""弱他"",""强我"",""弱我"",""强他""]","","","","","","","","8","","","","","","","","","SRET","SRET_math_calculate","","key","8","16.665903508771933","683","380","","","","","56/7= ?","8","1","","","","","","","",""
"2005","","5","psychophysics","142","396749","0.0-7.0-5.0-0.39","5","5","6","5","6","5","4","4","4","4","5","-1","1","0","1","-1","1","1","0","4","4","5","5","5","4","4","5","4","4","7","8","7","8","8","7","8","7","8","5","4","5","4","4","3","5","2","4","4","1","5","3","6","4","4","6","4","4","5","4","4","5","6","5","3","6","6","5","6","5","6","5","4","6","6","5","5","5","4","6","787037378752811010","李","402","Male","[""坏他"",""好我"",""坏我"",""好他""]","[""弱他"",""强我"",""弱我"",""强他""]","","","","","","","","5","","","","","","","","","SRET","SRET_math_calculate","","key","5","16.665495798319476","683","380","","","","","9-4= ?","5","1","","","","","","","",""
