"rt","stimulus","response","trial_type","trial_index","time_elapsed","internal_node_id","swb_1","swb_2","swb_3","swb_4","swb_5","LOT_1","LOT_2","LOT_3","LOT_4","LOT_5","LOT_6","IPC_1","IPC_2","IPC_3","IPC_4","IPC_5","IPC_6","IPC_7","IPC_8","MorIden_1","MorIden_2","MorIden_3","MorIden_4","MorIden_5","MorIden_6","MorIden_7","MorIden_8","MorIden_9","MorIden_10","moralSeImag_1","moralSeImag_2","moralSeImag_3","moralSeImag_4","moralSeImag_5","moralSeImag_6","moralSeImag_7","moralSeImag_8","moralSeImag_9","sde_1","sde_2","sde_3","sde_4","sde_5","sde_6","sde_7","sde_8","sde_9","sde_10","trap2","sde_11","sde_12","sde_13","sde_14","sde_15","sde_16","sde_17","sde_18","sde_19","sde_20","IM_1","IM_2","IM_3","IM_4","IM_5","IM_6","IM_7","IM_8","IM_9","IM_10","IM_11","IM_12","IM_13","IM_14","IM_15","IM_16","IM_17","IM_18","IM_19","IM_20","subj_idx","friend_name","ParticipantID","Sex","Word","Word2","value","success","timeout","failed_images","failed_audio","failed_video","user_agent","responses","item_order","radio_event_ids","radio_event_times","key_event_times","mouse_event_times","straightlining","zigzagging","honeypot","view_history","response_type","key_press","avg_frame_time","center_x","center_y","correct_response","correct","identity","Image","word","condition","task_id","screen_id","time_stamp","person","valence","domain","math","status","duration","question_order","trap2_item"
"8124","
   <p><div style='color:white; font-size: 25px'>您好，欢迎参加本次实验。</div></p>
   <p><div style='color:white; font-size: 25px'>为充分保障您的权利，请确保您已经知晓并同意《参与实验同意书》以及《数据公开知情同意书》。</div></p>
   <p><div style='color:white; font-size: 25px'>如果您未见过上述内容，请咨询实验员。</div></p>
   <p style='color:white; font-size: 25px'>如果您选择继续实验，则表示您已经清楚两份知情同意书的内容并同意。</p>
   <p><div style = ""color: pink;font-size:30px;"">请确保您记得day0的实验编号，您将在本次实验输入该编号，若您忘记，请咨询实验员后作答。</div></p>
   <p><div style = ""color:lightblue;font-size:25px;"">请您尽可能认真地作答，我们将依据您在各问卷和按键任务中的作答质量发放报酬。</div></p>
   <p> <div style = ""color: green""><按空格键至下页></div> </p>
   "," ","html-keyboard-response","0","8125","0.0-0.0","7","6","7","6","6","4","4","5","5","5","5","2","2","1","2","1","2","2","2","5","4","5","5","3","4","4","4","5","4","5","5","7","7","6","5","5","5","6","6","6","1","7","6","6","5","1","6","7","1","5","6","6","7","6","4","7","7","7","6","6","7","7","6","7","7","6","7","7","7","7","6","7","7","7","7","7","7","6","6","598856622046969856","王","14","Male","[""好他"",""坏我"",""好我"",""坏他""]","[""强他"",""弱我"",""强我"",""弱他""]","","","","","","","","","","","","","","","","","","","","","","","","","","","","","","","","","","","","","","",""
"","","","call-function","1","8126","0.0-1.0-0.0","7","6","7","6","6","4","4","5","5","5","5","2","2","1","2","1","2","2","2","5","4","5","5","3","4","4","4","5","4","5","5","7","7","6","5","5","5","6","6","6","1","7","6","6","5","1","6","7","1","5","6","6","7","6","4","7","7","7","6","6","7","7","6","7","7","6","7","7","7","7","6","7","7","7","7","7","7","6","6","598856622046969856","王","14","Male","[""好他"",""坏我"",""好我"",""坏他""]","[""强他"",""弱我"",""强我"",""弱他""]","","","","","","","","","","","","","","","","","","","","","","","","","","","","","","","","","","","","","","",""
"40231","","[{""name"":""Sex"",""value"":""0""},{""name"":""friend_name"",""value"":""王""},{""name"":""ParticipantID"",""value"":""14""}]","survey-html-form","2","48357","0.0-1.0-1.0","7","6","7","6","6","4","4","5","5","5","5","2","2","1","2","1","2","2","2","5","4","5","5","3","4","4","4","5","4","5","5","7","7","6","5","5","5","6","6","6","1","7","6","6","5","1","6","7","1","5","6","6","7","6","4","7","7","7","6","6","7","7","6","7","7","6","7","7","7","7","6","7","7","7","7","7","7","6","6","598856622046969856","王","14","Male","[""好他"",""坏我"",""好我"",""坏他""]","[""强他"",""弱我"",""强我"",""弱他""]","","","","","","","","","","","","","","","","","","","","","","","","","","","","","","","","","","","","","","",""
"","","","preload","3","48644","0.0-2.0","7","6","7","6","6","4","4","5","5","5","5","2","2","1","2","1","2","2","2","5","4","5","5","3","4","4","4","5","4","5","5","7","7","6","5","5","5","6","6","6","1","7","6","6","5","1","6","7","1","5","6","6","7","6","4","7","7","7","6","6","7","7","6","7","7","6","7","7","7","7","6","7","7","7","7","7","7","6","6","598856622046969856","王","14","Male","[""好他"",""坏我"",""好我"",""坏他""]","[""强他"",""弱我"",""强我"",""弱他""]","","true","false","[]","[]","[]","","","","","","","","","","","","","","","","","","","","","","","","","","","","","","","","",""
"","","","fullscreen","4","51794","0.0-3.0","7","6","7","6","6","4","4","5","5","5","5","2","2","1","2","1","2","2","2","5","4","5","5","3","4","4","4","5","4","5","5","7","7","6","5","5","5","6","6","6","1","7","6","6","5","1","6","7","1","5","6","6","7","6","4","7","7","7","6","6","7","7","6","7","7","6","7","7","7","7","6","7","7","7","7","7","7","6","6","598856622046969856","王","14","Male","[""好他"",""坏我"",""好我"",""坏他""]","[""强他"",""弱我"",""强我"",""弱他""]","","true","","","","","{}","","","","","","","","","","","","","","","","","","","","","","","","","","","","","","","",""
"15017.900000035763","","{""Q01"":""7"",""Q02"":""6"",""Q03"":""7"",""Q04"":""6"",""Q05"":""6""}","survey-template","5","66814","0.0-4.0","7","6","7","6","6","4","4","5","5","5","5","2","2","1","2","1","2","2","2","5","4","5","5","3","4","4","4","5","4","5","5","7","7","6","5","5","5","6","6","6","1","7","6","6","5","1","6","7","1","5","6","6","7","6","4","7","7","7","6","6","7","7","6","7","7","6","7","7","7","7","6","7","7","7","7","7","7","6","6","598856622046969856","王","14","Male","[""好他"",""坏我"",""好我"",""坏他""]","[""强他"",""弱我"",""强我"",""弱他""]","","","","","","","","{""Q01"":""7"",""Q02"":""6"",""Q03"":""7"",""Q04"":""6"",""Q05"":""6""}","[0,1,2,3,4]","[""Q01"",""Q02"",""Q03"",""Q03"",""Q04"",""Q05""]","[2154.100000023842,3656.900000035763,5033,7145.100000023842,8449,9960.900000035763]","[]","[2154.100000023842,3656.900000035763,5033,7145.100000023842,8449,9960.900000035763,15017]","0.6","0.75","0","","","","","","","","","","","","","","","","","","","","","","",""
"25452.700000047684","","{""Q01"":""4"",""Q02"":""4"",""Q03"":""5"",""Q04"":""5"",""Q05"":""5"",""Q06"":""5""}","survey-template","6","92270","0.0-5.0","7","6","7","6","6","4","4","5","5","5","5","2","2","1","2","1","2","2","2","5","4","5","5","3","4","4","4","5","4","5","5","7","7","6","5","5","5","6","6","6","1","7","6","6","5","1","6","7","1","5","6","6","7","6","4","7","7","7","6","6","7","7","6","7","7","6","7","7","7","7","6","7","7","7","7","7","7","6","6","598856622046969856","王","14","Male","[""好他"",""坏我"",""好我"",""坏他""]","[""强他"",""弱我"",""强我"",""弱他""]","","","","","","","","{""Q01"":""4"",""Q02"":""4"",""Q03"":""5"",""Q04"":""5"",""Q05"":""5"",""Q06"":""5""}","[0,1,2,3,4,5]","[""Q01"",""Q02"",""Q03"",""Q05"",""Q04"",""Q06""]","[3468,10188.100000023842,12676.400000035763,16604,17739.900000035763,19860.200000047684]","[]","[3468,9044,10188.100000023842,11621.300000011921,12676.400000035763,14596.100000023842,15307.900000035763,16012,16604,17739.900000035763,19860.200000047684,25452.100000023842]","0.3333333333333333","0.4","0","","","","","","","","","","","","","","","","","","","","","","",""
"27740.599999964237","","{""Q01"":""2"",""Q02"":""2"",""Q03"":""1"",""Q04"":""2"",""Q05"":""1"",""Q06"":""2"",""Q07"":""2"",""Q08"":""2""}","survey-template","7","120014","0.0-6.0","7","6","7","6","6","4","4","5","5","5","5","2","2","1","2","1","2","2","2","5","4","5","5","3","4","4","4","5","4","5","5","7","7","6","5","5","5","6","6","6","1","7","6","6","5","1","6","7","1","5","6","6","7","6","4","7","7","7","6","6","7","7","6","7","7","6","7","7","7","7","6","7","7","7","7","7","7","6","6","598856622046969856","王","14","Male","[""好他"",""坏我"",""好我"",""坏他""]","[""强他"",""弱我"",""强我"",""弱他""]","","","","","","","","{""Q01"":""2"",""Q02"":""2"",""Q03"":""1"",""Q04"":""2"",""Q05"":""1"",""Q06"":""2"",""Q07"":""2"",""Q08"":""2""}","[0,1,2,3,4,5,6,7]","[""Q01"",""Q02"",""Q03"",""Q04"",""Q05"",""Q06"",""Q05"",""Q07"",""Q08"",""Q07""]","[3580.699999988079,5131.599999964237,7643.699999988079,8483.699999988079,10764.699999988079,11499.699999988079,13787.699999988079,16781,18715.599999964237,20427.69999998808]","[]","[3580.699999988079,5131.599999964237,7643.699999988079,8483.699999988079,10764.699999988079,11499.699999988079,12931.699999988079,13787.699999988079,15939.699999988079,16781,18715.599999964237,20427.69999998808,27739.599999964237]","0.75","0.5714285714285714","0","","","","","","","","","","","","","","","","","","","","","","",""
"40557","","","instructions","8","160574","0.0-7.0","7","6","7","6","6","4","4","5","5","5","5","2","2","1","2","1","2","2","2","5","4","5","5","3","4","4","4","5","4","5","5","7","7","6","5","5","5","6","6","6","1","7","6","6","5","1","6","7","1","5","6","6","7","6","4","7","7","7","6","6","7","7","6","7","7","6","7","7","7","7","6","7","7","7","7","7","7","6","6","598856622046969856","王","14","Male","[""好他"",""坏我"",""好我"",""坏他""]","[""强他"",""弱我"",""强我"",""弱他""]","","","","","","","","","","","","","","","","","[{""page_index"":0,""viewing_time"":40557}]","","","","","","","","","","","","","","","","","","","","","",""
"72238","","","instructions","9","232813","0.0-8.0-1.0-0.0","7","6","7","6","6","4","4","5","5","5","5","2","2","1","2","1","2","2","2","5","4","5","5","3","4","4","4","5","4","5","5","7","7","6","5","5","5","6","6","6","1","7","6","6","5","1","6","7","1","5","6","6","7","6","4","7","7","7","6","6","7","7","6","7","7","6","7","7","7","7","6","7","7","7","7","7","7","6","6","598856622046969856","王","14","Male","[""好他"",""坏我"",""好我"",""坏他""]","[""强他"",""弱我"",""强我"",""弱他""]","","","","","","","","","","","","","","","","","[{""page_index"":0,""viewing_time"":23942},{""page_index"":1,""viewing_time"":43848},{""page_index"":2,""viewing_time"":1400},{""page_index"":3,""viewing_time"":3048}]","","","","","","","","","","","","","","","","","","","","","",""
"604","","f","psychophysics","10","234422","0.0-8.0-1.0-1.0-0.0-0.0","7","6","7","6","6","4","4","5","5","5","5","2","2","1","2","1","2","2","2","5","4","5","5","3","4","4","4","5","4","5","5","7","7","6","5","5","5","6","6","6","1","7","6","6","5","1","6","7","1","5","6","6","7","6","4","7","7","7","6","6","7","7","6","7","7","6","7","7","7","7","6","7","7","7","7","7","7","6","6","598856622046969856","王","14","Male","[""好他"",""坏我"",""好我"",""坏他""]","[""强他"",""弱我"",""强我"",""弱他""]","","","","","","","","match","","","","","","","","","","key","f","16.664210526315852","768","428","f","true","match","img/square.png","弱我","弱我","prac_ALT2_ability","practice_ability","","","","","","","","",""
"null","<span style='color:GreenYellow; font-size: 70px;'>正确! </span>","null","html-keyboard-response","11","234923","0.0-8.0-1.0-1.0-0.0-1.0","7","6","7","6","6","4","4","5","5","5","5","2","2","1","2","1","2","2","2","5","4","5","5","3","4","4","4","5","4","5","5","7","7","6","5","5","5","6","6","6","1","7","6","6","5","1","6","7","1","5","6","6","7","6","4","7","7","7","6","6","7","7","6","7","7","6","7","7","7","7","6","7","7","7","7","7","7","6","6","598856622046969856","王","14","Male","[""好他"",""坏我"",""好我"",""坏他""]","[""强他"",""弱我"",""强我"",""弱他""]","","","","","","","","","","","","","","","","","","","","","","","","","","","","","","feedback_test","","","","","","","","",""
"1066","","f","psychophysics","12","236990","0.0-8.0-1.0-1.0-0.0-0.1","7","6","7","6","6","4","4","5","5","5","5","2","2","1","2","1","2","2","2","5","4","5","5","3","4","4","4","5","4","5","5","7","7","6","5","5","5","6","6","6","1","7","6","6","5","1","6","7","1","5","6","6","7","6","4","7","7","7","6","6","7","7","6","7","7","6","7","7","7","7","6","7","7","7","7","7","7","6","6","598856622046969856","王","14","Male","[""好他"",""坏我"",""好我"",""坏他""]","[""强他"",""弱我"",""强我"",""弱他""]","","","","","","","","match","","","","","","","","","","key","f","16.665853658536538","768","428","f","true","match","img/triangle.png","强他","强他","prac_ALT2_ability","practice_ability","","","","","","","","",""
"null","<span style='color:GreenYellow; font-size: 70px;'>正确! </span>","null","html-keyboard-response","13","237492","0.0-8.0-1.0-1.0-0.0-1.1","7","6","7","6","6","4","4","5","5","5","5","2","2","1","2","1","2","2","2","5","4","5","5","3","4","4","4","5","4","5","5","7","7","6","5","5","5","6","6","6","1","7","6","6","5","1","6","7","1","5","6","6","7","6","4","7","7","7","6","6","7","7","6","7","7","6","7","7","7","7","6","7","7","7","7","7","7","6","6","598856622046969856","王","14","Male","[""好他"",""坏我"",""好我"",""坏他""]","[""强他"",""弱我"",""强我"",""弱他""]","","","","","","","","","","","","","","","","","","","","","","","","","","","","","","feedback_test","","","","","","","","",""
"1017","","f","psychophysics","14","239511","0.0-8.0-1.0-1.0-0.0-0.2","7","6","7","6","6","4","4","5","5","5","5","2","2","1","2","1","2","2","2","5","4","5","5","3","4","4","4","5","4","5","5","7","7","6","5","5","5","6","6","6","1","7","6","6","5","1","6","7","1","5","6","6","7","6","4","7","7","7","6","6","7","7","6","7","7","6","7","7","7","7","6","7","7","7","7","7","7","6","6","598856622046969856","王","14","Male","[""好他"",""坏我"",""好我"",""坏他""]","[""强他"",""弱我"",""强我"",""弱他""]","","","","","","","","match","","","","","","","","","","key","f","16.654999999999806","768","428","f","true","match","img/hexagon.png","强我","强我","prac_ALT2_ability","practice_ability","","","","","","","","",""
"null","<span style='color:GreenYellow; font-size: 70px;'>正确! </span>","null","html-keyboard-response","15","240011","0.0-8.0-1.0-1.0-0.0-1.2","7","6","7","6","6","4","4","5","5","5","5","2","2","1","2","1","2","2","2","5","4","5","5","3","4","4","4","5","4","5","5","7","7","6","5","5","5","6","6","6","1","7","6","6","5","1","6","7","1","5","6","6","7","6","4","7","7","7","6","6","7","7","6","7","7","6","7","7","7","7","6","7","7","7","7","7","7","6","6","598856622046969856","王","14","Male","[""好他"",""坏我"",""好我"",""坏他""]","[""强他"",""弱我"",""强我"",""弱他""]","","","","","","","","","","","","","","","","","","","","","","","","","","","","","","feedback_test","","","","","","","","",""
"833","","f","psychophysics","16","241846","0.0-8.0-1.0-1.0-0.0-0.3","7","6","7","6","6","4","4","5","5","5","5","2","2","1","2","1","2","2","2","5","4","5","5","3","4","4","4","5","4","5","5","7","7","6","5","5","5","6","6","6","1","7","6","6","5","1","6","7","1","5","6","6","7","6","4","7","7","7","6","6","7","7","6","7","7","6","7","7","7","7","6","7","7","7","7","7","7","6","6","598856622046969856","王","14","Male","[""好他"",""坏我"",""好我"",""坏他""]","[""强他"",""弱我"",""强我"",""弱他""]","","","","","","","","match","","","","","","","","","","key","f","16.664220183486186","768","428","f","true","match","img/hexagon.png","强我","强我","prac_ALT2_ability","practice_ability","","","","","","","","",""
"null","<span style='color:GreenYellow; font-size: 70px;'>正确! </span>","null","html-keyboard-response","17","242348","0.0-8.0-1.0-1.0-0.0-1.3","7","6","7","6","6","4","4","5","5","5","5","2","2","1","2","1","2","2","2","5","4","5","5","3","4","4","4","5","4","5","5","7","7","6","5","5","5","6","6","6","1","7","6","6","5","1","6","7","1","5","6","6","7","6","4","7","7","7","6","6","7","7","6","7","7","6","7","7","7","7","6","7","7","7","7","7","7","6","6","598856622046969856","王","14","Male","[""好他"",""坏我"",""好我"",""坏他""]","[""强他"",""弱我"",""强我"",""弱他""]","","","","","","","","","","","","","","","","","","","","","","","","","","","","","","feedback_test","","","","","","","","",""
"1177","","f","psychophysics","18","244527","0.0-8.0-1.0-1.0-0.0-0.4","7","6","7","6","6","4","4","5","5","5","5","2","2","1","2","1","2","2","2","5","4","5","5","3","4","4","4","5","4","5","5","7","7","6","5","5","5","6","6","6","1","7","6","6","5","1","6","7","1","5","6","6","7","6","4","7","7","7","6","6","7","7","6","7","7","6","7","7","7","7","6","7","7","7","7","7","7","6","6","598856622046969856","王","14","Male","[""好他"",""坏我"",""好我"",""坏他""]","[""强他"",""弱我"",""强我"",""弱他""]","","","","","","","","match","","","","","","","","","","key","f","16.664615384615338","768","428","f","true","match","img/triangle.png","强他","强他","prac_ALT2_ability","practice_ability","","","","","","","","",""
"null","<span style='color:GreenYellow; font-size: 70px;'>正确! </span>","null","html-keyboard-response","19","245027","0.0-8.0-1.0-1.0-0.0-1.4","7","6","7","6","6","4","4","5","5","5","5","2","2","1","2","1","2","2","2","5","4","5","5","3","4","4","4","5","4","5","5","7","7","6","5","5","5","6","6","6","1","7","6","6","5","1","6","7","1","5","6","6","7","6","4","7","7","7","6","6","7","7","6","7","7","6","7","7","7","7","6","7","7","7","7","7","7","6","6","598856622046969856","王","14","Male","[""好他"",""坏我"",""好我"",""坏他""]","[""强他"",""弱我"",""强我"",""弱他""]","","","","","","","","","","","","","","","","","","","","","","","","","","","","","","feedback_test","","","","","","","","",""
"905","","f","psychophysics","20","246934","0.0-8.0-1.0-1.0-0.0-0.5","7","6","7","6","6","4","4","5","5","5","5","2","2","1","2","1","2","2","2","5","4","5","5","3","4","4","4","5","4","5","5","7","7","6","5","5","5","6","6","6","1","7","6","6","5","1","6","7","1","5","6","6","7","6","4","7","7","7","6","6","7","7","6","7","7","6","7","7","7","7","6","7","7","7","7","7","7","6","6","598856622046969856","王","14","Male","[""好他"",""坏我"",""好我"",""坏他""]","[""强他"",""弱我"",""强我"",""弱他""]","","","","","","","","match","","","","","","","","","","key","f","16.66548672566382","768","428","f","true","match","img/hexagon.png","强我","强我","prac_ALT2_ability","practice_ability","","","","","","","","",""
"null","<span style='color:GreenYellow; font-size: 70px;'>正确! </span>","null","html-keyboard-response","21","247435","0.0-8.0-1.0-1.0-0.0-1.5","7","6","7","6","6","4","4","5","5","5","5","2","2","1","2","1","2","2","2","5","4","5","5","3","4","4","4","5","4","5","5","7","7","6","5","5","5","6","6","6","1","7","6","6","5","1","6","7","1","5","6","6","7","6","4","7","7","7","6","6","7","7","6","7","7","6","7","7","7","7","6","7","7","7","7","7","7","6","6","598856622046969856","王","14","Male","[""好他"",""坏我"",""好我"",""坏他""]","[""强他"",""弱我"",""强我"",""弱他""]","","","","","","","","","","","","","","","","","","","","","","","","","","","","","","feedback_test","","","","","","","","",""
"1074","","f","psychophysics","22","249510","0.0-8.0-1.0-1.0-0.0-0.6","7","6","7","6","6","4","4","5","5","5","5","2","2","1","2","1","2","2","2","5","4","5","5","3","4","4","4","5","4","5","5","7","7","6","5","5","5","6","6","6","1","7","6","6","5","1","6","7","1","5","6","6","7","6","4","7","7","7","6","6","7","7","6","7","7","6","7","7","7","7","6","7","7","7","7","7","7","6","6","598856622046969856","王","14","Male","[""好他"",""坏我"",""好我"",""坏他""]","[""强他"",""弱我"",""强我"",""弱他""]","","","","","","","","match","","","","","","","","","","key","f","16.66532258064516","768","428","j","false","nonmatch","img/ellipse.png","强他","弱他","prac_ALT2_ability","practice_ability","","","","","","","","",""
"null","<span style='color:red; font-size: 70px;'>错误! </span>","null","html-keyboard-response","23","250012","0.0-8.0-1.0-1.0-0.0-1.6","7","6","7","6","6","4","4","5","5","5","5","2","2","1","2","1","2","2","2","5","4","5","5","3","4","4","4","5","4","5","5","7","7","6","5","5","5","6","6","6","1","7","6","6","5","1","6","7","1","5","6","6","7","6","4","7","7","7","6","6","7","7","6","7","7","6","7","7","7","7","6","7","7","7","7","7","7","6","6","598856622046969856","王","14","Male","[""好他"",""坏我"",""好我"",""坏他""]","[""强他"",""弱我"",""强我"",""弱他""]","","","","","","","","","","","","","","","","","","","","","","","","","","","","","","feedback_test","","","","","","","","",""
"null","","null","psychophysics","24","252214","0.0-8.0-1.0-1.0-0.0-0.7","7","6","7","6","6","4","4","5","5","5","5","2","2","1","2","1","2","2","2","5","4","5","5","3","4","4","4","5","4","5","5","7","7","6","5","5","5","6","6","6","1","7","6","6","5","1","6","7","1","5","6","6","7","6","4","7","7","7","6","6","7","7","6","7","7","6","7","7","7","7","6","7","7","7","7","7","7","6","6","598856622046969856","王","14","Male","[""好他"",""坏我"",""好我"",""坏他""]","[""强他"",""弱我"",""强我"",""弱他""]","","","","","","","","null","","","","","","","","","","key","null","16.66488549618325","768","428","j","false","nonmatch","img/square.png","强他","弱我","prac_ALT2_ability","practice_ability","","","","","","","","",""
"null","<span class='add_' style='color:yellow; font-size: 70px;'> 太慢! </span>","null","html-keyboard-response","25","252715","0.0-8.0-1.0-1.0-0.0-1.7","7","6","7","6","6","4","4","5","5","5","5","2","2","1","2","1","2","2","2","5","4","5","5","3","4","4","4","5","4","5","5","7","7","6","5","5","5","6","6","6","1","7","6","6","5","1","6","7","1","5","6","6","7","6","4","7","7","7","6","6","7","7","6","7","7","6","7","7","7","7","6","7","7","7","7","7","7","6","6","598856622046969856","王","14","Male","[""好他"",""坏我"",""好我"",""坏他""]","[""强他"",""弱我"",""强我"",""弱他""]","","","","","","","","","","","","","","","","","","","","","","","","","","","","","","feedback_test","","","","","","","","",""
"792","","f","psychophysics","26","254510","0.0-8.0-1.0-1.0-0.0-0.8","7","6","7","6","6","4","4","5","5","5","5","2","2","1","2","1","2","2","2","5","4","5","5","3","4","4","4","5","4","5","5","7","7","6","5","5","5","6","6","6","1","7","6","6","5","1","6","7","1","5","6","6","7","6","4","7","7","7","6","6","7","7","6","7","7","6","7","7","7","7","6","7","7","7","7","7","7","6","6","598856622046969856","王","14","Male","[""好他"",""坏我"",""好我"",""坏他""]","[""强他"",""弱我"",""强我"",""弱他""]","","","","","","","","match","","","","","","","","","","key","f","16.665420560747773","768","428","j","false","nonmatch","img/triangle.png","弱他","强他","prac_ALT2_ability","practice_ability","","","","","","","","",""
"null","<span style='color:red; font-size: 70px;'>错误! </span>","null","html-keyboard-response","27","255010","0.0-8.0-1.0-1.0-0.0-1.8","7","6","7","6","6","4","4","5","5","5","5","2","2","1","2","1","2","2","2","5","4","5","5","3","4","4","4","5","4","5","5","7","7","6","5","5","5","6","6","6","1","7","6","6","5","1","6","7","1","5","6","6","7","6","4","7","7","7","6","6","7","7","6","7","7","6","7","7","7","7","6","7","7","7","7","7","7","6","6","598856622046969856","王","14","Male","[""好他"",""坏我"",""好我"",""坏他""]","[""强他"",""弱我"",""强我"",""弱他""]","","","","","","","","","","","","","","","","","","","","","","","","","","","","","","feedback_test","","","","","","","","",""
"818","","f","psychophysics","28","256830","0.0-8.0-1.0-1.0-0.0-0.9","7","6","7","6","6","4","4","5","5","5","5","2","2","1","2","1","2","2","2","5","4","5","5","3","4","4","4","5","4","5","5","7","7","6","5","5","5","6","6","6","1","7","6","6","5","1","6","7","1","5","6","6","7","6","4","7","7","7","6","6","7","7","6","7","7","6","7","7","7","7","6","7","7","7","7","7","7","6","6","598856622046969856","王","14","Male","[""好他"",""坏我"",""好我"",""坏他""]","[""强他"",""弱我"",""强我"",""弱他""]","","","","","","","","match","","","","","","","","","","key","f","16.663888888888998","768","428","f","true","match","img/triangle.png","强他","强他","prac_ALT2_ability","practice_ability","","","","","","","","",""
"null","<span style='color:GreenYellow; font-size: 70px;'>正确! </span>","null","html-keyboard-response","29","257331","0.0-8.0-1.0-1.0-0.0-1.9","7","6","7","6","6","4","4","5","5","5","5","2","2","1","2","1","2","2","2","5","4","5","5","3","4","4","4","5","4","5","5","7","7","6","5","5","5","6","6","6","1","7","6","6","5","1","6","7","1","5","6","6","7","6","4","7","7","7","6","6","7","7","6","7","7","6","7","7","7","7","6","7","7","7","7","7","7","6","6","598856622046969856","王","14","Male","[""好他"",""坏我"",""好我"",""坏他""]","[""强他"",""弱我"",""强我"",""弱他""]","","","","","","","","","","","","","","","","","","","","","","","","","","","","","","feedback_test","","","","","","","","",""
"866","","f","psychophysics","30","259198","0.0-8.0-1.0-1.0-0.0-0.10","7","6","7","6","6","4","4","5","5","5","5","2","2","1","2","1","2","2","2","5","4","5","5","3","4","4","4","5","4","5","5","7","7","6","5","5","5","6","6","6","1","7","6","6","5","1","6","7","1","5","6","6","7","6","4","7","7","7","6","6","7","7","6","7","7","6","7","7","7","7","6","7","7","7","7","7","7","6","6","598856622046969856","王","14","Male","[""好他"",""坏我"",""好我"",""坏他""]","[""强他"",""弱我"",""强我"",""弱他""]","","","","","","","","match","","","","","","","","","","key","f","16.665765765765713","768","428","f","true","match","img/ellipse.png","弱他","弱他","prac_ALT2_ability","practice_ability","","","","","","","","",""
"null","<span style='color:GreenYellow; font-size: 70px;'>正确! </span>","null","html-keyboard-response","31","259700","0.0-8.0-1.0-1.0-0.0-1.10","7","6","7","6","6","4","4","5","5","5","5","2","2","1","2","1","2","2","2","5","4","5","5","3","4","4","4","5","4","5","5","7","7","6","5","5","5","6","6","6","1","7","6","6","5","1","6","7","1","5","6","6","7","6","4","7","7","7","6","6","7","7","6","7","7","6","7","7","7","7","6","7","7","7","7","7","7","6","6","598856622046969856","王","14","Male","[""好他"",""坏我"",""好我"",""坏他""]","[""强他"",""弱我"",""强我"",""弱他""]","","","","","","","","","","","","","","","","","","","","","","","","","","","","","","feedback_test","","","","","","","","",""
"817","","f","psychophysics","32","261518","0.0-8.0-1.0-1.0-0.0-0.11","7","6","7","6","6","4","4","5","5","5","5","2","2","1","2","1","2","2","2","5","4","5","5","3","4","4","4","5","4","5","5","7","7","6","5","5","5","6","6","6","1","7","6","6","5","1","6","7","1","5","6","6","7","6","4","7","7","7","6","6","7","7","6","7","7","6","7","7","7","7","6","7","7","7","7","7","7","6","6","598856622046969856","王","14","Male","[""好他"",""坏我"",""好我"",""坏他""]","[""强他"",""弱我"",""强我"",""弱他""]","","","","","","","","match","","","","","","","","","","key","f","16.664814814814978","768","428","f","true","match","img/square.png","弱我","弱我","prac_ALT2_ability","practice_ability","","","","","","","","",""
"null","<span style='color:GreenYellow; font-size: 70px;'>正确! </span>","null","html-keyboard-response","33","262018","0.0-8.0-1.0-1.0-0.0-1.11","7","6","7","6","6","4","4","5","5","5","5","2","2","1","2","1","2","2","2","5","4","5","5","3","4","4","4","5","4","5","5","7","7","6","5","5","5","6","6","6","1","7","6","6","5","1","6","7","1","5","6","6","7","6","4","7","7","7","6","6","7","7","6","7","7","6","7","7","7","7","6","7","7","7","7","7","7","6","6","598856622046969856","王","14","Male","[""好他"",""坏我"",""好我"",""坏他""]","[""强他"",""弱我"",""强我"",""弱他""]","","","","","","","","","","","","","","","","","","","","","","","","","","","","","","feedback_test","","","","","","","","",""
"812","","j","psychophysics","34","263830","0.0-8.0-1.0-1.0-0.0-0.12","7","6","7","6","6","4","4","5","5","5","5","2","2","1","2","1","2","2","2","5","4","5","5","3","4","4","4","5","4","5","5","7","7","6","5","5","5","6","6","6","1","7","6","6","5","1","6","7","1","5","6","6","7","6","4","7","7","7","6","6","7","7","6","7","7","6","7","7","7","7","6","7","7","7","7","7","7","6","6","598856622046969856","王","14","Male","[""好他"",""坏我"",""好我"",""坏他""]","[""强他"",""弱我"",""强我"",""弱他""]","","","","","","","","nonmatch","","","","","","","","","","key","j","16.665740740740418","768","428","j","true","nonmatch","img/hexagon.png","弱我","强我","prac_ALT2_ability","practice_ability","","","","","","","","",""
"null","<span style='color:GreenYellow; font-size: 70px;'>正确! </span>","null","html-keyboard-response","35","264331","0.0-8.0-1.0-1.0-0.0-1.12","7","6","7","6","6","4","4","5","5","5","5","2","2","1","2","1","2","2","2","5","4","5","5","3","4","4","4","5","4","5","5","7","7","6","5","5","5","6","6","6","1","7","6","6","5","1","6","7","1","5","6","6","7","6","4","7","7","7","6","6","7","7","6","7","7","6","7","7","7","7","6","7","7","7","7","7","7","6","6","598856622046969856","王","14","Male","[""好他"",""坏我"",""好我"",""坏他""]","[""强他"",""弱我"",""强我"",""弱他""]","","","","","","","","","","","","","","","","","","","","","","","","","","","","","","feedback_test","","","","","","","","",""
"722","","f","psychophysics","36","266055","0.0-8.0-1.0-1.0-0.0-0.13","7","6","7","6","6","4","4","5","5","5","5","2","2","1","2","1","2","2","2","5","4","5","5","3","4","4","4","5","4","5","5","7","7","6","5","5","5","6","6","6","1","7","6","6","5","1","6","7","1","5","6","6","7","6","4","7","7","7","6","6","7","7","6","7","7","6","7","7","7","7","6","7","7","7","7","7","7","6","6","598856622046969856","王","14","Male","[""好他"",""坏我"",""好我"",""坏他""]","[""强他"",""弱我"",""强我"",""弱他""]","","","","","","","","match","","","","","","","","","","key","f","16.664705882352827","768","428","f","true","match","img/square.png","弱我","弱我","prac_ALT2_ability","practice_ability","","","","","","","","",""
"null","<span style='color:GreenYellow; font-size: 70px;'>正确! </span>","null","html-keyboard-response","37","266557","0.0-8.0-1.0-1.0-0.0-1.13","7","6","7","6","6","4","4","5","5","5","5","2","2","1","2","1","2","2","2","5","4","5","5","3","4","4","4","5","4","5","5","7","7","6","5","5","5","6","6","6","1","7","6","6","5","1","6","7","1","5","6","6","7","6","4","7","7","7","6","6","7","7","6","7","7","6","7","7","7","7","6","7","7","7","7","7","7","6","6","598856622046969856","王","14","Male","[""好他"",""坏我"",""好我"",""坏他""]","[""强他"",""弱我"",""强我"",""弱他""]","","","","","","","","","","","","","","","","","","","","","","","","","","","","","","feedback_test","","","","","","","","",""
"832","","j","psychophysics","38","268390","0.0-8.0-1.0-1.0-0.0-0.14","7","6","7","6","6","4","4","5","5","5","5","2","2","1","2","1","2","2","2","5","4","5","5","3","4","4","4","5","4","5","5","7","7","6","5","5","5","6","6","6","1","7","6","6","5","1","6","7","1","5","6","6","7","6","4","7","7","7","6","6","7","7","6","7","7","6","7","7","7","7","6","7","7","7","7","7","7","6","6","598856622046969856","王","14","Male","[""好他"",""坏我"",""好我"",""坏他""]","[""强他"",""弱我"",""强我"",""弱他""]","","","","","","","","nonmatch","","","","","","","","","","key","j","16.664814814814708","768","428","j","true","nonmatch","img/square.png","强我","弱我","prac_ALT2_ability","practice_ability","","","","","","","","",""
"null","<span style='color:GreenYellow; font-size: 70px;'>正确! </span>","null","html-keyboard-response","39","268890","0.0-8.0-1.0-1.0-0.0-1.14","7","6","7","6","6","4","4","5","5","5","5","2","2","1","2","1","2","2","2","5","4","5","5","3","4","4","4","5","4","5","5","7","7","6","5","5","5","6","6","6","1","7","6","6","5","1","6","7","1","5","6","6","7","6","4","7","7","7","6","6","7","7","6","7","7","6","7","7","7","7","6","7","7","7","7","7","7","6","6","598856622046969856","王","14","Male","[""好他"",""坏我"",""好我"",""坏他""]","[""强他"",""弱我"",""强我"",""弱他""]","","","","","","","","","","","","","","","","","","","","","","","","","","","","","","feedback_test","","","","","","","","",""
"1042","","j","psychophysics","40","270934","0.0-8.0-1.0-1.0-0.0-0.15","7","6","7","6","6","4","4","5","5","5","5","2","2","1","2","1","2","2","2","5","4","5","5","3","4","4","4","5","4","5","5","7","7","6","5","5","5","6","6","6","1","7","6","6","5","1","6","7","1","5","6","6","7","6","4","7","7","7","6","6","7","7","6","7","7","6","7","7","7","7","6","7","7","7","7","7","7","6","6","598856622046969856","王","14","Male","[""好他"",""坏我"",""好我"",""坏他""]","[""强他"",""弱我"",""强我"",""弱他""]","","","","","","","","nonmatch","","","","","","","","","","key","j","16.665289256198346","768","428","j","true","nonmatch","img/triangle.png","弱我","强他","prac_ALT2_ability","practice_ability","","","","","","","","",""
"null","<span style='color:GreenYellow; font-size: 70px;'>正确! </span>","null","html-keyboard-response","41","271436","0.0-8.0-1.0-1.0-0.0-1.15","7","6","7","6","6","4","4","5","5","5","5","2","2","1","2","1","2","2","2","5","4","5","5","3","4","4","4","5","4","5","5","7","7","6","5","5","5","6","6","6","1","7","6","6","5","1","6","7","1","5","6","6","7","6","4","7","7","7","6","6","7","7","6","7","7","6","7","7","7","7","6","7","7","7","7","7","7","6","6","598856622046969856","王","14","Male","[""好他"",""坏我"",""好我"",""坏他""]","[""强他"",""弱我"",""强我"",""弱他""]","","","","","","","","","","","","","","","","","","","","","","","","","","","","","","feedback_test","","","","","","","","",""
"1145","","j","psychophysics","42","273582","0.0-8.0-1.0-1.0-0.0-0.16","7","6","7","6","6","4","4","5","5","5","5","2","2","1","2","1","2","2","2","5","4","5","5","3","4","4","4","5","4","5","5","7","7","6","5","5","5","6","6","6","1","7","6","6","5","1","6","7","1","5","6","6","7","6","4","7","7","7","6","6","7","7","6","7","7","6","7","7","7","7","6","7","7","7","7","7","7","6","6","598856622046969856","王","14","Male","[""好他"",""坏我"",""好我"",""坏他""]","[""强他"",""弱我"",""强我"",""弱他""]","","","","","","","","nonmatch","","","","","","","","","","key","j","16.665624999999636","768","428","j","true","nonmatch","img/hexagon.png","弱他","强我","prac_ALT2_ability","practice_ability","","","","","","","","",""
"null","<span style='color:GreenYellow; font-size: 70px;'>正确! </span>","null","html-keyboard-response","43","274083","0.0-8.0-1.0-1.0-0.0-1.16","7","6","7","6","6","4","4","5","5","5","5","2","2","1","2","1","2","2","2","5","4","5","5","3","4","4","4","5","4","5","5","7","7","6","5","5","5","6","6","6","1","7","6","6","5","1","6","7","1","5","6","6","7","6","4","7","7","7","6","6","7","7","6","7","7","6","7","7","7","7","6","7","7","7","7","7","7","6","6","598856622046969856","王","14","Male","[""好他"",""坏我"",""好我"",""坏他""]","[""强他"",""弱我"",""强我"",""弱他""]","","","","","","","","","","","","","","","","","","","","","","","","","","","","","","feedback_test","","","","","","","","",""
"1019","","j","psychophysics","44","276103","0.0-8.0-1.0-1.0-0.0-0.17","7","6","7","6","6","4","4","5","5","5","5","2","2","1","2","1","2","2","2","5","4","5","5","3","4","4","4","5","4","5","5","7","7","6","5","5","5","6","6","6","1","7","6","6","5","1","6","7","1","5","6","6","7","6","4","7","7","7","6","6","7","7","6","7","7","6","7","7","7","7","6","7","7","7","7","7","7","6","6","598856622046969856","王","14","Male","[""好他"",""坏我"",""好我"",""坏他""]","[""强他"",""弱我"",""强我"",""弱他""]","","","","","","","","nonmatch","","","","","","","","","","key","j","16.666666666666668","768","428","j","true","nonmatch","img/ellipse.png","弱我","弱他","prac_ALT2_ability","practice_ability","","","","","","","","",""
"null","<span style='color:GreenYellow; font-size: 70px;'>正确! </span>","null","html-keyboard-response","45","276605","0.0-8.0-1.0-1.0-0.0-1.17","7","6","7","6","6","4","4","5","5","5","5","2","2","1","2","1","2","2","2","5","4","5","5","3","4","4","4","5","4","5","5","7","7","6","5","5","5","6","6","6","1","7","6","6","5","1","6","7","1","5","6","6","7","6","4","7","7","7","6","6","7","7","6","7","7","6","7","7","7","7","6","7","7","7","7","7","7","6","6","598856622046969856","王","14","Male","[""好他"",""坏我"",""好我"",""坏他""]","[""强他"",""弱我"",""强我"",""弱他""]","","","","","","","","","","","","","","","","","","","","","","","","","","","","","","feedback_test","","","","","","","","",""
"815","","j","psychophysics","46","278422","0.0-8.0-1.0-1.0-0.0-0.18","7","6","7","6","6","4","4","5","5","5","5","2","2","1","2","1","2","2","2","5","4","5","5","3","4","4","4","5","4","5","5","7","7","6","5","5","5","6","6","6","1","7","6","6","5","1","6","7","1","5","6","6","7","6","4","7","7","7","6","6","7","7","6","7","7","6","7","7","7","7","6","7","7","7","7","7","7","6","6","598856622046969856","王","14","Male","[""好他"",""坏我"",""好我"",""坏他""]","[""强他"",""弱我"",""强我"",""弱他""]","","","","","","","","nonmatch","","","","","","","","","","key","j","16.65981308411193","768","428","j","true","nonmatch","img/ellipse.png","强我","弱他","prac_ALT2_ability","practice_ability","","","","","","","","",""
"null","<span style='color:GreenYellow; font-size: 70px;'>正确! </span>","null","html-keyboard-response","47","278937","0.0-8.0-1.0-1.0-0.0-1.18","7","6","7","6","6","4","4","5","5","5","5","2","2","1","2","1","2","2","2","5","4","5","5","3","4","4","4","5","4","5","5","7","7","6","5","5","5","6","6","6","1","7","6","6","5","1","6","7","1","5","6","6","7","6","4","7","7","7","6","6","7","7","6","7","7","6","7","7","7","7","6","7","7","7","7","7","7","6","6","598856622046969856","王","14","Male","[""好他"",""坏我"",""好我"",""坏他""]","[""强他"",""弱我"",""强我"",""弱他""]","","","","","","","","","","","","","","","","","","","","","","","","","","","","","","feedback_test","","","","","","","","",""
"860","","f","psychophysics","48","280798","0.0-8.0-1.0-1.0-0.0-0.19","7","6","7","6","6","4","4","5","5","5","5","2","2","1","2","1","2","2","2","5","4","5","5","3","4","4","4","5","4","5","5","7","7","6","5","5","5","6","6","6","1","7","6","6","5","1","6","7","1","5","6","6","7","6","4","7","7","7","6","6","7","7","6","7","7","6","7","7","7","7","6","7","7","7","7","7","7","6","6","598856622046969856","王","14","Male","[""好他"",""坏我"",""好我"",""坏他""]","[""强他"",""弱我"",""强我"",""弱他""]","","","","","","","","match","","","","","","","","","","key","f","16.66396396396407","768","428","j","false","nonmatch","img/hexagon.png","强他","强我","prac_ALT2_ability","practice_ability","","","","","","","","",""
"null","<span style='color:red; font-size: 70px;'>错误! </span>","null","html-keyboard-response","49","281298","0.0-8.0-1.0-1.0-0.0-1.19","7","6","7","6","6","4","4","5","5","5","5","2","2","1","2","1","2","2","2","5","4","5","5","3","4","4","4","5","4","5","5","7","7","6","5","5","5","6","6","6","1","7","6","6","5","1","6","7","1","5","6","6","7","6","4","7","7","7","6","6","7","7","6","7","7","6","7","7","7","7","6","7","7","7","7","7","7","6","6","598856622046969856","王","14","Male","[""好他"",""坏我"",""好我"",""坏他""]","[""强他"",""弱我"",""强我"",""弱他""]","","","","","","","","","","","","","","","","","","","","","","","","","","","","","","feedback_test","","","","","","","","",""
"986","","f","psychophysics","50","283287","0.0-8.0-1.0-1.0-0.0-0.20","7","6","7","6","6","4","4","5","5","5","5","2","2","1","2","1","2","2","2","5","4","5","5","3","4","4","4","5","4","5","5","7","7","6","5","5","5","6","6","6","1","7","6","6","5","1","6","7","1","5","6","6","7","6","4","7","7","7","6","6","7","7","6","7","7","6","7","7","7","7","6","7","7","7","7","7","7","6","6","598856622046969856","王","14","Male","[""好他"",""坏我"",""好我"",""坏他""]","[""强他"",""弱我"",""强我"",""弱他""]","","","","","","","","match","","","","","","","","","","key","f","16.665254237288135","768","428","f","true","match","img/ellipse.png","弱他","弱他","prac_ALT2_ability","practice_ability","","","","","","","","",""
"null","<span style='color:GreenYellow; font-size: 70px;'>正确! </span>","null","html-keyboard-response","51","283789","0.0-8.0-1.0-1.0-0.0-1.20","7","6","7","6","6","4","4","5","5","5","5","2","2","1","2","1","2","2","2","5","4","5","5","3","4","4","4","5","4","5","5","7","7","6","5","5","5","6","6","6","1","7","6","6","5","1","6","7","1","5","6","6","7","6","4","7","7","7","6","6","7","7","6","7","7","6","7","7","7","7","6","7","7","7","7","7","7","6","6","598856622046969856","王","14","Male","[""好他"",""坏我"",""好我"",""坏他""]","[""强他"",""弱我"",""强我"",""弱他""]","","","","","","","","","","","","","","","","","","","","","","","","","","","","","","feedback_test","","","","","","","","",""
"609","","f","psychophysics","52","285398","0.0-8.0-1.0-1.0-0.0-0.21","7","6","7","6","6","4","4","5","5","5","5","2","2","1","2","1","2","2","2","5","4","5","5","3","4","4","4","5","4","5","5","7","7","6","5","5","5","6","6","6","1","7","6","6","5","1","6","7","1","5","6","6","7","6","4","7","7","7","6","6","7","7","6","7","7","6","7","7","7","7","6","7","7","7","7","7","7","6","6","598856622046969856","王","14","Male","[""好他"",""坏我"",""好我"",""坏他""]","[""强他"",""弱我"",""强我"",""弱他""]","","","","","","","","match","","","","","","","","","","key","f","16.664210526315543","768","428","f","true","match","img/ellipse.png","弱他","弱他","prac_ALT2_ability","practice_ability","","","","","","","","",""
"null","<span style='color:GreenYellow; font-size: 70px;'>正确! </span>","null","html-keyboard-response","53","285899","0.0-8.0-1.0-1.0-0.0-1.21","7","6","7","6","6","4","4","5","5","5","5","2","2","1","2","1","2","2","2","5","4","5","5","3","4","4","4","5","4","5","5","7","7","6","5","5","5","6","6","6","1","7","6","6","5","1","6","7","1","5","6","6","7","6","4","7","7","7","6","6","7","7","6","7","7","6","7","7","7","7","6","7","7","7","7","7","7","6","6","598856622046969856","王","14","Male","[""好他"",""坏我"",""好我"",""坏他""]","[""强他"",""弱我"",""强我"",""弱他""]","","","","","","","","","","","","","","","","","","","","","","","","","","","","","","feedback_test","","","","","","","","",""
"897","","j","psychophysics","54","287799","0.0-8.0-1.0-1.0-0.0-0.22","7","6","7","6","6","4","4","5","5","5","5","2","2","1","2","1","2","2","2","5","4","5","5","3","4","4","4","5","4","5","5","7","7","6","5","5","5","6","6","6","1","7","6","6","5","1","6","7","1","5","6","6","7","6","4","7","7","7","6","6","7","7","6","7","7","6","7","7","7","7","6","7","7","7","7","7","7","6","6","598856622046969856","王","14","Male","[""好他"",""坏我"",""好我"",""坏他""]","[""强他"",""弱我"",""强我"",""弱他""]","","","","","","","","nonmatch","","","","","","","","","","key","j","16.66548672566382","768","428","j","true","nonmatch","img/square.png","弱他","弱我","prac_ALT2_ability","practice_ability","","","","","","","","",""
"null","<span style='color:GreenYellow; font-size: 70px;'>正确! </span>","null","html-keyboard-response","55","288300","0.0-8.0-1.0-1.0-0.0-1.22","7","6","7","6","6","4","4","5","5","5","5","2","2","1","2","1","2","2","2","5","4","5","5","3","4","4","4","5","4","5","5","7","7","6","5","5","5","6","6","6","1","7","6","6","5","1","6","7","1","5","6","6","7","6","4","7","7","7","6","6","7","7","6","7","7","6","7","7","7","7","6","7","7","7","7","7","7","6","6","598856622046969856","王","14","Male","[""好他"",""坏我"",""好我"",""坏他""]","[""强他"",""弱我"",""强我"",""弱他""]","","","","","","","","","","","","","","","","","","","","","","","","","","","","","","feedback_test","","","","","","","","",""
"1096","","f","psychophysics","56","290398","0.0-8.0-1.0-1.0-0.0-0.23","7","6","7","6","6","4","4","5","5","5","5","2","2","1","2","1","2","2","2","5","4","5","5","3","4","4","4","5","4","5","5","7","7","6","5","5","5","6","6","6","1","7","6","6","5","1","6","7","1","5","6","6","7","6","4","7","7","7","6","6","7","7","6","7","7","6","7","7","7","7","6","7","7","7","7","7","7","6","6","598856622046969856","王","14","Male","[""好他"",""坏我"",""好我"",""坏他""]","[""强他"",""弱我"",""强我"",""弱他""]","","","","","","","","match","","","","","","","","","","key","f","16.665600000000094","768","428","j","false","nonmatch","img/triangle.png","强我","强他","prac_ALT2_ability","practice_ability","","","","","","","","",""
"null","<span style='color:red; font-size: 70px;'>错误! </span>","null","html-keyboard-response","57","290900","0.0-8.0-1.0-1.0-0.0-1.23","7","6","7","6","6","4","4","5","5","5","5","2","2","1","2","1","2","2","2","5","4","5","5","3","4","4","4","5","4","5","5","7","7","6","5","5","5","6","6","6","1","7","6","6","5","1","6","7","1","5","6","6","7","6","4","7","7","7","6","6","7","7","6","7","7","6","7","7","7","7","6","7","7","7","7","7","7","6","6","598856622046969856","王","14","Male","[""好他"",""坏我"",""好我"",""坏他""]","[""强他"",""弱我"",""强我"",""弱他""]","","","","","","","","","","","","","","","","","","","","","","","","","","","","","","feedback_test","","","","","","","","",""
"809","","f","psychophysics","58","292710","0.0-8.0-1.0-1.0-0.0-0.24","7","6","7","6","6","4","4","5","5","5","5","2","2","1","2","1","2","2","2","5","4","5","5","3","4","4","4","5","4","5","5","7","7","6","5","5","5","6","6","6","1","7","6","6","5","1","6","7","1","5","6","6","7","6","4","7","7","7","6","6","7","7","6","7","7","6","7","7","7","7","6","7","7","7","7","7","7","6","6","598856622046969856","王","14","Male","[""好他"",""坏我"",""好我"",""坏他""]","[""强他"",""弱我"",""强我"",""弱他""]","","","","","","","","match","","","","","","","","","","key","f","16.663888888888998","768","428","j","false","nonmatch","img/hexagon.png","弱他","强我","prac_ALT2_ability","practice_ability","","","","","","","","",""
"null","<span style='color:red; font-size: 70px;'>错误! </span>","null","html-keyboard-response","59","293210","0.0-8.0-1.0-1.0-0.0-1.24","7","6","7","6","6","4","4","5","5","5","5","2","2","1","2","1","2","2","2","5","4","5","5","3","4","4","4","5","4","5","5","7","7","6","5","5","5","6","6","6","1","7","6","6","5","1","6","7","1","5","6","6","7","6","4","7","7","7","6","6","7","7","6","7","7","6","7","7","7","7","6","7","7","7","7","7","7","6","6","598856622046969856","王","14","Male","[""好他"",""坏我"",""好我"",""坏他""]","[""强他"",""弱我"",""强我"",""弱他""]","","","","","","","","","","","","","","","","","","","","","","","","","","","","","","feedback_test","","","","","","","","",""
"978","","f","psychophysics","60","295190","0.0-8.0-1.0-1.0-0.0-0.25","7","6","7","6","6","4","4","5","5","5","5","2","2","1","2","1","2","2","2","5","4","5","5","3","4","4","4","5","4","5","5","7","7","6","5","5","5","6","6","6","1","7","6","6","5","1","6","7","1","5","6","6","7","6","4","7","7","7","6","6","7","7","6","7","7","6","7","7","7","7","6","7","7","7","7","7","7","6","6","598856622046969856","王","14","Male","[""好他"",""坏我"",""好我"",""坏他""]","[""强他"",""弱我"",""强我"",""弱他""]","","","","","","","","match","","","","","","","","","","key","f","16.665254237288135","768","428","f","true","match","img/hexagon.png","强我","强我","prac_ALT2_ability","practice_ability","","","","","","","","",""
"null","<span style='color:GreenYellow; font-size: 70px;'>正确! </span>","null","html-keyboard-response","61","295692","0.0-8.0-1.0-1.0-0.0-1.25","7","6","7","6","6","4","4","5","5","5","5","2","2","1","2","1","2","2","2","5","4","5","5","3","4","4","4","5","4","5","5","7","7","6","5","5","5","6","6","6","1","7","6","6","5","1","6","7","1","5","6","6","7","6","4","7","7","7","6","6","7","7","6","7","7","6","7","7","7","7","6","7","7","7","7","7","7","6","6","598856622046969856","王","14","Male","[""好他"",""坏我"",""好我"",""坏他""]","[""强他"",""弱我"",""强我"",""弱他""]","","","","","","","","","","","","","","","","","","","","","","","","","","","","","","feedback_test","","","","","","","","",""
"753","","j","psychophysics","62","297446","0.0-8.0-1.0-1.0-0.0-0.26","7","6","7","6","6","4","4","5","5","5","5","2","2","1","2","1","2","2","2","5","4","5","5","3","4","4","4","5","4","5","5","7","7","6","5","5","5","6","6","6","1","7","6","6","5","1","6","7","1","5","6","6","7","6","4","7","7","7","6","6","7","7","6","7","7","6","7","7","7","7","6","7","7","7","7","7","7","6","6","598856622046969856","王","14","Male","[""好他"",""坏我"",""好我"",""坏他""]","[""强他"",""弱我"",""强我"",""弱他""]","","","","","","","","nonmatch","","","","","","","","","","key","j","16.66442307692285","768","428","j","true","nonmatch","img/ellipse.png","强他","弱他","prac_ALT2_ability","practice_ability","","","","","","","","",""
"null","<span style='color:GreenYellow; font-size: 70px;'>正确! </span>","null","html-keyboard-response","63","297947","0.0-8.0-1.0-1.0-0.0-1.26","7","6","7","6","6","4","4","5","5","5","5","2","2","1","2","1","2","2","2","5","4","5","5","3","4","4","4","5","4","5","5","7","7","6","5","5","5","6","6","6","1","7","6","6","5","1","6","7","1","5","6","6","7","6","4","7","7","7","6","6","7","7","6","7","7","6","7","7","7","7","6","7","7","7","7","7","7","6","6","598856622046969856","王","14","Male","[""好他"",""坏我"",""好我"",""坏他""]","[""强他"",""弱我"",""强我"",""弱他""]","","","","","","","","","","","","","","","","","","","","","","","","","","","","","","feedback_test","","","","","","","","",""
"819","","j","psychophysics","64","299767","0.0-8.0-1.0-1.0-0.0-0.27","7","6","7","6","6","4","4","5","5","5","5","2","2","1","2","1","2","2","2","5","4","5","5","3","4","4","4","5","4","5","5","7","7","6","5","5","5","6","6","6","1","7","6","6","5","1","6","7","1","5","6","6","7","6","4","7","7","7","6","6","7","7","6","7","7","6","7","7","7","7","6","7","7","7","7","7","7","6","6","598856622046969856","王","14","Male","[""好他"",""坏我"",""好我"",""坏他""]","[""强他"",""弱我"",""强我"",""弱他""]","","","","","","","","nonmatch","","","","","","","","","","key","j","16.666666666666668","768","428","j","true","nonmatch","img/ellipse.png","强我","弱他","prac_ALT2_ability","practice_ability","","","","","","","","",""
"null","<span style='color:GreenYellow; font-size: 70px;'>正确! </span>","null","html-keyboard-response","65","300268","0.0-8.0-1.0-1.0-0.0-1.27","7","6","7","6","6","4","4","5","5","5","5","2","2","1","2","1","2","2","2","5","4","5","5","3","4","4","4","5","4","5","5","7","7","6","5","5","5","6","6","6","1","7","6","6","5","1","6","7","1","5","6","6","7","6","4","7","7","7","6","6","7","7","6","7","7","6","7","7","7","7","6","7","7","7","7","7","7","6","6","598856622046969856","王","14","Male","[""好他"",""坏我"",""好我"",""坏他""]","[""强他"",""弱我"",""强我"",""弱他""]","","","","","","","","","","","","","","","","","","","","","","","","","","","","","","feedback_test","","","","","","","","",""
"778","","f","psychophysics","66","302046","0.0-8.0-1.0-1.0-0.0-0.28","7","6","7","6","6","4","4","5","5","5","5","2","2","1","2","1","2","2","2","5","4","5","5","3","4","4","4","5","4","5","5","7","7","6","5","5","5","6","6","6","1","7","6","6","5","1","6","7","1","5","6","6","7","6","4","7","7","7","6","6","7","7","6","7","7","6","7","7","7","7","6","7","7","7","7","7","7","6","6","598856622046969856","王","14","Male","[""好他"",""坏我"",""好我"",""坏他""]","[""强他"",""弱我"",""强我"",""弱他""]","","","","","","","","match","","","","","","","","","","key","f","16.664150943395896","768","428","f","true","match","img/hexagon.png","强我","强我","prac_ALT2_ability","practice_ability","","","","","","","","",""
"null","<span style='color:GreenYellow; font-size: 70px;'>正确! </span>","null","html-keyboard-response","67","302553","0.0-8.0-1.0-1.0-0.0-1.28","7","6","7","6","6","4","4","5","5","5","5","2","2","1","2","1","2","2","2","5","4","5","5","3","4","4","4","5","4","5","5","7","7","6","5","5","5","6","6","6","1","7","6","6","5","1","6","7","1","5","6","6","7","6","4","7","7","7","6","6","7","7","6","7","7","6","7","7","7","7","6","7","7","7","7","7","7","6","6","598856622046969856","王","14","Male","[""好他"",""坏我"",""好我"",""坏他""]","[""强他"",""弱我"",""强我"",""弱他""]","","","","","","","","","","","","","","","","","","","","","","","","","","","","","","feedback_test","","","","","","","","",""
"757","","j","psychophysics","68","304310","0.0-8.0-1.0-1.0-0.0-0.29","7","6","7","6","6","4","4","5","5","5","5","2","2","1","2","1","2","2","2","5","4","5","5","3","4","4","4","5","4","5","5","7","7","6","5","5","5","6","6","6","1","7","6","6","5","1","6","7","1","5","6","6","7","6","4","7","7","7","6","6","7","7","6","7","7","6","7","7","7","7","6","7","7","7","7","7","7","6","6","598856622046969856","王","14","Male","[""好他"",""坏我"",""好我"",""坏他""]","[""强他"",""弱我"",""强我"",""弱他""]","","","","","","","","nonmatch","","","","","","","","","","key","j","16.66346153846154","768","428","f","false","match","img/triangle.png","强他","强他","prac_ALT2_ability","practice_ability","","","","","","","","",""
"null","<span style='color:red; font-size: 70px;'>错误! </span>","null","html-keyboard-response","69","304812","0.0-8.0-1.0-1.0-0.0-1.29","7","6","7","6","6","4","4","5","5","5","5","2","2","1","2","1","2","2","2","5","4","5","5","3","4","4","4","5","4","5","5","7","7","6","5","5","5","6","6","6","1","7","6","6","5","1","6","7","1","5","6","6","7","6","4","7","7","7","6","6","7","7","6","7","7","6","7","7","7","7","6","7","7","7","7","7","7","6","6","598856622046969856","王","14","Male","[""好他"",""坏我"",""好我"",""坏他""]","[""强他"",""弱我"",""强我"",""弱他""]","","","","","","","","","","","","","","","","","","","","","","","","","","","","","","feedback_test","","","","","","","","",""
"665","","f","psychophysics","70","306478","0.0-8.0-1.0-1.0-0.0-0.30","7","6","7","6","6","4","4","5","5","5","5","2","2","1","2","1","2","2","2","5","4","5","5","3","4","4","4","5","4","5","5","7","7","6","5","5","5","6","6","6","1","7","6","6","5","1","6","7","1","5","6","6","7","6","4","7","7","7","6","6","7","7","6","7","7","6","7","7","7","7","6","7","7","7","7","7","7","6","6","598856622046969856","王","14","Male","[""好他"",""坏我"",""好我"",""坏他""]","[""强他"",""弱我"",""强我"",""弱他""]","","","","","","","","match","","","","","","","","","","key","f","16.666666666666668","768","428","f","true","match","img/square.png","弱我","弱我","prac_ALT2_ability","practice_ability","","","","","","","","",""
"null","<span style='color:GreenYellow; font-size: 70px;'>正确! </span>","null","html-keyboard-response","71","306979","0.0-8.0-1.0-1.0-0.0-1.30","7","6","7","6","6","4","4","5","5","5","5","2","2","1","2","1","2","2","2","5","4","5","5","3","4","4","4","5","4","5","5","7","7","6","5","5","5","6","6","6","1","7","6","6","5","1","6","7","1","5","6","6","7","6","4","7","7","7","6","6","7","7","6","7","7","6","7","7","7","7","6","7","7","7","7","7","7","6","6","598856622046969856","王","14","Male","[""好他"",""坏我"",""好我"",""坏他""]","[""强他"",""弱我"",""强我"",""弱他""]","","","","","","","","","","","","","","","","","","","","","","","","","","","","","","feedback_test","","","","","","","","",""
"762","","j","psychophysics","72","308742","0.0-8.0-1.0-1.0-0.0-0.31","7","6","7","6","6","4","4","5","5","5","5","2","2","1","2","1","2","2","2","5","4","5","5","3","4","4","4","5","4","5","5","7","7","6","5","5","5","6","6","6","1","7","6","6","5","1","6","7","1","5","6","6","7","6","4","7","7","7","6","6","7","7","6","7","7","6","7","7","7","7","6","7","7","7","7","7","7","6","6","598856622046969856","王","14","Male","[""好他"",""坏我"",""好我"",""坏他""]","[""强他"",""弱我"",""强我"",""弱他""]","","","","","","","","nonmatch","","","","","","","","","","key","j","16.665714285713953","768","428","f","false","match","img/triangle.png","强他","强他","prac_ALT2_ability","practice_ability","","","","","","","","",""
"null","<span style='color:red; font-size: 70px;'>错误! </span>","null","html-keyboard-response","73","309243","0.0-8.0-1.0-1.0-0.0-1.31","7","6","7","6","6","4","4","5","5","5","5","2","2","1","2","1","2","2","2","5","4","5","5","3","4","4","4","5","4","5","5","7","7","6","5","5","5","6","6","6","1","7","6","6","5","1","6","7","1","5","6","6","7","6","4","7","7","7","6","6","7","7","6","7","7","6","7","7","7","7","6","7","7","7","7","7","7","6","6","598856622046969856","王","14","Male","[""好他"",""坏我"",""好我"",""坏他""]","[""强他"",""弱我"",""强我"",""弱他""]","","","","","","","","","","","","","","","","","","","","","","","","","","","","","","feedback_test","","","","","","","","",""
"696","","f","psychophysics","74","310942","0.0-8.0-1.0-1.0-0.0-0.32","7","6","7","6","6","4","4","5","5","5","5","2","2","1","2","1","2","2","2","5","4","5","5","3","4","4","4","5","4","5","5","7","7","6","5","5","5","6","6","6","1","7","6","6","5","1","6","7","1","5","6","6","7","6","4","7","7","7","6","6","7","7","6","7","7","6","7","7","7","7","6","7","7","7","7","7","7","6","6","598856622046969856","王","14","Male","[""好他"",""坏我"",""好我"",""坏他""]","[""强他"",""弱我"",""强我"",""弱他""]","","","","","","","","match","","","","","","","","","","key","f","16.666336633663253","768","428","f","true","match","img/square.png","弱我","弱我","prac_ALT2_ability","practice_ability","","","","","","","","",""
"null","<span style='color:GreenYellow; font-size: 70px;'>正确! </span>","null","html-keyboard-response","75","311444","0.0-8.0-1.0-1.0-0.0-1.32","7","6","7","6","6","4","4","5","5","5","5","2","2","1","2","1","2","2","2","5","4","5","5","3","4","4","4","5","4","5","5","7","7","6","5","5","5","6","6","6","1","7","6","6","5","1","6","7","1","5","6","6","7","6","4","7","7","7","6","6","7","7","6","7","7","6","7","7","7","7","6","7","7","7","7","7","7","6","6","598856622046969856","王","14","Male","[""好他"",""坏我"",""好我"",""坏他""]","[""强他"",""弱我"",""强我"",""弱他""]","","","","","","","","","","","","","","","","","","","","","","","","","","","","","","feedback_test","","","","","","","","",""
"592","","f","psychophysics","76","313038","0.0-8.0-1.0-1.0-0.0-0.33","7","6","7","6","6","4","4","5","5","5","5","2","2","1","2","1","2","2","2","5","4","5","5","3","4","4","4","5","4","5","5","7","7","6","5","5","5","6","6","6","1","7","6","6","5","1","6","7","1","5","6","6","7","6","4","7","7","7","6","6","7","7","6","7","7","6","7","7","7","7","6","7","7","7","7","7","7","6","6","598856622046969856","王","14","Male","[""好他"",""坏我"",""好我"",""坏他""]","[""强他"",""弱我"",""强我"",""弱他""]","","","","","","","","match","","","","","","","","","","key","f","16.666315789474176","768","428","f","true","match","img/triangle.png","强他","强他","prac_ALT2_ability","practice_ability","","","","","","","","",""
"null","<span style='color:GreenYellow; font-size: 70px;'>正确! </span>","null","html-keyboard-response","77","313538","0.0-8.0-1.0-1.0-0.0-1.33","7","6","7","6","6","4","4","5","5","5","5","2","2","1","2","1","2","2","2","5","4","5","5","3","4","4","4","5","4","5","5","7","7","6","5","5","5","6","6","6","1","7","6","6","5","1","6","7","1","5","6","6","7","6","4","7","7","7","6","6","7","7","6","7","7","6","7","7","7","7","6","7","7","7","7","7","7","6","6","598856622046969856","王","14","Male","[""好他"",""坏我"",""好我"",""坏他""]","[""强他"",""弱我"",""强我"",""弱他""]","","","","","","","","","","","","","","","","","","","","","","","","","","","","","","feedback_test","","","","","","","","",""
"714","","f","psychophysics","78","315254","0.0-8.0-1.0-1.0-0.0-0.34","7","6","7","6","6","4","4","5","5","5","5","2","2","1","2","1","2","2","2","5","4","5","5","3","4","4","4","5","4","5","5","7","7","6","5","5","5","6","6","6","1","7","6","6","5","1","6","7","1","5","6","6","7","6","4","7","7","7","6","6","7","7","6","7","7","6","7","7","7","7","6","7","7","7","7","7","7","6","6","598856622046969856","王","14","Male","[""好他"",""坏我"",""好我"",""坏他""]","[""强他"",""弱我"",""强我"",""弱他""]","","","","","","","","match","","","","","","","","","","key","f","16.664705882352827","768","428","j","false","nonmatch","img/hexagon.png","强他","强我","prac_ALT2_ability","practice_ability","","","","","","","","",""
"null","<span style='color:red; font-size: 70px;'>错误! </span>","null","html-keyboard-response","79","315755","0.0-8.0-1.0-1.0-0.0-1.34","7","6","7","6","6","4","4","5","5","5","5","2","2","1","2","1","2","2","2","5","4","5","5","3","4","4","4","5","4","5","5","7","7","6","5","5","5","6","6","6","1","7","6","6","5","1","6","7","1","5","6","6","7","6","4","7","7","7","6","6","7","7","6","7","7","6","7","7","7","7","6","7","7","7","7","7","7","6","6","598856622046969856","王","14","Male","[""好他"",""坏我"",""好我"",""坏他""]","[""强他"",""弱我"",""强我"",""弱他""]","","","","","","","","","","","","","","","","","","","","","","","","","","","","","","feedback_test","","","","","","","","",""
"753","","j","psychophysics","80","317510","0.0-8.0-1.0-1.0-0.0-0.35","7","6","7","6","6","4","4","5","5","5","5","2","2","1","2","1","2","2","2","5","4","5","5","3","4","4","4","5","4","5","5","7","7","6","5","5","5","6","6","6","1","7","6","6","5","1","6","7","1","5","6","6","7","6","4","7","7","7","6","6","7","7","6","7","7","6","7","7","7","7","6","7","7","7","7","7","7","6","6","598856622046969856","王","14","Male","[""好他"",""坏我"",""好我"",""坏他""]","[""强他"",""弱我"",""强我"",""弱他""]","","","","","","","","nonmatch","","","","","","","","","","key","j","16.66442307692285","768","428","j","true","nonmatch","img/triangle.png","弱我","强他","prac_ALT2_ability","practice_ability","","","","","","","","",""
"null","<span style='color:GreenYellow; font-size: 70px;'>正确! </span>","null","html-keyboard-response","81","318011","0.0-8.0-1.0-1.0-0.0-1.35","7","6","7","6","6","4","4","5","5","5","5","2","2","1","2","1","2","2","2","5","4","5","5","3","4","4","4","5","4","5","5","7","7","6","5","5","5","6","6","6","1","7","6","6","5","1","6","7","1","5","6","6","7","6","4","7","7","7","6","6","7","7","6","7","7","6","7","7","7","7","6","7","7","7","7","7","7","6","6","598856622046969856","王","14","Male","[""好他"",""坏我"",""好我"",""坏他""]","[""强他"",""弱我"",""强我"",""弱他""]","","","","","","","","","","","","","","","","","","","","","","","","","","","","","","feedback_test","","","","","","","","",""
"713","","f","psychophysics","82","319726","0.0-8.0-1.0-1.0-0.0-0.36","7","6","7","6","6","4","4","5","5","5","5","2","2","1","2","1","2","2","2","5","4","5","5","3","4","4","4","5","4","5","5","7","7","6","5","5","5","6","6","6","1","7","6","6","5","1","6","7","1","5","6","6","7","6","4","7","7","7","6","6","7","7","6","7","7","6","7","7","7","7","6","7","7","7","7","7","7","6","6","598856622046969856","王","14","Male","[""好他"",""坏我"",""好我"",""坏他""]","[""强他"",""弱我"",""强我"",""弱他""]","","","","","","","","match","","","","","","","","","","key","f","16.667647058823302","768","428","f","true","match","img/ellipse.png","弱他","弱他","prac_ALT2_ability","practice_ability","","","","","","","","",""
"null","<span style='color:GreenYellow; font-size: 70px;'>正确! </span>","null","html-keyboard-response","83","320227","0.0-8.0-1.0-1.0-0.0-1.36","7","6","7","6","6","4","4","5","5","5","5","2","2","1","2","1","2","2","2","5","4","5","5","3","4","4","4","5","4","5","5","7","7","6","5","5","5","6","6","6","1","7","6","6","5","1","6","7","1","5","6","6","7","6","4","7","7","7","6","6","7","7","6","7","7","6","7","7","7","7","6","7","7","7","7","7","7","6","6","598856622046969856","王","14","Male","[""好他"",""坏我"",""好我"",""坏他""]","[""强他"",""弱我"",""强我"",""弱他""]","","","","","","","","","","","","","","","","","","","","","","","","","","","","","","feedback_test","","","","","","","","",""
"784","","j","psychophysics","84","322014","0.0-8.0-1.0-1.0-0.0-0.37","7","6","7","6","6","4","4","5","5","5","5","2","2","1","2","1","2","2","2","5","4","5","5","3","4","4","4","5","4","5","5","7","7","6","5","5","5","6","6","6","1","7","6","6","5","1","6","7","1","5","6","6","7","6","4","7","7","7","6","6","7","7","6","7","7","6","7","7","7","7","6","7","7","7","7","7","7","6","6","598856622046969856","王","14","Male","[""好他"",""坏我"",""好我"",""坏他""]","[""强他"",""弱我"",""强我"",""弱他""]","","","","","","","","nonmatch","","","","","","","","","","key","j","16.666037735848835","768","428","j","true","nonmatch","img/hexagon.png","弱我","强我","prac_ALT2_ability","practice_ability","","","","","","","","",""
"null","<span style='color:GreenYellow; font-size: 70px;'>正确! </span>","null","html-keyboard-response","85","322516","0.0-8.0-1.0-1.0-0.0-1.37","7","6","7","6","6","4","4","5","5","5","5","2","2","1","2","1","2","2","2","5","4","5","5","3","4","4","4","5","4","5","5","7","7","6","5","5","5","6","6","6","1","7","6","6","5","1","6","7","1","5","6","6","7","6","4","7","7","7","6","6","7","7","6","7","7","6","7","7","7","7","6","7","7","7","7","7","7","6","6","598856622046969856","王","14","Male","[""好他"",""坏我"",""好我"",""坏他""]","[""强他"",""弱我"",""强我"",""弱他""]","","","","","","","","","","","","","","","","","","","","","","","","","","","","","","feedback_test","","","","","","","","",""
"993","","j","psychophysics","86","324510","0.0-8.0-1.0-1.0-0.0-0.38","7","6","7","6","6","4","4","5","5","5","5","2","2","1","2","1","2","2","2","5","4","5","5","3","4","4","4","5","4","5","5","7","7","6","5","5","5","6","6","6","1","7","6","6","5","1","6","7","1","5","6","6","7","6","4","7","7","7","6","6","7","7","6","7","7","6","7","7","7","7","6","7","7","7","7","7","7","6","6","598856622046969856","王","14","Male","[""好他"",""坏我"",""好我"",""坏他""]","[""强他"",""弱我"",""强我"",""弱他""]","","","","","","","","nonmatch","","","","","","","","","","key","j","16.66016949152562","768","428","j","true","nonmatch","img/ellipse.png","弱我","弱他","prac_ALT2_ability","practice_ability","","","","","","","","",""
"null","<span style='color:GreenYellow; font-size: 70px;'>正确! </span>","null","html-keyboard-response","87","325011","0.0-8.0-1.0-1.0-0.0-1.38","7","6","7","6","6","4","4","5","5","5","5","2","2","1","2","1","2","2","2","5","4","5","5","3","4","4","4","5","4","5","5","7","7","6","5","5","5","6","6","6","1","7","6","6","5","1","6","7","1","5","6","6","7","6","4","7","7","7","6","6","7","7","6","7","7","6","7","7","7","7","6","7","7","7","7","7","7","6","6","598856622046969856","王","14","Male","[""好他"",""坏我"",""好我"",""坏他""]","[""强他"",""弱我"",""强我"",""弱他""]","","","","","","","","","","","","","","","","","","","","","","","","","","","","","","feedback_test","","","","","","","","",""
"817","","j","psychophysics","88","326830","0.0-8.0-1.0-1.0-0.0-0.39","7","6","7","6","6","4","4","5","5","5","5","2","2","1","2","1","2","2","2","5","4","5","5","3","4","4","4","5","4","5","5","7","7","6","5","5","5","6","6","6","1","7","6","6","5","1","6","7","1","5","6","6","7","6","4","7","7","7","6","6","7","7","6","7","7","6","7","7","7","7","6","7","7","7","7","7","7","6","6","598856622046969856","王","14","Male","[""好他"",""坏我"",""好我"",""坏他""]","[""强他"",""弱我"",""强我"",""弱他""]","","","","","","","","nonmatch","","","","","","","","","","key","j","16.666666666666668","768","428","j","true","nonmatch","img/triangle.png","强我","强他","prac_ALT2_ability","practice_ability","","","","","","","","",""
"null","<span style='color:GreenYellow; font-size: 70px;'>正确! </span>","null","html-keyboard-response","89","327331","0.0-8.0-1.0-1.0-0.0-1.39","7","6","7","6","6","4","4","5","5","5","5","2","2","1","2","1","2","2","2","5","4","5","5","3","4","4","4","5","4","5","5","7","7","6","5","5","5","6","6","6","1","7","6","6","5","1","6","7","1","5","6","6","7","6","4","7","7","7","6","6","7","7","6","7","7","6","7","7","7","7","6","7","7","7","7","7","7","6","6","598856622046969856","王","14","Male","[""好他"",""坏我"",""好我"",""坏他""]","[""强他"",""弱我"",""强我"",""弱他""]","","","","","","","","","","","","","","","","","","","","","","","","","","","","","","feedback_test","","","","","","","","",""
"882","","j","psychophysics","90","329215","0.0-8.0-1.0-1.0-0.0-0.40","7","6","7","6","6","4","4","5","5","5","5","2","2","1","2","1","2","2","2","5","4","5","5","3","4","4","4","5","4","5","5","7","7","6","5","5","5","6","6","6","1","7","6","6","5","1","6","7","1","5","6","6","7","6","4","7","7","7","6","6","7","7","6","7","7","6","7","7","7","7","6","7","7","7","7","7","7","6","6","598856622046969856","王","14","Male","[""好他"",""坏我"",""好我"",""坏他""]","[""强他"",""弱我"",""强我"",""弱他""]","","","","","","","","nonmatch","","","","","","","","","","key","j","16.665178571428573","768","428","f","false","match","img/ellipse.png","弱他","弱他","prac_ALT2_ability","practice_ability","","","","","","","","",""
"null","<span style='color:red; font-size: 70px;'>错误! </span>","null","html-keyboard-response","91","329719","0.0-8.0-1.0-1.0-0.0-1.40","7","6","7","6","6","4","4","5","5","5","5","2","2","1","2","1","2","2","2","5","4","5","5","3","4","4","4","5","4","5","5","7","7","6","5","5","5","6","6","6","1","7","6","6","5","1","6","7","1","5","6","6","7","6","4","7","7","7","6","6","7","7","6","7","7","6","7","7","7","7","6","7","7","7","7","7","7","6","6","598856622046969856","王","14","Male","[""好他"",""坏我"",""好我"",""坏他""]","[""强他"",""弱我"",""强我"",""弱他""]","","","","","","","","","","","","","","","","","","","","","","","","","","","","","","feedback_test","","","","","","","","",""
"797","","f","psychophysics","92","331518","0.0-8.0-1.0-1.0-0.0-0.41","7","6","7","6","6","4","4","5","5","5","5","2","2","1","2","1","2","2","2","5","4","5","5","3","4","4","4","5","4","5","5","7","7","6","5","5","5","6","6","6","1","7","6","6","5","1","6","7","1","5","6","6","7","6","4","7","7","7","6","6","7","7","6","7","7","6","7","7","7","7","6","7","7","7","7","7","7","6","6","598856622046969856","王","14","Male","[""好他"",""坏我"",""好我"",""坏他""]","[""强他"",""弱我"",""强我"",""弱他""]","","","","","","","","match","","","","","","","","","","key","f","16.664485981308193","768","428","f","true","match","img/square.png","弱我","弱我","prac_ALT2_ability","practice_ability","","","","","","","","",""
"null","<span style='color:GreenYellow; font-size: 70px;'>正确! </span>","null","html-keyboard-response","93","332019","0.0-8.0-1.0-1.0-0.0-1.41","7","6","7","6","6","4","4","5","5","5","5","2","2","1","2","1","2","2","2","5","4","5","5","3","4","4","4","5","4","5","5","7","7","6","5","5","5","6","6","6","1","7","6","6","5","1","6","7","1","5","6","6","7","6","4","7","7","7","6","6","7","7","6","7","7","6","7","7","7","7","6","7","7","7","7","7","7","6","6","598856622046969856","王","14","Male","[""好他"",""坏我"",""好我"",""坏他""]","[""强他"",""弱我"",""强我"",""弱他""]","","","","","","","","","","","","","","","","","","","","","","","","","","","","","","feedback_test","","","","","","","","",""
"929","","j","psychophysics","94","333950","0.0-8.0-1.0-1.0-0.0-0.42","7","6","7","6","6","4","4","5","5","5","5","2","2","1","2","1","2","2","2","5","4","5","5","3","4","4","4","5","4","5","5","7","7","6","5","5","5","6","6","6","1","7","6","6","5","1","6","7","1","5","6","6","7","6","4","7","7","7","6","6","7","7","6","7","7","6","7","7","7","7","6","7","7","7","7","7","7","6","6","598856622046969856","王","14","Male","[""好他"",""坏我"",""好我"",""坏他""]","[""强他"",""弱我"",""强我"",""弱他""]","","","","","","","","nonmatch","","","","","","","","","","key","j","16.664347826086654","768","428","j","true","nonmatch","img/square.png","弱他","弱我","prac_ALT2_ability","practice_ability","","","","","","","","",""
"null","<span style='color:GreenYellow; font-size: 70px;'>正确! </span>","null","html-keyboard-response","95","334451","0.0-8.0-1.0-1.0-0.0-1.42","7","6","7","6","6","4","4","5","5","5","5","2","2","1","2","1","2","2","2","5","4","5","5","3","4","4","4","5","4","5","5","7","7","6","5","5","5","6","6","6","1","7","6","6","5","1","6","7","1","5","6","6","7","6","4","7","7","7","6","6","7","7","6","7","7","6","7","7","7","7","6","7","7","7","7","7","7","6","6","598856622046969856","王","14","Male","[""好他"",""坏我"",""好我"",""坏他""]","[""强他"",""弱我"",""强我"",""弱他""]","","","","","","","","","","","","","","","","","","","","","","","","","","","","","","feedback_test","","","","","","","","",""
"745","","j","psychophysics","96","336199","0.0-8.0-1.0-1.0-0.0-0.43","7","6","7","6","6","4","4","5","5","5","5","2","2","1","2","1","2","2","2","5","4","5","5","3","4","4","4","5","4","5","5","7","7","6","5","5","5","6","6","6","1","7","6","6","5","1","6","7","1","5","6","6","7","6","4","7","7","7","6","6","7","7","6","7","7","6","7","7","7","7","6","7","7","7","7","7","7","6","6","598856622046969856","王","14","Male","[""好他"",""坏我"",""好我"",""坏他""]","[""强他"",""弱我"",""强我"",""弱他""]","","","","","","","","nonmatch","","","","","","","","","","key","j","16.66504854368932","768","428","j","true","nonmatch","img/square.png","强我","弱我","prac_ALT2_ability","practice_ability","","","","","","","","",""
"null","<span style='color:GreenYellow; font-size: 70px;'>正确! </span>","null","html-keyboard-response","97","336714","0.0-8.0-1.0-1.0-0.0-1.43","7","6","7","6","6","4","4","5","5","5","5","2","2","1","2","1","2","2","2","5","4","5","5","3","4","4","4","5","4","5","5","7","7","6","5","5","5","6","6","6","1","7","6","6","5","1","6","7","1","5","6","6","7","6","4","7","7","7","6","6","7","7","6","7","7","6","7","7","7","7","6","7","7","7","7","7","7","6","6","598856622046969856","王","14","Male","[""好他"",""坏我"",""好我"",""坏他""]","[""强他"",""弱我"",""强我"",""弱他""]","","","","","","","","","","","","","","","","","","","","","","","","","","","","","","feedback_test","","","","","","","","",""
"819","","f","psychophysics","98","338535","0.0-8.0-1.0-1.0-0.0-0.44","7","6","7","6","6","4","4","5","5","5","5","2","2","1","2","1","2","2","2","5","4","5","5","3","4","4","4","5","4","5","5","7","7","6","5","5","5","6","6","6","1","7","6","6","5","1","6","7","1","5","6","6","7","6","4","7","7","7","6","6","7","7","6","7","7","6","7","7","7","7","6","7","7","7","7","7","7","6","6","598856622046969856","王","14","Male","[""好他"",""坏我"",""好我"",""坏他""]","[""强他"",""弱我"",""强我"",""弱他""]","","","","","","","","match","","","","","","","","","","key","f","16.65370370370349","768","428","f","true","match","img/ellipse.png","弱他","弱他","prac_ALT2_ability","practice_ability","","","","","","","","",""
"null","<span style='color:GreenYellow; font-size: 70px;'>正确! </span>","null","html-keyboard-response","99","339038","0.0-8.0-1.0-1.0-0.0-1.44","7","6","7","6","6","4","4","5","5","5","5","2","2","1","2","1","2","2","2","5","4","5","5","3","4","4","4","5","4","5","5","7","7","6","5","5","5","6","6","6","1","7","6","6","5","1","6","7","1","5","6","6","7","6","4","7","7","7","6","6","7","7","6","7","7","6","7","7","7","7","6","7","7","7","7","7","7","6","6","598856622046969856","王","14","Male","[""好他"",""坏我"",""好我"",""坏他""]","[""强他"",""弱我"",""强我"",""弱他""]","","","","","","","","","","","","","","","","","","","","","","","","","","","","","","feedback_test","","","","","","","","",""
"774","","j","psychophysics","100","340815","0.0-8.0-1.0-1.0-0.0-0.45","7","6","7","6","6","4","4","5","5","5","5","2","2","1","2","1","2","2","2","5","4","5","5","3","4","4","4","5","4","5","5","7","7","6","5","5","5","6","6","6","1","7","6","6","5","1","6","7","1","5","6","6","7","6","4","7","7","7","6","6","7","7","6","7","7","6","7","7","7","7","6","7","7","7","7","7","7","6","6","598856622046969856","王","14","Male","[""好他"",""坏我"",""好我"",""坏他""]","[""强他"",""弱我"",""强我"",""弱他""]","","","","","","","","nonmatch","","","","","","","","","","key","j","16.664761904762347","768","428","j","true","nonmatch","img/square.png","强他","弱我","prac_ALT2_ability","practice_ability","","","","","","","","",""
"null","<span style='color:GreenYellow; font-size: 70px;'>正确! </span>","null","html-keyboard-response","101","341317","0.0-8.0-1.0-1.0-0.0-1.45","7","6","7","6","6","4","4","5","5","5","5","2","2","1","2","1","2","2","2","5","4","5","5","3","4","4","4","5","4","5","5","7","7","6","5","5","5","6","6","6","1","7","6","6","5","1","6","7","1","5","6","6","7","6","4","7","7","7","6","6","7","7","6","7","7","6","7","7","7","7","6","7","7","7","7","7","7","6","6","598856622046969856","王","14","Male","[""好他"",""坏我"",""好我"",""坏他""]","[""强他"",""弱我"",""强我"",""弱他""]","","","","","","","","","","","","","","","","","","","","","","","","","","","","","","feedback_test","","","","","","","","",""
"815","","j","psychophysics","102","343134","0.0-8.0-1.0-1.0-0.0-0.46","7","6","7","6","6","4","4","5","5","5","5","2","2","1","2","1","2","2","2","5","4","5","5","3","4","4","4","5","4","5","5","7","7","6","5","5","5","6","6","6","1","7","6","6","5","1","6","7","1","5","6","6","7","6","4","7","7","7","6","6","7","7","6","7","7","6","7","7","7","7","6","7","7","7","7","7","7","6","6","598856622046969856","王","14","Male","[""好他"",""坏我"",""好我"",""坏他""]","[""强他"",""弱我"",""强我"",""弱他""]","","","","","","","","nonmatch","","","","","","","","","","key","j","16.664814814814708","768","428","j","true","nonmatch","img/triangle.png","弱他","强他","prac_ALT2_ability","practice_ability","","","","","","","","",""
"null","<span style='color:GreenYellow; font-size: 70px;'>正确! </span>","null","html-keyboard-response","103","343635","0.0-8.0-1.0-1.0-0.0-1.46","7","6","7","6","6","4","4","5","5","5","5","2","2","1","2","1","2","2","2","5","4","5","5","3","4","4","4","5","4","5","5","7","7","6","5","5","5","6","6","6","1","7","6","6","5","1","6","7","1","5","6","6","7","6","4","7","7","7","6","6","7","7","6","7","7","6","7","7","7","7","6","7","7","7","7","7","7","6","6","598856622046969856","王","14","Male","[""好他"",""坏我"",""好我"",""坏他""]","[""强他"",""弱我"",""强我"",""弱他""]","","","","","","","","","","","","","","","","","","","","","","","","","","","","","","feedback_test","","","","","","","","",""
"691","","f","psychophysics","104","345327","0.0-8.0-1.0-1.0-0.0-0.47","7","6","7","6","6","4","4","5","5","5","5","2","2","1","2","1","2","2","2","5","4","5","5","3","4","4","4","5","4","5","5","7","7","6","5","5","5","6","6","6","1","7","6","6","5","1","6","7","1","5","6","6","7","6","4","7","7","7","6","6","7","7","6","7","7","6","7","7","7","7","6","7","7","7","7","7","7","6","6","598856622046969856","王","14","Male","[""好他"",""坏我"",""好我"",""坏他""]","[""强他"",""弱我"",""强我"",""弱他""]","","","","","","","","match","","","","","","","","","","key","f","16.665","768","428","f","true","match","img/hexagon.png","强我","强我","prac_ALT2_ability","practice_ability","","","","","","","","",""
"null","<span style='color:GreenYellow; font-size: 70px;'>正确! </span>","null","html-keyboard-response","105","345828","0.0-8.0-1.0-1.0-0.0-1.47","7","6","7","6","6","4","4","5","5","5","5","2","2","1","2","1","2","2","2","5","4","5","5","3","4","4","4","5","4","5","5","7","7","6","5","5","5","6","6","6","1","7","6","6","5","1","6","7","1","5","6","6","7","6","4","7","7","7","6","6","7","7","6","7","7","6","7","7","7","7","6","7","7","7","7","7","7","6","6","598856622046969856","王","14","Male","[""好他"",""坏我"",""好我"",""坏他""]","[""强他"",""弱我"",""强我"",""弱他""]","","","","","","","","","","","","","","","","","","","","","","","","","","","","","","feedback_test","","","","","","","","",""
"3881","<style>.context{color:white; font-size: 35px; line-height:40px}</style>                          <div><p class='context'>您正确回答了79% 的试次。</p><p class='context'>您的平均反应时为839毫秒。</p><p class='context'>恭喜您完成练习。按空格键进入正式实验。</p><p class='footer' style='color:white;font-size: 35px; line-height:40px;'>请在进入正式实验实验之前将您的<span style='color: lightgreen;'>食指</span>放在电脑键盘的相应键位上进行按键。</p>"," ","html-keyboard-response","106","349710","0.0-8.0-1.0-2.0","7","6","7","6","6","4","4","5","5","5","5","2","2","1","2","1","2","2","2","5","4","5","5","3","4","4","4","5","4","5","5","7","7","6","5","5","5","6","6","6","1","7","6","6","5","1","6","7","1","5","6","6","7","6","4","7","7","7","6","6","7","7","6","7","7","6","7","7","7","7","6","7","7","7","7","7","7","6","6","598856622046969856","王","14","Male","[""好他"",""坏我"",""好我"",""坏他""]","[""强他"",""弱我"",""强我"",""弱他""]","","","","","","","","","","","","","","","","","","","","","","","","","","","","","","","","","","","","","","",""
"1452","
  <p style='color: white; font-size: 22px'>请您将手指放在按键上，准备进入正式的匹配任务。</p>
  <p> <div style = ""color: green""><按空格键进入下一阶段的匹配任务></div></p>
  "," ","html-keyboard-response","107","351166","0.0-8.0-1.0-3.0","7","6","7","6","6","4","4","5","5","5","5","2","2","1","2","1","2","2","2","5","4","5","5","3","4","4","4","5","4","5","5","7","7","6","5","5","5","6","6","6","1","7","6","6","5","1","6","7","1","5","6","6","7","6","4","7","7","7","6","6","7","7","6","7","7","6","7","7","7","7","6","7","7","7","7","7","7","6","6","598856622046969856","王","14","Male","[""好他"",""坏我"",""好我"",""坏他""]","[""强他"",""弱我"",""强我"",""弱他""]","","","","","","","","","","","","","","","","","","","","","","","","","","","","","","","","","","","","","","",""
"766","","j","psychophysics","108","352934","0.0-8.0-1.0-4.0-0.0-0.0","7","6","7","6","6","4","4","5","5","5","5","2","2","1","2","1","2","2","2","5","4","5","5","3","4","4","4","5","4","5","5","7","7","6","5","5","5","6","6","6","1","7","6","6","5","1","6","7","1","5","6","6","7","6","4","7","7","7","6","6","7","7","6","7","7","6","7","7","7","7","6","7","7","7","7","7","7","6","6","598856622046969856","王","14","Male","[""好他"",""坏我"",""好我"",""坏他""]","[""强他"",""弱我"",""强我"",""弱他""]","","","","","","","","nonmatch","","","","","","","","","","key","j","16.664761904762347","768","428","j","true","nonmatch","img/ellipse.png","弱我","弱他","ALT2","ability","","","","","","","","",""
"null","<span style='color:GreenYellow; font-size: 70px;'>正确! </span>","null","html-keyboard-response","109","353434","0.0-8.0-1.0-4.0-0.0-1.0","7","6","7","6","6","4","4","5","5","5","5","2","2","1","2","1","2","2","2","5","4","5","5","3","4","4","4","5","4","5","5","7","7","6","5","5","5","6","6","6","1","7","6","6","5","1","6","7","1","5","6","6","7","6","4","7","7","7","6","6","7","7","6","7","7","6","7","7","7","7","6","7","7","7","7","7","7","6","6","598856622046969856","王","14","Male","[""好他"",""坏我"",""好我"",""坏他""]","[""强他"",""弱我"",""强我"",""弱他""]","","","","","","","","","","","","","","","","","","","","","","","","","","","","","","feedback_test","","","","","","","","",""
"914","","j","psychophysics","110","355351","0.0-8.0-1.0-4.0-0.0-0.1","7","6","7","6","6","4","4","5","5","5","5","2","2","1","2","1","2","2","2","5","4","5","5","3","4","4","4","5","4","5","5","7","7","6","5","5","5","6","6","6","1","7","6","6","5","1","6","7","1","5","6","6","7","6","4","7","7","7","6","6","7","7","6","7","7","6","7","7","7","7","6","7","7","7","7","7","7","6","6","598856622046969856","王","14","Male","[""好他"",""坏我"",""好我"",""坏他""]","[""强他"",""弱我"",""强我"",""弱他""]","","","","","","","","nonmatch","","","","","","","","","","key","j","16.665789473683905","768","428","f","false","match","img/ellipse.png","弱他","弱他","ALT2","ability","","","","","","","","",""
"null","<span style='color:red; font-size: 70px;'>错误! </span>","null","html-keyboard-response","111","355852","0.0-8.0-1.0-4.0-0.0-1.1","7","6","7","6","6","4","4","5","5","5","5","2","2","1","2","1","2","2","2","5","4","5","5","3","4","4","4","5","4","5","5","7","7","6","5","5","5","6","6","6","1","7","6","6","5","1","6","7","1","5","6","6","7","6","4","7","7","7","6","6","7","7","6","7","7","6","7","7","7","7","6","7","7","7","7","7","7","6","6","598856622046969856","王","14","Male","[""好他"",""坏我"",""好我"",""坏他""]","[""强他"",""弱我"",""强我"",""弱他""]","","","","","","","","","","","","","","","","","","","","","","","","","","","","","","feedback_test","","","","","","","","",""
"753","","j","psychophysics","112","357606","0.0-8.0-1.0-4.0-0.0-0.2","7","6","7","6","6","4","4","5","5","5","5","2","2","1","2","1","2","2","2","5","4","5","5","3","4","4","4","5","4","5","5","7","7","6","5","5","5","6","6","6","1","7","6","6","5","1","6","7","1","5","6","6","7","6","4","7","7","7","6","6","7","7","6","7","7","6","7","7","7","7","6","7","7","7","7","7","7","6","6","598856622046969856","王","14","Male","[""好他"",""坏我"",""好我"",""坏他""]","[""强他"",""弱我"",""强我"",""弱他""]","","","","","","","","nonmatch","","","","","","","","","","key","j","16.665384615384728","768","428","j","true","nonmatch","img/square.png","强我","弱我","ALT2","ability","","","","","","","","",""
"null","<span style='color:GreenYellow; font-size: 70px;'>正确! </span>","null","html-keyboard-response","113","358108","0.0-8.0-1.0-4.0-0.0-1.2","7","6","7","6","6","4","4","5","5","5","5","2","2","1","2","1","2","2","2","5","4","5","5","3","4","4","4","5","4","5","5","7","7","6","5","5","5","6","6","6","1","7","6","6","5","1","6","7","1","5","6","6","7","6","4","7","7","7","6","6","7","7","6","7","7","6","7","7","7","7","6","7","7","7","7","7","7","6","6","598856622046969856","王","14","Male","[""好他"",""坏我"",""好我"",""坏他""]","[""强他"",""弱我"",""强我"",""弱他""]","","","","","","","","","","","","","","","","","","","","","","","","","","","","","","feedback_test","","","","","","","","",""
"825","","j","psychophysics","114","359935","0.0-8.0-1.0-4.0-0.0-0.3","7","6","7","6","6","4","4","5","5","5","5","2","2","1","2","1","2","2","2","5","4","5","5","3","4","4","4","5","4","5","5","7","7","6","5","5","5","6","6","6","1","7","6","6","5","1","6","7","1","5","6","6","7","6","4","7","7","7","6","6","7","7","6","7","7","6","7","7","7","7","6","7","7","7","7","7","7","6","6","598856622046969856","王","14","Male","[""好他"",""坏我"",""好我"",""坏他""]","[""强他"",""弱我"",""强我"",""弱他""]","","","","","","","","nonmatch","","","","","","","","","","key","j","16.664220183486453","768","428","f","false","match","img/ellipse.png","弱他","弱他","ALT2","ability","","","","","","","","",""
"null","<span style='color:red; font-size: 70px;'>错误! </span>","null","html-keyboard-response","115","360436","0.0-8.0-1.0-4.0-0.0-1.3","7","6","7","6","6","4","4","5","5","5","5","2","2","1","2","1","2","2","2","5","4","5","5","3","4","4","4","5","4","5","5","7","7","6","5","5","5","6","6","6","1","7","6","6","5","1","6","7","1","5","6","6","7","6","4","7","7","7","6","6","7","7","6","7","7","6","7","7","7","7","6","7","7","7","7","7","7","6","6","598856622046969856","王","14","Male","[""好他"",""坏我"",""好我"",""坏他""]","[""强他"",""弱我"",""强我"",""弱他""]","","","","","","","","","","","","","","","","","","","","","","","","","","","","","","feedback_test","","","","","","","","",""
"1057","","j","psychophysics","116","362494","0.0-8.0-1.0-4.0-0.0-0.4","7","6","7","6","6","4","4","5","5","5","5","2","2","1","2","1","2","2","2","5","4","5","5","3","4","4","4","5","4","5","5","7","7","6","5","5","5","6","6","6","1","7","6","6","5","1","6","7","1","5","6","6","7","6","4","7","7","7","6","6","7","7","6","7","7","6","7","7","7","7","6","7","7","7","7","7","7","6","6","598856622046969856","王","14","Male","[""好他"",""坏我"",""好我"",""坏他""]","[""强他"",""弱我"",""强我"",""弱他""]","","","","","","","","nonmatch","","","","","","","","","","key","j","16.6655737704919","768","428","j","true","nonmatch","img/square.png","弱他","弱我","ALT2","ability","","","","","","","","",""
"null","<span style='color:GreenYellow; font-size: 70px;'>正确! </span>","null","html-keyboard-response","117","363003","0.0-8.0-1.0-4.0-0.0-1.4","7","6","7","6","6","4","4","5","5","5","5","2","2","1","2","1","2","2","2","5","4","5","5","3","4","4","4","5","4","5","5","7","7","6","5","5","5","6","6","6","1","7","6","6","5","1","6","7","1","5","6","6","7","6","4","7","7","7","6","6","7","7","6","7","7","6","7","7","7","7","6","7","7","7","7","7","7","6","6","598856622046969856","王","14","Male","[""好他"",""坏我"",""好我"",""坏他""]","[""强他"",""弱我"",""强我"",""弱他""]","","","","","","","","","","","","","","","","","","","","","","","","","","","","","","feedback_test","","","","","","","","",""
"762","","j","psychophysics","118","364766","0.0-8.0-1.0-4.0-0.0-0.5","7","6","7","6","6","4","4","5","5","5","5","2","2","1","2","1","2","2","2","5","4","5","5","3","4","4","4","5","4","5","5","7","7","6","5","5","5","6","6","6","1","7","6","6","5","1","6","7","1","5","6","6","7","6","4","7","7","7","6","6","7","7","6","7","7","6","7","7","7","7","6","7","7","7","7","7","7","6","6","598856622046969856","王","14","Male","[""好他"",""坏我"",""好我"",""坏他""]","[""强他"",""弱我"",""强我"",""弱他""]","","","","","","","","nonmatch","","","","","","","","","","key","j","16.666666666666668","768","428","j","true","nonmatch","img/square.png","强他","弱我","ALT2","ability","","","","","","","","",""
"null","<span style='color:GreenYellow; font-size: 70px;'>正确! </span>","null","html-keyboard-response","119","365268","0.0-8.0-1.0-4.0-0.0-1.5","7","6","7","6","6","4","4","5","5","5","5","2","2","1","2","1","2","2","2","5","4","5","5","3","4","4","4","5","4","5","5","7","7","6","5","5","5","6","6","6","1","7","6","6","5","1","6","7","1","5","6","6","7","6","4","7","7","7","6","6","7","7","6","7","7","6","7","7","7","7","6","7","7","7","7","7","7","6","6","598856622046969856","王","14","Male","[""好他"",""坏我"",""好我"",""坏他""]","[""强他"",""弱我"",""强我"",""弱他""]","","","","","","","","","","","","","","","","","","","","","","","","","","","","","","feedback_test","","","","","","","","",""
"753","","f","psychophysics","120","367023","0.0-8.0-1.0-4.0-0.0-0.6","7","6","7","6","6","4","4","5","5","5","5","2","2","1","2","1","2","2","2","5","4","5","5","3","4","4","4","5","4","5","5","7","7","6","5","5","5","6","6","6","1","7","6","6","5","1","6","7","1","5","6","6","7","6","4","7","7","7","6","6","7","7","6","7","7","6","7","7","7","7","6","7","7","7","7","7","7","6","6","598856622046969856","王","14","Male","[""好他"",""坏我"",""好我"",""坏他""]","[""强他"",""弱我"",""强我"",""弱他""]","","","","","","","","match","","","","","","","","","","key","f","16.665384615384166","768","428","f","true","match","img/hexagon.png","强我","强我","ALT2","ability","","","","","","","","",""
"null","<span style='color:GreenYellow; font-size: 70px;'>正确! </span>","null","html-keyboard-response","121","367524","0.0-8.0-1.0-4.0-0.0-1.6","7","6","7","6","6","4","4","5","5","5","5","2","2","1","2","1","2","2","2","5","4","5","5","3","4","4","4","5","4","5","5","7","7","6","5","5","5","6","6","6","1","7","6","6","5","1","6","7","1","5","6","6","7","6","4","7","7","7","6","6","7","7","6","7","7","6","7","7","7","7","6","7","7","7","7","7","7","6","6","598856622046969856","王","14","Male","[""好他"",""坏我"",""好我"",""坏他""]","[""强他"",""弱我"",""强我"",""弱他""]","","","","","","","","","","","","","","","","","","","","","","","","","","","","","","feedback_test","","","","","","","","",""
"721","","j","psychophysics","122","369247","0.0-8.0-1.0-4.0-0.0-0.7","7","6","7","6","6","4","4","5","5","5","5","2","2","1","2","1","2","2","2","5","4","5","5","3","4","4","4","5","4","5","5","7","7","6","5","5","5","6","6","6","1","7","6","6","5","1","6","7","1","5","6","6","7","6","4","7","7","7","6","6","7","7","6","7","7","6","7","7","7","7","6","7","7","7","7","7","7","6","6","598856622046969856","王","14","Male","[""好他"",""坏我"",""好我"",""坏他""]","[""强他"",""弱我"",""强我"",""弱他""]","","","","","","","","nonmatch","","","","","","","","","","key","j","16.66601941747607","768","428","j","true","nonmatch","img/hexagon.png","强他","强我","ALT2","ability","","","","","","","","",""
"null","<span style='color:GreenYellow; font-size: 70px;'>正确! </span>","null","html-keyboard-response","123","369749","0.0-8.0-1.0-4.0-0.0-1.7","7","6","7","6","6","4","4","5","5","5","5","2","2","1","2","1","2","2","2","5","4","5","5","3","4","4","4","5","4","5","5","7","7","6","5","5","5","6","6","6","1","7","6","6","5","1","6","7","1","5","6","6","7","6","4","7","7","7","6","6","7","7","6","7","7","6","7","7","7","7","6","7","7","7","7","7","7","6","6","598856622046969856","王","14","Male","[""好他"",""坏我"",""好我"",""坏他""]","[""强他"",""弱我"",""强我"",""弱他""]","","","","","","","","","","","","","","","","","","","","","","","","","","","","","","feedback_test","","","","","","","","",""
"908","","f","psychophysics","124","371663","0.0-8.0-1.0-4.0-0.0-0.8","7","6","7","6","6","4","4","5","5","5","5","2","2","1","2","1","2","2","2","5","4","5","5","3","4","4","4","5","4","5","5","7","7","6","5","5","5","6","6","6","1","7","6","6","5","1","6","7","1","5","6","6","7","6","4","7","7","7","6","6","7","7","6","7","7","6","7","7","7","7","6","7","7","7","7","7","7","6","6","598856622046969856","王","14","Male","[""好他"",""坏我"",""好我"",""坏他""]","[""强他"",""弱我"",""强我"",""弱他""]","","","","","","","","match","","","","","","","","","","key","f","16.664912280701653","768","428","f","true","match","img/hexagon.png","强我","强我","ALT2","ability","","","","","","","","",""
"null","<span style='color:GreenYellow; font-size: 70px;'>正确! </span>","null","html-keyboard-response","125","372164","0.0-8.0-1.0-4.0-0.0-1.8","7","6","7","6","6","4","4","5","5","5","5","2","2","1","2","1","2","2","2","5","4","5","5","3","4","4","4","5","4","5","5","7","7","6","5","5","5","6","6","6","1","7","6","6","5","1","6","7","1","5","6","6","7","6","4","7","7","7","6","6","7","7","6","7","7","6","7","7","7","7","6","7","7","7","7","7","7","6","6","598856622046969856","王","14","Male","[""好他"",""坏我"",""好我"",""坏他""]","[""强他"",""弱我"",""强我"",""弱他""]","","","","","","","","","","","","","","","","","","","","","","","","","","","","","","feedback_test","","","","","","","","",""
"770","","f","psychophysics","126","373935","0.0-8.0-1.0-4.0-0.0-0.9","7","6","7","6","6","4","4","5","5","5","5","2","2","1","2","1","2","2","2","5","4","5","5","3","4","4","4","5","4","5","5","7","7","6","5","5","5","6","6","6","1","7","6","6","5","1","6","7","1","5","6","6","7","6","4","7","7","7","6","6","7","7","6","7","7","6","7","7","7","7","6","7","7","7","7","7","7","6","6","598856622046969856","王","14","Male","[""好他"",""坏我"",""好我"",""坏他""]","[""强他"",""弱我"",""强我"",""弱他""]","","","","","","","","match","","","","","","","","","","key","f","16.665714285714508","768","428","f","true","match","img/ellipse.png","弱他","弱他","ALT2","ability","","","","","","","","",""
"null","<span style='color:GreenYellow; font-size: 70px;'>正确! </span>","null","html-keyboard-response","127","374436","0.0-8.0-1.0-4.0-0.0-1.9","7","6","7","6","6","4","4","5","5","5","5","2","2","1","2","1","2","2","2","5","4","5","5","3","4","4","4","5","4","5","5","7","7","6","5","5","5","6","6","6","1","7","6","6","5","1","6","7","1","5","6","6","7","6","4","7","7","7","6","6","7","7","6","7","7","6","7","7","7","7","6","7","7","7","7","7","7","6","6","598856622046969856","王","14","Male","[""好他"",""坏我"",""好我"",""坏他""]","[""强他"",""弱我"",""强我"",""弱他""]","","","","","","","","","","","","","","","","","","","","","","","","","","","","","","feedback_test","","","","","","","","",""
"727","","f","psychophysics","128","376166","0.0-8.0-1.0-4.0-0.0-0.10","7","6","7","6","6","4","4","5","5","5","5","2","2","1","2","1","2","2","2","5","4","5","5","3","4","4","4","5","4","5","5","7","7","6","5","5","5","6","6","6","1","7","6","6","5","1","6","7","1","5","6","6","7","6","4","7","7","7","6","6","7","7","6","7","7","6","7","7","7","7","6","7","7","7","7","7","7","6","6","598856622046969856","王","14","Male","[""好他"",""坏我"",""好我"",""坏他""]","[""强他"",""弱我"",""强我"",""弱他""]","","","","","","","","match","","","","","","","","","","key","f","16.66504854368932","768","428","f","true","match","img/square.png","弱我","弱我","ALT2","ability","","","","","","","","",""
"null","<span style='color:GreenYellow; font-size: 70px;'>正确! </span>","null","html-keyboard-response","129","376667","0.0-8.0-1.0-4.0-0.0-1.10","7","6","7","6","6","4","4","5","5","5","5","2","2","1","2","1","2","2","2","5","4","5","5","3","4","4","4","5","4","5","5","7","7","6","5","5","5","6","6","6","1","7","6","6","5","1","6","7","1","5","6","6","7","6","4","7","7","7","6","6","7","7","6","7","7","6","7","7","7","7","6","7","7","7","7","7","7","6","6","598856622046969856","王","14","Male","[""好他"",""坏我"",""好我"",""坏他""]","[""强他"",""弱我"",""强我"",""弱他""]","","","","","","","","","","","","","","","","","","","","","","","","","","","","","","feedback_test","","","","","","","","",""
"899","","j","psychophysics","130","378568","0.0-8.0-1.0-4.0-0.0-0.11","7","6","7","6","6","4","4","5","5","5","5","2","2","1","2","1","2","2","2","5","4","5","5","3","4","4","4","5","4","5","5","7","7","6","5","5","5","6","6","6","1","7","6","6","5","1","6","7","1","5","6","6","7","6","4","7","7","7","6","6","7","7","6","7","7","6","7","7","7","7","6","7","7","7","7","7","7","6","6","598856622046969856","王","14","Male","[""好他"",""坏我"",""好我"",""坏他""]","[""强他"",""弱我"",""强我"",""弱他""]","","","","","","","","nonmatch","","","","","","","","","","key","j","16.66548672566382","768","428","f","false","match","img/hexagon.png","强我","强我","ALT2","ability","","","","","","","","",""
"null","<span style='color:red; font-size: 70px;'>错误! </span>","null","html-keyboard-response","131","379069","0.0-8.0-1.0-4.0-0.0-1.11","7","6","7","6","6","4","4","5","5","5","5","2","2","1","2","1","2","2","2","5","4","5","5","3","4","4","4","5","4","5","5","7","7","6","5","5","5","6","6","6","1","7","6","6","5","1","6","7","1","5","6","6","7","6","4","7","7","7","6","6","7","7","6","7","7","6","7","7","7","7","6","7","7","7","7","7","7","6","6","598856622046969856","王","14","Male","[""好他"",""坏我"",""好我"",""坏他""]","[""强他"",""弱我"",""强我"",""弱他""]","","","","","","","","","","","","","","","","","","","","","","","","","","","","","","feedback_test","","","","","","","","",""
"663","","j","psychophysics","132","380734","0.0-8.0-1.0-4.0-0.0-0.12","7","6","7","6","6","4","4","5","5","5","5","2","2","1","2","1","2","2","2","5","4","5","5","3","4","4","4","5","4","5","5","7","7","6","5","5","5","6","6","6","1","7","6","6","5","1","6","7","1","5","6","6","7","6","4","7","7","7","6","6","7","7","6","7","7","6","7","7","7","7","6","7","7","7","7","7","7","6","6","598856622046969856","王","14","Male","[""好他"",""坏我"",""好我"",""坏他""]","[""强他"",""弱我"",""强我"",""弱他""]","","","","","","","","nonmatch","","","","","","","","","","key","j","16.666666666666668","768","428","j","true","nonmatch","img/triangle.png","强我","强他","ALT2","ability","","","","","","","","",""
"null","<span style='color:GreenYellow; font-size: 70px;'>正确! </span>","null","html-keyboard-response","133","381235","0.0-8.0-1.0-4.0-0.0-1.12","7","6","7","6","6","4","4","5","5","5","5","2","2","1","2","1","2","2","2","5","4","5","5","3","4","4","4","5","4","5","5","7","7","6","5","5","5","6","6","6","1","7","6","6","5","1","6","7","1","5","6","6","7","6","4","7","7","7","6","6","7","7","6","7","7","6","7","7","7","7","6","7","7","7","7","7","7","6","6","598856622046969856","王","14","Male","[""好他"",""坏我"",""好我"",""坏他""]","[""强他"",""弱我"",""强我"",""弱他""]","","","","","","","","","","","","","","","","","","","","","","","","","","","","","","feedback_test","","","","","","","","",""
"881","","j","psychophysics","134","383118","0.0-8.0-1.0-4.0-0.0-0.13","7","6","7","6","6","4","4","5","5","5","5","2","2","1","2","1","2","2","2","5","4","5","5","3","4","4","4","5","4","5","5","7","7","6","5","5","5","6","6","6","1","7","6","6","5","1","6","7","1","5","6","6","7","6","4","7","7","7","6","6","7","7","6","7","7","6","7","7","7","7","6","7","7","7","7","7","7","6","6","598856622046969856","王","14","Male","[""好他"",""坏我"",""好我"",""坏他""]","[""强他"",""弱我"",""强我"",""弱他""]","","","","","","","","nonmatch","","","","","","","","","","key","j","16.665178571428573","768","428","j","true","nonmatch","img/hexagon.png","弱他","强我","ALT2","ability","","","","","","","","",""
"null","<span style='color:GreenYellow; font-size: 70px;'>正确! </span>","null","html-keyboard-response","135","383619","0.0-8.0-1.0-4.0-0.0-1.13","7","6","7","6","6","4","4","5","5","5","5","2","2","1","2","1","2","2","2","5","4","5","5","3","4","4","4","5","4","5","5","7","7","6","5","5","5","6","6","6","1","7","6","6","5","1","6","7","1","5","6","6","7","6","4","7","7","7","6","6","7","7","6","7","7","6","7","7","7","7","6","7","7","7","7","7","7","6","6","598856622046969856","王","14","Male","[""好他"",""坏我"",""好我"",""坏他""]","[""强他"",""弱我"",""强我"",""弱他""]","","","","","","","","","","","","","","","","","","","","","","","","","","","","","","feedback_test","","","","","","","","",""
"770","","j","psychophysics","136","385390","0.0-8.0-1.0-4.0-0.0-0.14","7","6","7","6","6","4","4","5","5","5","5","2","2","1","2","1","2","2","2","5","4","5","5","3","4","4","4","5","4","5","5","7","7","6","5","5","5","6","6","6","1","7","6","6","5","1","6","7","1","5","6","6","7","6","4","7","7","7","6","6","7","7","6","7","7","6","7","7","7","7","6","7","7","7","7","7","7","6","6","598856622046969856","王","14","Male","[""好他"",""坏我"",""好我"",""坏他""]","[""强他"",""弱我"",""强我"",""弱他""]","","","","","","","","nonmatch","","","","","","","","","","key","j","16.665714285713953","768","428","f","false","match","img/triangle.png","强他","强他","ALT2","ability","","","","","","","","",""
"null","<span style='color:red; font-size: 70px;'>错误! </span>","null","html-keyboard-response","137","385892","0.0-8.0-1.0-4.0-0.0-1.14","7","6","7","6","6","4","4","5","5","5","5","2","2","1","2","1","2","2","2","5","4","5","5","3","4","4","4","5","4","5","5","7","7","6","5","5","5","6","6","6","1","7","6","6","5","1","6","7","1","5","6","6","7","6","4","7","7","7","6","6","7","7","6","7","7","6","7","7","7","7","6","7","7","7","7","7","7","6","6","598856622046969856","王","14","Male","[""好他"",""坏我"",""好我"",""坏他""]","[""强他"",""弱我"",""强我"",""弱他""]","","","","","","","","","","","","","","","","","","","","","","","","","","","","","","feedback_test","","","","","","","","",""
"785","","j","psychophysics","138","387678","0.0-8.0-1.0-4.0-0.0-0.15","7","6","7","6","6","4","4","5","5","5","5","2","2","1","2","1","2","2","2","5","4","5","5","3","4","4","4","5","4","5","5","7","7","6","5","5","5","6","6","6","1","7","6","6","5","1","6","7","1","5","6","6","7","6","4","7","7","7","6","6","7","7","6","7","7","6","7","7","7","7","6","7","7","7","7","7","7","6","6","598856622046969856","王","14","Male","[""好他"",""坏我"",""好我"",""坏他""]","[""强他"",""弱我"",""强我"",""弱他""]","","","","","","","","nonmatch","","","","","","","","","","key","j","16.664485981308736","768","428","j","true","nonmatch","img/hexagon.png","弱我","强我","ALT2","ability","","","","","","","","",""
