"rt","stimulus","response","trial_type","trial_index","time_elapsed","internal_node_id","ses_1","ses_2","ses_3","ses_4","ses_5","ses_6","ses_7","ses_8","ses_9","ses_10","coreself_1","coreself_2","coreself_3","coreself_4","coreself_5","coreself_6","coreself_7","coreself_8","coreself_9","coreself_10","SGPS_1","SGPS_2","SGPS_3","SGPS_4","SGPS_5","SGPS_6","SGPS_7","SGPS_8","SGPS_9","NPI1","NPI2","NPI3","NPI4","NPI5","NPI6","NPI7","NPI8","NPI9","NPI10","NPI11","NPI12","NPI13","NPI14","NPI15","hsns_1","hsns_2","hsns_3","hsns_4","hsns_5","hsns_6","hsns_7","hsns_8","hsns_9","hsns_10","subj_idx","friend_name","value","success","user_agent","responses","item_order","radio_event_ids","radio_event_times","key_event_times","mouse_event_times","straightlining","zigzagging","honeypot","timeout","failed_images","failed_audio","failed_video","view_history","response_type","key_press","avg_frame_time","center_x","center_y","correct_response","correct","identity","Image","word","condition","task_id","screen_id","time_stamp","version_attrib","version_target","IAT","RT","varname","summary","version_attrib2","version_target2","question_order"
"27291","
   <p><div style = ""color: white;font-size:25px;"">您好，欢迎参加本次实验。</div> </p>
   <p><div style = ""color: white;font-size:25px;"">为充分保障您的权利，请确保您已经知晓并同意《参与实验同意书》以及《数据公开知情同意书》。</div></p>
   <p><div style = ""color: white;font-size:25px;"">如果您未见过上述内容，请咨询实验员。</div></p>
   <p><div style = ""color: white;font-size:25px;"">如果您选择继续实验，则表示您已经清楚两份知情同意书的内容并同意。</div></p>
   <p> <div style = ""color: green;font-size:25px;""><按空格键至下页></div> </p>
   "," ","html-keyboard-response","0","27293","0.0-0.0","3","3","3","3","3","3","3","3","3","3","3","4","4","3","4","4","3","3","4","4","2","2","3","2","2","2","2","3","4","1","0","1","1","0","0","1","1","0","1","-1","0","1","0","1","4","3","2","4","3","2","4","3","2","3","1","林","","","","","","","","","","","","","","","","","","","","","","","","","","","","","","","","","","","","","","","",""
"","","","call-function","1","27294","0.0-1.0-0.0","3","3","3","3","3","3","3","3","3","3","3","4","4","3","4","4","3","3","4","4","2","2","3","2","2","2","2","3","4","1","0","1","1","0","0","1","1","0","1","-1","0","1","0","1","4","3","2","4","3","2","4","3","2","3","1","林","","","","","","","","","","","","","","","","","","","","","","","","","","","","","","","","","","","","","","","",""
"26094","","{""friend_name"":""林"",""subj_idx"":""1""}","survey-html-form","2","53388","0.0-1.0-1.0","3","3","3","3","3","3","3","3","3","3","3","4","4","3","4","4","3","3","4","4","2","2","3","2","2","2","2","3","4","1","0","1","1","0","0","1","1","0","1","-1","0","1","0","1","4","3","2","4","3","2","4","3","2","3","1","林","","","","","","","","","","","","","","","","","","","","","","","","","","","","","","","","","","","","","","","",""
"","","","fullscreen","3","59363","0.0-2.0","3","3","3","3","3","3","3","3","3","3","3","4","4","3","4","4","3","3","4","4","2","2","3","2","2","2","2","3","4","1","0","1","1","0","0","1","1","0","1","-1","0","1","0","1","4","3","2","4","3","2","4","3","2","3","1","林","","true","{}","","","","","","","","","","","","","","","","","","","","","","","","","","","","","","","","","","","","",""
"53576.799999952316","","{""Q01"":""3"",""Q02"":""3"",""Q03"":""3"",""Q04"":""3"",""Q05"":""3"",""Q06"":""3"",""Q07"":""3"",""Q08"":""3"",""Q09"":""3"",""Q10"":""3""}","survey-template","4","112942","0.0-3.0","3","3","3","3","3","3","3","3","3","3","3","4","4","3","4","4","3","3","4","4","2","2","3","2","2","2","2","3","4","1","0","1","1","0","0","1","1","0","1","-1","0","1","0","1","4","3","2","4","3","2","4","3","2","3","1","林","","","","{""Q01"":""3"",""Q02"":""3"",""Q03"":""3"",""Q04"":""3"",""Q05"":""3"",""Q06"":""3"",""Q07"":""3"",""Q08"":""3"",""Q09"":""3"",""Q10"":""3""}","[0,1,2,3,4,5,6,7,8,9]","[""Q01"",""Q02"",""Q03"",""Q04"",""Q05"",""Q06"",""Q07"",""Q08"",""Q09"",""Q10""]","[21391.899999976158,23683.699999928474,28895.5,32001.199999928474,37628.39999997616,40264.699999928474,41726,44820.199999928474,49426.39999997616,51814.60000002384]","[]","[21391.899999976158,23683.699999928474,28895.5,32001.199999928474,37628.39999997616,40264.699999928474,41726,44820.199999928474,49426.39999997616,51814.60000002384,53576.10000002384]","0.5","0.5555555555555556","0","","","","","","","","","","","","","","","","","","","","","","","","","","","",""
"55384.10000002384","","{""Q01"":""3"",""Q02"":""4"",""Q03"":""4"",""Q04"":""3"",""Q05"":""4"",""Q06"":""4"",""Q07"":""3"",""Q08"":""3"",""Q09"":""4"",""Q10"":""4""}","survey-template","5","168330","0.0-4.0","3","3","3","3","3","3","3","3","3","3","3","4","4","3","4","4","3","3","4","4","2","2","3","2","2","2","2","3","4","1","0","1","1","0","0","1","1","0","1","-1","0","1","0","1","4","3","2","4","3","2","4","3","2","3","1","林","","","","{""Q01"":""3"",""Q02"":""4"",""Q03"":""4"",""Q04"":""3"",""Q05"":""4"",""Q06"":""4"",""Q07"":""3"",""Q08"":""3"",""Q09"":""4"",""Q10"":""4""}","[0,1,2,3,4,5,6,7,8,9]","[""Q01"",""Q02"",""Q03"",""Q04"",""Q05"",""Q06"",""Q07"",""Q08"",""Q09"",""Q10""]","[10925.900000095367,14963.300000071526,20380.900000095367,23839.600000023842,31650,34531.5,37979.700000047684,42977.300000071526,50917.10000002384,54104.10000002384]","[]","[10925.900000095367,14963.300000071526,20380.900000095367,23839.600000023842,31650,34531.5,37979.700000047684,42977.300000071526,50917.10000002384,54104.10000002384,55383.40000009537]","0.4","0.5555555555555556","0","","","","","","","","","","","","","","","","","","","","","","","","","","","",""
"","","","preload","6","168639","0.0-5.0","3","3","3","3","3","3","3","3","3","3","3","4","4","3","4","4","3","3","4","4","2","2","3","2","2","2","2","3","4","1","0","1","1","0","0","1","1","0","1","-1","0","1","0","1","4","3","2","4","3","2","4","3","2","3","1","林","","true","","","","","","","","","","","false","[]","[]","[]","","","","","","","","","","","","","","","","","","","","","","","",""
"33156","","","instructions","7","201796","0.0-6.0","3","3","3","3","3","3","3","3","3","3","3","4","4","3","4","4","3","3","4","4","2","2","3","2","2","2","2","3","4","1","0","1","1","0","0","1","1","0","1","-1","0","1","0","1","4","3","2","4","3","2","4","3","2","3","1","林","","","","","","","","","","","","","","","","","[{""page_index"":0,""viewing_time"":33156}]","","","","","","","","","","","","","","","","","","","","","","",""
"87273","","","instructions","8","289070","0.0-7.0-0.0-0.0","3","3","3","3","3","3","3","3","3","3","3","4","4","3","4","4","3","3","4","4","2","2","3","2","2","2","2","3","4","1","0","1","1","0","0","1","1","0","1","-1","0","1","0","1","4","3","2","4","3","2","4","3","2","3","1","林","","","","","","","","","","","","","","","","","[{""page_index"":0,""viewing_time"":30396},{""page_index"":1,""viewing_time"":41401},{""page_index"":2,""viewing_time"":15475}]","","","","","","","","","","","","","","","","","","","","","","",""
"972","","f","psychophysics","9","291045","0.0-7.0-0.0-1.0-0.0-0.0","3","3","3","3","3","3","3","3","3","3","3","4","4","3","4","4","3","3","4","4","2","2","3","2","2","2","2","3","4","1","0","1","1","0","0","1","1","0","1","-1","0","1","0","1","4","3","2","4","3","2","4","3","2","3","1","林","","","","nonmatch","","","","","","","","","","","","","","key","f","16.65265254237269","640","356","f","true","nonmatch","img/triangle.png","椭圆","三角","ALT1_1","prac_ALT1_1","","","","","","","","","",""
"null","<span style='color:GreenYellow; font-size: 70px;'>正确! </span>","null","html-keyboard-response","10","291546","0.0-7.0-0.0-1.0-0.0-1.0","3","3","3","3","3","3","3","3","3","3","3","4","4","3","4","4","3","3","4","4","2","2","3","2","2","2","2","3","4","1","0","1","1","0","0","1","1","0","1","-1","0","1","0","1","4","3","2","4","3","2","4","3","2","3","1","林","","","","","","","","","","","","","","","","","","","","","","","","","","","","","","feedback_test","","","","","","","","","",""
"773","","j","psychophysics","11","293321","0.0-7.0-0.0-1.0-0.0-0.1","3","3","3","3","3","3","3","3","3","3","3","4","4","3","4","4","3","3","4","4","2","2","3","2","2","2","2","3","4","1","0","1","1","0","0","1","1","0","1","-1","0","1","0","1","4","3","2","4","3","2","4","3","2","3","1","林","","","","match","","","","","","","","","","","","","","key","j","16.65259047619045","640","356","j","true","match","img/pentagon.png","五边","五边","ALT1_1","prac_ALT1_1","","","","","","","","","",""
"null","<span style='color:GreenYellow; font-size: 70px;'>正确! </span>","null","html-keyboard-response","12","293822","0.0-7.0-0.0-1.0-0.0-1.1","3","3","3","3","3","3","3","3","3","3","3","4","4","3","4","4","3","3","4","4","2","2","3","2","2","2","2","3","4","1","0","1","1","0","0","1","1","0","1","-1","0","1","0","1","4","3","2","4","3","2","4","3","2","3","1","林","","","","","","","","","","","","","","","","","","","","","","","","","","","","","","feedback_test","","","","","","","","","",""
"713","","j","psychophysics","13","295536","0.0-7.0-0.0-1.0-0.0-0.2","3","3","3","3","3","3","3","3","3","3","3","4","4","3","4","4","3","3","4","4","2","2","3","2","2","2","2","3","4","1","0","1","1","0","0","1","1","0","1","-1","0","1","0","1","4","3","2","4","3","2","4","3","2","3","1","林","","","","match","","","","","","","","","","","","","","key","j","16.65301960784321","640","356","f","false","nonmatch","img/ellipse.png","方形","椭圆","ALT1_1","prac_ALT1_1","","","","","","","","","",""
"null","<span style='color:red; font-size: 70px;'>错误! </span>","null","html-keyboard-response","14","296037","0.0-7.0-0.0-1.0-0.0-1.2","3","3","3","3","3","3","3","3","3","3","3","4","4","3","4","4","3","3","4","4","2","2","3","2","2","2","2","3","4","1","0","1","1","0","0","1","1","0","1","-1","0","1","0","1","4","3","2","4","3","2","4","3","2","3","1","林","","","","","","","","","","","","","","","","","","","","","","","","","","","","","","feedback_test","","","","","","","","","",""
"1104","","f","psychophysics","15","298144","0.0-7.0-0.0-1.0-0.0-0.3","3","3","3","3","3","3","3","3","3","3","3","4","4","3","4","4","3","3","4","4","2","2","3","2","2","2","2","3","4","1","0","1","1","0","0","1","1","0","1","-1","0","1","0","1","4","3","2","4","3","2","4","3","2","3","1","林","","","","nonmatch","","","","","","","","","","","","","","key","f","16.643328000000214","640","356","j","false","match","img/ellipse.png","椭圆","椭圆","ALT1_1","prac_ALT1_1","","","","","","","","","",""
"null","<span style='color:red; font-size: 70px;'>错误! </span>","null","html-keyboard-response","16","298645","0.0-7.0-0.0-1.0-0.0-1.3","3","3","3","3","3","3","3","3","3","3","3","4","4","3","4","4","3","3","4","4","2","2","3","2","2","2","2","3","4","1","0","1","1","0","0","1","1","0","1","-1","0","1","0","1","4","3","2","4","3","2","4","3","2","3","1","林","","","","","","","","","","","","","","","","","","","","","","","","","","","","","","feedback_test","","","","","","","","","",""
"900","","j","psychophysics","17","300547","0.0-7.0-0.0-1.0-0.0-0.4","3","3","3","3","3","3","3","3","3","3","3","4","4","3","4","4","3","3","4","4","2","2","3","2","2","2","2","3","4","1","0","1","1","0","0","1","1","0","1","-1","0","1","0","1","4","3","2","4","3","2","4","3","2","3","1","林","","","","match","","","","","","","","","","","","","","key","j","16.65276106194731","640","356","f","false","nonmatch","img/triangle.png","方形","三角","ALT1_1","prac_ALT1_1","","","","","","","","","",""
"null","<span style='color:red; font-size: 70px;'>错误! </span>","null","html-keyboard-response","18","301047","0.0-7.0-0.0-1.0-0.0-1.4","3","3","3","3","3","3","3","3","3","3","3","4","4","3","4","4","3","3","4","4","2","2","3","2","2","2","2","3","4","1","0","1","1","0","0","1","1","0","1","-1","0","1","0","1","4","3","2","4","3","2","4","3","2","3","1","林","","","","","","","","","","","","","","","","","","","","","","","","","","","","","","feedback_test","","","","","","","","","",""
"null","","null","psychophysics","19","303249","0.0-7.0-0.0-1.0-0.0-0.5","3","3","3","3","3","3","3","3","3","3","3","4","4","3","4","4","3","3","4","4","2","2","3","2","2","2","2","3","4","1","0","1","1","0","0","1","1","0","1","-1","0","1","0","1","4","3","2","4","3","2","4","3","2","3","1","林","","","","null","","","","","","","","","","","","","","key","null","16.652809160305203","640","356","f","false","nonmatch","img/square.png","椭圆","方形","ALT1_1","prac_ALT1_1","","","","","","","","","",""
"null","<span class='add_' style='color:yellow; font-size: 70px;'> 太慢! </span>","null","html-keyboard-response","20","303751","0.0-7.0-0.0-1.0-0.0-1.5","3","3","3","3","3","3","3","3","3","3","3","4","4","3","4","4","3","3","4","4","2","2","3","2","2","2","2","3","4","1","0","1","1","0","0","1","1","0","1","-1","0","1","0","1","4","3","2","4","3","2","4","3","2","3","1","林","","","","","","","","","","","","","","","","","","","","","","","","","","","","","","feedback_test","","","","","","","","","",""
"859","","f","psychophysics","21","305611","0.0-7.0-0.0-1.0-0.0-0.6","3","3","3","3","3","3","3","3","3","3","3","4","4","3","4","4","3","3","4","4","2","2","3","2","2","2","2","3","4","1","0","1","1","0","0","1","1","0","1","-1","0","1","0","1","4","3","2","4","3","2","4","3","2","3","1","林","","","","nonmatch","","","","","","","","","","","","","","key","f","16.65269090909119","640","356","f","true","nonmatch","img/pentagon.png","椭圆","五边","ALT1_1","prac_ALT1_1","","","","","","","","","",""
"null","<span style='color:GreenYellow; font-size: 70px;'>正确! </span>","null","html-keyboard-response","22","306113","0.0-7.0-0.0-1.0-0.0-1.6","3","3","3","3","3","3","3","3","3","3","3","4","4","3","4","4","3","3","4","4","2","2","3","2","2","2","2","3","4","1","0","1","1","0","0","1","1","0","1","-1","0","1","0","1","4","3","2","4","3","2","4","3","2","3","1","林","","","","","","","","","","","","","","","","","","","","","","","","","","","","","","feedback_test","","","","","","","","","",""
"798","","f","psychophysics","23","307912","0.0-7.0-0.0-1.0-0.0-0.7","3","3","3","3","3","3","3","3","3","3","3","4","4","3","4","4","3","3","4","4","2","2","3","2","2","2","2","3","4","1","0","1","1","0","0","1","1","0","1","-1","0","1","0","1","4","3","2","4","3","2","4","3","2","3","1","林","","","","nonmatch","","","","","","","","","","","","","","key","f","16.652603773584694","640","356","f","true","nonmatch","img/square.png","五边","方形","ALT1_1","prac_ALT1_1","","","","","","","","","",""
"null","<span style='color:GreenYellow; font-size: 70px;'>正确! </span>","null","html-keyboard-response","24","308413","0.0-7.0-0.0-1.0-0.0-1.7","3","3","3","3","3","3","3","3","3","3","3","4","4","3","4","4","3","3","4","4","2","2","3","2","2","2","2","3","4","1","0","1","1","0","0","1","1","0","1","-1","0","1","0","1","4","3","2","4","3","2","4","3","2","3","1","林","","","","","","","","","","","","","","","","","","","","","","","","","","","","","","feedback_test","","","","","","","","","",""
"666","","f","psychophysics","25","310080","0.0-7.0-0.0-1.0-0.0-0.8","3","3","3","3","3","3","3","3","3","3","3","4","4","3","4","4","3","3","4","4","2","2","3","2","2","2","2","3","4","1","0","1","1","0","0","1","1","0","1","-1","0","1","0","1","4","3","2","4","3","2","4","3","2","3","1","林","","","","nonmatch","","","","","","","","","","","","","","key","f","16.65270707070724","640","356","j","false","match","img/pentagon.png","五边","五边","ALT1_1","prac_ALT1_1","","","","","","","","","",""
"null","<span style='color:red; font-size: 70px;'>错误! </span>","null","html-keyboard-response","26","310583","0.0-7.0-0.0-1.0-0.0-1.8","3","3","3","3","3","3","3","3","3","3","3","4","4","3","4","4","3","3","4","4","2","2","3","2","2","2","2","3","4","1","0","1","1","0","0","1","1","0","1","-1","0","1","0","1","4","3","2","4","3","2","4","3","2","3","1","林","","","","","","","","","","","","","","","","","","","","","","","","","","","","","","feedback_test","","","","","","","","","",""
"null","","null","psychophysics","27","312785","0.0-7.0-0.0-1.0-0.0-0.9","3","3","3","3","3","3","3","3","3","3","3","4","4","3","4","4","3","3","4","4","2","2","3","2","2","2","2","3","4","1","0","1","1","0","0","1","1","0","1","-1","0","1","0","1","4","3","2","4","3","2","4","3","2","3","1","林","","","","null","","","","","","","","","","","","","","key","null","16.653000000000038","640","356","f","false","nonmatch","img/pentagon.png","三角","五边","ALT1_1","prac_ALT1_1","","","","","","","","","",""
"null","<span class='add_' style='color:yellow; font-size: 70px;'> 太慢! </span>","null","html-keyboard-response","28","313286","0.0-7.0-0.0-1.0-0.0-1.9","3","3","3","3","3","3","3","3","3","3","3","4","4","3","4","4","3","3","4","4","2","2","3","2","2","2","2","3","4","1","0","1","1","0","0","1","1","0","1","-1","0","1","0","1","4","3","2","4","3","2","4","3","2","3","1","林","","","","","","","","","","","","","","","","","","","","","","","","","","","","","","feedback_test","","","","","","","","","",""
"575","","j","psychophysics","29","314863","0.0-7.0-0.0-1.0-0.0-0.10","3","3","3","3","3","3","3","3","3","3","3","4","4","3","4","4","3","3","4","4","2","2","3","2","2","2","2","3","4","1","0","1","1","0","0","1","1","0","1","-1","0","1","0","1","4","3","2","4","3","2","4","3","2","3","1","林","","","","match","","","","","","","","","","","","","","key","j","16.652659574467837","640","356","j","true","match","img/square.png","方形","方形","ALT1_1","prac_ALT1_1","","","","","","","","","",""
"null","<span style='color:GreenYellow; font-size: 70px;'>正确! </span>","null","html-keyboard-response","30","315364","0.0-7.0-0.0-1.0-0.0-1.10","3","3","3","3","3","3","3","3","3","3","3","4","4","3","4","4","3","3","4","4","2","2","3","2","2","2","2","3","4","1","0","1","1","0","0","1","1","0","1","-1","0","1","0","1","4","3","2","4","3","2","4","3","2","3","1","林","","","","","","","","","","","","","","","","","","","","","","","","","","","","","","feedback_test","","","","","","","","","",""
"709","","f","psychophysics","31","317075","0.0-7.0-0.0-1.0-0.0-0.11","3","3","3","3","3","3","3","3","3","3","3","4","4","3","4","4","3","3","4","4","2","2","3","2","2","2","2","3","4","1","0","1","1","0","0","1","1","0","1","-1","0","1","0","1","4","3","2","4","3","2","4","3","2","3","1","林","","","","nonmatch","","","","","","","","","","","","","","key","f","16.65284313725458","640","356","f","true","nonmatch","img/square.png","三角","方形","ALT1_1","prac_ALT1_1","","","","","","","","","",""
"null","<span style='color:GreenYellow; font-size: 70px;'>正确! </span>","null","html-keyboard-response","32","317576","0.0-7.0-0.0-1.0-0.0-1.11","3","3","3","3","3","3","3","3","3","3","3","4","4","3","4","4","3","3","4","4","2","2","3","2","2","2","2","3","4","1","0","1","1","0","0","1","1","0","1","-1","0","1","0","1","4","3","2","4","3","2","4","3","2","3","1","林","","","","","","","","","","","","","","","","","","","","","","","","","","","","","","feedback_test","","","","","","","","","",""
"850","","j","psychophysics","33","319428","0.0-7.0-0.0-1.0-0.0-0.12","3","3","3","3","3","3","3","3","3","3","3","4","4","3","4","4","3","3","4","4","2","2","3","2","2","2","2","3","4","1","0","1","1","0","0","1","1","0","1","-1","0","1","0","1","4","3","2","4","3","2","4","3","2","3","1","林","","","","match","","","","","","","","","","","","","","key","j","16.653263636363608","640","356","j","true","match","img/ellipse.png","椭圆","椭圆","ALT1_1","prac_ALT1_1","","","","","","","","","",""
"null","<span style='color:GreenYellow; font-size: 70px;'>正确! </span>","null","html-keyboard-response","34","319929","0.0-7.0-0.0-1.0-0.0-1.12","3","3","3","3","3","3","3","3","3","3","3","4","4","3","4","4","3","3","4","4","2","2","3","2","2","2","2","3","4","1","0","1","1","0","0","1","1","0","1","-1","0","1","0","1","4","3","2","4","3","2","4","3","2","3","1","林","","","","","","","","","","","","","","","","","","","","","","","","","","","","","","feedback_test","","","","","","","","","",""
"877","","f","psychophysics","35","321808","0.0-7.0-0.0-1.0-0.0-0.13","3","3","3","3","3","3","3","3","3","3","3","4","4","3","4","4","3","3","4","4","2","2","3","2","2","2","2","3","4","1","0","1","1","0","0","1","1","0","1","-1","0","1","0","1","4","3","2","4","3","2","4","3","2","3","1","林","","","","nonmatch","","","","","","","","","","","","","","key","f","16.652866071428434","640","356","f","true","nonmatch","img/ellipse.png","三角","椭圆","ALT1_1","prac_ALT1_1","","","","","","","","","",""
"null","<span style='color:GreenYellow; font-size: 70px;'>正确! </span>","null","html-keyboard-response","36","322309","0.0-7.0-0.0-1.0-0.0-1.13","3","3","3","3","3","3","3","3","3","3","3","4","4","3","4","4","3","3","4","4","2","2","3","2","2","2","2","3","4","1","0","1","1","0","0","1","1","0","1","-1","0","1","0","1","4","3","2","4","3","2","4","3","2","3","1","林","","","","","","","","","","","","","","","","","","","","","","","","","","","","","","feedback_test","","","","","","","","","",""
"622","","j","psychophysics","37","323932","0.0-7.0-0.0-1.0-0.0-0.14","3","3","3","3","3","3","3","3","3","3","3","4","4","3","4","4","3","3","4","4","2","2","3","2","2","2","2","3","4","1","0","1","1","0","0","1","1","0","1","-1","0","1","0","1","4","3","2","4","3","2","4","3","2","3","1","林","","","","match","","","","","","","","","","","","","","key","j","16.652948453608353","640","356","f","false","nonmatch","img/triangle.png","五边","三角","ALT1_1","prac_ALT1_1","","","","","","","","","",""
"null","<span style='color:red; font-size: 70px;'>错误! </span>","null","html-keyboard-response","38","324435","0.0-7.0-0.0-1.0-0.0-1.14","3","3","3","3","3","3","3","3","3","3","3","4","4","3","4","4","3","3","4","4","2","2","3","2","2","2","2","3","4","1","0","1","1","0","0","1","1","0","1","-1","0","1","0","1","4","3","2","4","3","2","4","3","2","3","1","林","","","","","","","","","","","","","","","","","","","","","","","","","","","","","","feedback_test","","","","","","","","","",""
"611","","j","psychophysics","39","326048","0.0-7.0-0.0-1.0-0.0-0.15","3","3","3","3","3","3","3","3","3","3","3","4","4","3","4","4","3","3","4","4","2","2","3","2","2","2","2","3","4","1","0","1","1","0","0","1","1","0","1","-1","0","1","0","1","4","3","2","4","3","2","4","3","2","3","1","林","","","","match","","","","","","","","","","","","","","key","j","16.653062499999578","640","356","j","true","match","img/triangle.png","三角","三角","ALT1_1","prac_ALT1_1","","","","","","","","","",""
"null","<span style='color:GreenYellow; font-size: 70px;'>正确! </span>","null","html-keyboard-response","40","326549","0.0-7.0-0.0-1.0-0.0-1.15","3","3","3","3","3","3","3","3","3","3","3","4","4","3","4","4","3","3","4","4","2","2","3","2","2","2","2","3","4","1","0","1","1","0","0","1","1","0","1","-1","0","1","0","1","4","3","2","4","3","2","4","3","2","3","1","林","","","","","","","","","","","","","","","","","","","","","","","","","","","","","","feedback_test","","","","","","","","","",""
"602","","f","psychophysics","41","328153","0.0-7.0-0.0-1.0-0.0-0.16","3","3","3","3","3","3","3","3","3","3","3","4","4","3","4","4","3","3","4","4","2","2","3","2","2","2","2","3","4","1","0","1","1","0","0","1","1","0","1","-1","0","1","0","1","4","3","2","4","3","2","4","3","2","3","1","林","","","","nonmatch","","","","","","","","","","","","","","key","f","16.653126315789077","640","356","f","true","nonmatch","img/ellipse.png","五边","椭圆","ALT1_1","prac_ALT1_1","","","","","","","","","",""
"null","<span style='color:GreenYellow; font-size: 70px;'>正确! </span>","null","html-keyboard-response","42","328654","0.0-7.0-0.0-1.0-0.0-1.16","3","3","3","3","3","3","3","3","3","3","3","4","4","3","4","4","3","3","4","4","2","2","3","2","2","2","2","3","4","1","0","1","1","0","0","1","1","0","1","-1","0","1","0","1","4","3","2","4","3","2","4","3","2","3","1","林","","","","","","","","","","","","","","","","","","","","","","","","","","","","","","feedback_test","","","","","","","","","",""
"662","","j","psychophysics","43","330319","0.0-7.0-0.0-1.0-0.0-0.17","3","3","3","3","3","3","3","3","3","3","3","4","4","3","4","4","3","3","4","4","2","2","3","2","2","2","2","3","4","1","0","1","1","0","0","1","1","0","1","-1","0","1","0","1","4","3","2","4","3","2","4","3","2","3","1","林","","","","match","","","","","","","","","","","","","","key","j","16.65312121212106","640","356","j","true","match","img/ellipse.png","椭圆","椭圆","ALT1_1","prac_ALT1_1","","","","","","","","","",""
"null","<span style='color:GreenYellow; font-size: 70px;'>正确! </span>","null","html-keyboard-response","44","330820","0.0-7.0-0.0-1.0-0.0-1.17","3","3","3","3","3","3","3","3","3","3","3","4","4","3","4","4","3","3","4","4","2","2","3","2","2","2","2","3","4","1","0","1","1","0","0","1","1","0","1","-1","0","1","0","1","4","3","2","4","3","2","4","3","2","3","1","林","","","","","","","","","","","","","","","","","","","","","","","","","","","","","","feedback_test","","","","","","","","","",""
"550","","f","psychophysics","45","332372","0.0-7.0-0.0-1.0-0.0-0.18","3","3","3","3","3","3","3","3","3","3","3","4","4","3","4","4","3","3","4","4","2","2","3","2","2","2","2","3","4","1","0","1","1","0","0","1","1","0","1","-1","0","1","0","1","4","3","2","4","3","2","4","3","2","3","1","林","","","","nonmatch","","","","","","","","","","","","","","key","f","16.652945652173873","640","356","j","false","match","img/pentagon.png","五边","五边","ALT1_1","prac_ALT1_1","","","","","","","","","",""
"null","<span style='color:red; font-size: 70px;'>错误! </span>","null","html-keyboard-response","46","332873","0.0-7.0-0.0-1.0-0.0-1.18","3","3","3","3","3","3","3","3","3","3","3","4","4","3","4","4","3","3","4","4","2","2","3","2","2","2","2","3","4","1","0","1","1","0","0","1","1","0","1","-1","0","1","0","1","4","3","2","4","3","2","4","3","2","3","1","林","","","","","","","","","","","","","","","","","","","","","","","","","","","","","","feedback_test","","","","","","","","","",""
"858","","j","psychophysics","47","334733","0.0-7.0-0.0-1.0-0.0-0.19","3","3","3","3","3","3","3","3","3","3","3","4","4","3","4","4","3","3","4","4","2","2","3","2","2","2","2","3","4","1","0","1","1","0","0","1","1","0","1","-1","0","1","0","1","4","3","2","4","3","2","4","3","2","3","1","林","","","","match","","","","","","","","","","","","","","key","j","16.644963636363602","640","356","j","true","match","img/square.png","方形","方形","ALT1_1","prac_ALT1_1","","","","","","","","","",""
"null","<span style='color:GreenYellow; font-size: 70px;'>正确! </span>","null","html-keyboard-response","48","335234","0.0-7.0-0.0-1.0-0.0-1.19","3","3","3","3","3","3","3","3","3","3","3","4","4","3","4","4","3","3","4","4","2","2","3","2","2","2","2","3","4","1","0","1","1","0","0","1","1","0","1","-1","0","1","0","1","4","3","2","4","3","2","4","3","2","3","1","林","","","","","","","","","","","","","","","","","","","","","","","","","","","","","","feedback_test","","","","","","","","","",""
"580","","j","psychophysics","49","336816","0.0-7.0-0.0-1.0-0.0-0.20","3","3","3","3","3","3","3","3","3","3","3","4","4","3","4","4","3","3","4","4","2","2","3","2","2","2","2","3","4","1","0","1","1","0","0","1","1","0","1","-1","0","1","0","1","4","3","2","4","3","2","4","3","2","3","1","林","","","","match","","","","","","","","","","","","","","key","j","16.652563829787393","640","356","j","true","match","img/triangle.png","三角","三角","ALT1_1","prac_ALT1_1","","","","","","","","","",""
"null","<span style='color:GreenYellow; font-size: 70px;'>正确! </span>","null","html-keyboard-response","50","337317","0.0-7.0-0.0-1.0-0.0-1.20","3","3","3","3","3","3","3","3","3","3","3","4","4","3","4","4","3","3","4","4","2","2","3","2","2","2","2","3","4","1","0","1","1","0","0","1","1","0","1","-1","0","1","0","1","4","3","2","4","3","2","4","3","2","3","1","林","","","","","","","","","","","","","","","","","","","","","","","","","","","","","","feedback_test","","","","","","","","","",""
"544","","j","psychophysics","51","338862","0.0-7.0-0.0-1.0-0.0-0.21","3","3","3","3","3","3","3","3","3","3","3","4","4","3","4","4","3","3","4","4","2","2","3","2","2","2","2","3","4","1","0","1","1","0","0","1","1","0","1","-1","0","1","0","1","4","3","2","4","3","2","4","3","2","3","1","林","","","","match","","","","","","","","","","","","","","key","j","16.652858695652434","640","356","j","true","match","img/square.png","方形","方形","ALT1_1","prac_ALT1_1","","","","","","","","","",""
"null","<span style='color:GreenYellow; font-size: 70px;'>正确! </span>","null","html-keyboard-response","52","339363","0.0-7.0-0.0-1.0-0.0-1.21","3","3","3","3","3","3","3","3","3","3","3","4","4","3","4","4","3","3","4","4","2","2","3","2","2","2","2","3","4","1","0","1","1","0","0","1","1","0","1","-1","0","1","0","1","4","3","2","4","3","2","4","3","2","3","1","林","","","","","","","","","","","","","","","","","","","","","","","","","","","","","","feedback_test","","","","","","","","","",""
"549","","j","psychophysics","53","340913","0.0-7.0-0.0-1.0-0.0-0.22","3","3","3","3","3","3","3","3","3","3","3","4","4","3","4","4","3","3","4","4","2","2","3","2","2","2","2","3","4","1","0","1","1","0","0","1","1","0","1","-1","0","1","0","1","4","3","2","4","3","2","4","3","2","3","1","林","","","","match","","","","","","","","","","","","","","key","j","16.652869565217532","640","356","j","true","match","img/triangle.png","三角","三角","ALT1_1","prac_ALT1_1","","","","","","","","","",""
"null","<span style='color:GreenYellow; font-size: 70px;'>正确! </span>","null","html-keyboard-response","54","341414","0.0-7.0-0.0-1.0-0.0-1.22","3","3","3","3","3","3","3","3","3","3","3","4","4","3","4","4","3","3","4","4","2","2","3","2","2","2","2","3","4","1","0","1","1","0","0","1","1","0","1","-1","0","1","0","1","4","3","2","4","3","2","4","3","2","3","1","林","","","","","","","","","","","","","","","","","","","","","","","","","","","","","","feedback_test","","","","","","","","","",""
"765","","f","psychophysics","55","343180","0.0-7.0-0.0-1.0-0.0-0.23","3","3","3","3","3","3","3","3","3","3","3","4","4","3","4","4","3","3","4","4","2","2","3","2","2","2","2","3","4","1","0","1","1","0","0","1","1","0","1","-1","0","1","0","1","4","3","2","4","3","2","4","3","2","3","1","林","","","","nonmatch","","","","","","","","","","","","","","key","f","16.652761904762258","640","356","f","true","nonmatch","img/pentagon.png","方形","五边","ALT1_1","prac_ALT1_1","","","","","","","","","",""
"null","<span style='color:GreenYellow; font-size: 70px;'>正确! </span>","null","html-keyboard-response","56","343682","0.0-7.0-0.0-1.0-0.0-1.23","3","3","3","3","3","3","3","3","3","3","3","4","4","3","4","4","3","3","4","4","2","2","3","2","2","2","2","3","4","1","0","1","1","0","0","1","1","0","1","-1","0","1","0","1","4","3","2","4","3","2","4","3","2","3","1","林","","","","","","","","","","","","","","","","","","","","","","","","","","","","","","feedback_test","","","","","","","","","",""
"902","","f","psychophysics","57","345585","0.0-7.0-0.0-1.0-0.0-0.24","3","3","3","3","3","3","3","3","3","3","3","4","4","3","4","4","3","3","4","4","2","2","3","2","2","2","2","3","4","1","0","1","1","0","0","1","1","0","1","-1","0","1","0","1","4","3","2","4","3","2","4","3","2","3","1","林","","","","nonmatch","","","","","","","","","","","","","","key","f","16.652858407079528","640","356","f","true","nonmatch","img/triangle.png","椭圆","三角","ALT1_1","prac_ALT1_1","","","","","","","","","",""
"null","<span style='color:GreenYellow; font-size: 70px;'>正确! </span>","null","html-keyboard-response","58","346086","0.0-7.0-0.0-1.0-0.0-1.24","3","3","3","3","3","3","3","3","3","3","3","4","4","3","4","4","3","3","4","4","2","2","3","2","2","2","2","3","4","1","0","1","1","0","0","1","1","0","1","-1","0","1","0","1","4","3","2","4","3","2","4","3","2","3","1","林","","","","","","","","","","","","","","","","","","","","","","","","","","","","","","feedback_test","","","","","","","","","",""
"592","","j","psychophysics","59","347680","0.0-7.0-0.0-1.0-0.0-0.25","3","3","3","3","3","3","3","3","3","3","3","4","4","3","4","4","3","3","4","4","2","2","3","2","2","2","2","3","4","1","0","1","1","0","0","1","1","0","1","-1","0","1","0","1","4","3","2","4","3","2","4","3","2","3","1","林","","","","match","","","","","","","","","","","","","","key","j","16.653231578947068","640","356","f","false","nonmatch","img/pentagon.png","椭圆","五边","ALT1_1","prac_ALT1_1","","","","","","","","","",""
"null","<span style='color:red; font-size: 70px;'>错误! </span>","null","html-keyboard-response","60","348181","0.0-7.0-0.0-1.0-0.0-1.25","3","3","3","3","3","3","3","3","3","3","3","4","4","3","4","4","3","3","4","4","2","2","3","2","2","2","2","3","4","1","0","1","1","0","0","1","1","0","1","-1","0","1","0","1","4","3","2","4","3","2","4","3","2","3","1","林","","","","","","","","","","","","","","","","","","","","","","","","","","","","","","feedback_test","","","","","","","","","",""
"1001","","j","psychophysics","61","350184","0.0-7.0-0.0-1.0-0.0-0.26","3","3","3","3","3","3","3","3","3","3","3","4","4","3","4","4","3","3","4","4","2","2","3","2","2","2","2","3","4","1","0","1","1","0","0","1","1","0","1","-1","0","1","0","1","4","3","2","4","3","2","4","3","2","3","1","林","","","","match","","","","","","","","","","","","","","key","j","16.653050420167972","640","356","f","false","nonmatch","img/pentagon.png","三角","五边","ALT1_1","prac_ALT1_1","","","","","","","","","",""
"null","<span style='color:red; font-size: 70px;'>错误! </span>","null","html-keyboard-response","62","350684","0.0-7.0-0.0-1.0-0.0-1.26","3","3","3","3","3","3","3","3","3","3","3","4","4","3","4","4","3","3","4","4","2","2","3","2","2","2","2","3","4","1","0","1","1","0","0","1","1","0","1","-1","0","1","0","1","4","3","2","4","3","2","4","3","2","3","1","林","","","","","","","","","","","","","","","","","","","","","","","","","","","","","","feedback_test","","","","","","","","","",""
"830","","f","psychophysics","63","352516","0.0-7.0-0.0-1.0-0.0-0.27","3","3","3","3","3","3","3","3","3","3","3","4","4","3","4","4","3","3","4","4","2","2","3","2","2","2","2","3","4","1","0","1","1","0","0","1","1","0","1","-1","0","1","0","1","4","3","2","4","3","2","4","3","2","3","1","林","","","","nonmatch","","","","","","","","","","","","","","key","f","16.652963302752383","640","356","f","true","nonmatch","img/ellipse.png","三角","椭圆","ALT1_1","prac_ALT1_1","","","","","","","","","",""
"null","<span style='color:GreenYellow; font-size: 70px;'>正确! </span>","null","html-keyboard-response","64","353017","0.0-7.0-0.0-1.0-0.0-1.27","3","3","3","3","3","3","3","3","3","3","3","4","4","3","4","4","3","3","4","4","2","2","3","2","2","2","2","3","4","1","0","1","1","0","0","1","1","0","1","-1","0","1","0","1","4","3","2","4","3","2","4","3","2","3","1","林","","","","","","","","","","","","","","","","","","","","","","","","","","","","","","feedback_test","","","","","","","","","",""
"863","","f","psychophysics","65","354881","0.0-7.0-0.0-1.0-0.0-0.28","3","3","3","3","3","3","3","3","3","3","3","4","4","3","4","4","3","3","4","4","2","2","3","2","2","2","2","3","4","1","0","1","1","0","0","1","1","0","1","-1","0","1","0","1","4","3","2","4","3","2","4","3","2","3","1","林","","","","nonmatch","","","","","","","","","","","","","","key","f","16.65294594594607","640","356","f","true","nonmatch","img/triangle.png","方形","三角","ALT1_1","prac_ALT1_1","","","","","","","","","",""
"null","<span style='color:GreenYellow; font-size: 70px;'>正确! </span>","null","html-keyboard-response","66","355382","0.0-7.0-0.0-1.0-0.0-1.28","3","3","3","3","3","3","3","3","3","3","3","4","4","3","4","4","3","3","4","4","2","2","3","2","2","2","2","3","4","1","0","1","1","0","0","1","1","0","1","-1","0","1","0","1","4","3","2","4","3","2","4","3","2","3","1","林","","","","","","","","","","","","","","","","","","","","","","","","","","","","","","feedback_test","","","","","","","","","",""
"873","","f","psychophysics","67","357257","0.0-7.0-0.0-1.0-0.0-0.29","3","3","3","3","3","3","3","3","3","3","3","4","4","3","4","4","3","3","4","4","2","2","3","2","2","2","2","3","4","1","0","1","1","0","0","1","1","0","1","-1","0","1","0","1","4","3","2","4","3","2","4","3","2","3","1","林","","","","nonmatch","","","","","","","","","","","","","","key","f","16.65300892857132","640","356","j","false","match","img/triangle.png","三角","三角","ALT1_1","prac_ALT1_1","","","","","","","","","",""
"null","<span style='color:red; font-size: 70px;'>错误! </span>","null","html-keyboard-response","68","357758","0.0-7.0-0.0-1.0-0.0-1.29","3","3","3","3","3","3","3","3","3","3","3","4","4","3","4","4","3","3","4","4","2","2","3","2","2","2","2","3","4","1","0","1","1","0","0","1","1","0","1","-1","0","1","0","1","4","3","2","4","3","2","4","3","2","3","1","林","","","","","","","","","","","","","","","","","","","","","","","","","","","","","","feedback_test","","","","","","","","","",""
"646","","f","psychophysics","69","359406","0.0-7.0-0.0-1.0-0.0-0.30","3","3","3","3","3","3","3","3","3","3","3","4","4","3","4","4","3","3","4","4","2","2","3","2","2","2","2","3","4","1","0","1","1","0","0","1","1","0","1","-1","0","1","0","1","4","3","2","4","3","2","4","3","2","3","1","林","","","","nonmatch","","","","","","","","","","","","","","key","f","16.65294897959185","640","356","f","true","nonmatch","img/triangle.png","五边","三角","ALT1_1","prac_ALT1_1","","","","","","","","","",""
"null","<span style='color:GreenYellow; font-size: 70px;'>正确! </span>","null","html-keyboard-response","70","359907","0.0-7.0-0.0-1.0-0.0-1.30","3","3","3","3","3","3","3","3","3","3","3","4","4","3","4","4","3","3","4","4","2","2","3","2","2","2","2","3","4","1","0","1","1","0","0","1","1","0","1","-1","0","1","0","1","4","3","2","4","3","2","4","3","2","3","1","林","","","","","","","","","","","","","","","","","","","","","","","","","","","","","","feedback_test","","","","","","","","","",""
"813","","j","psychophysics","71","361721","0.0-7.0-0.0-1.0-0.0-0.31","3","3","3","3","3","3","3","3","3","3","3","4","4","3","4","4","3","3","4","4","2","2","3","2","2","2","2","3","4","1","0","1","1","0","0","1","1","0","1","-1","0","1","0","1","4","3","2","4","3","2","4","3","2","3","1","林","","","","match","","","","","","","","","","","","","","key","j","16.652870370370458","640","356","j","true","match","img/pentagon.png","五边","五边","ALT1_1","prac_ALT1_1","","","","","","","","","",""
"null","<span style='color:GreenYellow; font-size: 70px;'>正确! </span>","null","html-keyboard-response","72","362221","0.0-7.0-0.0-1.0-0.0-1.31","3","3","3","3","3","3","3","3","3","3","3","4","4","3","4","4","3","3","4","4","2","2","3","2","2","2","2","3","4","1","0","1","1","0","0","1","1","0","1","-1","0","1","0","1","4","3","2","4","3","2","4","3","2","3","1","林","","","","","","","","","","","","","","","","","","","","","","","","","","","","","","feedback_test","","","","","","","","","",""
"587","","j","psychophysics","73","363810","0.0-7.0-0.0-1.0-0.0-0.32","3","3","3","3","3","3","3","3","3","3","3","4","4","3","4","4","3","3","4","4","2","2","3","2","2","2","2","3","4","1","0","1","1","0","0","1","1","0","1","-1","0","1","0","1","4","3","2","4","3","2","4","3","2","3","1","林","","","","match","","","","","","","","","","","","","","key","j","16.652734042553384","640","356","j","true","match","img/pentagon.png","五边","五边","ALT1_1","prac_ALT1_1","","","","","","","","","",""
"null","<span style='color:GreenYellow; font-size: 70px;'>正确! </span>","null","html-keyboard-response","74","364310","0.0-7.0-0.0-1.0-0.0-1.32","3","3","3","3","3","3","3","3","3","3","3","4","4","3","4","4","3","3","4","4","2","2","3","2","2","2","2","3","4","1","0","1","1","0","0","1","1","0","1","-1","0","1","0","1","4","3","2","4","3","2","4","3","2","3","1","林","","","","","","","","","","","","","","","","","","","","","","","","","","","","","","feedback_test","","","","","","","","","",""
"643","","j","psychophysics","75","365956","0.0-7.0-0.0-1.0-0.0-0.33","3","3","3","3","3","3","3","3","3","3","3","4","4","3","4","4","3","3","4","4","2","2","3","2","2","2","2","3","4","1","0","1","1","0","0","1","1","0","1","-1","0","1","0","1","4","3","2","4","3","2","4","3","2","3","1","林","","","","match","","","","","","","","","","","","","","key","j","16.652775510204172","640","356","j","true","match","img/ellipse.png","椭圆","椭圆","ALT1_1","prac_ALT1_1","","","","","","","","","",""
"null","<span style='color:GreenYellow; font-size: 70px;'>正确! </span>","null","html-keyboard-response","76","366457","0.0-7.0-0.0-1.0-0.0-1.33","3","3","3","3","3","3","3","3","3","3","3","4","4","3","4","4","3","3","4","4","2","2","3","2","2","2","2","3","4","1","0","1","1","0","0","1","1","0","1","-1","0","1","0","1","4","3","2","4","3","2","4","3","2","3","1","林","","","","","","","","","","","","","","","","","","","","","","","","","","","","","","feedback_test","","","","","","","","","",""
"525","","j","psychophysics","77","367985","0.0-7.0-0.0-1.0-0.0-0.34","3","3","3","3","3","3","3","3","3","3","3","4","4","3","4","4","3","3","4","4","2","2","3","2","2","2","2","3","4","1","0","1","1","0","0","1","1","0","1","-1","0","1","0","1","4","3","2","4","3","2","4","3","2","3","1","林","","","","match","","","","","","","","","","","","","","key","j","16.653054945055104","640","356","f","false","nonmatch","img/square.png","五边","方形","ALT1_1","prac_ALT1_1","","","","","","","","","",""
"null","<span style='color:red; font-size: 70px;'>错误! </span>","null","html-keyboard-response","78","368486","0.0-7.0-0.0-1.0-0.0-1.34","3","3","3","3","3","3","3","3","3","3","3","4","4","3","4","4","3","3","4","4","2","2","3","2","2","2","2","3","4","1","0","1","1","0","0","1","1","0","1","-1","0","1","0","1","4","3","2","4","3","2","4","3","2","3","1","林","","","","","","","","","","","","","","","","","","","","","","","","","","","","","","feedback_test","","","","","","","","","",""
"785","","j","psychophysics","79","370272","0.0-7.0-0.0-1.0-0.0-0.35","3","3","3","3","3","3","3","3","3","3","3","4","4","3","4","4","3","3","4","4","2","2","3","2","2","2","2","3","4","1","0","1","1","0","0","1","1","0","1","-1","0","1","0","1","4","3","2","4","3","2","4","3","2","3","1","林","","","","match","","","","","","","","","","","","","","key","j","16.65283962264152","640","356","j","true","match","img/square.png","方形","方形","ALT1_1","prac_ALT1_1","","","","","","","","","",""
"null","<span style='color:GreenYellow; font-size: 70px;'>正确! </span>","null","html-keyboard-response","80","370773","0.0-7.0-0.0-1.0-0.0-1.35","3","3","3","3","3","3","3","3","3","3","3","4","4","3","4","4","3","3","4","4","2","2","3","2","2","2","2","3","4","1","0","1","1","0","0","1","1","0","1","-1","0","1","0","1","4","3","2","4","3","2","4","3","2","3","1","林","","","","","","","","","","","","","","","","","","","","","","","","","","","","","","feedback_test","","","","","","","","","",""
"665","","j","psychophysics","81","372439","0.0-7.0-0.0-1.0-0.0-0.36","3","3","3","3","3","3","3","3","3","3","3","4","4","3","4","4","3","3","4","4","2","2","3","2","2","2","2","3","4","1","0","1","1","0","0","1","1","0","1","-1","0","1","0","1","4","3","2","4","3","2","4","3","2","3","1","林","","","","match","","","","","","","","","","","","","","key","j","16.652565656565578","640","356","j","true","match","img/triangle.png","三角","三角","ALT1_1","prac_ALT1_1","","","","","","","","","",""
"null","<span style='color:GreenYellow; font-size: 70px;'>正确! </span>","null","html-keyboard-response","82","372939","0.0-7.0-0.0-1.0-0.0-1.36","3","3","3","3","3","3","3","3","3","3","3","4","4","3","4","4","3","3","4","4","2","2","3","2","2","2","2","3","4","1","0","1","1","0","0","1","1","0","1","-1","0","1","0","1","4","3","2","4","3","2","4","3","2","3","1","林","","","","","","","","","","","","","","","","","","","","","","","","","","","","","","feedback_test","","","","","","","","","",""
"703","","f","psychophysics","83","374644","0.0-7.0-0.0-1.0-0.0-0.37","3","3","3","3","3","3","3","3","3","3","3","4","4","3","4","4","3","3","4","4","2","2","3","2","2","2","2","3","4","1","0","1","1","0","0","1","1","0","1","-1","0","1","0","1","4","3","2","4","3","2","4","3","2","3","1","林","","","","nonmatch","","","","","","","","","","","","","","key","f","16.65299019607825","640","356","f","true","nonmatch","img/square.png","椭圆","方形","ALT1_1","prac_ALT1_1","","","","","","","","","",""
"null","<span style='color:GreenYellow; font-size: 70px;'>正确! </span>","null","html-keyboard-response","84","375144","0.0-7.0-0.0-1.0-0.0-1.37","3","3","3","3","3","3","3","3","3","3","3","4","4","3","4","4","3","3","4","4","2","2","3","2","2","2","2","3","4","1","0","1","1","0","0","1","1","0","1","-1","0","1","0","1","4","3","2","4","3","2","4","3","2","3","1","林","","","","","","","","","","","","","","","","","","","","","","","","","","","","","","feedback_test","","","","","","","","","",""
"670","","j","psychophysics","85","376816","0.0-7.0-0.0-1.0-0.0-0.38","3","3","3","3","3","3","3","3","3","3","3","4","4","3","4","4","3","3","4","4","2","2","3","2","2","2","2","3","4","1","0","1","1","0","0","1","1","0","1","-1","0","1","0","1","4","3","2","4","3","2","4","3","2","3","1","林","","","","match","","","","","","","","","","","","","","key","j","16.65245454545448","640","356","j","true","match","img/square.png","方形","方形","ALT1_1","prac_ALT1_1","","","","","","","","","",""
"null","<span style='color:GreenYellow; font-size: 70px;'>正确! </span>","null","html-keyboard-response","86","377329","0.0-7.0-0.0-1.0-0.0-1.38","3","3","3","3","3","3","3","3","3","3","3","4","4","3","4","4","3","3","4","4","2","2","3","2","2","2","2","3","4","1","0","1","1","0","0","1","1","0","1","-1","0","1","0","1","4","3","2","4","3","2","4","3","2","3","1","林","","","","","","","","","","","","","","","","","","","","","","","","","","","","","","feedback_test","","","","","","","","","",""
"545","","f","psychophysics","87","378876","0.0-7.0-0.0-1.0-0.0-0.39","3","3","3","3","3","3","3","3","3","3","3","4","4","3","4","4","3","3","4","4","2","2","3","2","2","2","2","3","4","1","0","1","1","0","0","1","1","0","1","-1","0","1","0","1","4","3","2","4","3","2","4","3","2","3","1","林","","","","nonmatch","","","","","","","","","","","","","","key","f","16.653021739130846","640","356","f","true","nonmatch","img/square.png","三角","方形","ALT1_1","prac_ALT1_1","","","","","","","","","",""
"null","<span style='color:GreenYellow; font-size: 70px;'>正确! </span>","null","html-keyboard-response","88","379377","0.0-7.0-0.0-1.0-0.0-1.39","3","3","3","3","3","3","3","3","3","3","3","4","4","3","4","4","3","3","4","4","2","2","3","2","2","2","2","3","4","1","0","1","1","0","0","1","1","0","1","-1","0","1","0","1","4","3","2","4","3","2","4","3","2","3","1","林","","","","","","","","","","","","","","","","","","","","","","","","","","","","","","feedback_test","","","","","","","","","",""
"543","","f","psychophysics","89","380921","0.0-7.0-0.0-1.0-0.0-0.40","3","3","3","3","3","3","3","3","3","3","3","4","4","3","4","4","3","3","4","4","2","2","3","2","2","2","2","3","4","1","0","1","1","0","0","1","1","0","1","-1","0","1","0","1","4","3","2","4","3","2","4","3","2","3","1","林","","","","nonmatch","","","","","","","","","","","","","","key","f","16.652728260869957","640","356","j","false","match","img/ellipse.png","椭圆","椭圆","ALT1_1","prac_ALT1_1","","","","","","","","","",""
"null","<span style='color:red; font-size: 70px;'>错误! </span>","null","html-keyboard-response","90","381422","0.0-7.0-0.0-1.0-0.0-1.40","3","3","3","3","3","3","3","3","3","3","3","4","4","3","4","4","3","3","4","4","2","2","3","2","2","2","2","3","4","1","0","1","1","0","0","1","1","0","1","-1","0","1","0","1","4","3","2","4","3","2","4","3","2","3","1","林","","","","","","","","","","","","","","","","","","","","","","","","","","","","","","feedback_test","","","","","","","","","",""
"573","","f","psychophysics","91","382997","0.0-7.0-0.0-1.0-0.0-0.41","3","3","3","3","3","3","3","3","3","3","3","4","4","3","4","4","3","3","4","4","2","2","3","2","2","2","2","3","4","1","0","1","1","0","0","1","1","0","1","-1","0","1","0","1","4","3","2","4","3","2","4","3","2","3","1","林","","","","nonmatch","","","","","","","","","","","","","","key","f","16.652784946236274","640","356","f","true","nonmatch","img/pentagon.png","方形","五边","ALT1_1","prac_ALT1_1","","","","","","","","","",""
"null","<span style='color:GreenYellow; font-size: 70px;'>正确! </span>","null","html-keyboard-response","92","383498","0.0-7.0-0.0-1.0-0.0-1.41","3","3","3","3","3","3","3","3","3","3","3","4","4","3","4","4","3","3","4","4","2","2","3","2","2","2","2","3","4","1","0","1","1","0","0","1","1","0","1","-1","0","1","0","1","4","3","2","4","3","2","4","3","2","3","1","林","","","","","","","","","","","","","","","","","","","","","","","","","","","","","","feedback_test","","","","","","","","","",""
"887","","f","psychophysics","93","385386","0.0-7.0-0.0-1.0-0.0-0.42","3","3","3","3","3","3","3","3","3","3","3","4","4","3","4","4","3","3","4","4","2","2","3","2","2","2","2","3","4","1","0","1","1","0","0","1","1","0","1","-1","0","1","0","1","4","3","2","4","3","2","4","3","2","3","1","林","","","","nonmatch","","","","","","","","","","","","","","key","f","16.649598214285756","640","356","j","false","match","img/pentagon.png","五边","五边","ALT1_1","prac_ALT1_1","","","","","","","","","",""
"null","<span style='color:red; font-size: 70px;'>错误! </span>","null","html-keyboard-response","94","385887","0.0-7.0-0.0-1.0-0.0-1.42","3","3","3","3","3","3","3","3","3","3","3","4","4","3","4","4","3","3","4","4","2","2","3","2","2","2","2","3","4","1","0","1","1","0","0","1","1","0","1","-1","0","1","0","1","4","3","2","4","3","2","4","3","2","3","1","林","","","","","","","","","","","","","","","","","","","","","","","","","","","","","","feedback_test","","","","","","","","","",""
"645","","j","psychophysics","95","387533","0.0-7.0-0.0-1.0-0.0-0.43","3","3","3","3","3","3","3","3","3","3","3","4","4","3","4","4","3","3","4","4","2","2","3","2","2","2","2","3","4","1","0","1","1","0","0","1","1","0","1","-1","0","1","0","1","4","3","2","4","3","2","4","3","2","3","1","林","","","","match","","","","","","","","","","","","","","key","j","16.653183673469858","640","356","j","true","match","img/triangle.png","三角","三角","ALT1_1","prac_ALT1_1","","","","","","","","","",""
"null","<span style='color:GreenYellow; font-size: 70px;'>正确! </span>","null","html-keyboard-response","96","388035","0.0-7.0-0.0-1.0-0.0-1.43","3","3","3","3","3","3","3","3","3","3","3","4","4","3","4","4","3","3","4","4","2","2","3","2","2","2","2","3","4","1","0","1","1","0","0","1","1","0","1","-1","0","1","0","1","4","3","2","4","3","2","4","3","2","3","1","林","","","","","","","","","","","","","","","","","","","","","","","","","","","","","","feedback_test","","","","","","","","","",""
"620","","j","psychophysics","97","389656","0.0-7.0-0.0-1.0-0.0-0.44","3","3","3","3","3","3","3","3","3","3","3","4","4","3","4","4","3","3","4","4","2","2","3","2","2","2","2","3","4","1","0","1","1","0","0","1","1","0","1","-1","0","1","0","1","4","3","2","4","3","2","4","3","2","3","1","林","","","","match","","","","","","","","","","","","","","key","j","16.652749999999894","640","356","j","true","match","img/square.png","方形","方形","ALT1_1","prac_ALT1_1","","","","","","","","","",""
"null","<span style='color:GreenYellow; font-size: 70px;'>正确! </span>","null","html-keyboard-response","98","390157","0.0-7.0-0.0-1.0-0.0-1.44","3","3","3","3","3","3","3","3","3","3","3","4","4","3","4","4","3","3","4","4","2","2","3","2","2","2","2","3","4","1","0","1","1","0","0","1","1","0","1","-1","0","1","0","1","4","3","2","4","3","2","4","3","2","3","1","林","","","","","","","","","","","","","","","","","","","","","","","","","","","","","","feedback_test","","","","","","","","","",""
"628","","j","psychophysics","99","391788","0.0-7.0-0.0-1.0-0.0-0.45","3","3","3","3","3","3","3","3","3","3","3","4","4","3","4","4","3","3","4","4","2","2","3","2","2","2","2","3","4","1","0","1","1","0","0","1","1","0","1","-1","0","1","0","1","4","3","2","4","3","2","4","3","2","3","1","林","","","","match","","","","","","","","","","","","","","key","j","16.653072164948433","640","356","j","true","match","img/ellipse.png","椭圆","椭圆","ALT1_1","prac_ALT1_1","","","","","","","","","",""
"null","<span style='color:GreenYellow; font-size: 70px;'>正确! </span>","null","html-keyboard-response","100","392289","0.0-7.0-0.0-1.0-0.0-1.45","3","3","3","3","3","3","3","3","3","3","3","4","4","3","4","4","3","3","4","4","2","2","3","2","2","2","2","3","4","1","0","1","1","0","0","1","1","0","1","-1","0","1","0","1","4","3","2","4","3","2","4","3","2","3","1","林","","","","","","","","","","","","","","","","","","","","","","","","","","","","","","feedback_test","","","","","","","","","",""
"490","","j","psychophysics","101","393780","0.0-7.0-0.0-1.0-0.0-0.46","3","3","3","3","3","3","3","3","3","3","3","4","4","3","4","4","3","3","4","4","2","2","3","2","2","2","2","3","4","1","0","1","1","0","0","1","1","0","1","-1","0","1","0","1","4","3","2","4","3","2","4","3","2","3","1","林","","","","match","","","","","","","","","","","","","","key","j","16.652325842696964","640","356","f","false","nonmatch","img/ellipse.png","方形","椭圆","ALT1_1","prac_ALT1_1","","","","","","","","","",""
"null","<span style='color:red; font-size: 70px;'>错误! </span>","null","html-keyboard-response","102","394282","0.0-7.0-0.0-1.0-0.0-1.46","3","3","3","3","3","3","3","3","3","3","3","4","4","3","4","4","3","3","4","4","2","2","3","2","2","2","2","3","4","1","0","1","1","0","0","1","1","0","1","-1","0","1","0","1","4","3","2","4","3","2","4","3","2","3","1","林","","","","","","","","","","","","","","","","","","","","","","","","","","","","","","feedback_test","","","","","","","","","",""
"748","","f","psychophysics","103","396032","0.0-7.0-0.0-1.0-0.0-0.47","3","3","3","3","3","3","3","3","3","3","3","4","4","3","4","4","3","3","4","4","2","2","3","2","2","2","2","3","4","1","0","1","1","0","0","1","1","0","1","-1","0","1","0","1","4","3","2","4","3","2","4","3","2","3","1","林","","","","nonmatch","","","","","","","","","","","","","","key","f","16.65288461538484","640","356","f","true","nonmatch","img/ellipse.png","五边","椭圆","ALT1_1","prac_ALT1_1","","","","","","","","","",""
"null","<span style='color:GreenYellow; font-size: 70px;'>正确! </span>","null","html-keyboard-response","104","396533","0.0-7.0-0.0-1.0-0.0-1.47","3","3","3","3","3","3","3","3","3","3","3","4","4","3","4","4","3","3","4","4","2","2","3","2","2","2","2","3","4","1","0","1","1","0","0","1","1","0","1","-1","0","1","0","1","4","3","2","4","3","2","4","3","2","3","1","林","","","","","","","","","","","","","","","","","","","","","","","","","","","","","","feedback_test","","","","","","","","","",""
"100422","<style>.context{color:white; font-size: 35px; line-height:40px}</style>                            <div><p class='context'>您正确回答了69% 的试次。</p><p class='context'>您的平均反应时为711毫秒。</p><p class='context'>恭喜您完成练习。按空格键进入正式实验。</p><p class='footer' style='font-size: 35px; line-height:40px;'>请在进入正式实验实验之前将您的<span style='color: lightgreen;'>食指</span>放在电脑键盘的相应键位上进行按键。</p>"," ","html-keyboard-response","105","496957","0.0-7.0-0.0-2.0","3","3","3","3","3","3","3","3","3","3","3","4","4","3","4","4","3","3","4","4","2","2","3","2","2","2","2","3","4","1","0","1","1","0","0","1","1","0","1","-1","0","1","0","1","4","3","2","4","3","2","4","3","2","3","1","林","","","","","","","","","","","","","","","","","","","","","","","","","","","","","","","","","","","","","","","",""
"44275","
    <p>请您将手指放在按键上，准备进入正式的匹配任务。</p>
    <p> <div style = ""color: green""><按空格键进入下一阶段的匹配任务></div></p>
    "," ","html-keyboard-response","106","541234","0.0-7.0-0.0-3.0","3","3","3","3","3","3","3","3","3","3","3","4","4","3","4","4","3","3","4","4","2","2","3","2","2","2","2","3","4","1","0","1","1","0","0","1","1","0","1","-1","0","1","0","1","4","3","2","4","3","2","4","3","2","3","1","林","","","","","","","","","","","","","","","","","","","","","","","","","","","","","","","","","","","","","","","",""
"862","","j","psychophysics","107","543097","0.0-7.0-0.0-4.0-0.0-0.0","3","3","3","3","3","3","3","3","3","3","3","4","4","3","4","4","3","3","4","4","2","2","3","2","2","2","2","3","4","1","0","1","1","0","0","1","1","0","1","-1","0","1","0","1","4","3","2","4","3","2","4","3","2","3","1","林","","","","match","","","","","","","","","","","","","","key","j","16.652630630629933","640","356","j","true","match","img/square.png","方形","方形","ALT1","formal_ALT1_1","","","","","","","","","",""
"null","<span style='color:GreenYellow; font-size: 70px;'>正确! </span>","null","html-keyboard-response","108","543598","0.0-7.0-0.0-4.0-0.0-1.0","3","3","3","3","3","3","3","3","3","3","3","4","4","3","4","4","3","3","4","4","2","2","3","2","2","2","2","3","4","1","0","1","1","0","0","1","1","0","1","-1","0","1","0","1","4","3","2","4","3","2","4","3","2","3","1","林","","","","","","","","","","","","","","","","","","","","","","","","","","","","","","feedback_test","","","","","","","","","",""
"689","","f","psychophysics","109","545288","0.0-7.0-0.0-4.0-0.0-0.1","3","3","3","3","3","3","3","3","3","3","3","4","4","3","4","4","3","3","4","4","2","2","3","2","2","2","2","3","4","1","0","1","1","0","0","1","1","0","1","-1","0","1","0","1","4","3","2","4","3","2","4","3","2","3","1","林","","","","nonmatch","","","","","","","","","","","","","","key","f","16.652801980197633","640","356","f","true","nonmatch","img/pentagon.png","方形","五边","ALT1","formal_ALT1_1","","","","","","","","","",""
"null","<span style='color:GreenYellow; font-size: 70px;'>正确! </span>","null","html-keyboard-response","110","545790","0.0-7.0-0.0-4.0-0.0-1.1","3","3","3","3","3","3","3","3","3","3","3","4","4","3","4","4","3","3","4","4","2","2","3","2","2","2","2","3","4","1","0","1","1","0","0","1","1","0","1","-1","0","1","0","1","4","3","2","4","3","2","4","3","2","3","1","林","","","","","","","","","","","","","","","","","","","","","","","","","","","","","","feedback_test","","","","","","","","","",""
"619","","j","psychophysics","111","547411","0.0-7.0-0.0-4.0-0.0-0.2","3","3","3","3","3","3","3","3","3","3","3","4","4","3","4","4","3","3","4","4","2","2","3","2","2","2","2","3","4","1","0","1","1","0","0","1","1","0","1","-1","0","1","0","1","4","3","2","4","3","2","4","3","2","3","1","林","","","","match","","","","","","","","","","","","","","key","j","16.653020833333965","640","356","f","false","nonmatch","img/square.png","椭圆","方形","ALT1","formal_ALT1_1","","","","","","","","","",""
"null","<span style='color:red; font-size: 70px;'>错误! </span>","null","html-keyboard-response","112","547912","0.0-7.0-0.0-4.0-0.0-1.2","3","3","3","3","3","3","3","3","3","3","3","4","4","3","4","4","3","3","4","4","2","2","3","2","2","2","2","3","4","1","0","1","1","0","0","1","1","0","1","-1","0","1","0","1","4","3","2","4","3","2","4","3","2","3","1","林","","","","","","","","","","","","","","","","","","","","","","","","","","","","","","feedback_test","","","","","","","","","",""
"734","","f","psychophysics","113","549647","0.0-7.0-0.0-4.0-0.0-0.3","3","3","3","3","3","3","3","3","3","3","3","4","4","3","4","4","3","3","4","4","2","2","3","2","2","2","2","3","4","1","0","1","1","0","0","1","1","0","1","-1","0","1","0","1","4","3","2","4","3","2","4","3","2","3","1","林","","","","nonmatch","","","","","","","","","","","","","","key","f","16.652826923076645","640","356","f","true","nonmatch","img/triangle.png","椭圆","三角","ALT1","formal_ALT1_1","","","","","","","","","",""
"null","<span style='color:GreenYellow; font-size: 70px;'>正确! </span>","null","html-keyboard-response","114","550148","0.0-7.0-0.0-4.0-0.0-1.3","3","3","3","3","3","3","3","3","3","3","3","4","4","3","4","4","3","3","4","4","2","2","3","2","2","2","2","3","4","1","0","1","1","0","0","1","1","0","1","-1","0","1","0","1","4","3","2","4","3","2","4","3","2","3","1","林","","","","","","","","","","","","","","","","","","","","","","","","","","","","","","feedback_test","","","","","","","","","",""
"674","","j","psychophysics","115","551824","0.0-7.0-0.0-4.0-0.0-0.4","3","3","3","3","3","3","3","3","3","3","3","4","4","3","4","4","3","3","4","4","2","2","3","2","2","2","2","3","4","1","0","1","1","0","0","1","1","0","1","-1","0","1","0","1","4","3","2","4","3","2","4","3","2","3","1","林","","","","match","","","","","","","","","","","","","","key","j","16.65281818181775","640","356","j","true","match","img/square.png","方形","方形","ALT1","formal_ALT1_1","","","","","","","","","",""
"null","<span style='color:GreenYellow; font-size: 70px;'>正确! </span>","null","html-keyboard-response","116","552325","0.0-7.0-0.0-4.0-0.0-1.4","3","3","3","3","3","3","3","3","3","3","3","4","4","3","4","4","3","3","4","4","2","2","3","2","2","2","2","3","4","1","0","1","1","0","0","1","1","0","1","-1","0","1","0","1","4","3","2","4","3","2","4","3","2","3","1","林","","","","","","","","","","","","","","","","","","","","","","","","","","","","","","feedback_test","","","","","","","","","",""
"751","","j","psychophysics","117","554077","0.0-7.0-0.0-4.0-0.0-0.5","3","3","3","3","3","3","3","3","3","3","3","4","4","3","4","4","3","3","4","4","2","2","3","2","2","2","2","3","4","1","0","1","1","0","0","1","1","0","1","-1","0","1","0","1","4","3","2","4","3","2","4","3","2","3","1","林","","","","match","","","","","","","","","","","","","","key","j","16.653114285713638","640","356","f","false","nonmatch","img/ellipse.png","三角","椭圆","ALT1","formal_ALT1_1","","","","","","","","","",""
"null","<span style='color:red; font-size: 70px;'>错误! </span>","null","html-keyboard-response","118","554578","0.0-7.0-0.0-4.0-0.0-1.5","3","3","3","3","3","3","3","3","3","3","3","4","4","3","4","4","3","3","4","4","2","2","3","2","2","2","2","3","4","1","0","1","1","0","0","1","1","0","1","-1","0","1","0","1","4","3","2","4","3","2","4","3","2","3","1","林","","","","","","","","","","","","","","","","","","","","","","","","","","","","","","feedback_test","","","","","","","","","",""
"615","","j","psychophysics","119","556195","0.0-7.0-0.0-4.0-0.0-0.6","3","3","3","3","3","3","3","3","3","3","3","4","4","3","4","4","3","3","4","4","2","2","3","2","2","2","2","3","4","1","0","1","1","0","0","1","1","0","1","-1","0","1","0","1","4","3","2","4","3","2","4","3","2","3","1","林","","","","match","","","","","","","","","","","","","","key","j","16.652583333333798","640","356","j","true","match","img/ellipse.png","椭圆","椭圆","ALT1","formal_ALT1_1","","","","","","","","","",""
"null","<span style='color:GreenYellow; font-size: 70px;'>正确! </span>","null","html-keyboard-response","120","556696","0.0-7.0-0.0-4.0-0.0-1.6","3","3","3","3","3","3","3","3","3","3","3","4","4","3","4","4","3","3","4","4","2","2","3","2","2","2","2","3","4","1","0","1","1","0","0","1","1","0","1","-1","0","1","0","1","4","3","2","4","3","2","4","3","2","3","1","林","","","","","","","","","","","","","","","","","","","","","","","","","","","","","","feedback_test","","","","","","","","","",""
"477","","j","psychophysics","121","558174","0.0-7.0-0.0-4.0-0.0-0.7","3","3","3","3","3","3","3","3","3","3","3","4","4","3","4","4","3","3","4","4","2","2","3","2","2","2","2","3","4","1","0","1","1","0","0","1","1","0","1","-1","0","1","0","1","4","3","2","4","3","2","4","3","2","3","1","林","","","","match","","","","","","","","","","","","","","key","j","16.652704545454153","640","356","j","true","match","img/ellipse.png","椭圆","椭圆","ALT1","formal_ALT1_1","","","","","","","","","",""
"null","<span style='color:GreenYellow; font-size: 70px;'>正确! </span>","null","html-keyboard-response","122","558675","0.0-7.0-0.0-4.0-0.0-1.7","3","3","3","3","3","3","3","3","3","3","3","4","4","3","4","4","3","3","4","4","2","2","3","2","2","2","2","3","4","1","0","1","1","0","0","1","1","0","1","-1","0","1","0","1","4","3","2","4","3","2","4","3","2","3","1","林","","","","","","","","","","","","","","","","","","","","","","","","","","","","","","feedback_test","","","","","","","","","",""
"666","","j","psychophysics","123","560343","0.0-7.0-0.0-4.0-0.0-0.8","3","3","3","3","3","3","3","3","3","3","3","4","4","3","4","4","3","3","4","4","2","2","3","2","2","2","2","3","4","1","0","1","1","0","0","1","1","0","1","-1","0","1","0","1","4","3","2","4","3","2","4","3","2","3","1","林","","","","match","","","","","","","","","","","","","","key","j","16.65262626262612","640","356","j","true","match","img/square.png","方形","方形","ALT1","formal_ALT1_1","","","","","","","","","",""
"null","<span style='color:GreenYellow; font-size: 70px;'>正确! </span>","null","html-keyboard-response","124","560845","0.0-7.0-0.0-4.0-0.0-1.8","3","3","3","3","3","3","3","3","3","3","3","4","4","3","4","4","3","3","4","4","2","2","3","2","2","2","2","3","4","1","0","1","1","0","0","1","1","0","1","-1","0","1","0","1","4","3","2","4","3","2","4","3","2","3","1","林","","","","","","","","","","","","","","","","","","","","","","","","","","","","","","feedback_test","","","","","","","","","",""
"449","","j","psychophysics","125","562296","0.0-7.0-0.0-4.0-0.0-0.9","3","3","3","3","3","3","3","3","3","3","3","4","4","3","4","4","3","3","4","4","2","2","3","2","2","2","2","3","4","1","0","1","1","0","0","1","1","0","1","-1","0","1","0","1","4","3","2","4","3","2","4","3","2","3","1","林","","","","match","","","","","","","","","","","","","","key","j","16.652883720930753","640","356","f","false","nonmatch","img/square.png","五边","方形","ALT1","formal_ALT1_1","","","","","","","","","",""
"null","<span style='color:red; font-size: 70px;'>错误! </span>","null","html-keyboard-response","126","562797","0.0-7.0-0.0-4.0-0.0-1.9","3","3","3","3","3","3","3","3","3","3","3","4","4","3","4","4","3","3","4","4","2","2","3","2","2","2","2","3","4","1","0","1","1","0","0","1","1","0","1","-1","0","1","0","1","4","3","2","4","3","2","4","3","2","3","1","林","","","","","","","","","","","","","","","","","","","","","","","","","","","","","","feedback_test","","","","","","","","","",""
"619","","j","psychophysics","127","564418","0.0-7.0-0.0-4.0-0.0-0.10","3","3","3","3","3","3","3","3","3","3","3","4","4","3","4","4","3","3","4","4","2","2","3","2","2","2","2","3","4","1","0","1","1","0","0","1","1","0","1","-1","0","1","0","1","4","3","2","4","3","2","4","3","2","3","1","林","","","","match","","","","","","","","","","","","","","key","j","16.653134020617873","640","356","j","true","match","img/triangle.png","三角","三角","ALT1","formal_ALT1_1","","","","","","","","","",""
"null","<span style='color:GreenYellow; font-size: 70px;'>正确! </span>","null","html-keyboard-response","128","564919","0.0-7.0-0.0-4.0-0.0-1.10","3","3","3","3","3","3","3","3","3","3","3","4","4","3","4","4","3","3","4","4","2","2","3","2","2","2","2","3","4","1","0","1","1","0","0","1","1","0","1","-1","0","1","0","1","4","3","2","4","3","2","4","3","2","3","1","林","","","","","","","","","","","","","","","","","","","","","","","","","","","","","","feedback_test","","","","","","","","","",""
"578","","j","psychophysics","129","566498","0.0-7.0-0.0-4.0-0.0-0.11","3","3","3","3","3","3","3","3","3","3","3","4","4","3","4","4","3","3","4","4","2","2","3","2","2","2","2","3","4","1","0","1","1","0","0","1","1","0","1","-1","0","1","0","1","4","3","2","4","3","2","4","3","2","3","1","林","","","","match","","","","","","","","","","","","","","key","j","16.652752688172104","640","356","j","true","match","img/ellipse.png","椭圆","椭圆","ALT1","formal_ALT1_1","","","","","","","","","",""
"null","<span style='color:GreenYellow; font-size: 70px;'>正确! </span>","null","html-keyboard-response","130","567000","0.0-7.0-0.0-4.0-0.0-1.11","3","3","3","3","3","3","3","3","3","3","3","4","4","3","4","4","3","3","4","4","2","2","3","2","2","2","2","3","4","1","0","1","1","0","0","1","1","0","1","-1","0","1","0","1","4","3","2","4","3","2","4","3","2","3","1","林","","","","","","","","","","","","","","","","","","","","","","","","","","","","","","feedback_test","","","","","","","","","",""
"766","","j","psychophysics","131","568767","0.0-7.0-0.0-4.0-0.0-0.12","3","3","3","3","3","3","3","3","3","3","3","4","4","3","4","4","3","3","4","4","2","2","3","2","2","2","2","3","4","1","0","1","1","0","0","1","1","0","1","-1","0","1","0","1","4","3","2","4","3","2","4","3","2","3","1","林","","","","match","","","","","","","","","","","","","","key","j","16.65279047619108","640","356","j","true","match","img/pentagon.png","五边","五边","ALT1","formal_ALT1_1","","","","","","","","","",""
"null","<span style='color:GreenYellow; font-size: 70px;'>正确! </span>","null","html-keyboard-response","132","569269","0.0-7.0-0.0-4.0-0.0-1.12","3","3","3","3","3","3","3","3","3","3","3","4","4","3","4","4","3","3","4","4","2","2","3","2","2","2","2","3","4","1","0","1","1","0","0","1","1","0","1","-1","0","1","0","1","4","3","2","4","3","2","4","3","2","3","1","林","","","","","","","","","","","","","","","","","","","","","","","","","","","","","","feedback_test","","","","","","","","","",""
"698","","f","psychophysics","133","570967","0.0-7.0-0.0-4.0-0.0-0.13","3","3","3","3","3","3","3","3","3","3","3","4","4","3","4","4","3","3","4","4","2","2","3","2","2","2","2","3","4","1","0","1","1","0","0","1","1","0","1","-1","0","1","0","1","4","3","2","4","3","2","4","3","2","3","1","林","","","","nonmatch","","","","","","","","","","","","","","key","f","16.65294059405984","640","356","f","true","nonmatch","img/pentagon.png","三角","五边","ALT1","formal_ALT1_1","","","","","","","","","",""
"null","<span style='color:GreenYellow; font-size: 70px;'>正确! </span>","null","html-keyboard-response","134","571468","0.0-7.0-0.0-4.0-0.0-1.13","3","3","3","3","3","3","3","3","3","3","3","4","4","3","4","4","3","3","4","4","2","2","3","2","2","2","2","3","4","1","0","1","1","0","0","1","1","0","1","-1","0","1","0","1","4","3","2","4","3","2","4","3","2","3","1","林","","","","","","","","","","","","","","","","","","","","","","","","","","","","","","feedback_test","","","","","","","","","",""
"850","","f","psychophysics","135","573320","0.0-7.0-0.0-4.0-0.0-0.14","3","3","3","3","3","3","3","3","3","3","3","4","4","3","4","4","3","3","4","4","2","2","3","2","2","2","2","3","4","1","0","1","1","0","0","1","1","0","1","-1","0","1","0","1","4","3","2","4","3","2","4","3","2","3","1","林","","","","nonmatch","","","","","","","","","","","","","","key","f","16.65317272727314","640","356","f","true","nonmatch","img/ellipse.png","方形","椭圆","ALT1","formal_ALT1_1","","","","","","","","","",""
"null","<span style='color:GreenYellow; font-size: 70px;'>正确! </span>","null","html-keyboard-response","136","573820","0.0-7.0-0.0-4.0-0.0-1.14","3","3","3","3","3","3","3","3","3","3","3","4","4","3","4","4","3","3","4","4","2","2","3","2","2","2","2","3","4","1","0","1","1","0","0","1","1","0","1","-1","0","1","0","1","4","3","2","4","3","2","4","3","2","3","1","林","","","","","","","","","","","","","","","","","","","","","","","","","","","","","","feedback_test","","","","","","","","","",""
"691","","j","psychophysics","137","575514","0.0-7.0-0.0-4.0-0.0-0.15","3","3","3","3","3","3","3","3","3","3","3","4","4","3","4","4","3","3","4","4","2","2","3","2","2","2","2","3","4","1","0","1","1","0","0","1","1","0","1","-1","0","1","0","1","4","3","2","4","3","2","4","3","2","3","1","林","","","","match","","","","","","","","","","","","","","key","j","16.653198019801962","640","356","j","true","match","img/pentagon.png","五边","五边","ALT1","formal_ALT1_1","","","","","","","","","",""
"null","<span style='color:GreenYellow; font-size: 70px;'>正确! </span>","null","html-keyboard-response","138","576015","0.0-7.0-0.0-4.0-0.0-1.15","3","3","3","3","3","3","3","3","3","3","3","4","4","3","4","4","3","3","4","4","2","2","3","2","2","2","2","3","4","1","0","1","1","0","0","1","1","0","1","-1","0","1","0","1","4","3","2","4","3","2","4","3","2","3","1","林","","","","","","","","","","","","","","","","","","","","","","","","","","","","","","feedback_test","","","","","","","","","",""
"569","","j","psychophysics","139","577585","0.0-7.0-0.0-4.0-0.0-0.16","3","3","3","3","3","3","3","3","3","3","3","4","4","3","4","4","3","3","4","4","2","2","3","2","2","2","2","3","4","1","0","1","1","0","0","1","1","0","1","-1","0","1","0","1","4","3","2","4","3","2","4","3","2","3","1","林","","","","match","","","","","","","","","","","","","","key","j","16.652956989248313","640","356","j","true","match","img/triangle.png","三角","三角","ALT1","formal_ALT1_1","","","","","","","","","",""
"null","<span style='color:GreenYellow; font-size: 70px;'>正确! </span>","null","html-keyboard-response","140","578086","0.0-7.0-0.0-4.0-0.0-1.16","3","3","3","3","3","3","3","3","3","3","3","4","4","3","4","4","3","3","4","4","2","2","3","2","2","2","2","3","4","1","0","1","1","0","0","1","1","0","1","-1","0","1","0","1","4","3","2","4","3","2","4","3","2","3","1","林","","","","","","","","","","","","","","","","","","","","","","","","","","","","","","feedback_test","","","","","","","","","",""
"590","","f","psychophysics","141","579678","0.0-7.0-0.0-4.0-0.0-0.17","3","3","3","3","3","3","3","3","3","3","3","4","4","3","4","4","3","3","4","4","2","2","3","2","2","2","2","3","4","1","0","1","1","0","0","1","1","0","1","-1","0","1","0","1","4","3","2","4","3","2","4","3","2","3","1","林","","","","nonmatch","","","","","","","","","","","","","","key","f","16.652421052631382","640","356","f","true","nonmatch","img/ellipse.png","五边","椭圆","ALT1","formal_ALT1_1","","","","","","","","","",""
"null","<span style='color:GreenYellow; font-size: 70px;'>正确! </span>","null","html-keyboard-response","142","580179","0.0-7.0-0.0-4.0-0.0-1.17","3","3","3","3","3","3","3","3","3","3","3","4","4","3","4","4","3","3","4","4","2","2","3","2","2","2","2","3","4","1","0","1","1","0","0","1","1","0","1","-1","0","1","0","1","4","3","2","4","3","2","4","3","2","3","1","林","","","","","","","","","","","","","","","","","","","","","","","","","","","","","","feedback_test","","","","","","","","","",""
"552","","j","psychophysics","143","581732","0.0-7.0-0.0-4.0-0.0-0.18","3","3","3","3","3","3","3","3","3","3","3","4","4","3","4","4","3","3","4","4","2","2","3","2","2","2","2","3","4","1","0","1","1","0","0","1","1","0","1","-1","0","1","0","1","4","3","2","4","3","2","4","3","2","3","1","林","","","","match","","","","","","","","","","","","","","key","j","16.652793478261195","640","356","j","true","match","img/pentagon.png","五边","五边","ALT1","formal_ALT1_1","","","","","","","","","",""
"null","<span style='color:GreenYellow; font-size: 70px;'>正确! </span>","null","html-keyboard-response","144","582233","0.0-7.0-0.0-4.0-0.0-1.18","3","3","3","3","3","3","3","3","3","3","3","4","4","3","4","4","3","3","4","4","2","2","3","2","2","2","2","3","4","1","0","1","1","0","0","1","1","0","1","-1","0","1","0","1","4","3","2","4","3","2","4","3","2","3","1","林","","","","","","","","","","","","","","","","","","","","","","","","","","","","","","feedback_test","","","","","","","","","",""
"716","","f","psychophysics","145","583949","0.0-7.0-0.0-4.0-0.0-0.19","3","3","3","3","3","3","3","3","3","3","3","4","4","3","4","4","3","3","4","4","2","2","3","2","2","2","2","3","4","1","0","1","1","0","0","1","1","0","1","-1","0","1","0","1","4","3","2","4","3","2","4","3","2","3","1","林","","","","nonmatch","","","","","","","","","","","","","","key","f","16.652647058823028","640","356","f","true","nonmatch","img/pentagon.png","椭圆","五边","ALT1","formal_ALT1_1","","","","","","","","","",""
"null","<span style='color:GreenYellow; font-size: 70px;'>正确! </span>","null","html-keyboard-response","146","584451","0.0-7.0-0.0-4.0-0.0-1.19","3","3","3","3","3","3","3","3","3","3","3","4","4","3","4","4","3","3","4","4","2","2","3","2","2","2","2","3","4","1","0","1","1","0","0","1","1","0","1","-1","0","1","0","1","4","3","2","4","3","2","4","3","2","3","1","林","","","","","","","","","","","","","","","","","","","","","","","","","","","","","","feedback_test","","","","","","","","","",""
"658","","j","psychophysics","147","586110","0.0-7.0-0.0-4.0-0.0-0.20","3","3","3","3","3","3","3","3","3","3","3","4","4","3","4","4","3","3","4","4","2","2","3","2","2","2","2","3","4","1","0","1","1","0","0","1","1","0","1","-1","0","1","0","1","4","3","2","4","3","2","4","3","2","3","1","林","","","","match","","","","","","","","","","","","","","key","j","16.6526020408159","640","356","f","false","nonmatch","img/triangle.png","五边","三角","ALT1","formal_ALT1_1","","","","","","","","","",""
"null","<span style='color:red; font-size: 70px;'>错误! </span>","null","html-keyboard-response","148","586612","0.0-7.0-0.0-4.0-0.0-1.20","3","3","3","3","3","3","3","3","3","3","3","4","4","3","4","4","3","3","4","4","2","2","3","2","2","2","2","3","4","1","0","1","1","0","0","1","1","0","1","-1","0","1","0","1","4","3","2","4","3","2","4","3","2","3","1","林","","","","","","","","","","","","","","","","","","","","","","","","","","","","","","feedback_test","","","","","","","","","",""
"699","","j","psychophysics","149","588313","0.0-7.0-0.0-4.0-0.0-0.21","3","3","3","3","3","3","3","3","3","3","3","4","4","3","4","4","3","3","4","4","2","2","3","2","2","2","2","3","4","1","0","1","1","0","0","1","1","0","1","-1","0","1","0","1","4","3","2","4","3","2","4","3","2","3","1","林","","","","match","","","","","","","","","","","","","","key","j","16.65254455445551","640","356","f","false","nonmatch","img/triangle.png","方形","三角","ALT1","formal_ALT1_1","","","","","","","","","",""
"null","<span style='color:red; font-size: 70px;'>错误! </span>","null","html-keyboard-response","150","588815","0.0-7.0-0.0-4.0-0.0-1.21","3","3","3","3","3","3","3","3","3","3","3","4","4","3","4","4","3","3","4","4","2","2","3","2","2","2","2","3","4","1","0","1","1","0","0","1","1","0","1","-1","0","1","0","1","4","3","2","4","3","2","4","3","2","3","1","林","","","","","","","","","","","","","","","","","","","","","","","","","","","","","","feedback_test","","","","","","","","","",""
"652","","j","psychophysics","151","590468","0.0-7.0-0.0-4.0-0.0-0.22","3","3","3","3","3","3","3","3","3","3","3","4","4","3","4","4","3","3","4","4","2","2","3","2","2","2","2","3","4","1","0","1","1","0","0","1","1","0","1","-1","0","1","0","1","4","3","2","4","3","2","4","3","2","3","1","林","","","","match","","","","","","","","","","","","","","key","j","16.652612244898016","640","356","j","true","match","img/triangle.png","三角","三角","ALT1","formal_ALT1_1","","","","","","","","","",""
"null","<span style='color:GreenYellow; font-size: 70px;'>正确! </span>","null","html-keyboard-response","152","590969","0.0-7.0-0.0-4.0-0.0-1.22","3","3","3","3","3","3","3","3","3","3","3","4","4","3","4","4","3","3","4","4","2","2","3","2","2","2","2","3","4","1","0","1","1","0","0","1","1","0","1","-1","0","1","0","1","4","3","2","4","3","2","4","3","2","3","1","林","","","","","","","","","","","","","","","","","","","","","","","","","","","","","","feedback_test","","","","","","","","","",""
"918","","f","psychophysics","153","592889","0.0-7.0-0.0-4.0-0.0-0.23","3","3","3","3","3","3","3","3","3","3","3","4","4","3","4","4","3","3","4","4","2","2","3","2","2","2","2","3","4","1","0","1","1","0","0","1","1","0","1","-1","0","1","0","1","4","3","2","4","3","2","4","3","2","3","1","林","","","","nonmatch","","","","","","","","","","","","","","key","f","16.65322807017538","640","356","f","true","nonmatch","img/square.png","三角","方形","ALT1","formal_ALT1_1","","","","","","","","","",""
"null","<span style='color:GreenYellow; font-size: 70px;'>正确! </span>","null","html-keyboard-response","154","593390","0.0-7.0-0.0-4.0-0.0-1.23","3","3","3","3","3","3","3","3","3","3","3","4","4","3","4","4","3","3","4","4","2","2","3","2","2","2","2","3","4","1","0","1","1","0","0","1","1","0","1","-1","0","1","0","1","4","3","2","4","3","2","4","3","2","3","1","林","","","","","","","","","","","","","","","","","","","","","","","","","","","","","","feedback_test","","","","","","","","","",""
"676","","f","psychophysics","155","595068","0.0-7.0-0.0-4.0-0.0-0.24","3","3","3","3","3","3","3","3","3","3","3","4","4","3","4","4","3","3","4","4","2","2","3","2","2","2","2","3","4","1","0","1","1","0","0","1","1","0","1","-1","0","1","0","1","4","3","2","4","3","2","4","3","2","3","1","林","","","","nonmatch","","","","","","","","","","","","","","key","f","16.653129999999656","640","356","f","true","nonmatch","img/pentagon.png","椭圆","五边","ALT1","formal_ALT1_1","","","","","","","","","",""
"null","<span style='color:GreenYellow; font-size: 70px;'>正确! </span>","null","html-keyboard-response","156","595569","0.0-7.0-0.0-4.0-0.0-1.24","3","3","3","3","3","3","3","3","3","3","3","4","4","3","4","4","3","3","4","4","2","2","3","2","2","2","2","3","4","1","0","1","1","0","0","1","1","0","1","-1","0","1","0","1","4","3","2","4","3","2","4","3","2","3","1","林","","","","","","","","","","","","","","","","","","","","","","","","","","","","","","feedback_test","","","","","","","","","",""
"646","","f","psychophysics","157","597216","0.0-7.0-0.0-4.0-0.0-0.25","3","3","3","3","3","3","3","3","3","3","3","4","4","3","4","4","3","3","4","4","2","2","3","2","2","2","2","3","4","1","0","1","1","0","0","1","1","0","1","-1","0","1","0","1","4","3","2","4","3","2","4","3","2","3","1","林","","","","nonmatch","","","","","","","","","","","","","","key","f","16.653132653061054","640","356","j","false","match","img/pentagon.png","五边","五边","ALT1","formal_ALT1_1","","","","","","","","","",""
"null","<span style='color:red; font-size: 70px;'>错误! </span>","null","html-keyboard-response","158","597717","0.0-7.0-0.0-4.0-0.0-1.25","3","3","3","3","3","3","3","3","3","3","3","4","4","3","4","4","3","3","4","4","2","2","3","2","2","2","2","3","4","1","0","1","1","0","0","1","1","0","1","-1","0","1","0","1","4","3","2","4","3","2","4","3","2","3","1","林","","","","","","","","","","","","","","","","","","","","","","","","","","","","","","feedback_test","","","","","","","","","",""
"762","","j","psychophysics","159","599480","0.0-7.0-0.0-4.0-0.0-0.26","3","3","3","3","3","3","3","3","3","3","3","4","4","3","4","4","3","3","4","4","2","2","3","2","2","2","2","3","4","1","0","1","1","0","0","1","1","0","1","-1","0","1","0","1","4","3","2","4","3","2","4","3","2","3","1","林","","","","match","","","","","","","","","","","","","","key","j","16.65290476190414","640","356","j","true","match","img/ellipse.png","椭圆","椭圆","ALT1","formal_ALT1_1","","","","","","","","","",""
"null","<span style='color:GreenYellow; font-size: 70px;'>正确! </span>","null","html-keyboard-response","160","599981","0.0-7.0-0.0-4.0-0.0-1.26","3","3","3","3","3","3","3","3","3","3","3","4","4","3","4","4","3","3","4","4","2","2","3","2","2","2","2","3","4","1","0","1","1","0","0","1","1","0","1","-1","0","1","0","1","4","3","2","4","3","2","4","3","2","3","1","林","","","","","","","","","","","","","","","","","","","","","","","","","","","","","","feedback_test","","","","","","","","","",""
"795","","f","psychophysics","161","601778","0.0-7.0-0.0-4.0-0.0-0.27","3","3","3","3","3","3","3","3","3","3","3","4","4","3","4","4","3","3","4","4","2","2","3","2","2","2","2","3","4","1","0","1","1","0","0","1","1","0","1","-1","0","1","0","1","4","3","2","4","3","2","4","3","2","3","1","林","","","","nonmatch","","","","","","","","","","","","","","key","f","16.652943925233558","640","356","f","true","nonmatch","img/ellipse.png","方形","椭圆","ALT1","formal_ALT1_1","","","","","","","","","",""
"null","<span style='color:GreenYellow; font-size: 70px;'>正确! </span>","null","html-keyboard-response","162","602278","0.0-7.0-0.0-4.0-0.0-1.27","3","3","3","3","3","3","3","3","3","3","3","4","4","3","4","4","3","3","4","4","2","2","3","2","2","2","2","3","4","1","0","1","1","0","0","1","1","0","1","-1","0","1","0","1","4","3","2","4","3","2","4","3","2","3","1","林","","","","","","","","","","","","","","","","","","","","","","","","","","","","","","feedback_test","","","","","","","","","",""
"667","","f","psychophysics","163","603947","0.0-7.0-0.0-4.0-0.0-0.28","3","3","3","3","3","3","3","3","3","3","3","4","4","3","4","4","3","3","4","4","2","2","3","2","2","2","2","3","4","1","0","1","1","0","0","1","1","0","1","-1","0","1","0","1","4","3","2","4","3","2","4","3","2","3","1","林","","","","nonmatch","","","","","","","","","","","","","","key","f","16.65269696969666","640","356","j","false","match","img/triangle.png","三角","三角","ALT1","formal_ALT1_1","","","","","","","","","",""
"null","<span style='color:red; font-size: 70px;'>错误! </span>","null","html-keyboard-response","164","604448","0.0-7.0-0.0-4.0-0.0-1.28","3","3","3","3","3","3","3","3","3","3","3","4","4","3","4","4","3","3","4","4","2","2","3","2","2","2","2","3","4","1","0","1","1","0","0","1","1","0","1","-1","0","1","0","1","4","3","2","4","3","2","4","3","2","3","1","林","","","","","","","","","","","","","","","","","","","","","","","","","","","","","","feedback_test","","","","","","","","","",""
"773","","f","psychophysics","165","606222","0.0-7.0-0.0-4.0-0.0-0.29","3","3","3","3","3","3","3","3","3","3","3","4","4","3","4","4","3","3","4","4","2","2","3","2","2","2","2","3","4","1","0","1","1","0","0","1","1","0","1","-1","0","1","0","1","4","3","2","4","3","2","4","3","2","3","1","林","","","","nonmatch","","","","","","","","","","","","","","key","f","16.65239622641601","640","356","f","true","nonmatch","img/ellipse.png","三角","椭圆","ALT1","formal_ALT1_1","","","","","","","","","",""
"null","<span style='color:GreenYellow; font-size: 70px;'>正确! </span>","null","html-keyboard-response","166","606723","0.0-7.0-0.0-4.0-0.0-1.29","3","3","3","3","3","3","3","3","3","3","3","4","4","3","4","4","3","3","4","4","2","2","3","2","2","2","2","3","4","1","0","1","1","0","0","1","1","0","1","-1","0","1","0","1","4","3","2","4","3","2","4","3","2","3","1","林","","","","","","","","","","","","","","","","","","","","","","","","","","","","","","feedback_test","","","","","","","","","",""
"650","","f","psychophysics","167","608374","0.0-7.0-0.0-4.0-0.0-0.30","3","3","3","3","3","3","3","3","3","3","3","4","4","3","4","4","3","3","4","4","2","2","3","2","2","2","2","3","4","1","0","1","1","0","0","1","1","0","1","-1","0","1","0","1","4","3","2","4","3","2","4","3","2","3","1","林","","","","nonmatch","","","","","","","","","","","","","","key","f","16.653295918367803","640","356","f","true","nonmatch","img/square.png","椭圆","方形","ALT1","formal_ALT1_1","","","","","","","","","",""
"null","<span style='color:GreenYellow; font-size: 70px;'>正确! </span>","null","html-keyboard-response","168","608875","0.0-7.0-0.0-4.0-0.0-1.30","3","3","3","3","3","3","3","3","3","3","3","4","4","3","4","4","3","3","4","4","2","2","3","2","2","2","2","3","4","1","0","1","1","0","0","1","1","0","1","-1","0","1","0","1","4","3","2","4","3","2","4","3","2","3","1","林","","","","","","","","","","","","","","","","","","","","","","","","","","","","","","feedback_test","","","","","","","","","",""
"701","","f","psychophysics","169","610578","0.0-7.0-0.0-4.0-0.0-0.31","3","3","3","3","3","3","3","3","3","3","3","4","4","3","4","4","3","3","4","4","2","2","3","2","2","2","2","3","4","1","0","1","1","0","0","1","1","0","1","-1","0","1","0","1","4","3","2","4","3","2","4","3","2","3","1","林","","","","nonmatch","","","","","","","","","","","","","","key","f","16.65294059405984","640","356","j","false","match","img/square.png","方形","方形","ALT1","formal_ALT1_1","","","","","","","","","",""
"null","<span style='color:red; font-size: 70px;'>错误! </span>","null","html-keyboard-response","170","611078","0.0-7.0-0.0-4.0-0.0-1.31","3","3","3","3","3","3","3","3","3","3","3","4","4","3","4","4","3","3","4","4","2","2","3","2","2","2","2","3","4","1","0","1","1","0","0","1","1","0","1","-1","0","1","0","1","4","3","2","4","3","2","4","3","2","3","1","林","","","","","","","","","","","","","","","","","","","","","","","","","","","","","","feedback_test","","","","","","","","","",""
"686","","j","psychophysics","171","612766","0.0-7.0-0.0-4.0-0.0-0.32","3","3","3","3","3","3","3","3","3","3","3","4","4","3","4","4","3","3","4","4","2","2","3","2","2","2","2","3","4","1","0","1","1","0","0","1","1","0","1","-1","0","1","0","1","4","3","2","4","3","2","4","3","2","3","1","林","","","","match","","","","","","","","","","","","","","key","j","16.652569999999834","640","356","j","true","match","img/ellipse.png","椭圆","椭圆","ALT1","formal_ALT1_1","","","","","","","","","",""
"null","<span style='color:GreenYellow; font-size: 70px;'>正确! </span>","null","html-keyboard-response","172","613268","0.0-7.0-0.0-4.0-0.0-1.32","3","3","3","3","3","3","3","3","3","3","3","4","4","3","4","4","3","3","4","4","2","2","3","2","2","2","2","3","4","1","0","1","1","0","0","1","1","0","1","-1","0","1","0","1","4","3","2","4","3","2","4","3","2","3","1","林","","","","","","","","","","","","","","","","","","","","","","","","","","","","","","feedback_test","","","","","","","","","",""
"700","","f","psychophysics","173","614969","0.0-7.0-0.0-4.0-0.0-0.33","3","3","3","3","3","3","3","3","3","3","3","4","4","3","4","4","3","3","4","4","2","2","3","2","2","2","2","3","4","1","0","1","1","0","0","1","1","0","1","-1","0","1","0","1","4","3","2","4","3","2","4","3","2","3","1","林","","","","nonmatch","","","","","","","","","","","","","","key","f","16.652900990099866","640","356","f","true","nonmatch","img/pentagon.png","方形","五边","ALT1","formal_ALT1_1","","","","","","","","","",""
"null","<span style='color:GreenYellow; font-size: 70px;'>正确! </span>","null","html-keyboard-response","174","615470","0.0-7.0-0.0-4.0-0.0-1.33","3","3","3","3","3","3","3","3","3","3","3","4","4","3","4","4","3","3","4","4","2","2","3","2","2","2","2","3","4","1","0","1","1","0","0","1","1","0","1","-1","0","1","0","1","4","3","2","4","3","2","4","3","2","3","1","林","","","","","","","","","","","","","","","","","","","","","","","","","","","","","","feedback_test","","","","","","","","","",""
"651","","j","psychophysics","175","617122","0.0-7.0-0.0-4.0-0.0-0.34","3","3","3","3","3","3","3","3","3","3","3","4","4","3","4","4","3","3","4","4","2","2","3","2","2","2","2","3","4","1","0","1","1","0","0","1","1","0","1","-1","0","1","0","1","4","3","2","4","3","2","4","3","2","3","1","林","","","","match","","","","","","","","","","","","","","key","j","16.652622448980132","640","356","f","false","nonmatch","img/square.png","三角","方形","ALT1","formal_ALT1_1","","","","","","","","","",""
"null","<span style='color:red; font-size: 70px;'>错误! </span>","null","html-keyboard-response","176","617624","0.0-7.0-0.0-4.0-0.0-1.34","3","3","3","3","3","3","3","3","3","3","3","4","4","3","4","4","3","3","4","4","2","2","3","2","2","2","2","3","4","1","0","1","1","0","0","1","1","0","1","-1","0","1","0","1","4","3","2","4","3","2","4","3","2","3","1","林","","","","","","","","","","","","","","","","","","","","","","","","","","","","","","feedback_test","","","","","","","","","",""
"617","","j","psychophysics","177","619242","0.0-7.0-0.0-4.0-0.0-0.35","3","3","3","3","3","3","3","3","3","3","3","4","4","3","4","4","3","3","4","4","2","2","3","2","2","2","2","3","4","1","0","1","1","0","0","1","1","0","1","-1","0","1","0","1","4","3","2","4","3","2","4","3","2","3","1","林","","","","match","","","","","","","","","","","","","","key","j","16.6529166666672","640","356","j","true","match","img/triangle.png","三角","三角","ALT1","formal_ALT1_1","","","","","","","","","",""
"null","<span style='color:GreenYellow; font-size: 70px;'>正确! </span>","null","html-keyboard-response","178","619743","0.0-7.0-0.0-4.0-0.0-1.35","3","3","3","3","3","3","3","3","3","3","3","4","4","3","4","4","3","3","4","4","2","2","3","2","2","2","2","3","4","1","0","1","1","0","0","1","1","0","1","-1","0","1","0","1","4","3","2","4","3","2","4","3","2","3","1","林","","","","","","","","","","","","","","","","","","","","","","","","","","","","","","feedback_test","","","","","","","","","",""
"724","","j","psychophysics","179","621467","0.0-7.0-0.0-4.0-0.0-0.36","3","3","3","3","3","3","3","3","3","3","3","4","4","3","4","4","3","3","4","4","2","2","3","2","2","2","2","3","4","1","0","1","1","0","0","1","1","0","1","-1","0","1","0","1","4","3","2","4","3","2","4","3","2","3","1","林","","","","match","","","","","","","","","","","","","","key","j","16.652921568627434","640","356","j","true","match","img/square.png","方形","方形","ALT1","formal_ALT1_1","","","","","","","","","",""
"null","<span style='color:GreenYellow; font-size: 70px;'>正确! </span>","null","html-keyboard-response","180","621969","0.0-7.0-0.0-4.0-0.0-1.36","3","3","3","3","3","3","3","3","3","3","3","4","4","3","4","4","3","3","4","4","2","2","3","2","2","2","2","3","4","1","0","1","1","0","0","1","1","0","1","-1","0","1","0","1","4","3","2","4","3","2","4","3","2","3","1","林","","","","","","","","","","","","","","","","","","","","","","","","","","","","","","feedback_test","","","","","","","","","",""
"585","","j","psychophysics","181","623556","0.0-7.0-0.0-4.0-0.0-0.37","3","3","3","3","3","3","3","3","3","3","3","4","4","3","4","4","3","3","4","4","2","2","3","2","2","2","2","3","4","1","0","1","1","0","0","1","1","0","1","-1","0","1","0","1","4","3","2","4","3","2","4","3","2","3","1","林","","","","match","","","","","","","","","","","","","","key","j","16.646414893617397","640","356","j","true","match","img/pentagon.png","五边","五边","ALT1","formal_ALT1_1","","","","","","","","","",""
"null","<span style='color:GreenYellow; font-size: 70px;'>正确! </span>","null","html-keyboard-response","182","624058","0.0-7.0-0.0-4.0-0.0-1.37","3","3","3","3","3","3","3","3","3","3","3","4","4","3","4","4","3","3","4","4","2","2","3","2","2","2","2","3","4","1","0","1","1","0","0","1","1","0","1","-1","0","1","0","1","4","3","2","4","3","2","4","3","2","3","1","林","","","","","","","","","","","","","","","","","","","","","","","","","","","","","","feedback_test","","","","","","","","","",""
"637","","f","psychophysics","183","625696","0.0-7.0-0.0-4.0-0.0-0.38","3","3","3","3","3","3","3","3","3","3","3","4","4","3","4","4","3","3","4","4","2","2","3","2","2","2","2","3","4","1","0","1","1","0","0","1","1","0","1","-1","0","1","0","1","4","3","2","4","3","2","4","3","2","3","1","林","","","","nonmatch","","","","","","","","","","","","","","key","f","16.653350515463917","640","356","f","true","nonmatch","img/triangle.png","椭圆","三角","ALT1","formal_ALT1_1","","","","","","","","","",""
"null","<span style='color:GreenYellow; font-size: 70px;'>正确! </span>","null","html-keyboard-response","184","626198","0.0-7.0-0.0-4.0-0.0-1.38","3","3","3","3","3","3","3","3","3","3","3","4","4","3","4","4","3","3","4","4","2","2","3","2","2","2","2","3","4","1","0","1","1","0","0","1","1","0","1","-1","0","1","0","1","4","3","2","4","3","2","4","3","2","3","1","林","","","","","","","","","","","","","","","","","","","","","","","","","","","","","","feedback_test","","","","","","","","","",""
"932","","f","psychophysics","185","628131","0.0-7.0-0.0-4.0-0.0-0.39","3","3","3","3","3","3","3","3","3","3","3","4","4","3","4","4","3","3","4","4","2","2","3","2","2","2","2","3","4","1","0","1","1","0","0","1","1","0","1","-1","0","1","0","1","4","3","2","4","3","2","4","3","2","3","1","林","","","","nonmatch","","","","","","","","","","","","","","key","f","16.649719298246374","640","356","f","true","nonmatch","img/triangle.png","方形","三角","ALT1","formal_ALT1_1","","","","","","","","","",""
"null","<span style='color:GreenYellow; font-size: 70px;'>正确! </span>","null","html-keyboard-response","186","628631","0.0-7.0-0.0-4.0-0.0-1.39","3","3","3","3","3","3","3","3","3","3","3","4","4","3","4","4","3","3","4","4","2","2","3","2","2","2","2","3","4","1","0","1","1","0","0","1","1","0","1","-1","0","1","0","1","4","3","2","4","3","2","4","3","2","3","1","林","","","","","","","","","","","","","","","","","","","","","","","","","","","","","","feedback_test","","","","","","","","","",""
"490","","f","psychophysics","187","630124","0.0-7.0-0.0-4.0-0.0-0.40","3","3","3","3","3","3","3","3","3","3","3","4","4","3","4","4","3","3","4","4","2","2","3","2","2","2","2","3","4","1","0","1","1","0","0","1","1","0","1","-1","0","1","0","1","4","3","2","4","3","2","4","3","2","3","1","林","","","","nonmatch","","","","","","","","","","","","","","key","f","16.652704545454153","640","356","j","false","match","img/triangle.png","三角","三角","ALT1","formal_ALT1_1","","","","","","","","","",""
"null","<span style='color:red; font-size: 70px;'>错误! </span>","null","html-keyboard-response","188","630625","0.0-7.0-0.0-4.0-0.0-1.40","3","3","3","3","3","3","3","3","3","3","3","4","4","3","4","4","3","3","4","4","2","2","3","2","2","2","2","3","4","1","0","1","1","0","0","1","1","0","1","-1","0","1","0","1","4","3","2","4","3","2","4","3","2","3","1","林","","","","","","","","","","","","","","","","","","","","","","","","","","","","","","feedback_test","","","","","","","","","",""
"634","","f","psychophysics","189","632259","0.0-7.0-0.0-4.0-0.0-0.41","3","3","3","3","3","3","3","3","3","3","3","4","4","3","4","4","3","3","4","4","2","2","3","2","2","2","2","3","4","1","0","1","1","0","0","1","1","0","1","-1","0","1","0","1","4","3","2","4","3","2","4","3","2","3","1","林","","","","nonmatch","","","","","","","","","","","","","","key","f","16.653216494844997","640","356","f","true","nonmatch","img/pentagon.png","三角","五边","ALT1","formal_ALT1_1","","","","","","","","","",""
"null","<span style='color:GreenYellow; font-size: 70px;'>正确! </span>","null","html-keyboard-response","190","632760","0.0-7.0-0.0-4.0-0.0-1.41","3","3","3","3","3","3","3","3","3","3","3","4","4","3","4","4","3","3","4","4","2","2","3","2","2","2","2","3","4","1","0","1","1","0","0","1","1","0","1","-1","0","1","0","1","4","3","2","4","3","2","4","3","2","3","1","林","","","","","","","","","","","","","","","","","","","","","","","","","","","","","","feedback_test","","","","","","","","","",""
"598","","f","psychophysics","191","634360","0.0-7.0-0.0-4.0-0.0-0.42","3","3","3","3","3","3","3","3","3","3","3","4","4","3","4","4","3","3","4","4","2","2","3","2","2","2","2","3","4","1","0","1","1","0","0","1","1","0","1","-1","0","1","0","1","4","3","2","4","3","2","4","3","2","3","1","林","","","","nonmatch","","","","","","","","","","","","","","key","f","16.64863157894732","640","356","j","false","match","img/square.png","方形","方形","ALT1","formal_ALT1_1","","","","","","","","","",""
"null","<span style='color:red; font-size: 70px;'>错误! </span>","null","html-keyboard-response","192","634862","0.0-7.0-0.0-4.0-0.0-1.42","3","3","3","3","3","3","3","3","3","3","3","4","4","3","4","4","3","3","4","4","2","2","3","2","2","2","2","3","4","1","0","1","1","0","0","1","1","0","1","-1","0","1","0","1","4","3","2","4","3","2","4","3","2","3","1","林","","","","","","","","","","","","","","","","","","","","","","","","","","","","","","feedback_test","","","","","","","","","",""
"615","","f","psychophysics","193","636478","0.0-7.0-0.0-4.0-0.0-0.43","3","3","3","3","3","3","3","3","3","3","3","4","4","3","4","4","3","3","4","4","2","2","3","2","2","2","2","3","4","1","0","1","1","0","0","1","1","0","1","-1","0","1","0","1","4","3","2","4","3","2","4","3","2","3","1","林","","","","nonmatch","","","","","","","","","","","","","","key","f","16.652552083332314","640","356","j","false","match","img/pentagon.png","五边","五边","ALT1","formal_ALT1_1","","","","","","","","","",""
