"rt","stimulus","response","trial_type","trial_index","time_elapsed","internal_node_id","ses_1","ses_2","ses_3","ses_4","ses_5","ses_6","ses_7","ses_8","ses_9","ses_10","coreself_1","coreself_2","coreself_3","coreself_4","coreself_5","coreself_6","coreself_7","coreself_8","coreself_9","coreself_10","SGPS_1","SGPS_2","SGPS_3","SGPS_4","SGPS_5","SGPS_6","SGPS_7","SGPS_8","SGPS_9","NPI1","NPI2","NPI3","NPI4","NPI5","NPI6","NPI7","NPI8","NPI9","NPI10","NPI11","NPI12","NPI13","NPI14","NPI15","hsns_1","hsns_2","hsns_3","hsns_4","hsns_5","hsns_6","hsns_7","hsns_8","hsns_9","hsns_10","subj_idx","friend_name","value","success","user_agent","responses","item_order","radio_event_ids","radio_event_times","key_event_times","mouse_event_times","straightlining","zigzagging","honeypot","timeout","failed_images","failed_audio","failed_video","view_history","response_type","key_press","avg_frame_time","center_x","center_y","correct_response","correct","identity","Image","word","condition","task_id","screen_id","time_stamp","version_attrib2","version_target2","IAT","RT","varname","summary","version_attrib","version_target","question_order"
"6658","
   <p><div style = ""color: white;font-size:25px;"">您好，欢迎参加本次实验。</div> </p>
   <p><div style = ""color: white;font-size:25px;"">为充分保障您的权利，请确保您已经知晓并同意《参与实验同意书》以及《数据公开知情同意书》。</div></p>
   <p><div style = ""color: white;font-size:25px;"">如果您未见过上述内容，请咨询实验员。</div></p>
   <p><div style = ""color: white;font-size:25px;"">如果您选择继续实验，则表示您已经清楚两份知情同意书的内容并同意。</div></p>
   <p> <div style = ""color: green;font-size:25px;""><按空格键至下页></div> </p>
   "," ","html-keyboard-response","0","6660","0.0-0.0","4","4","4","2","3","3","3","4","4","4","3","5","2","2","3","4","4","3","3","5","2","2","3","4","4","4","2","1","2","1","1","0","1","0","1","0","1","0","1","0","0","1","0","1","3","2","2","2","2","5","3","2","1","1","6","乔","","","","","","","","","","","","","","","","","","","","","","","","","","","","","","","","","","","","","","","",""
"","","","call-function","1","6661","0.0-1.0-0.0","4","4","4","2","3","3","3","4","4","4","3","5","2","2","3","4","4","3","3","5","2","2","3","4","4","4","2","1","2","1","1","0","1","0","1","0","1","0","1","0","0","1","0","1","3","2","2","2","2","5","3","2","1","1","6","乔","","","","","","","","","","","","","","","","","","","","","","","","","","","","","","","","","","","","","","","",""
"18678","","{""friend_name"":""乔"",""subj_idx"":""6""}","survey-html-form","2","25340","0.0-1.0-1.0","4","4","4","2","3","3","3","4","4","4","3","5","2","2","3","4","4","3","3","5","2","2","3","4","4","4","2","1","2","1","1","0","1","0","1","0","1","0","1","0","0","1","0","1","3","2","2","2","2","5","3","2","1","1","6","乔","","","","","","","","","","","","","","","","","","","","","","","","","","","","","","","","","","","","","","","",""
"","","","fullscreen","3","31586","0.0-2.0","4","4","4","2","3","3","3","4","4","4","3","5","2","2","3","4","4","3","3","5","2","2","3","4","4","4","2","1","2","1","1","0","1","0","1","0","1","0","1","0","0","1","0","1","3","2","2","2","2","5","3","2","1","1","6","乔","","true","{}","","","","","","","","","","","","","","","","","","","","","","","","","","","","","","","","","","","","",""
"99926.10000000149","","{""Q01"":""4"",""Q02"":""4"",""Q03"":""4"",""Q04"":""2"",""Q05"":""3"",""Q06"":""3"",""Q07"":""3"",""Q08"":""4"",""Q09"":""4"",""Q10"":""4""}","survey-template","4","131517","0.0-3.0","4","4","4","2","3","3","3","4","4","4","3","5","2","2","3","4","4","3","3","5","2","2","3","4","4","4","2","1","2","1","1","0","1","0","1","0","1","0","1","0","0","1","0","1","3","2","2","2","2","5","3","2","1","1","6","乔","","","","{""Q01"":""4"",""Q02"":""4"",""Q03"":""4"",""Q04"":""2"",""Q05"":""3"",""Q06"":""3"",""Q07"":""3"",""Q08"":""4"",""Q09"":""4"",""Q10"":""4""}","[0,1,2,3,4,5,6,7,8,9]","[""Q01"",""Q02"",""Q03"",""Q04"",""Q05"",""Q06"",""Q07"",""Q08"",""Q09"",""Q10""]","[34041.20000000298,37485,43209,52005.20000000298,58831.39999999851,67045.39999999851,72143.20000000298,90202,96045.10000000149,98621.79999999702]","[]","[2808.2999999970198,17413.20000000298,30669.60000000149,31375.70000000298,34041.20000000298,37485,43209,52005.20000000298,58831.39999999851,67045.39999999851,72143.20000000298,90202,96045.10000000149,98621.79999999702,99925.10000000149]","0.4","0.3333333333333333","0","","","","","","","","","","","","","","","","","","","","","","","","","","","",""
"106279.5","","{""Q01"":""3"",""Q02"":""5"",""Q03"":""2"",""Q04"":""2"",""Q05"":""3"",""Q06"":""4"",""Q07"":""4"",""Q08"":""3"",""Q09"":""3"",""Q10"":""5""}","survey-template","5","237801","0.0-4.0","4","4","4","2","3","3","3","4","4","4","3","5","2","2","3","4","4","3","3","5","2","2","3","4","4","4","2","1","2","1","1","0","1","0","1","0","1","0","1","0","0","1","0","1","3","2","2","2","2","5","3","2","1","1","6","乔","","","","{""Q01"":""3"",""Q02"":""5"",""Q03"":""2"",""Q04"":""2"",""Q05"":""3"",""Q06"":""4"",""Q07"":""4"",""Q08"":""3"",""Q09"":""3"",""Q10"":""5""}","[0,1,2,3,4,5,6,7,8,9]","[""Q01"",""Q02"",""Q03"",""Q04"",""Q05"",""Q06"",""Q07"",""Q07"",""Q07"",""Q09"",""Q08"",""Q10""]","[14587.30000000447,19202.89999999851,30531,38387.10000000149,44029.30000000447,47447.20000000298,52479.30000000447,66554.70000000298,74899.70000000298,97955,102083.10000000149,104867]","[]","[14587.30000000447,19202.89999999851,25739,30531,38387.10000000149,44029.30000000447,47447.20000000298,52479.30000000447,66554.70000000298,74899.70000000298,97955,102083.10000000149,104867,106278.30000000447]","0.4","0.3333333333333333","0","","","","","","","","","","","","","","","","","","","","","","","","","","","",""
"","","","preload","6","238083","0.0-5.0","4","4","4","2","3","3","3","4","4","4","3","5","2","2","3","4","4","3","3","5","2","2","3","4","4","4","2","1","2","1","1","0","1","0","1","0","1","0","1","0","0","1","0","1","3","2","2","2","2","5","3","2","1","1","6","乔","","true","","","","","","","","","","","false","[]","[]","[]","","","","","","","","","","","","","","","","","","","","","","","",""
"17978","","","instructions","7","256062","0.0-6.0","4","4","4","2","3","3","3","4","4","4","3","5","2","2","3","4","4","3","3","5","2","2","3","4","4","4","2","1","2","1","1","0","1","0","1","0","1","0","1","0","0","1","0","1","3","2","2","2","2","5","3","2","1","1","6","乔","","","","","","","","","","","","","","","","","[{""page_index"":0,""viewing_time"":17978}]","","","","","","","","","","","","","","","","","","","","","","",""
"39173","","","instructions","8","295236","0.0-7.0-0.0-0.0","4","4","4","2","3","3","3","4","4","4","3","5","2","2","3","4","4","3","3","5","2","2","3","4","4","4","2","1","2","1","1","0","1","0","1","0","1","0","1","0","0","1","0","1","3","2","2","2","2","5","3","2","1","1","6","乔","","","","","","","","","","","","","","","","","[{""page_index"":0,""viewing_time"":26248},{""page_index"":1,""viewing_time"":9965},{""page_index"":2,""viewing_time"":2960}]","","","","","","","","","","","","","","","","","","","","","","",""
"null","","null","psychophysics","9","297440","0.0-7.0-0.0-1.0-0.0-0.0","4","4","4","2","3","3","3","4","4","4","3","5","2","2","3","4","4","3","3","5","2","2","3","4","4","4","2","1","2","1","1","0","1","0","1","0","1","0","1","0","0","1","0","1","3","2","2","2","2","5","3","2","1","1","6","乔","","","","null","","","","","","","","","","","","","","key","null","16.666427480916223","960","536","f","false","match","img/diamond.png","菱形","菱形","ALT1_1","prac_ALT1_1","","","","","","","","","",""
"null","<span class='add_' style='color:yellow; font-size: 70px;'> 太慢! </span>","null","html-keyboard-response","10","297943","0.0-7.0-0.0-1.0-0.0-1.0","4","4","4","2","3","3","3","4","4","4","3","5","2","2","3","4","4","3","3","5","2","2","3","4","4","4","2","1","2","1","1","0","1","0","1","0","1","0","1","0","0","1","0","1","3","2","2","2","2","5","3","2","1","1","6","乔","","","","","","","","","","","","","","","","","","","","","","","","","","","","","","feedback_test","","","","","","","","","",""
"null","","null","psychophysics","11","300146","0.0-7.0-0.0-1.0-0.0-0.1","4","4","4","2","3","3","3","4","4","4","3","5","2","2","3","4","4","3","3","5","2","2","3","4","4","4","2","1","2","1","1","0","1","0","1","0","1","0","1","0","0","1","0","1","3","2","2","2","2","5","3","2","1","1","6","乔","","","","null","","","","","","","","","","","","","","key","null","16.664381679389198","960","536","j","false","nonmatch","img/hexagon.png","梯形","六边","ALT1_1","prac_ALT1_1","","","","","","","","","",""
"null","<span class='add_' style='color:yellow; font-size: 70px;'> 太慢! </span>","null","html-keyboard-response","12","300647","0.0-7.0-0.0-1.0-0.0-1.1","4","4","4","2","3","3","3","4","4","4","3","5","2","2","3","4","4","3","3","5","2","2","3","4","4","4","2","1","2","1","1","0","1","0","1","0","1","0","1","0","0","1","0","1","3","2","2","2","2","5","3","2","1","1","6","乔","","","","","","","","","","","","","","","","","","","","","","","","","","","","","","feedback_test","","","","","","","","","",""
"null","","null","psychophysics","13","302851","0.0-7.0-0.0-1.0-0.0-0.2","4","4","4","2","3","3","3","4","4","4","3","5","2","2","3","4","4","3","3","5","2","2","3","4","4","4","2","1","2","1","1","0","1","0","1","0","1","0","1","0","0","1","0","1","3","2","2","2","2","5","3","2","1","1","6","乔","","","","null","","","","","","","","","","","","","","key","null","16.666374045801845","960","536","f","false","match","img/circle.png","圆形","圆形","ALT1_1","prac_ALT1_1","","","","","","","","","",""
"null","<span class='add_' style='color:yellow; font-size: 70px;'> 太慢! </span>","null","html-keyboard-response","14","303353","0.0-7.0-0.0-1.0-0.0-1.2","4","4","4","2","3","3","3","4","4","4","3","5","2","2","3","4","4","3","3","5","2","2","3","4","4","4","2","1","2","1","1","0","1","0","1","0","1","0","1","0","0","1","0","1","3","2","2","2","2","5","3","2","1","1","6","乔","","","","","","","","","","","","","","","","","","","","","","","","","","","","","","feedback_test","","","","","","","","","",""
"null","","null","psychophysics","15","305557","0.0-7.0-0.0-1.0-0.0-0.3","4","4","4","2","3","3","3","4","4","4","3","5","2","2","3","4","4","3","3","5","2","2","3","4","4","4","2","1","2","1","1","0","1","0","1","0","1","0","1","0","0","1","0","1","3","2","2","2","2","5","3","2","1","1","6","乔","","","","null","","","","","","","","","","","","","","key","null","16.666801526717297","960","536","f","false","match","img/hexagon.png","六边","六边","ALT1_1","prac_ALT1_1","","","","","","","","","",""
"null","<span class='add_' style='color:yellow; font-size: 70px;'> 太慢! </span>","null","html-keyboard-response","16","306061","0.0-7.0-0.0-1.0-0.0-1.3","4","4","4","2","3","3","3","4","4","4","3","5","2","2","3","4","4","3","3","5","2","2","3","4","4","4","2","1","2","1","1","0","1","0","1","0","1","0","1","0","0","1","0","1","3","2","2","2","2","5","3","2","1","1","6","乔","","","","","","","","","","","","","","","","","","","","","","","","","","","","","","feedback_test","","","","","","","","","",""
"null","","null","psychophysics","17","308265","0.0-7.0-0.0-1.0-0.0-0.4","4","4","4","2","3","3","3","4","4","4","3","5","2","2","3","4","4","3","3","5","2","2","3","4","4","4","2","1","2","1","1","0","1","0","1","0","1","0","1","0","0","1","0","1","3","2","2","2","2","5","3","2","1","1","6","乔","","","","null","","","","","","","","","","","","","","key","null","16.66668702290084","960","536","f","false","match","img/circle.png","圆形","圆形","ALT1_1","prac_ALT1_1","","","","","","","","","",""
"null","<span class='add_' style='color:yellow; font-size: 70px;'> 太慢! </span>","null","html-keyboard-response","18","308767","0.0-7.0-0.0-1.0-0.0-1.4","4","4","4","2","3","3","3","4","4","4","3","5","2","2","3","4","4","3","3","5","2","2","3","4","4","4","2","1","2","1","1","0","1","0","1","0","1","0","1","0","0","1","0","1","3","2","2","2","2","5","3","2","1","1","6","乔","","","","","","","","","","","","","","","","","","","","","","","","","","","","","","feedback_test","","","","","","","","","",""
"null","","null","psychophysics","19","310971","0.0-7.0-0.0-1.0-0.0-0.5","4","4","4","2","3","3","3","4","4","4","3","5","2","2","3","4","4","3","3","5","2","2","3","4","4","4","2","1","2","1","1","0","1","0","1","0","1","0","1","0","0","1","0","1","3","2","2","2","2","5","3","2","1","1","6","乔","","","","null","","","","","","","","","","","","","","key","null","16.66733587786239","960","536","f","false","match","img/diamond.png","菱形","菱形","ALT1_1","prac_ALT1_1","","","","","","","","","",""
"null","<span class='add_' style='color:yellow; font-size: 70px;'> 太慢! </span>","null","html-keyboard-response","20","311475","0.0-7.0-0.0-1.0-0.0-1.5","4","4","4","2","3","3","3","4","4","4","3","5","2","2","3","4","4","3","3","5","2","2","3","4","4","4","2","1","2","1","1","0","1","0","1","0","1","0","1","0","0","1","0","1","3","2","2","2","2","5","3","2","1","1","6","乔","","","","","","","","","","","","","","","","","","","","","","","","","","","","","","feedback_test","","","","","","","","","",""
"null","","null","psychophysics","21","313677","0.0-7.0-0.0-1.0-0.0-0.6","4","4","4","2","3","3","3","4","4","4","3","5","2","2","3","4","4","3","3","5","2","2","3","4","4","4","2","1","2","1","1","0","1","0","1","0","1","0","1","0","0","1","0","1","3","2","2","2","2","5","3","2","1","1","6","乔","","","","null","","","","","","","","","","","","","","key","null","16.6669160305342","960","536","f","false","match","img/circle.png","圆形","圆形","ALT1_1","prac_ALT1_1","","","","","","","","","",""
"null","<span class='add_' style='color:yellow; font-size: 70px;'> 太慢! </span>","null","html-keyboard-response","22","314178","0.0-7.0-0.0-1.0-0.0-1.6","4","4","4","2","3","3","3","4","4","4","3","5","2","2","3","4","4","3","3","5","2","2","3","4","4","4","2","1","2","1","1","0","1","0","1","0","1","0","1","0","0","1","0","1","3","2","2","2","2","5","3","2","1","1","6","乔","","","","","","","","","","","","","","","","","","","","","","","","","","","","","","feedback_test","","","","","","","","","",""
"null","","null","psychophysics","23","316381","0.0-7.0-0.0-1.0-0.0-0.7","4","4","4","2","3","3","3","4","4","4","3","5","2","2","3","4","4","3","3","5","2","2","3","4","4","4","2","1","2","1","1","0","1","0","1","0","1","0","1","0","0","1","0","1","3","2","2","2","2","5","3","2","1","1","6","乔","","","","null","","","","","","","","","","","","","","key","null","16.66718320610652","960","536","f","false","match","img/hexagon.png","六边","六边","ALT1_1","prac_ALT1_1","","","","","","","","","",""
"null","<span class='add_' style='color:yellow; font-size: 70px;'> 太慢! </span>","null","html-keyboard-response","24","316884","0.0-7.0-0.0-1.0-0.0-1.7","4","4","4","2","3","3","3","4","4","4","3","5","2","2","3","4","4","3","3","5","2","2","3","4","4","4","2","1","2","1","1","0","1","0","1","0","1","0","1","0","0","1","0","1","3","2","2","2","2","5","3","2","1","1","6","乔","","","","","","","","","","","","","","","","","","","","","","","","","","","","","","feedback_test","","","","","","","","","",""
"null","","null","psychophysics","25","319087","0.0-7.0-0.0-1.0-0.0-0.8","4","4","4","2","3","3","3","4","4","4","3","5","2","2","3","4","4","3","3","5","2","2","3","4","4","4","2","1","2","1","1","0","1","0","1","0","1","0","1","0","0","1","0","1","3","2","2","2","2","5","3","2","1","1","6","乔","","","","null","","","","","","","","","","","","","","key","null","16.665580152672135","960","536","j","false","nonmatch","img/circle.png","菱形","圆形","ALT1_1","prac_ALT1_1","","","","","","","","","",""
"null","<span class='add_' style='color:yellow; font-size: 70px;'> 太慢! </span>","null","html-keyboard-response","26","319588","0.0-7.0-0.0-1.0-0.0-1.8","4","4","4","2","3","3","3","4","4","4","3","5","2","2","3","4","4","3","3","5","2","2","3","4","4","4","2","1","2","1","1","0","1","0","1","0","1","0","1","0","0","1","0","1","3","2","2","2","2","5","3","2","1","1","6","乔","","","","","","","","","","","","","","","","","","","","","","","","","","","","","","feedback_test","","","","","","","","","",""
"null","","null","psychophysics","27","321791","0.0-7.0-0.0-1.0-0.0-0.9","4","4","4","2","3","3","3","4","4","4","3","5","2","2","3","4","4","3","3","5","2","2","3","4","4","4","2","1","2","1","1","0","1","0","1","0","1","0","1","0","0","1","0","1","3","2","2","2","2","5","3","2","1","1","6","乔","","","","null","","","","","","","","","","","","","","key","null","16.65431297709899","960","536","j","false","nonmatch","img/trapezoid.png","圆形","梯形","ALT1_1","prac_ALT1_1","","","","","","","","","",""
"null","<span class='add_' style='color:yellow; font-size: 70px;'> 太慢! </span>","null","html-keyboard-response","28","322293","0.0-7.0-0.0-1.0-0.0-1.9","4","4","4","2","3","3","3","4","4","4","3","5","2","2","3","4","4","3","3","5","2","2","3","4","4","4","2","1","2","1","1","0","1","0","1","0","1","0","1","0","0","1","0","1","3","2","2","2","2","5","3","2","1","1","6","乔","","","","","","","","","","","","","","","","","","","","","","","","","","","","","","feedback_test","","","","","","","","","",""
"null","","null","psychophysics","29","324497","0.0-7.0-0.0-1.0-0.0-0.10","4","4","4","2","3","3","3","4","4","4","3","5","2","2","3","4","4","3","3","5","2","2","3","4","4","4","2","1","2","1","1","0","1","0","1","0","1","0","1","0","0","1","0","1","3","2","2","2","2","5","3","2","1","1","6","乔","","","","null","","","","","","","","","","","","","","key","null","16.666938931297757","960","536","f","false","match","img/trapezoid.png","梯形","梯形","ALT1_1","prac_ALT1_1","","","","","","","","","",""
"null","<span class='add_' style='color:yellow; font-size: 70px;'> 太慢! </span>","null","html-keyboard-response","30","324999","0.0-7.0-0.0-1.0-0.0-1.10","4","4","4","2","3","3","3","4","4","4","3","5","2","2","3","4","4","3","3","5","2","2","3","4","4","4","2","1","2","1","1","0","1","0","1","0","1","0","1","0","0","1","0","1","3","2","2","2","2","5","3","2","1","1","6","乔","","","","","","","","","","","","","","","","","","","","","","","","","","","","","","feedback_test","","","","","","","","","",""
"null","","null","psychophysics","31","327204","0.0-7.0-0.0-1.0-0.0-0.11","4","4","4","2","3","3","3","4","4","4","3","5","2","2","3","4","4","3","3","5","2","2","3","4","4","4","2","1","2","1","1","0","1","0","1","0","1","0","1","0","0","1","0","1","3","2","2","2","2","5","3","2","1","1","6","乔","","","","null","","","","","","","","","","","","","","key","null","16.667923664121858","960","536","f","false","match","img/trapezoid.png","梯形","梯形","ALT1_1","prac_ALT1_1","","","","","","","","","",""
"null","<span class='add_' style='color:yellow; font-size: 70px;'> 太慢! </span>","null","html-keyboard-response","32","327705","0.0-7.0-0.0-1.0-0.0-1.11","4","4","4","2","3","3","3","4","4","4","3","5","2","2","3","4","4","3","3","5","2","2","3","4","4","4","2","1","2","1","1","0","1","0","1","0","1","0","1","0","0","1","0","1","3","2","2","2","2","5","3","2","1","1","6","乔","","","","","","","","","","","","","","","","","","","","","","","","","","","","","","feedback_test","","","","","","","","","",""
"null","","null","psychophysics","33","329908","0.0-7.0-0.0-1.0-0.0-0.12","4","4","4","2","3","3","3","4","4","4","3","5","2","2","3","4","4","3","3","5","2","2","3","4","4","4","2","1","2","1","1","0","1","0","1","0","1","0","1","0","0","1","0","1","3","2","2","2","2","5","3","2","1","1","6","乔","","","","null","","","","","","","","","","","","","","key","null","16.654534351145085","960","536","f","false","match","img/trapezoid.png","梯形","梯形","ALT1_1","prac_ALT1_1","","","","","","","","","",""
"null","<span class='add_' style='color:yellow; font-size: 70px;'> 太慢! </span>","null","html-keyboard-response","34","330411","0.0-7.0-0.0-1.0-0.0-1.12","4","4","4","2","3","3","3","4","4","4","3","5","2","2","3","4","4","3","3","5","2","2","3","4","4","4","2","1","2","1","1","0","1","0","1","0","1","0","1","0","0","1","0","1","3","2","2","2","2","5","3","2","1","1","6","乔","","","","","","","","","","","","","","","","","","","","","","","","","","","","","","feedback_test","","","","","","","","","",""
"null","","null","psychophysics","35","332614","0.0-7.0-0.0-1.0-0.0-0.13","4","4","4","2","3","3","3","4","4","4","3","5","2","2","3","4","4","3","3","5","2","2","3","4","4","4","2","1","2","1","1","0","1","0","1","0","1","0","1","0","0","1","0","1","3","2","2","2","2","5","3","2","1","1","6","乔","","","","null","","","","","","","","","","","","","","key","null","16.666236641220944","960","536","j","false","nonmatch","img/diamond.png","圆形","菱形","ALT1_1","prac_ALT1_1","","","","","","","","","",""
"null","<span class='add_' style='color:yellow; font-size: 70px;'> 太慢! </span>","null","html-keyboard-response","36","333118","0.0-7.0-0.0-1.0-0.0-1.13","4","4","4","2","3","3","3","4","4","4","3","5","2","2","3","4","4","3","3","5","2","2","3","4","4","4","2","1","2","1","1","0","1","0","1","0","1","0","1","0","0","1","0","1","3","2","2","2","2","5","3","2","1","1","6","乔","","","","","","","","","","","","","","","","","","","","","","","","","","","","","","feedback_test","","","","","","","","","",""
"null","","null","psychophysics","37","335326","0.0-7.0-0.0-1.0-0.0-0.14","4","4","4","2","3","3","3","4","4","4","3","5","2","2","3","4","4","3","3","5","2","2","3","4","4","4","2","1","2","1","1","0","1","0","1","0","1","0","1","0","0","1","0","1","3","2","2","2","2","5","3","2","1","1","6","乔","","","","null","","","","","","","","","","","","","","key","null","16.663999999999977","960","536","j","false","nonmatch","img/hexagon.png","菱形","六边","ALT1_1","prac_ALT1_1","","","","","","","","","",""
"null","<span class='add_' style='color:yellow; font-size: 70px;'> 太慢! </span>","null","html-keyboard-response","38","335829","0.0-7.0-0.0-1.0-0.0-1.14","4","4","4","2","3","3","3","4","4","4","3","5","2","2","3","4","4","3","3","5","2","2","3","4","4","4","2","1","2","1","1","0","1","0","1","0","1","0","1","0","0","1","0","1","3","2","2","2","2","5","3","2","1","1","6","乔","","","","","","","","","","","","","","","","","","","","","","","","","","","","","","feedback_test","","","","","","","","","",""
"956","","j","psychophysics","39","337787","0.0-7.0-0.0-1.0-0.0-0.15","4","4","4","2","3","3","3","4","4","4","3","5","2","2","3","4","4","3","3","5","2","2","3","4","4","4","2","1","2","1","1","0","1","0","1","0","1","0","1","0","0","1","0","1","3","2","2","2","2","5","3","2","1","1","6","乔","","","","nonmatch","","","","","","","","","","","","","","key","j","16.666551724137488","960","536","j","true","nonmatch","img/diamond.png","六边","菱形","ALT1_1","prac_ALT1_1","","","","","","","","","",""
"null","<span style='color:GreenYellow; font-size: 70px;'>正确! </span>","null","html-keyboard-response","40","338289","0.0-7.0-0.0-1.0-0.0-1.15","4","4","4","2","3","3","3","4","4","4","3","5","2","2","3","4","4","3","3","5","2","2","3","4","4","4","2","1","2","1","1","0","1","0","1","0","1","0","1","0","0","1","0","1","3","2","2","2","2","5","3","2","1","1","6","乔","","","","","","","","","","","","","","","","","","","","","","","","","","","","","","feedback_test","","","","","","","","","",""
"956","","j","psychophysics","41","340246","0.0-7.0-0.0-1.0-0.0-0.16","4","4","4","2","3","3","3","4","4","4","3","5","2","2","3","4","4","3","3","5","2","2","3","4","4","4","2","1","2","1","1","0","1","0","1","0","1","0","1","0","0","1","0","1","3","2","2","2","2","5","3","2","1","1","6","乔","","","","nonmatch","","","","","","","","","","","","","","key","j","16.658318965517662","960","536","f","false","match","img/hexagon.png","六边","六边","ALT1_1","prac_ALT1_1","","","","","","","","","",""
"null","<span style='color:red; font-size: 70px;'>错误! </span>","null","html-keyboard-response","42","340747","0.0-7.0-0.0-1.0-0.0-1.16","4","4","4","2","3","3","3","4","4","4","3","5","2","2","3","4","4","3","3","5","2","2","3","4","4","4","2","1","2","1","1","0","1","0","1","0","1","0","1","0","0","1","0","1","3","2","2","2","2","5","3","2","1","1","6","乔","","","","","","","","","","","","","","","","","","","","","","","","","","","","","","feedback_test","","","","","","","","","",""
"null","","null","psychophysics","43","342950","0.0-7.0-0.0-1.0-0.0-0.17","4","4","4","2","3","3","3","4","4","4","3","5","2","2","3","4","4","3","3","5","2","2","3","4","4","4","2","1","2","1","1","0","1","0","1","0","1","0","1","0","0","1","0","1","3","2","2","2","2","5","3","2","1","1","6","乔","","","","null","","","","","","","","","","","","","","key","null","16.66650381679371","960","536","j","false","nonmatch","img/hexagon.png","圆形","六边","ALT1_1","prac_ALT1_1","","","","","","","","","",""
"null","<span class='add_' style='color:yellow; font-size: 70px;'> 太慢! </span>","null","html-keyboard-response","44","343452","0.0-7.0-0.0-1.0-0.0-1.17","4","4","4","2","3","3","3","4","4","4","3","5","2","2","3","4","4","3","3","5","2","2","3","4","4","4","2","1","2","1","1","0","1","0","1","0","1","0","1","0","0","1","0","1","3","2","2","2","2","5","3","2","1","1","6","乔","","","","","","","","","","","","","","","","","","","","","","","","","","","","","","feedback_test","","","","","","","","","",""
"null","","null","psychophysics","45","345656","0.0-7.0-0.0-1.0-0.0-0.18","4","4","4","2","3","3","3","4","4","4","3","5","2","2","3","4","4","3","3","5","2","2","3","4","4","4","2","1","2","1","1","0","1","0","1","0","1","0","1","0","0","1","0","1","3","2","2","2","2","5","3","2","1","1","6","乔","","","","null","","","","","","","","","","","","","","key","null","16.670572519083755","960","536","j","false","nonmatch","img/circle.png","梯形","圆形","ALT1_1","prac_ALT1_1","","","","","","","","","",""
"null","<span class='add_' style='color:yellow; font-size: 70px;'> 太慢! </span>","null","html-keyboard-response","46","346158","0.0-7.0-0.0-1.0-0.0-1.18","4","4","4","2","3","3","3","4","4","4","3","5","2","2","3","4","4","3","3","5","2","2","3","4","4","4","2","1","2","1","1","0","1","0","1","0","1","0","1","0","0","1","0","1","3","2","2","2","2","5","3","2","1","1","6","乔","","","","","","","","","","","","","","","","","","","","","","","","","","","","","","feedback_test","","","","","","","","","",""
"null","","null","psychophysics","47","348361","0.0-7.0-0.0-1.0-0.0-0.19","4","4","4","2","3","3","3","4","4","4","3","5","2","2","3","4","4","3","3","5","2","2","3","4","4","4","2","1","2","1","1","0","1","0","1","0","1","0","1","0","0","1","0","1","3","2","2","2","2","5","3","2","1","1","6","乔","","","","null","","","","","","","","","","","","","","key","null","16.668694656488455","960","536","f","false","match","img/diamond.png","菱形","菱形","ALT1_1","prac_ALT1_1","","","","","","","","","",""
"null","<span class='add_' style='color:yellow; font-size: 70px;'> 太慢! </span>","null","html-keyboard-response","48","348863","0.0-7.0-0.0-1.0-0.0-1.19","4","4","4","2","3","3","3","4","4","4","3","5","2","2","3","4","4","3","3","5","2","2","3","4","4","4","2","1","2","1","1","0","1","0","1","0","1","0","1","0","0","1","0","1","3","2","2","2","2","5","3","2","1","1","6","乔","","","","","","","","","","","","","","","","","","","","","","","","","","","","","","feedback_test","","","","","","","","","",""
"454","","j","psychophysics","49","350319","0.0-7.0-0.0-1.0-0.0-0.20","4","4","4","2","3","3","3","4","4","4","3","5","2","2","3","4","4","3","3","5","2","2","3","4","4","4","2","1","2","1","1","0","1","0","1","0","1","0","1","0","0","1","0","1","3","2","2","2","2","5","3","2","1","1","6","乔","","","","nonmatch","","","","","","","","","","","","","","key","j","16.674290697674437","960","536","j","true","nonmatch","img/trapezoid.png","六边","梯形","ALT1_1","prac_ALT1_1","","","","","","","","","",""
"null","<span style='color:GreenYellow; font-size: 70px;'>正确! </span>","null","html-keyboard-response","50","350820","0.0-7.0-0.0-1.0-0.0-1.20","4","4","4","2","3","3","3","4","4","4","3","5","2","2","3","4","4","3","3","5","2","2","3","4","4","4","2","1","2","1","1","0","1","0","1","0","1","0","1","0","0","1","0","1","3","2","2","2","2","5","3","2","1","1","6","乔","","","","","","","","","","","","","","","","","","","","","","","","","","","","","","feedback_test","","","","","","","","","",""
"504","","f","psychophysics","51","352328","0.0-7.0-0.0-1.0-0.0-0.21","4","4","4","2","3","3","3","4","4","4","3","5","2","2","3","4","4","3","3","5","2","2","3","4","4","4","2","1","2","1","1","0","1","0","1","0","1","0","1","0","0","1","0","1","3","2","2","2","2","5","3","2","1","1","6","乔","","","","match","","","","","","","","","","","","","","key","f","16.670966666666533","960","536","j","false","nonmatch","img/circle.png","六边","圆形","ALT1_1","prac_ALT1_1","","","","","","","","","",""
"null","<span style='color:red; font-size: 70px;'>错误! </span>","null","html-keyboard-response","52","352830","0.0-7.0-0.0-1.0-0.0-1.21","4","4","4","2","3","3","3","4","4","4","3","5","2","2","3","4","4","3","3","5","2","2","3","4","4","4","2","1","2","1","1","0","1","0","1","0","1","0","1","0","0","1","0","1","3","2","2","2","2","5","3","2","1","1","6","乔","","","","","","","","","","","","","","","","","","","","","","","","","","","","","","feedback_test","","","","","","","","","",""
"826","","f","psychophysics","53","354657","0.0-7.0-0.0-1.0-0.0-0.22","4","4","4","2","3","3","3","4","4","4","3","5","2","2","3","4","4","3","3","5","2","2","3","4","4","4","2","1","2","1","1","0","1","0","1","0","1","0","1","0","0","1","0","1","3","2","2","2","2","5","3","2","1","1","6","乔","","","","match","","","","","","","","","","","","","","key","f","16.66924074074066","960","536","j","false","nonmatch","img/trapezoid.png","菱形","梯形","ALT1_1","prac_ALT1_1","","","","","","","","","",""
"null","<span style='color:red; font-size: 70px;'>错误! </span>","null","html-keyboard-response","54","355158","0.0-7.0-0.0-1.0-0.0-1.22","4","4","4","2","3","3","3","4","4","4","3","5","2","2","3","4","4","3","3","5","2","2","3","4","4","4","2","1","2","1","1","0","1","0","1","0","1","0","1","0","0","1","0","1","3","2","2","2","2","5","3","2","1","1","6","乔","","","","","","","","","","","","","","","","","","","","","","","","","","","","","","feedback_test","","","","","","","","","",""
"null","","null","psychophysics","55","357361","0.0-7.0-0.0-1.0-0.0-0.23","4","4","4","2","3","3","3","4","4","4","3","5","2","2","3","4","4","3","3","5","2","2","3","4","4","4","2","1","2","1","1","0","1","0","1","0","1","0","1","0","0","1","0","1","3","2","2","2","2","5","3","2","1","1","6","乔","","","","null","","","","","","","","","","","","","","key","null","16.66654961832083","960","536","j","false","nonmatch","img/diamond.png","梯形","菱形","ALT1_1","prac_ALT1_1","","","","","","","","","",""
"null","<span class='add_' style='color:yellow; font-size: 70px;'> 太慢! </span>","null","html-keyboard-response","56","357863","0.0-7.0-0.0-1.0-0.0-1.23","4","4","4","2","3","3","3","4","4","4","3","5","2","2","3","4","4","3","3","5","2","2","3","4","4","4","2","1","2","1","1","0","1","0","1","0","1","0","1","0","0","1","0","1","3","2","2","2","2","5","3","2","1","1","6","乔","","","","","","","","","","","","","","","","","","","","","","","","","","","","","","feedback_test","","","","","","","","","",""
"null","","null","psychophysics","57","360066","0.0-7.0-0.0-1.0-0.0-0.24","4","4","4","2","3","3","3","4","4","4","3","5","2","2","3","4","4","3","3","5","2","2","3","4","4","4","2","1","2","1","1","0","1","0","1","0","1","0","1","0","0","1","0","1","3","2","2","2","2","5","3","2","1","1","6","乔","","","","null","","","","","","","","","","","","","","key","null","16.67068702290066","960","536","j","false","nonmatch","img/circle.png","梯形","圆形","ALT1_1","prac_ALT1_1","","","","","","","","","",""
"null","<span class='add_' style='color:yellow; font-size: 70px;'> 太慢! </span>","null","html-keyboard-response","58","360568","0.0-7.0-0.0-1.0-0.0-1.24","4","4","4","2","3","3","3","4","4","4","3","5","2","2","3","4","4","3","3","5","2","2","3","4","4","4","2","1","2","1","1","0","1","0","1","0","1","0","1","0","0","1","0","1","3","2","2","2","2","5","3","2","1","1","6","乔","","","","","","","","","","","","","","","","","","","","","","","","","","","","","","feedback_test","","","","","","","","","",""
"null","","null","psychophysics","59","362771","0.0-7.0-0.0-1.0-0.0-0.25","4","4","4","2","3","3","3","4","4","4","3","5","2","2","3","4","4","3","3","5","2","2","3","4","4","4","2","1","2","1","1","0","1","0","1","0","1","0","1","0","0","1","0","1","3","2","2","2","2","5","3","2","1","1","6","乔","","","","null","","","","","","","","","","","","","","key","null","16.66618320610701","960","536","j","false","nonmatch","img/diamond.png","圆形","菱形","ALT1_1","prac_ALT1_1","","","","","","","","","",""
"null","<span class='add_' style='color:yellow; font-size: 70px;'> 太慢! </span>","null","html-keyboard-response","60","363273","0.0-7.0-0.0-1.0-0.0-1.25","4","4","4","2","3","3","3","4","4","4","3","5","2","2","3","4","4","3","3","5","2","2","3","4","4","4","2","1","2","1","1","0","1","0","1","0","1","0","1","0","0","1","0","1","3","2","2","2","2","5","3","2","1","1","6","乔","","","","","","","","","","","","","","","","","","","","","","","","","","","","","","feedback_test","","","","","","","","","",""
"1016","","j","psychophysics","61","365290","0.0-7.0-0.0-1.0-0.0-0.26","4","4","4","2","3","3","3","4","4","4","3","5","2","2","3","4","4","3","3","5","2","2","3","4","4","4","2","1","2","1","1","0","1","0","1","0","1","0","1","0","0","1","0","1","3","2","2","2","2","5","3","2","1","1","6","乔","","","","nonmatch","","","","","","","","","","","","","","key","j","16.666873949579895","960","536","f","false","match","img/circle.png","圆形","圆形","ALT1_1","prac_ALT1_1","","","","","","","","","",""
"null","<span style='color:red; font-size: 70px;'>错误! </span>","null","html-keyboard-response","62","365791","0.0-7.0-0.0-1.0-0.0-1.26","4","4","4","2","3","3","3","4","4","4","3","5","2","2","3","4","4","3","3","5","2","2","3","4","4","4","2","1","2","1","1","0","1","0","1","0","1","0","1","0","0","1","0","1","3","2","2","2","2","5","3","2","1","1","6","乔","","","","","","","","","","","","","","","","","","","","","","","","","","","","","","feedback_test","","","","","","","","","",""
"330","","f","psychophysics","63","367123","0.0-7.0-0.0-1.0-0.0-0.27","4","4","4","2","3","3","3","4","4","4","3","5","2","2","3","4","4","3","3","5","2","2","3","4","4","4","2","1","2","1","1","0","1","0","1","0","1","0","1","0","0","1","0","1","3","2","2","2","2","5","3","2","1","1","6","乔","","","","match","","","","","","","","","","","","","","key","f","16.665935897436263","960","536","j","false","nonmatch","img/hexagon.png","圆形","六边","ALT1_1","prac_ALT1_1","","","","","","","","","",""
"null","<span style='color:red; font-size: 70px;'>错误! </span>","null","html-keyboard-response","64","367624","0.0-7.0-0.0-1.0-0.0-1.27","4","4","4","2","3","3","3","4","4","4","3","5","2","2","3","4","4","3","3","5","2","2","3","4","4","4","2","1","2","1","1","0","1","0","1","0","1","0","1","0","0","1","0","1","3","2","2","2","2","5","3","2","1","1","6","乔","","","","","","","","","","","","","","","","","","","","","","","","","","","","","","feedback_test","","","","","","","","","",""
"557","","f","psychophysics","65","369184","0.0-7.0-0.0-1.0-0.0-0.28","4","4","4","2","3","3","3","4","4","4","3","5","2","2","3","4","4","3","3","5","2","2","3","4","4","4","2","1","2","1","1","0","1","0","1","0","1","0","1","0","0","1","0","1","3","2","2","2","2","5","3","2","1","1","6","乔","","","","match","","","","","","","","","","","","","","key","f","16.668815217390858","960","536","f","true","match","img/circle.png","圆形","圆形","ALT1_1","prac_ALT1_1","","","","","","","","","",""
"null","<span style='color:GreenYellow; font-size: 70px;'>正确! </span>","null","html-keyboard-response","66","369685","0.0-7.0-0.0-1.0-0.0-1.28","4","4","4","2","3","3","3","4","4","4","3","5","2","2","3","4","4","3","3","5","2","2","3","4","4","4","2","1","2","1","1","0","1","0","1","0","1","0","1","0","0","1","0","1","3","2","2","2","2","5","3","2","1","1","6","乔","","","","","","","","","","","","","","","","","","","","","","","","","","","","","","feedback_test","","","","","","","","","",""
"958","","j","psychophysics","67","371646","0.0-7.0-0.0-1.0-0.0-0.29","4","4","4","2","3","3","3","4","4","4","3","5","2","2","3","4","4","3","3","5","2","2","3","4","4","4","2","1","2","1","1","0","1","0","1","0","1","0","1","0","0","1","0","1","3","2","2","2","2","5","3","2","1","1","6","乔","","","","nonmatch","","","","","","","","","","","","","","key","j","16.66897435897402","960","536","f","false","match","img/trapezoid.png","梯形","梯形","ALT1_1","prac_ALT1_1","","","","","","","","","",""
"null","<span style='color:red; font-size: 70px;'>错误! </span>","null","html-keyboard-response","68","372149","0.0-7.0-0.0-1.0-0.0-1.29","4","4","4","2","3","3","3","4","4","4","3","5","2","2","3","4","4","3","3","5","2","2","3","4","4","4","2","1","2","1","1","0","1","0","1","0","1","0","1","0","0","1","0","1","3","2","2","2","2","5","3","2","1","1","6","乔","","","","","","","","","","","","","","","","","","","","","","","","","","","","","","feedback_test","","","","","","","","","",""
"365","","f","psychophysics","69","373523","0.0-7.0-0.0-1.0-0.0-0.30","4","4","4","2","3","3","3","4","4","4","3","5","2","2","3","4","4","3","3","5","2","2","3","4","4","4","2","1","2","1","1","0","1","0","1","0","1","0","1","0","0","1","0","1","3","2","2","2","2","5","3","2","1","1","6","乔","","","","match","","","","","","","","","","","","","","key","f","16.663283950617583","960","536","j","false","nonmatch","img/hexagon.png","梯形","六边","ALT1_1","prac_ALT1_1","","","","","","","","","",""
"null","<span style='color:red; font-size: 70px;'>错误! </span>","null","html-keyboard-response","70","374024","0.0-7.0-0.0-1.0-0.0-1.30","4","4","4","2","3","3","3","4","4","4","3","5","2","2","3","4","4","3","3","5","2","2","3","4","4","4","2","1","2","1","1","0","1","0","1","0","1","0","1","0","0","1","0","1","3","2","2","2","2","5","3","2","1","1","6","乔","","","","","","","","","","","","","","","","","","","","","","","","","","","","","","feedback_test","","","","","","","","","",""
"null","","null","psychophysics","71","376227","0.0-7.0-0.0-1.0-0.0-0.31","4","4","4","2","3","3","3","4","4","4","3","5","2","2","3","4","4","3","3","5","2","2","3","4","4","4","2","1","2","1","1","0","1","0","1","0","1","0","1","0","0","1","0","1","3","2","2","2","2","5","3","2","1","1","6","乔","","","","null","","","","","","","","","","","","","","key","null","16.668984732824335","960","536","f","false","match","img/trapezoid.png","梯形","梯形","ALT1_1","prac_ALT1_1","","","","","","","","","",""
"null","<span class='add_' style='color:yellow; font-size: 70px;'> 太慢! </span>","null","html-keyboard-response","72","376729","0.0-7.0-0.0-1.0-0.0-1.31","4","4","4","2","3","3","3","4","4","4","3","5","2","2","3","4","4","3","3","5","2","2","3","4","4","4","2","1","2","1","1","0","1","0","1","0","1","0","1","0","0","1","0","1","3","2","2","2","2","5","3","2","1","1","6","乔","","","","","","","","","","","","","","","","","","","","","","","","","","","","","","feedback_test","","","","","","","","","",""
"null","","null","psychophysics","73","378932","0.0-7.0-0.0-1.0-0.0-0.32","4","4","4","2","3","3","3","4","4","4","3","5","2","2","3","4","4","3","3","5","2","2","3","4","4","4","2","1","2","1","1","0","1","0","1","0","1","0","1","0","0","1","0","1","3","2","2","2","2","5","3","2","1","1","6","乔","","","","null","","","","","","","","","","","","","","key","null","16.66651145038186","960","536","j","false","nonmatch","img/circle.png","六边","圆形","ALT1_1","prac_ALT1_1","","","","","","","","","",""
"null","<span class='add_' style='color:yellow; font-size: 70px;'> 太慢! </span>","null","html-keyboard-response","74","379435","0.0-7.0-0.0-1.0-0.0-1.32","4","4","4","2","3","3","3","4","4","4","3","5","2","2","3","4","4","3","3","5","2","2","3","4","4","4","2","1","2","1","1","0","1","0","1","0","1","0","1","0","0","1","0","1","3","2","2","2","2","5","3","2","1","1","6","乔","","","","","","","","","","","","","","","","","","","","","","","","","","","","","","feedback_test","","","","","","","","","",""
"748","","f","psychophysics","75","381185","0.0-7.0-0.0-1.0-0.0-0.33","4","4","4","2","3","3","3","4","4","4","3","5","2","2","3","4","4","3","3","5","2","2","3","4","4","4","2","1","2","1","1","0","1","0","1","0","1","0","1","0","0","1","0","1","3","2","2","2","2","5","3","2","1","1","6","乔","","","","match","","","","","","","","","","","","","","key","f","16.66600000000024","960","536","j","false","nonmatch","img/trapezoid.png","六边","梯形","ALT1_1","prac_ALT1_1","","","","","","","","","",""
"null","<span style='color:red; font-size: 70px;'>错误! </span>","null","html-keyboard-response","76","381687","0.0-7.0-0.0-1.0-0.0-1.33","4","4","4","2","3","3","3","4","4","4","3","5","2","2","3","4","4","3","3","5","2","2","3","4","4","4","2","1","2","1","1","0","1","0","1","0","1","0","1","0","0","1","0","1","3","2","2","2","2","5","3","2","1","1","6","乔","","","","","","","","","","","","","","","","","","","","","","","","","","","","","","feedback_test","","","","","","","","","",""
"null","","null","psychophysics","77","383891","0.0-7.0-0.0-1.0-0.0-0.34","4","4","4","2","3","3","3","4","4","4","3","5","2","2","3","4","4","3","3","5","2","2","3","4","4","4","2","1","2","1","1","0","1","0","1","0","1","0","1","0","0","1","0","1","3","2","2","2","2","5","3","2","1","1","6","乔","","","","null","","","","","","","","","","","","","","key","null","16.666694656488545","960","536","f","false","match","img/diamond.png","菱形","菱形","ALT1_1","prac_ALT1_1","","","","","","","","","",""
"null","<span class='add_' style='color:yellow; font-size: 70px;'> 太慢! </span>","null","html-keyboard-response","78","384393","0.0-7.0-0.0-1.0-0.0-1.34","4","4","4","2","3","3","3","4","4","4","3","5","2","2","3","4","4","3","3","5","2","2","3","4","4","4","2","1","2","1","1","0","1","0","1","0","1","0","1","0","0","1","0","1","3","2","2","2","2","5","3","2","1","1","6","乔","","","","","","","","","","","","","","","","","","","","","","","","","","","","","","feedback_test","","","","","","","","","",""
"null","","null","psychophysics","79","386596","0.0-7.0-0.0-1.0-0.0-0.35","4","4","4","2","3","3","3","4","4","4","3","5","2","2","3","4","4","3","3","5","2","2","3","4","4","4","2","1","2","1","1","0","1","0","1","0","1","0","1","0","0","1","0","1","3","2","2","2","2","5","3","2","1","1","6","乔","","","","null","","","","","","","","","","","","","","key","null","16.66861832061052","960","536","f","false","match","img/hexagon.png","六边","六边","ALT1_1","prac_ALT1_1","","","","","","","","","",""
"null","<span class='add_' style='color:yellow; font-size: 70px;'> 太慢! </span>","null","html-keyboard-response","80","387100","0.0-7.0-0.0-1.0-0.0-1.35","4","4","4","2","3","3","3","4","4","4","3","5","2","2","3","4","4","3","3","5","2","2","3","4","4","4","2","1","2","1","1","0","1","0","1","0","1","0","1","0","0","1","0","1","3","2","2","2","2","5","3","2","1","1","6","乔","","","","","","","","","","","","","","","","","","","","","","","","","","","","","","feedback_test","","","","","","","","","",""
"1150","","f","psychophysics","81","389252","0.0-7.0-0.0-1.0-0.0-0.36","4","4","4","2","3","3","3","4","4","4","3","5","2","2","3","4","4","3","3","5","2","2","3","4","4","4","2","1","2","1","1","0","1","0","1","0","1","0","1","0","0","1","0","1","3","2","2","2","2","5","3","2","1","1","6","乔","","","","match","","","","","","","","","","","","","","key","f","16.664445312499993","960","536","f","true","match","img/diamond.png","菱形","菱形","ALT1_1","prac_ALT1_1","","","","","","","","","",""
"null","<span style='color:GreenYellow; font-size: 70px;'>正确! </span>","null","html-keyboard-response","82","389752","0.0-7.0-0.0-1.0-0.0-1.36","4","4","4","2","3","3","3","4","4","4","3","5","2","2","3","4","4","3","3","5","2","2","3","4","4","4","2","1","2","1","1","0","1","0","1","0","1","0","1","0","0","1","0","1","3","2","2","2","2","5","3","2","1","1","6","乔","","","","","","","","","","","","","","","","","","","","","","","","","","","","","","feedback_test","","","","","","","","","",""
"1149","","j","psychophysics","83","391903","0.0-7.0-0.0-1.0-0.0-0.37","4","4","4","2","3","3","3","4","4","4","3","5","2","2","3","4","4","3","3","5","2","2","3","4","4","4","2","1","2","1","1","0","1","0","1","0","1","0","1","0","0","1","0","1","3","2","2","2","2","5","3","2","1","1","6","乔","","","","nonmatch","","","","","","","","","","","","","","key","j","16.667679687499913","960","536","j","true","nonmatch","img/trapezoid.png","菱形","梯形","ALT1_1","prac_ALT1_1","","","","","","","","","",""
"null","<span style='color:GreenYellow; font-size: 70px;'>正确! </span>","null","html-keyboard-response","84","392404","0.0-7.0-0.0-1.0-0.0-1.37","4","4","4","2","3","3","3","4","4","4","3","5","2","2","3","4","4","3","3","5","2","2","3","4","4","4","2","1","2","1","1","0","1","0","1","0","1","0","1","0","0","1","0","1","3","2","2","2","2","5","3","2","1","1","6","乔","","","","","","","","","","","","","","","","","","","","","","","","","","","","","","feedback_test","","","","","","","","","",""
"1131","","j","psychophysics","85","394537","0.0-7.0-0.0-1.0-0.0-0.38","4","4","4","2","3","3","3","4","4","4","3","5","2","2","3","4","4","3","3","5","2","2","3","4","4","4","2","1","2","1","1","0","1","0","1","0","1","0","1","0","0","1","0","1","3","2","2","2","2","5","3","2","1","1","6","乔","","","","nonmatch","","","","","","","","","","","","","","key","j","16.660507936507837","960","536","f","false","match","img/hexagon.png","六边","六边","ALT1_1","prac_ALT1_1","","","","","","","","","",""
"null","<span style='color:red; font-size: 70px;'>错误! </span>","null","html-keyboard-response","86","395039","0.0-7.0-0.0-1.0-0.0-1.38","4","4","4","2","3","3","3","4","4","4","3","5","2","2","3","4","4","3","3","5","2","2","3","4","4","4","2","1","2","1","1","0","1","0","1","0","1","0","1","0","0","1","0","1","3","2","2","2","2","5","3","2","1","1","6","乔","","","","","","","","","","","","","","","","","","","","","","","","","","","","","","feedback_test","","","","","","","","","",""
"1042","","f","psychophysics","87","397083","0.0-7.0-0.0-1.0-0.0-0.39","4","4","4","2","3","3","3","4","4","4","3","5","2","2","3","4","4","3","3","5","2","2","3","4","4","4","2","1","2","1","1","0","1","0","1","0","1","0","1","0","0","1","0","1","3","2","2","2","2","5","3","2","1","1","6","乔","","","","match","","","","","","","","","","","","","","key","f","16.660247933884413","960","536","f","true","match","img/circle.png","圆形","圆形","ALT1_1","prac_ALT1_1","","","","","","","","","",""
"null","<span style='color:GreenYellow; font-size: 70px;'>正确! </span>","null","html-keyboard-response","88","397584","0.0-7.0-0.0-1.0-0.0-1.39","4","4","4","2","3","3","3","4","4","4","3","5","2","2","3","4","4","3","3","5","2","2","3","4","4","4","2","1","2","1","1","0","1","0","1","0","1","0","1","0","0","1","0","1","3","2","2","2","2","5","3","2","1","1","6","乔","","","","","","","","","","","","","","","","","","","","","","","","","","","","","","feedback_test","","","","","","","","","",""
"907","","j","psychophysics","89","399493","0.0-7.0-0.0-1.0-0.0-0.40","4","4","4","2","3","3","3","4","4","4","3","5","2","2","3","4","4","3","3","5","2","2","3","4","4","4","2","1","2","1","1","0","1","0","1","0","1","0","1","0","0","1","0","1","3","2","2","2","2","5","3","2","1","1","6","乔","","","","nonmatch","","","","","","","","","","","","","","key","j","16.670157894736725","960","536","f","false","match","img/trapezoid.png","梯形","梯形","ALT1_1","prac_ALT1_1","","","","","","","","","",""
"null","<span style='color:red; font-size: 70px;'>错误! </span>","null","html-keyboard-response","90","399995","0.0-7.0-0.0-1.0-0.0-1.40","4","4","4","2","3","3","3","4","4","4","3","5","2","2","3","4","4","3","3","5","2","2","3","4","4","4","2","1","2","1","1","0","1","0","1","0","1","0","1","0","0","1","0","1","3","2","2","2","2","5","3","2","1","1","6","乔","","","","","","","","","","","","","","","","","","","","","","","","","","","","","","feedback_test","","","","","","","","","",""
"1080","","f","psychophysics","91","402077","0.0-7.0-0.0-1.0-0.0-0.41","4","4","4","2","3","3","3","4","4","4","3","5","2","2","3","4","4","3","3","5","2","2","3","4","4","4","2","1","2","1","1","0","1","0","1","0","1","0","1","0","0","1","0","1","3","2","2","2","2","5","3","2","1","1","6","乔","","","","match","","","","","","","","","","","","","","key","f","16.66945967741917","960","536","f","true","match","img/diamond.png","菱形","菱形","ALT1_1","prac_ALT1_1","","","","","","","","","",""
"null","<span style='color:GreenYellow; font-size: 70px;'>正确! </span>","null","html-keyboard-response","92","402581","0.0-7.0-0.0-1.0-0.0-1.41","4","4","4","2","3","3","3","4","4","4","3","5","2","2","3","4","4","3","3","5","2","2","3","4","4","4","2","1","2","1","1","0","1","0","1","0","1","0","1","0","0","1","0","1","3","2","2","2","2","5","3","2","1","1","6","乔","","","","","","","","","","","","","","","","","","","","","","","","","","","","","","feedback_test","","","","","","","","","",""
"1100","","j","psychophysics","93","404684","0.0-7.0-0.0-1.0-0.0-0.42","4","4","4","2","3","3","3","4","4","4","3","5","2","2","3","4","4","3","3","5","2","2","3","4","4","4","2","1","2","1","1","0","1","0","1","0","1","0","1","0","0","1","0","1","3","2","2","2","2","5","3","2","1","1","6","乔","","","","nonmatch","","","","","","","","","","","","","","key","j","16.66643200000003","960","536","j","true","nonmatch","img/circle.png","菱形","圆形","ALT1_1","prac_ALT1_1","","","","","","","","","",""
"null","<span style='color:GreenYellow; font-size: 70px;'>正确! </span>","null","html-keyboard-response","94","405184","0.0-7.0-0.0-1.0-0.0-1.42","4","4","4","2","3","3","3","4","4","4","3","5","2","2","3","4","4","3","3","5","2","2","3","4","4","4","2","1","2","1","1","0","1","0","1","0","1","0","1","0","0","1","0","1","3","2","2","2","2","5","3","2","1","1","6","乔","","","","","","","","","","","","","","","","","","","","","","","","","","","","","","feedback_test","","","","","","","","","",""
"1018","","f","psychophysics","95","407203","0.0-7.0-0.0-1.0-0.0-0.43","4","4","4","2","3","3","3","4","4","4","3","5","2","2","3","4","4","3","3","5","2","2","3","4","4","4","2","1","2","1","1","0","1","0","1","0","1","0","1","0","0","1","0","1","3","2","2","2","2","5","3","2","1","1","6","乔","","","","match","","","","","","","","","","","","","","key","f","16.666841666666734","960","536","f","true","match","img/hexagon.png","六边","六边","ALT1_1","prac_ALT1_1","","","","","","","","","",""
"null","<span style='color:GreenYellow; font-size: 70px;'>正确! </span>","null","html-keyboard-response","96","407704","0.0-7.0-0.0-1.0-0.0-1.43","4","4","4","2","3","3","3","4","4","4","3","5","2","2","3","4","4","3","3","5","2","2","3","4","4","4","2","1","2","1","1","0","1","0","1","0","1","0","1","0","0","1","0","1","3","2","2","2","2","5","3","2","1","1","6","乔","","","","","","","","","","","","","","","","","","","","","","","","","","","","","","feedback_test","","","","","","","","","",""
"1110","","j","psychophysics","97","409816","0.0-7.0-0.0-1.0-0.0-0.44","4","4","4","2","3","3","3","4","4","4","3","5","2","2","3","4","4","3","3","5","2","2","3","4","4","4","2","1","2","1","1","0","1","0","1","0","1","0","1","0","0","1","0","1","3","2","2","2","2","5","3","2","1","1","6","乔","","","","nonmatch","","","","","","","","","","","","","","key","j","16.668999999999954","960","536","j","true","nonmatch","img/trapezoid.png","圆形","梯形","ALT1_1","prac_ALT1_1","","","","","","","","","",""
"null","<span style='color:GreenYellow; font-size: 70px;'>正确! </span>","null","html-keyboard-response","98","410319","0.0-7.0-0.0-1.0-0.0-1.44","4","4","4","2","3","3","3","4","4","4","3","5","2","2","3","4","4","3","3","5","2","2","3","4","4","4","2","1","2","1","1","0","1","0","1","0","1","0","1","0","0","1","0","1","3","2","2","2","2","5","3","2","1","1","6","乔","","","","","","","","","","","","","","","","","","","","","","","","","","","","","","feedback_test","","","","","","","","","",""
"null","","null","psychophysics","99","412522","0.0-7.0-0.0-1.0-0.0-0.45","4","4","4","2","3","3","3","4","4","4","3","5","2","2","3","4","4","3","3","5","2","2","3","4","4","4","2","1","2","1","1","0","1","0","1","0","1","0","1","0","0","1","0","1","3","2","2","2","2","5","3","2","1","1","6","乔","","","","null","","","","","","","","","","","","","","key","null","16.66729770992342","960","536","j","false","nonmatch","img/diamond.png","梯形","菱形","ALT1_1","prac_ALT1_1","","","","","","","","","",""
"null","<span class='add_' style='color:yellow; font-size: 70px;'> 太慢! </span>","null","html-keyboard-response","100","413023","0.0-7.0-0.0-1.0-0.0-1.45","4","4","4","2","3","3","3","4","4","4","3","5","2","2","3","4","4","3","3","5","2","2","3","4","4","4","2","1","2","1","1","0","1","0","1","0","1","0","1","0","0","1","0","1","3","2","2","2","2","5","3","2","1","1","6","乔","","","","","","","","","","","","","","","","","","","","","","","","","","","","","","feedback_test","","","","","","","","","",""
"null","","null","psychophysics","101","415226","0.0-7.0-0.0-1.0-0.0-0.46","4","4","4","2","3","3","3","4","4","4","3","5","2","2","3","4","4","3","3","5","2","2","3","4","4","4","2","1","2","1","1","0","1","0","1","0","1","0","1","0","0","1","0","1","3","2","2","2","2","5","3","2","1","1","6","乔","","","","null","","","","","","","","","","","","","","key","null","16.667423076923185","960","536","j","false","nonmatch","img/hexagon.png","菱形","六边","ALT1_1","prac_ALT1_1","","","","","","","","","",""
"null","<span class='add_' style='color:yellow; font-size: 70px;'> 太慢! </span>","null","html-keyboard-response","102","415729","0.0-7.0-0.0-1.0-0.0-1.46","4","4","4","2","3","3","3","4","4","4","3","5","2","2","3","4","4","3","3","5","2","2","3","4","4","4","2","1","2","1","1","0","1","0","1","0","1","0","1","0","0","1","0","1","3","2","2","2","2","5","3","2","1","1","6","乔","","","","","","","","","","","","","","","","","","","","","","","","","","","","","","feedback_test","","","","","","","","","",""
"1001","","j","psychophysics","103","417732","0.0-7.0-0.0-1.0-0.0-0.47","4","4","4","2","3","3","3","4","4","4","3","5","2","2","3","4","4","3","3","5","2","2","3","4","4","4","2","1","2","1","1","0","1","0","1","0","1","0","1","0","0","1","0","1","3","2","2","2","2","5","3","2","1","1","6","乔","","","","nonmatch","","","","","","","","","","","","","","key","j","16.668722689075945","960","536","j","true","nonmatch","img/diamond.png","六边","菱形","ALT1_1","prac_ALT1_1","","","","","","","","","",""
"null","<span style='color:GreenYellow; font-size: 70px;'>正确! </span>","null","html-keyboard-response","104","418235","0.0-7.0-0.0-1.0-0.0-1.47","4","4","4","2","3","3","3","4","4","4","3","5","2","2","3","4","4","3","3","5","2","2","3","4","4","4","2","1","2","1","1","0","1","0","1","0","1","0","1","0","0","1","0","1","3","2","2","2","2","5","3","2","1","1","6","乔","","","","","","","","","","","","","","","","","","","","","","","","","","","","","","feedback_test","","","","","","","","","",""
"4158","<style>.context{color:white; font-size: 35px; line-height:40px}</style>                            <div><p class='context'>您正确回答了23% 的试次。</p><p class='context'>您的平均反应时为965毫秒。</p><p class='context'>按空格键继续。</p></div>"," ","html-keyboard-response","105","422395","0.0-7.0-0.0-1.0-1.0-0.0","4","4","4","2","3","3","3","4","4","4","3","5","2","2","3","4","4","3","3","5","2","2","3","4","4","4","2","1","2","1","1","0","1","0","1","0","1","0","1","0","0","1","0","1","3","2","2","2","2","5","3","2","1","1","6","乔","","","","","","","","","","","","","","","","","","","","","","","","","","","","","","","","","","","","","","","",""
"28111","","","instructions","106","450508","0.0-7.0-0.0-1.0-1.0-1.0","4","4","4","2","3","3","3","4","4","4","3","5","2","2","3","4","4","3","3","5","2","2","3","4","4","4","2","1","2","1","1","0","1","0","1","0","1","0","1","0","0","1","0","1","3","2","2","2","2","5","3","2","1","1","6","乔","","","","","","","","","","","","","","","","","[{""page_index"":0,""viewing_time"":4671},{""page_index"":1,""viewing_time"":18728},{""page_index"":2,""viewing_time"":4712}]","","","","","","","","","","","","","","","","","","","","","","",""
"null","","null","psychophysics","107","452712","0.0-7.0-0.0-1.1-0.1-0.48","4","4","4","2","3","3","3","4","4","4","3","5","2","2","3","4","4","3","3","5","2","2","3","4","4","4","2","1","2","1","1","0","1","0","1","0","1","0","1","0","0","1","0","1","3","2","2","2","2","5","3","2","1","1","6","乔","","","","null","","","","","","","","","","","","","","key","null","16.66479389313013","960","536","f","false","match","img/circle.png","圆形","圆形","ALT1_1","prac_ALT1_1","","","","","","","","","",""
"null","<span class='add_' style='color:yellow; font-size: 70px;'> 太慢! </span>","null","html-keyboard-response","108","453215","0.0-7.0-0.0-1.1-0.1-1.48","4","4","4","2","3","3","3","4","4","4","3","5","2","2","3","4","4","3","3","5","2","2","3","4","4","4","2","1","2","1","1","0","1","0","1","0","1","0","1","0","0","1","0","1","3","2","2","2","2","5","3","2","1","1","6","乔","","","","","","","","","","","","","","","","","","","","","","","","","","","","","","feedback_test","","","","","","","","","",""
"906","","f","psychophysics","109","455123","0.0-7.0-0.0-1.1-0.1-0.49","4","4","4","2","3","3","3","4","4","4","3","5","2","2","3","4","4","3","3","5","2","2","3","4","4","4","2","1","2","1","1","0","1","0","1","0","1","0","1","0","0","1","0","1","3","2","2","2","2","5","3","2","1","1","6","乔","","","","match","","","","","","","","","","","","","","key","f","16.66655752212386","960","536","f","true","match","img/hexagon.png","六边","六边","ALT1_1","prac_ALT1_1","","","","","","","","","",""
"null","<span style='color:GreenYellow; font-size: 70px;'>正确! </span>","null","html-keyboard-response","110","455625","0.0-7.0-0.0-1.1-0.1-1.49","4","4","4","2","3","3","3","4","4","4","3","5","2","2","3","4","4","3","3","5","2","2","3","4","4","4","2","1","2","1","1","0","1","0","1","0","1","0","1","0","0","1","0","1","3","2","2","2","2","5","3","2","1","1","6","乔","","","","","","","","","","","","","","","","","","","","","","","","","","","","","","feedback_test","","","","","","","","","",""
"745","","f","psychophysics","111","457373","0.0-7.0-0.0-1.1-0.1-0.50","4","4","4","2","3","3","3","4","4","4","3","5","2","2","3","4","4","3","3","5","2","2","3","4","4","4","2","1","2","1","1","0","1","0","1","0","1","0","1","0","0","1","0","1","3","2","2","2","2","5","3","2","1","1","6","乔","","","","match","","","","","","","","","","","","","","key","f","16.669233009708567","960","536","f","true","match","img/circle.png","圆形","圆形","ALT1_1","prac_ALT1_1","","","","","","","","","",""
"null","<span style='color:GreenYellow; font-size: 70px;'>正确! </span>","null","html-keyboard-response","112","457873","0.0-7.0-0.0-1.1-0.1-1.50","4","4","4","2","3","3","3","4","4","4","3","5","2","2","3","4","4","3","3","5","2","2","3","4","4","4","2","1","2","1","1","0","1","0","1","0","1","0","1","0","0","1","0","1","3","2","2","2","2","5","3","2","1","1","6","乔","","","","","","","","","","","","","","","","","","","","","","","","","","","","","","feedback_test","","","","","","","","","",""
"797","","j","psychophysics","113","459671","0.0-7.0-0.0-1.1-0.1-0.51","4","4","4","2","3","3","3","4","4","4","3","5","2","2","3","4","4","3","3","5","2","2","3","4","4","4","2","1","2","1","1","0","1","0","1","0","1","0","1","0","0","1","0","1","3","2","2","2","2","5","3","2","1","1","6","乔","","","","nonmatch","","","","","","","","","","","","","","key","j","16.666320754717024","960","536","j","true","nonmatch","img/diamond.png","六边","菱形","ALT1_1","prac_ALT1_1","","","","","","","","","",""
"null","<span style='color:GreenYellow; font-size: 70px;'>正确! </span>","null","html-keyboard-response","114","460173","0.0-7.0-0.0-1.1-0.1-1.51","4","4","4","2","3","3","3","4","4","4","3","5","2","2","3","4","4","3","3","5","2","2","3","4","4","4","2","1","2","1","1","0","1","0","1","0","1","0","1","0","0","1","0","1","3","2","2","2","2","5","3","2","1","1","6","乔","","","","","","","","","","","","","","","","","","","","","","","","","","","","","","feedback_test","","","","","","","","","",""
"1088","","j","psychophysics","115","462261","0.0-7.0-0.0-1.1-0.1-0.52","4","4","4","2","3","3","3","4","4","4","3","5","2","2","3","4","4","3","3","5","2","2","3","4","4","4","2","1","2","1","1","0","1","0","1","0","1","0","1","0","0","1","0","1","3","2","2","2","2","5","3","2","1","1","6","乔","","","","nonmatch","","","","","","","","","","","","","","key","j","16.659774193548195","960","536","j","true","nonmatch","img/hexagon.png","菱形","六边","ALT1_1","prac_ALT1_1","","","","","","","","","",""
"null","<span style='color:GreenYellow; font-size: 70px;'>正确! </span>","null","html-keyboard-response","116","462764","0.0-7.0-0.0-1.1-0.1-1.52","4","4","4","2","3","3","3","4","4","4","3","5","2","2","3","4","4","3","3","5","2","2","3","4","4","4","2","1","2","1","1","0","1","0","1","0","1","0","1","0","0","1","0","1","3","2","2","2","2","5","3","2","1","1","6","乔","","","","","","","","","","","","","","","","","","","","","","","","","","","","","","feedback_test","","","","","","","","","",""
"787","","f","psychophysics","117","464553","0.0-7.0-0.0-1.1-0.1-0.53","4","4","4","2","3","3","3","4","4","4","3","5","2","2","3","4","4","3","3","5","2","2","3","4","4","4","2","1","2","1","1","0","1","0","1","0","1","0","1","0","0","1","0","1","3","2","2","2","2","5","3","2","1","1","6","乔","","","","match","","","","","","","","","","","","","","key","f","16.667632075471975","960","536","j","false","nonmatch","img/hexagon.png","圆形","六边","ALT1_1","prac_ALT1_1","","","","","","","","","",""
"null","<span style='color:red; font-size: 70px;'>错误! </span>","null","html-keyboard-response","118","465056","0.0-7.0-0.0-1.1-0.1-1.53","4","4","4","2","3","3","3","4","4","4","3","5","2","2","3","4","4","3","3","5","2","2","3","4","4","4","2","1","2","1","1","0","1","0","1","0","1","0","1","0","0","1","0","1","3","2","2","2","2","5","3","2","1","1","6","乔","","","","","","","","","","","","","","","","","","","","","","","","","","","","","","feedback_test","","","","","","","","","",""
"1129","","j","psychophysics","119","467187","0.0-7.0-0.0-1.1-0.1-0.54","4","4","4","2","3","3","3","4","4","4","3","5","2","2","3","4","4","3","3","5","2","2","3","4","4","4","2","1","2","1","1","0","1","0","1","0","1","0","1","0","0","1","0","1","3","2","2","2","2","5","3","2","1","1","6","乔","","","","nonmatch","","","","","","","","","","","","","","key","j","16.66259523809542","960","536","j","true","nonmatch","img/trapezoid.png","六边","梯形","ALT1_1","prac_ALT1_1","","","","","","","","","",""
"null","<span style='color:GreenYellow; font-size: 70px;'>正确! </span>","null","html-keyboard-response","120","467688","0.0-7.0-0.0-1.1-0.1-1.54","4","4","4","2","3","3","3","4","4","4","3","5","2","2","3","4","4","3","3","5","2","2","3","4","4","4","2","1","2","1","1","0","1","0","1","0","1","0","1","0","0","1","0","1","3","2","2","2","2","5","3","2","1","1","6","乔","","","","","","","","","","","","","","","","","","","","","","","","","","","","","","feedback_test","","","","","","","","","",""
"null","","null","psychophysics","121","469892","0.0-7.0-0.0-1.1-0.1-0.55","4","4","4","2","3","3","3","4","4","4","3","5","2","2","3","4","4","3","3","5","2","2","3","4","4","4","2","1","2","1","1","0","1","0","1","0","1","0","1","0","0","1","0","1","3","2","2","2","2","5","3","2","1","1","6","乔","","","","null","","","","","","","","","","","","","","key","null","16.668450381679243","960","536","j","false","nonmatch","img/circle.png","菱形","圆形","ALT1_1","prac_ALT1_1","","","","","","","","","",""
"null","<span class='add_' style='color:yellow; font-size: 70px;'> 太慢! </span>","null","html-keyboard-response","122","470396","0.0-7.0-0.0-1.1-0.1-1.55","4","4","4","2","3","3","3","4","4","4","3","5","2","2","3","4","4","3","3","5","2","2","3","4","4","4","2","1","2","1","1","0","1","0","1","0","1","0","1","0","0","1","0","1","3","2","2","2","2","5","3","2","1","1","6","乔","","","","","","","","","","","","","","","","","","","","","","","","","","","","","","feedback_test","","","","","","","","","",""
"1017","","f","psychophysics","123","472414","0.0-7.0-0.0-1.1-0.1-0.56","4","4","4","2","3","3","3","4","4","4","3","5","2","2","3","4","4","3","3","5","2","2","3","4","4","4","2","1","2","1","1","0","1","0","1","0","1","0","1","0","0","1","0","1","3","2","2","2","2","5","3","2","1","1","6","乔","","","","match","","","","","","","","","","","","","","key","f","16.66555000000032","960","536","f","true","match","img/trapezoid.png","梯形","梯形","ALT1_1","prac_ALT1_1","","","","","","","","","",""
"null","<span style='color:GreenYellow; font-size: 70px;'>正确! </span>","null","html-keyboard-response","124","472917","0.0-7.0-0.0-1.1-0.1-1.56","4","4","4","2","3","3","3","4","4","4","3","5","2","2","3","4","4","3","3","5","2","2","3","4","4","4","2","1","2","1","1","0","1","0","1","0","1","0","1","0","0","1","0","1","3","2","2","2","2","5","3","2","1","1","6","乔","","","","","","","","","","","","","","","","","","","","","","","","","","","","","","feedback_test","","","","","","","","","",""
"null","","null","psychophysics","125","475119","0.0-7.0-0.0-1.1-0.1-0.57","4","4","4","2","3","3","3","4","4","4","3","5","2","2","3","4","4","3","3","5","2","2","3","4","4","4","2","1","2","1","1","0","1","0","1","0","1","0","1","0","0","1","0","1","3","2","2","2","2","5","3","2","1","1","6","乔","","","","null","","","","","","","","","","","","","","key","null","16.664763358778867","960","536","j","false","nonmatch","img/diamond.png","圆形","菱形","ALT1_1","prac_ALT1_1","","","","","","","","","",""
"null","<span class='add_' style='color:yellow; font-size: 70px;'> 太慢! </span>","null","html-keyboard-response","126","475620","0.0-7.0-0.0-1.1-0.1-1.57","4","4","4","2","3","3","3","4","4","4","3","5","2","2","3","4","4","3","3","5","2","2","3","4","4","4","2","1","2","1","1","0","1","0","1","0","1","0","1","0","0","1","0","1","3","2","2","2","2","5","3","2","1","1","6","乔","","","","","","","","","","","","","","","","","","","","","","","","","","","","","","feedback_test","","","","","","","","","",""
"1127","","j","psychophysics","127","477750","0.0-7.0-0.0-1.1-0.1-0.58","4","4","4","2","3","3","3","4","4","4","3","5","2","2","3","4","4","3","3","5","2","2","3","4","4","4","2","1","2","1","1","0","1","0","1","0","1","0","1","0","0","1","0","1","3","2","2","2","2","5","3","2","1","1","6","乔","","","","nonmatch","","","","","","","","","","","","","","key","j","16.666409448819056","960","536","j","true","nonmatch","img/trapezoid.png","圆形","梯形","ALT1_1","prac_ALT1_1","","","","","","","","","",""
"null","<span style='color:GreenYellow; font-size: 70px;'>正确! </span>","null","html-keyboard-response","128","478253","0.0-7.0-0.0-1.1-0.1-1.58","4","4","4","2","3","3","3","4","4","4","3","5","2","2","3","4","4","3","3","5","2","2","3","4","4","4","2","1","2","1","1","0","1","0","1","0","1","0","1","0","0","1","0","1","3","2","2","2","2","5","3","2","1","1","6","乔","","","","","","","","","","","","","","","","","","","","","","","","","","","","","","feedback_test","","","","","","","","","",""
"1081","","j","psychophysics","129","480336","0.0-7.0-0.0-1.1-0.1-0.59","4","4","4","2","3","3","3","4","4","4","3","5","2","2","3","4","4","3","3","5","2","2","3","4","4","4","2","1","2","1","1","0","1","0","1","0","1","0","1","0","0","1","0","1","3","2","2","2","2","5","3","2","1","1","6","乔","","","","nonmatch","","","","","","","","","","","","","","key","j","16.66623387096784","960","536","j","true","nonmatch","img/diamond.png","梯形","菱形","ALT1_1","prac_ALT1_1","","","","","","","","","",""
"null","<span style='color:GreenYellow; font-size: 70px;'>正确! </span>","null","html-keyboard-response","130","480840","0.0-7.0-0.0-1.1-0.1-1.59","4","4","4","2","3","3","3","4","4","4","3","5","2","2","3","4","4","3","3","5","2","2","3","4","4","4","2","1","2","1","1","0","1","0","1","0","1","0","1","0","0","1","0","1","3","2","2","2","2","5","3","2","1","1","6","乔","","","","","","","","","","","","","","","","","","","","","","","","","","","","","","feedback_test","","","","","","","","","",""
"845","","f","psychophysics","131","482686","0.0-7.0-0.0-1.1-0.1-0.60","4","4","4","2","3","3","3","4","4","4","3","5","2","2","3","4","4","3","3","5","2","2","3","4","4","4","2","1","2","1","1","0","1","0","1","0","1","0","1","0","0","1","0","1","3","2","2","2","2","5","3","2","1","1","6","乔","","","","match","","","","","","","","","","","","","","key","f","16.66524770642191","960","536","f","true","match","img/trapezoid.png","梯形","梯形","ALT1_1","prac_ALT1_1","","","","","","","","","",""
"null","<span style='color:GreenYellow; font-size: 70px;'>正确! </span>","null","html-keyboard-response","132","483187","0.0-7.0-0.0-1.1-0.1-1.60","4","4","4","2","3","3","3","4","4","4","3","5","2","2","3","4","4","3","3","5","2","2","3","4","4","4","2","1","2","1","1","0","1","0","1","0","1","0","1","0","0","1","0","1","3","2","2","2","2","5","3","2","1","1","6","乔","","","","","","","","","","","","","","","","","","","","","","","","","","","","","","feedback_test","","","","","","","","","",""
"1016","","f","psychophysics","133","485204","0.0-7.0-0.0-1.1-0.1-0.61","4","4","4","2","3","3","3","4","4","4","3","5","2","2","3","4","4","3","3","5","2","2","3","4","4","4","2","1","2","1","1","0","1","0","1","0","1","0","1","0","0","1","0","1","3","2","2","2","2","5","3","2","1","1","6","乔","","","","match","","","","","","","","","","","","","","key","f","16.666691666666885","960","536","f","true","match","img/hexagon.png","六边","六边","ALT1_1","prac_ALT1_1","","","","","","","","","",""
"null","<span style='color:GreenYellow; font-size: 70px;'>正确! </span>","null","html-keyboard-response","134","485705","0.0-7.0-0.0-1.1-0.1-1.61","4","4","4","2","3","3","3","4","4","4","3","5","2","2","3","4","4","3","3","5","2","2","3","4","4","4","2","1","2","1","1","0","1","0","1","0","1","0","1","0","0","1","0","1","3","2","2","2","2","5","3","2","1","1","6","乔","","","","","","","","","","","","","","","","","","","","","","","","","","","","","","feedback_test","","","","","","","","","",""
"1132","","j","psychophysics","135","487839","0.0-7.0-0.0-1.1-0.1-0.62","4","4","4","2","3","3","3","4","4","4","3","5","2","2","3","4","4","3","3","5","2","2","3","4","4","4","2","1","2","1","1","0","1","0","1","0","1","0","1","0","0","1","0","1","3","2","2","2","2","5","3","2","1","1","6","乔","","","","nonmatch","","","","","","","","","","","","","","key","j","16.666880952380968","960","536","j","true","nonmatch","img/hexagon.png","梯形","六边","ALT1_1","prac_ALT1_1","","","","","","","","","",""
"null","<span style='color:GreenYellow; font-size: 70px;'>正确! </span>","null","html-keyboard-response","136","488345","0.0-7.0-0.0-1.1-0.1-1.62","4","4","4","2","3","3","3","4","4","4","3","5","2","2","3","4","4","3","3","5","2","2","3","4","4","4","2","1","2","1","1","0","1","0","1","0","1","0","1","0","0","1","0","1","3","2","2","2","2","5","3","2","1","1","6","乔","","","","","","","","","","","","","","","","","","","","","","","","","","","","","","feedback_test","","","","","","","","","",""
"1006","","f","psychophysics","137","490353","0.0-7.0-0.0-1.1-0.1-0.63","4","4","4","2","3","3","3","4","4","4","3","5","2","2","3","4","4","3","3","5","2","2","3","4","4","4","2","1","2","1","1","0","1","0","1","0","1","0","1","0","0","1","0","1","3","2","2","2","2","5","3","2","1","1","6","乔","","","","match","","","","","","","","","","","","","","key","f","16.664067226890552","960","536","f","true","match","img/circle.png","圆形","圆形","ALT1_1","prac_ALT1_1","","","","","","","","","",""
"null","<span style='color:GreenYellow; font-size: 70px;'>正确! </span>","null","html-keyboard-response","138","490855","0.0-7.0-0.0-1.1-0.1-1.63","4","4","4","2","3","3","3","4","4","4","3","5","2","2","3","4","4","3","3","5","2","2","3","4","4","4","2","1","2","1","1","0","1","0","1","0","1","0","1","0","0","1","0","1","3","2","2","2","2","5","3","2","1","1","6","乔","","","","","","","","","","","","","","","","","","","","","","","","","","","","","","feedback_test","","","","","","","","","",""
"1100","","f","psychophysics","139","492956","0.0-7.0-0.0-1.1-0.1-0.64","4","4","4","2","3","3","3","4","4","4","3","5","2","2","3","4","4","3","3","5","2","2","3","4","4","4","2","1","2","1","1","0","1","0","1","0","1","0","1","0","0","1","0","1","3","2","2","2","2","5","3","2","1","1","6","乔","","","","match","","","","","","","","","","","","","","key","f","16.666304000000004","960","536","f","true","match","img/diamond.png","菱形","菱形","ALT1_1","prac_ALT1_1","","","","","","","","","",""
"null","<span style='color:GreenYellow; font-size: 70px;'>正确! </span>","null","html-keyboard-response","140","493457","0.0-7.0-0.0-1.1-0.1-1.64","4","4","4","2","3","3","3","4","4","4","3","5","2","2","3","4","4","3","3","5","2","2","3","4","4","4","2","1","2","1","1","0","1","0","1","0","1","0","1","0","0","1","0","1","3","2","2","2","2","5","3","2","1","1","6","乔","","","","","","","","","","","","","","","","","","","","","","","","","","","","","","feedback_test","","","","","","","","","",""
"828","","f","psychophysics","141","495286","0.0-7.0-0.0-1.1-0.1-0.65","4","4","4","2","3","3","3","4","4","4","3","5","2","2","3","4","4","3","3","5","2","2","3","4","4","4","2","1","2","1","1","0","1","0","1","0","1","0","1","0","0","1","0","1","3","2","2","2","2","5","3","2","1","1","6","乔","","","","match","","","","","","","","","","","","","","key","f","16.66364814814814","960","536","f","true","match","img/hexagon.png","六边","六边","ALT1_1","prac_ALT1_1","","","","","","","","","",""
"null","<span style='color:GreenYellow; font-size: 70px;'>正确! </span>","null","html-keyboard-response","142","495788","0.0-7.0-0.0-1.1-0.1-1.65","4","4","4","2","3","3","3","4","4","4","3","5","2","2","3","4","4","3","3","5","2","2","3","4","4","4","2","1","2","1","1","0","1","0","1","0","1","0","1","0","0","1","0","1","3","2","2","2","2","5","3","2","1","1","6","乔","","","","","","","","","","","","","","","","","","","","","","","","","","","","","","feedback_test","","","","","","","","","",""
"914","","f","psychophysics","143","497704","0.0-7.0-0.0-1.1-0.1-0.66","4","4","4","2","3","3","3","4","4","4","3","5","2","2","3","4","4","3","3","5","2","2","3","4","4","4","2","1","2","1","1","0","1","0","1","0","1","0","1","0","0","1","0","1","3","2","2","2","2","5","3","2","1","1","6","乔","","","","match","","","","","","","","","","","","","","key","f","16.667991228069774","960","536","f","true","match","img/diamond.png","菱形","菱形","ALT1_1","prac_ALT1_1","","","","","","","","","",""
"null","<span style='color:GreenYellow; font-size: 70px;'>正确! </span>","null","html-keyboard-response","144","498206","0.0-7.0-0.0-1.1-0.1-1.66","4","4","4","2","3","3","3","4","4","4","3","5","2","2","3","4","4","3","3","5","2","2","3","4","4","4","2","1","2","1","1","0","1","0","1","0","1","0","1","0","0","1","0","1","3","2","2","2","2","5","3","2","1","1","6","乔","","","","","","","","","","","","","","","","","","","","","","","","","","","","","","feedback_test","","","","","","","","","",""
"1018","","f","psychophysics","145","500226","0.0-7.0-0.0-1.1-0.1-0.67","4","4","4","2","3","3","3","4","4","4","3","5","2","2","3","4","4","3","3","5","2","2","3","4","4","4","2","1","2","1","1","0","1","0","1","0","1","0","1","0","0","1","0","1","3","2","2","2","2","5","3","2","1","1","6","乔","","","","match","","","","","","","","","","","","","","key","f","16.66287394958018","960","536","j","false","nonmatch","img/trapezoid.png","菱形","梯形","ALT1_1","prac_ALT1_1","","","","","","","","","",""
"null","<span style='color:red; font-size: 70px;'>错误! </span>","null","html-keyboard-response","146","500729","0.0-7.0-0.0-1.1-0.1-1.67","4","4","4","2","3","3","3","4","4","4","3","5","2","2","3","4","4","3","3","5","2","2","3","4","4","4","2","1","2","1","1","0","1","0","1","0","1","0","1","0","0","1","0","1","3","2","2","2","2","5","3","2","1","1","6","乔","","","","","","","","","","","","","","","","","","","","","","","","","","","","","","feedback_test","","","","","","","","","",""
"null","","null","psychophysics","147","502934","0.0-7.0-0.0-1.1-0.1-0.68","4","4","4","2","3","3","3","4","4","4","3","5","2","2","3","4","4","3","3","5","2","2","3","4","4","4","2","1","2","1","1","0","1","0","1","0","1","0","1","0","0","1","0","1","3","2","2","2","2","5","3","2","1","1","6","乔","","","","null","","","","","","","","","","","","","","key","null","16.665885496182984","960","536","j","false","nonmatch","img/circle.png","六边","圆形","ALT1_1","prac_ALT1_1","","","","","","","","","",""
"null","<span class='add_' style='color:yellow; font-size: 70px;'> 太慢! </span>","null","html-keyboard-response","148","503435","0.0-7.0-0.0-1.1-0.1-1.68","4","4","4","2","3","3","3","4","4","4","3","5","2","2","3","4","4","3","3","5","2","2","3","4","4","4","2","1","2","1","1","0","1","0","1","0","1","0","1","0","0","1","0","1","3","2","2","2","2","5","3","2","1","1","6","乔","","","","","","","","","","","","","","","","","","","","","","","","","","","","","","feedback_test","","","","","","","","","",""
"1074","","f","psychophysics","149","505511","0.0-7.0-0.0-1.1-0.1-0.69","4","4","4","2","3","3","3","4","4","4","3","5","2","2","3","4","4","3","3","5","2","2","3","4","4","4","2","1","2","1","1","0","1","0","1","0","1","0","1","0","0","1","0","1","3","2","2","2","2","5","3","2","1","1","6","乔","","","","match","","","","","","","","","","","","","","key","f","16.666080000000076","960","536","f","true","match","img/diamond.png","菱形","菱形","ALT1_1","prac_ALT1_1","","","","","","","","","",""
"null","<span style='color:GreenYellow; font-size: 70px;'>正确! </span>","null","html-keyboard-response","150","506012","0.0-7.0-0.0-1.1-0.1-1.69","4","4","4","2","3","3","3","4","4","4","3","5","2","2","3","4","4","3","3","5","2","2","3","4","4","4","2","1","2","1","1","0","1","0","1","0","1","0","1","0","0","1","0","1","3","2","2","2","2","5","3","2","1","1","6","乔","","","","","","","","","","","","","","","","","","","","","","","","","","","","","","feedback_test","","","","","","","","","",""
"1030","","f","psychophysics","151","508047","0.0-7.0-0.0-1.1-0.1-0.70","4","4","4","2","3","3","3","4","4","4","3","5","2","2","3","4","4","3","3","5","2","2","3","4","4","4","2","1","2","1","1","0","1","0","1","0","1","0","1","0","0","1","0","1","3","2","2","2","2","5","3","2","1","1","6","乔","","","","match","","","","","","","","","","","","","","key","f","16.666429752065927","960","536","f","true","match","img/trapezoid.png","梯形","梯形","ALT1_1","prac_ALT1_1","","","","","","","","","",""
"null","<span style='color:GreenYellow; font-size: 70px;'>正确! </span>","null","html-keyboard-response","152","508548","0.0-7.0-0.0-1.1-0.1-1.70","4","4","4","2","3","3","3","4","4","4","3","5","2","2","3","4","4","3","3","5","2","2","3","4","4","4","2","1","2","1","1","0","1","0","1","0","1","0","1","0","0","1","0","1","3","2","2","2","2","5","3","2","1","1","6","乔","","","","","","","","","","","","","","","","","","","","","","","","","","","","","","feedback_test","","","","","","","","","",""
"870","","j","psychophysics","153","510420","0.0-7.0-0.0-1.1-0.1-0.71","4","4","4","2","3","3","3","4","4","4","3","5","2","2","3","4","4","3","3","5","2","2","3","4","4","4","2","1","2","1","1","0","1","0","1","0","1","0","1","0","0","1","0","1","3","2","2","2","2","5","3","2","1","1","6","乔","","","","nonmatch","","","","","","","","","","","","","","key","j","16.67045945945974","960","536","j","true","nonmatch","img/circle.png","梯形","圆形","ALT1_1","prac_ALT1_1","","","","","","","","","",""
"null","<span style='color:GreenYellow; font-size: 70px;'>正确! </span>","null","html-keyboard-response","154","510921","0.0-7.0-0.0-1.1-0.1-1.71","4","4","4","2","3","3","3","4","4","4","3","5","2","2","3","4","4","3","3","5","2","2","3","4","4","4","2","1","2","1","1","0","1","0","1","0","1","0","1","0","0","1","0","1","3","2","2","2","2","5","3","2","1","1","6","乔","","","","","","","","","","","","","","","","","","","","","","","","","","","","","","feedback_test","","","","","","","","","",""
"null","","null","psychophysics","155","513124","0.0-7.0-0.0-1.1-0.1-0.72","4","4","4","2","3","3","3","4","4","4","3","5","2","2","3","4","4","3","3","5","2","2","3","4","4","4","2","1","2","1","1","0","1","0","1","0","1","0","1","0","0","1","0","1","3","2","2","2","2","5","3","2","1","1","6","乔","","","","null","","","","","","","","","","","","","","key","null","16.66668702290084","960","536","f","false","match","img/diamond.png","菱形","菱形","ALT1_1","prac_ALT1_1","","","","","","","","","",""
"null","<span class='add_' style='color:yellow; font-size: 70px;'> 太慢! </span>","null","html-keyboard-response","156","513626","0.0-7.0-0.0-1.1-0.1-1.72","4","4","4","2","3","3","3","4","4","4","3","5","2","2","3","4","4","3","3","5","2","2","3","4","4","4","2","1","2","1","1","0","1","0","1","0","1","0","1","0","0","1","0","1","3","2","2","2","2","5","3","2","1","1","6","乔","","","","","","","","","","","","","","","","","","","","","","","","","","","","","","feedback_test","","","","","","","","","",""
"1003","","f","psychophysics","157","515631","0.0-7.0-0.0-1.1-0.1-0.73","4","4","4","2","3","3","3","4","4","4","3","5","2","2","3","4","4","3","3","5","2","2","3","4","4","4","2","1","2","1","1","0","1","0","1","0","1","0","1","0","0","1","0","1","3","2","2","2","2","5","3","2","1","1","6","乔","","","","match","","","","","","","","","","","","","","key","f","16.667084033613214","960","536","f","true","match","img/diamond.png","菱形","菱形","ALT1_1","prac_ALT1_1","","","","","","","","","",""
"null","<span style='color:GreenYellow; font-size: 70px;'>正确! </span>","null","html-keyboard-response","158","516133","0.0-7.0-0.0-1.1-0.1-1.73","4","4","4","2","3","3","3","4","4","4","3","5","2","2","3","4","4","3","3","5","2","2","3","4","4","4","2","1","2","1","1","0","1","0","1","0","1","0","1","0","0","1","0","1","3","2","2","2","2","5","3","2","1","1","6","乔","","","","","","","","","","","","","","","","","","","","","","","","","","","","","","feedback_test","","","","","","","","","",""
"878","","j","psychophysics","159","518013","0.0-7.0-0.0-1.1-0.1-0.74","4","4","4","2","3","3","3","4","4","4","3","5","2","2","3","4","4","3","3","5","2","2","3","4","4","4","2","1","2","1","1","0","1","0","1","0","1","0","1","0","0","1","0","1","3","2","2","2","2","5","3","2","1","1","6","乔","","","","nonmatch","","","","","","","","","","","","","","key","j","16.664874999999615","960","536","j","true","nonmatch","img/hexagon.png","菱形","六边","ALT1_1","prac_ALT1_1","","","","","","","","","",""
"null","<span style='color:GreenYellow; font-size: 70px;'>正确! </span>","null","html-keyboard-response","160","518517","0.0-7.0-0.0-1.1-0.1-1.74","4","4","4","2","3","3","3","4","4","4","3","5","2","2","3","4","4","3","3","5","2","2","3","4","4","4","2","1","2","1","1","0","1","0","1","0","1","0","1","0","0","1","0","1","3","2","2","2","2","5","3","2","1","1","6","乔","","","","","","","","","","","","","","","","","","","","","","","","","","","","","","feedback_test","","","","","","","","","",""
"1026","","f","psychophysics","161","520545","0.0-7.0-0.0-1.1-0.1-0.75","4","4","4","2","3","3","3","4","4","4","3","5","2","2","3","4","4","3","3","5","2","2","3","4","4","4","2","1","2","1","1","0","1","0","1","0","1","0","1","0","0","1","0","1","3","2","2","2","2","5","3","2","1","1","6","乔","","","","match","","","","","","","","","","","","","","key","f","16.664289256197993","960","536","f","true","match","img/circle.png","圆形","圆形","ALT1_1","prac_ALT1_1","","","","","","","","","",""
"null","<span style='color:GreenYellow; font-size: 70px;'>正确! </span>","null","html-keyboard-response","162","521049","0.0-7.0-0.0-1.1-0.1-1.75","4","4","4","2","3","3","3","4","4","4","3","5","2","2","3","4","4","3","3","5","2","2","3","4","4","4","2","1","2","1","1","0","1","0","1","0","1","0","1","0","0","1","0","1","3","2","2","2","2","5","3","2","1","1","6","乔","","","","","","","","","","","","","","","","","","","","","","","","","","","","","","feedback_test","","","","","","","","","",""
"968","","f","psychophysics","163","523020","0.0-7.0-0.0-1.1-0.1-0.76","4","4","4","2","3","3","3","4","4","4","3","5","2","2","3","4","4","3","3","5","2","2","3","4","4","4","2","1","2","1","1","0","1","0","1","0","1","0","1","0","0","1","0","1","3","2","2","2","2","5","3","2","1","1","6","乔","","","","match","","","","","","","","","","","","","","key","f","16.664358974359313","960","536","f","true","match","img/hexagon.png","六边","六边","ALT1_1","prac_ALT1_1","","","","","","","","","",""
"null","<span style='color:GreenYellow; font-size: 70px;'>正确! </span>","null","html-keyboard-response","164","523521","0.0-7.0-0.0-1.1-0.1-1.76","4","4","4","2","3","3","3","4","4","4","3","5","2","2","3","4","4","3","3","5","2","2","3","4","4","4","2","1","2","1","1","0","1","0","1","0","1","0","1","0","0","1","0","1","3","2","2","2","2","5","3","2","1","1","6","乔","","","","","","","","","","","","","","","","","","","","","","","","","","","","","","feedback_test","","","","","","","","","",""
"909","","j","psychophysics","165","525431","0.0-7.0-0.0-1.1-0.1-0.77","4","4","4","2","3","3","3","4","4","4","3","5","2","2","3","4","4","3","3","5","2","2","3","4","4","4","2","1","2","1","1","0","1","0","1","0","1","0","1","0","0","1","0","1","3","2","2","2","2","5","3","2","1","1","6","乔","","","","nonmatch","","","","","","","","","","","","","","key","j","16.667938596491393","960","536","j","true","nonmatch","img/trapezoid.png","菱形","梯形","ALT1_1","prac_ALT1_1","","","","","","","","","",""
"null","<span style='color:GreenYellow; font-size: 70px;'>正确! </span>","null","html-keyboard-response","166","525934","0.0-7.0-0.0-1.1-0.1-1.77","4","4","4","2","3","3","3","4","4","4","3","5","2","2","3","4","4","3","3","5","2","2","3","4","4","4","2","1","2","1","1","0","1","0","1","0","1","0","1","0","0","1","0","1","3","2","2","2","2","5","3","2","1","1","6","乔","","","","","","","","","","","","","","","","","","","","","","","","","","","","","","feedback_test","","","","","","","","","",""
"null","","null","psychophysics","167","528137","0.0-7.0-0.0-1.1-0.1-0.78","4","4","4","2","3","3","3","4","4","4","3","5","2","2","3","4","4","3","3","5","2","2","3","4","4","4","2","1","2","1","1","0","1","0","1","0","1","0","1","0","0","1","0","1","3","2","2","2","2","5","3","2","1","1","6","乔","","","","null","","","","","","","","","","","","","","key","null","16.66555725190902","960","536","f","false","match","img/circle.png","圆形","圆形","ALT1_1","prac_ALT1_1","","","","","","","","","",""
"null","<span class='add_' style='color:yellow; font-size: 70px;'> 太慢! </span>","null","html-keyboard-response","168","528640","0.0-7.0-0.0-1.1-0.1-1.78","4","4","4","2","3","3","3","4","4","4","3","5","2","2","3","4","4","3","3","5","2","2","3","4","4","4","2","1","2","1","1","0","1","0","1","0","1","0","1","0","0","1","0","1","3","2","2","2","2","5","3","2","1","1","6","乔","","","","","","","","","","","","","","","","","","","","","","","","","","","","","","feedback_test","","","","","","","","","",""
"976","","j","psychophysics","169","530620","0.0-7.0-0.0-1.1-0.1-0.79","4","4","4","2","3","3","3","4","4","4","3","5","2","2","3","4","4","3","3","5","2","2","3","4","4","4","2","1","2","1","1","0","1","0","1","0","1","0","1","0","0","1","0","1","3","2","2","2","2","5","3","2","1","1","6","乔","","","","nonmatch","","","","","","","","","","","","","","key","j","16.66438461538468","960","536","j","true","nonmatch","img/hexagon.png","梯形","六边","ALT1_1","prac_ALT1_1","","","","","","","","","",""
"null","<span style='color:GreenYellow; font-size: 70px;'>正确! </span>","null","html-keyboard-response","170","531123","0.0-7.0-0.0-1.1-0.1-1.79","4","4","4","2","3","3","3","4","4","4","3","5","2","2","3","4","4","3","3","5","2","2","3","4","4","4","2","1","2","1","1","0","1","0","1","0","1","0","1","0","0","1","0","1","3","2","2","2","2","5","3","2","1","1","6","乔","","","","","","","","","","","","","","","","","","","","","","","","","","","","","","feedback_test","","","","","","","","","",""
"969","","j","psychophysics","171","533094","0.0-7.0-0.0-1.1-0.1-0.80","4","4","4","2","3","3","3","4","4","4","3","5","2","2","3","4","4","3","3","5","2","2","3","4","4","4","2","1","2","1","1","0","1","0","1","0","1","0","1","0","0","1","0","1","3","2","2","2","2","5","3","2","1","1","6","乔","","","","nonmatch","","","","","","","","","","","","","","key","j","16.666324786325465","960","536","j","true","nonmatch","img/diamond.png","圆形","菱形","ALT1_1","prac_ALT1_1","","","","","","","","","",""
"null","<span style='color:GreenYellow; font-size: 70px;'>正确! </span>","null","html-keyboard-response","172","533596","0.0-7.0-0.0-1.1-0.1-1.80","4","4","4","2","3","3","3","4","4","4","3","5","2","2","3","4","4","3","3","5","2","2","3","4","4","4","2","1","2","1","1","0","1","0","1","0","1","0","1","0","0","1","0","1","3","2","2","2","2","5","3","2","1","1","6","乔","","","","","","","","","","","","","","","","","","","","","","","","","","","","","","feedback_test","","","","","","","","","",""
"990","","j","psychophysics","173","535589","0.0-7.0-0.0-1.1-0.1-0.81","4","4","4","2","3","3","3","4","4","4","3","5","2","2","3","4","4","3","3","5","2","2","3","4","4","4","2","1","2","1","1","0","1","0","1","0","1","0","1","0","0","1","0","1","3","2","2","2","2","5","3","2","1","1","6","乔","","","","nonmatch","","","","","","","","","","","","","","key","j","16.669296610169113","960","536","f","false","match","img/hexagon.png","六边","六边","ALT1_1","prac_ALT1_1","","","","","","","","","",""
"null","<span style='color:red; font-size: 70px;'>错误! </span>","null","html-keyboard-response","174","536089","0.0-7.0-0.0-1.1-0.1-1.81","4","4","4","2","3","3","3","4","4","4","3","5","2","2","3","4","4","3","3","5","2","2","3","4","4","4","2","1","2","1","1","0","1","0","1","0","1","0","1","0","0","1","0","1","3","2","2","2","2","5","3","2","1","1","6","乔","","","","","","","","","","","","","","","","","","","","","","","","","","","","","","feedback_test","","","","","","","","","",""
"null","","null","psychophysics","175","538292","0.0-7.0-0.0-1.1-0.1-0.82","4","4","4","2","3","3","3","4","4","4","3","5","2","2","3","4","4","3","3","5","2","2","3","4","4","4","2","1","2","1","1","0","1","0","1","0","1","0","1","0","0","1","0","1","3","2","2","2","2","5","3","2","1","1","6","乔","","","","null","","","","","","","","","","","","","","key","null","16.656198473281997","960","536","j","false","nonmatch","img/circle.png","梯形","圆形","ALT1_1","prac_ALT1_1","","","","","","","","","",""
"null","<span class='add_' style='color:yellow; font-size: 70px;'> 太慢! </span>","null","html-keyboard-response","176","538802","0.0-7.0-0.0-1.1-0.1-1.82","4","4","4","2","3","3","3","4","4","4","3","5","2","2","3","4","4","3","3","5","2","2","3","4","4","4","2","1","2","1","1","0","1","0","1","0","1","0","1","0","0","1","0","1","3","2","2","2","2","5","3","2","1","1","6","乔","","","","","","","","","","","","","","","","","","","","","","","","","","","","","","feedback_test","","","","","","","","","",""
"809","","f","psychophysics","177","540614","0.0-7.0-0.0-1.1-0.1-0.83","4","4","4","2","3","3","3","4","4","4","3","5","2","2","3","4","4","3","3","5","2","2","3","4","4","4","2","1","2","1","1","0","1","0","1","0","1","0","1","0","0","1","0","1","3","2","2","2","2","5","3","2","1","1","6","乔","","","","match","","","","","","","","","","","","","","key","f","16.66622222222267","960","536","j","false","nonmatch","img/diamond.png","梯形","菱形","ALT1_1","prac_ALT1_1","","","","","","","","","",""
"null","<span style='color:red; font-size: 70px;'>错误! </span>","null","html-keyboard-response","178","541117","0.0-7.0-0.0-1.1-0.1-1.83","4","4","4","2","3","3","3","4","4","4","3","5","2","2","3","4","4","3","3","5","2","2","3","4","4","4","2","1","2","1","1","0","1","0","1","0","1","0","1","0","0","1","0","1","3","2","2","2","2","5","3","2","1","1","6","乔","","","","","","","","","","","","","","","","","","","","","","","","","","","","","","feedback_test","","","","","","","","","",""
"1078","","j","psychophysics","179","543199","0.0-7.0-0.0-1.1-0.1-0.84","4","4","4","2","3","3","3","4","4","4","3","5","2","2","3","4","4","3","3","5","2","2","3","4","4","4","2","1","2","1","1","0","1","0","1","0","1","0","1","0","0","1","0","1","3","2","2","2","2","5","3","2","1","1","6","乔","","","","nonmatch","","","","","","","","","","","","","","key","j","16.667008064515446","960","536","j","true","nonmatch","img/circle.png","菱形","圆形","ALT1_1","prac_ALT1_1","","","","","","","","","",""
"null","<span style='color:GreenYellow; font-size: 70px;'>正确! </span>","null","html-keyboard-response","180","543704","0.0-7.0-0.0-1.1-0.1-1.84","4","4","4","2","3","3","3","4","4","4","3","5","2","2","3","4","4","3","3","5","2","2","3","4","4","4","2","1","2","1","1","0","1","0","1","0","1","0","1","0","0","1","0","1","3","2","2","2","2","5","3","2","1","1","6","乔","","","","","","","","","","","","","","","","","","","","","","","","","","","","","","feedback_test","","","","","","","","","",""
"833","","f","psychophysics","181","545539","0.0-7.0-0.0-1.1-0.1-0.85","4","4","4","2","3","3","3","4","4","4","3","5","2","2","3","4","4","3","3","5","2","2","3","4","4","4","2","1","2","1","1","0","1","0","1","0","1","0","1","0","0","1","0","1","3","2","2","2","2","5","3","2","1","1","6","乔","","","","match","","","","","","","","","","","","","","key","f","16.664715596330524","960","536","j","false","nonmatch","img/hexagon.png","圆形","六边","ALT1_1","prac_ALT1_1","","","","","","","","","",""
"null","<span style='color:red; font-size: 70px;'>错误! </span>","null","html-keyboard-response","182","546042","0.0-7.0-0.0-1.1-0.1-1.85","4","4","4","2","3","3","3","4","4","4","3","5","2","2","3","4","4","3","3","5","2","2","3","4","4","4","2","1","2","1","1","0","1","0","1","0","1","0","1","0","0","1","0","1","3","2","2","2","2","5","3","2","1","1","6","乔","","","","","","","","","","","","","","","","","","","","","","","","","","","","","","feedback_test","","","","","","","","","",""
"null","","null","psychophysics","183","548244","0.0-7.0-0.0-1.1-0.1-0.86","4","4","4","2","3","3","3","4","4","4","3","5","2","2","3","4","4","3","3","5","2","2","3","4","4","4","2","1","2","1","1","0","1","0","1","0","1","0","1","0","0","1","0","1","3","2","2","2","2","5","3","2","1","1","6","乔","","","","null","","","","","","","","","","","","","","key","null","16.666648854961874","960","536","j","false","nonmatch","img/diamond.png","六边","菱形","ALT1_1","prac_ALT1_1","","","","","","","","","",""
"null","<span class='add_' style='color:yellow; font-size: 70px;'> 太慢! </span>","null","html-keyboard-response","184","548756","0.0-7.0-0.0-1.1-0.1-1.86","4","4","4","2","3","3","3","4","4","4","3","5","2","2","3","4","4","3","3","5","2","2","3","4","4","4","2","1","2","1","1","0","1","0","1","0","1","0","1","0","0","1","0","1","3","2","2","2","2","5","3","2","1","1","6","乔","","","","","","","","","","","","","","","","","","","","","","","","","","","","","","feedback_test","","","","","","","","","",""
"895","","f","psychophysics","185","550653","0.0-7.0-0.0-1.1-0.1-0.87","4","4","4","2","3","3","3","4","4","4","3","5","2","2","3","4","4","3","3","5","2","2","3","4","4","4","2","1","2","1","1","0","1","0","1","0","1","0","1","0","0","1","0","1","3","2","2","2","2","5","3","2","1","1","6","乔","","","","match","","","","","","","","","","","","","","key","f","16.65884821428543","960","536","f","true","match","img/trapezoid.png","梯形","梯形","ALT1_1","prac_ALT1_1","","","","","","","","","",""
"null","<span style='color:GreenYellow; font-size: 70px;'>正确! </span>","null","html-keyboard-response","186","551159","0.0-7.0-0.0-1.1-0.1-1.87","4","4","4","2","3","3","3","4","4","4","3","5","2","2","3","4","4","3","3","5","2","2","3","4","4","4","2","1","2","1","1","0","1","0","1","0","1","0","1","0","0","1","0","1","3","2","2","2","2","5","3","2","1","1","6","乔","","","","","","","","","","","","","","","","","","","","","","","","","","","","","","feedback_test","","","","","","","","","",""
"875","","f","psychophysics","187","553035","0.0-7.0-0.0-1.1-0.1-0.88","4","4","4","2","3","3","3","4","4","4","3","5","2","2","3","4","4","3","3","5","2","2","3","4","4","4","2","1","2","1","1","0","1","0","1","0","1","0","1","0","0","1","0","1","3","2","2","2","2","5","3","2","1","1","6","乔","","","","match","","","","","","","","","","","","","","key","f","16.66370270270246","960","536","f","true","match","img/hexagon.png","六边","六边","ALT1_1","prac_ALT1_1","","","","","","","","","",""
"null","<span style='color:GreenYellow; font-size: 70px;'>正确! </span>","null","html-keyboard-response","188","553536","0.0-7.0-0.0-1.1-0.1-1.88","4","4","4","2","3","3","3","4","4","4","3","5","2","2","3","4","4","3","3","5","2","2","3","4","4","4","2","1","2","1","1","0","1","0","1","0","1","0","1","0","0","1","0","1","3","2","2","2","2","5","3","2","1","1","6","乔","","","","","","","","","","","","","","","","","","","","","","","","","","","","","","feedback_test","","","","","","","","","",""
"732","","f","psychophysics","189","555269","0.0-7.0-0.0-1.1-0.1-0.89","4","4","4","2","3","3","3","4","4","4","3","5","2","2","3","4","4","3","3","5","2","2","3","4","4","4","2","1","2","1","1","0","1","0","1","0","1","0","1","0","0","1","0","1","3","2","2","2","2","5","3","2","1","1","6","乔","","","","match","","","","","","","","","","","","","","key","f","16.66594174757342","960","536","f","true","match","img/circle.png","圆形","圆形","ALT1_1","prac_ALT1_1","","","","","","","","","",""
"null","<span style='color:GreenYellow; font-size: 70px;'>正确! </span>","null","html-keyboard-response","190","555770","0.0-7.0-0.0-1.1-0.1-1.89","4","4","4","2","3","3","3","4","4","4","3","5","2","2","3","4","4","3","3","5","2","2","3","4","4","4","2","1","2","1","1","0","1","0","1","0","1","0","1","0","0","1","0","1","3","2","2","2","2","5","3","2","1","1","6","乔","","","","","","","","","","","","","","","","","","","","","","","","","","","","","","feedback_test","","","","","","","","","",""
"770","","f","psychophysics","191","557541","0.0-7.0-0.0-1.1-0.1-0.90","4","4","4","2","3","3","3","4","4","4","3","5","2","2","3","4","4","3","3","5","2","2","3","4","4","4","2","1","2","1","1","0","1","0","1","0","1","0","1","0","0","1","0","1","3","2","2","2","2","5","3","2","1","1","6","乔","","","","match","","","","","","","","","","","","","","key","f","16.6658190476187","960","536","f","true","match","img/trapezoid.png","梯形","梯形","ALT1_1","prac_ALT1_1","","","","","","","","","",""
"null","<span style='color:GreenYellow; font-size: 70px;'>正确! </span>","null","html-keyboard-response","192","558044","0.0-7.0-0.0-1.1-0.1-1.90","4","4","4","2","3","3","3","4","4","4","3","5","2","2","3","4","4","3","3","5","2","2","3","4","4","4","2","1","2","1","1","0","1","0","1","0","1","0","1","0","0","1","0","1","3","2","2","2","2","5","3","2","1","1","6","乔","","","","","","","","","","","","","","","","","","","","","","","","","","","","","","feedback_test","","","","","","","","","",""
"930","","j","psychophysics","193","559976","0.0-7.0-0.0-1.1-0.1-0.91","4","4","4","2","3","3","3","4","4","4","3","5","2","2","3","4","4","3","3","5","2","2","3","4","4","4","2","1","2","1","1","0","1","0","1","0","1","0","1","0","0","1","0","1","3","2","2","2","2","5","3","2","1","1","6","乔","","","","nonmatch","","","","","","","","","","","","","","key","j","16.667026315790217","960","536","j","true","nonmatch","img/circle.png","六边","圆形","ALT1_1","prac_ALT1_1","","","","","","","","","",""
