"rt","stimulus","response","trial_type","trial_index","time_elapsed","internal_node_id","ses_1","ses_2","ses_3","ses_4","ses_5","ses_6","ses_7","ses_8","ses_9","ses_10","coreself_1","coreself_2","coreself_3","coreself_4","coreself_5","coreself_6","coreself_7","coreself_8","coreself_9","coreself_10","SGPS_1","SGPS_2","SGPS_3","SGPS_4","SGPS_5","SGPS_6","SGPS_7","SGPS_8","SGPS_9","SGPS_10","NPI1","NPI2","NPI3","NPI4","NPI5","NPI6","NPI7","NPI8","NPI9","NPI10","NPI11","NPI12","NPI13","NPI14","NPI15","hsns_1","hsns_2","hsns_3","hsns_4","hsns_5","hsns_6","hsns_7","hsns_8","hsns_9","hsns_10","subj_idx","friend_name","value","success","user_agent","responses","item_order","radio_event_ids","radio_event_times","key_event_times","mouse_event_times","straightlining","zigzagging","honeypot","timeout","failed_images","failed_audio","failed_video","view_history","response_type","key_press","avg_frame_time","center_x","center_y","correct_response","correct","identity","Image","word","condition","task_id","screen_id","time_stamp","version_attrib2","version_target2","IAT","RT","varname","summary","version_attrib","version_target","question_order"
"2347","
   <p><div style = ""color: white;font-size:25px;"">您好，欢迎参加本次实验。</div> </p>
   <p><div style = ""color: white;font-size:25px;"">为充分保障您的权利，请确保您已经知晓并同意《参与实验同意书》以及《数据公开知情同意书》。</div></p>
   <p><div style = ""color: white;font-size:25px;"">如果您未见过上述内容，请咨询实验员。</div></p>
   <p><div style = ""color: white;font-size:25px;"">如果您选择继续实验，则表示您已经清楚两份知情同意书的内容并同意。</div></p>
   <p> <div style = ""color: green;font-size:25px;""><按空格键至下页></div> </p>
   "," ","html-keyboard-response","0","2348","0.0-0.0","3","3","3","3","2","2","2","4","2","4","4","1","1","2","4","4","4","2","3","2","5","5","5","4","5","5","4","5","5","","1","0","0","1","0","0","1","0","0","1","0","0","0","0","1","5","4","4","5","5","5","5","5","1","4","230809","程","","","","","","","","","","","","","","","","","","","","","","","","","","","","","","","","","","","","","","","",""
"","","","call-function","1","2349","0.0-1.0-0.0","3","3","3","3","2","2","2","4","2","4","4","1","1","2","4","4","4","2","3","2","5","5","5","4","5","5","4","5","5","","1","0","0","1","0","0","1","0","0","1","0","0","0","0","1","5","4","4","5","5","5","5","5","1","4","230809","程","","","","","","","","","","","","","","","","","","","","","","","","","","","","","","","","","","","","","","","",""
"18353","","{""friend_name"":""程"",""subj_idx"":""230809""}","survey-html-form","2","20703","0.0-1.0-1.0","3","3","3","3","2","2","2","4","2","4","4","1","1","2","4","4","4","2","3","2","5","5","5","4","5","5","4","5","5","","1","0","0","1","0","0","1","0","0","1","0","0","0","0","1","5","4","4","5","5","5","5","5","1","4","230809","程","","","","","","","","","","","","","","","","","","","","","","","","","","","","","","","","","","","","","","","",""
"","","","fullscreen","3","21811","0.0-2.0","3","3","3","3","2","2","2","4","2","4","4","1","1","2","4","4","4","2","3","2","5","5","5","4","5","5","4","5","5","","1","0","0","1","0","0","1","0","0","1","0","0","0","0","1","5","4","4","5","5","5","5","5","1","4","230809","程","","true","{}","","","","","","","","","","","","","","","","","","","","","","","","","","","","","","","","","","","","",""
"38596.90000009537","","{""Q01"":""3"",""Q02"":""3"",""Q03"":""3"",""Q04"":""3"",""Q05"":""2"",""Q06"":""2"",""Q07"":""2"",""Q08"":""4"",""Q09"":""2"",""Q10"":""4""}","survey-template","4","60411","0.0-3.0","3","3","3","3","2","2","2","4","2","4","4","1","1","2","4","4","4","2","3","2","5","5","5","4","5","5","4","5","5","","1","0","0","1","0","0","1","0","0","1","0","0","0","0","1","5","4","4","5","5","5","5","5","1","4","230809","程","","","","{""Q01"":""3"",""Q02"":""3"",""Q03"":""3"",""Q04"":""3"",""Q05"":""2"",""Q06"":""2"",""Q07"":""2"",""Q08"":""4"",""Q09"":""2"",""Q10"":""4""}","[0,1,2,3,4,5,6,7,8,9]","[""Q01"",""Q02"",""Q03"",""Q04"",""Q05"",""Q06"",""Q07"",""Q08"",""Q09"",""Q10""]","[7732.200000047684,17910.900000095367,23363.200000047684,24624.60000014305,27473.5,29093.400000095367,31726.200000047684,33247.90000009537,35152.799999952316,37396.40000009537]","[]","[7732.200000047684,17910.900000095367,23363.200000047684,24624.60000014305,27473.5,29093.400000095367,31726.200000047684,33247.90000009537,35152.799999952316,37396.40000009537,38596.10000014305]","0.5","0.4444444444444444","0","","","","","","","","","","","","","","","","","","","","","","","","","","","",""
"40595.800000190735","","{""Q01"":""4"",""Q02"":""1"",""Q03"":""1"",""Q04"":""2"",""Q05"":""4"",""Q06"":""4"",""Q07"":""4"",""Q08"":""2"",""Q09"":""3"",""Q10"":""2""}","survey-template","5","101011","0.0-4.0","3","3","3","3","2","2","2","4","2","4","4","1","1","2","4","4","4","2","3","2","5","5","5","4","5","5","4","5","5","","1","0","0","1","0","0","1","0","0","1","0","0","0","0","1","5","4","4","5","5","5","5","5","1","4","230809","程","","","","{""Q01"":""4"",""Q02"":""1"",""Q03"":""1"",""Q04"":""2"",""Q05"":""4"",""Q06"":""4"",""Q07"":""4"",""Q08"":""2"",""Q09"":""3"",""Q10"":""2""}","[0,1,2,3,4,5,6,7,8,9]","[""Q01"",""Q01"",""Q02"",""Q03"",""Q04"",""Q05"",""Q06"",""Q07"",""Q08"",""Q09"",""Q10""]","[4112.800000190735,5837.300000190735,7180.100000143051,9154.700000047684,17351.700000047684,21919.400000095367,23651.400000095367,25399.800000190735,31518.800000190735,37383.200000047684,39214.5]","[]","[4112.800000190735,5837.300000190735,7180.100000143051,9154.700000047684,17351.700000047684,21919.400000095367,23651.400000095367,25399.800000190735,31518.800000190735,37383.200000047684,39214.5,40595]","0.4","0.3333333333333333","0","","","","","","","","","","","","","","","","","","","","","","","","","","","",""
"","","","preload","6","101357","0.0-5.0","3","3","3","3","2","2","2","4","2","4","4","1","1","2","4","4","4","2","3","2","5","5","5","4","5","5","4","5","5","","1","0","0","1","0","0","1","0","0","1","0","0","0","0","1","5","4","4","5","5","5","5","5","1","4","230809","程","","true","","","","","","","","","","","false","[]","[]","[]","","","","","","","","","","","","","","","","","","","","","","","",""
"2178","","","instructions","7","103536","0.0-6.0","3","3","3","3","2","2","2","4","2","4","4","1","1","2","4","4","4","2","3","2","5","5","5","4","5","5","4","5","5","","1","0","0","1","0","0","1","0","0","1","0","0","0","0","1","5","4","4","5","5","5","5","5","1","4","230809","程","","","","","","","","","","","","","","","","","[{""page_index"":0,""viewing_time"":2178}]","","","","","","","","","","","","","","","","","","","","","","",""
"25463","","","instructions","8","128999","0.0-7.0-0.0-0.0","3","3","3","3","2","2","2","4","2","4","4","1","1","2","4","4","4","2","3","2","5","5","5","4","5","5","4","5","5","","1","0","0","1","0","0","1","0","0","1","0","0","0","0","1","5","4","4","5","5","5","5","5","1","4","230809","程","","","","","","","","","","","","","","","","","[{""page_index"":0,""viewing_time"":21578},{""page_index"":1,""viewing_time"":2595},{""page_index"":2,""viewing_time"":1290}]","","","","","","","","","","","","","","","","","","","","","","",""
"1001","","j","psychophysics","9","131002","0.0-7.0-0.0-1.0-0.0-0.0","3","3","3","3","2","2","2","4","2","4","4","1","1","2","4","4","4","2","3","2","5","5","5","4","5","5","4","5","5","","1","0","0","1","0","0","1","0","0","1","0","0","0","0","1","5","4","4","5","5","5","5","5","1","4","230809","程","","","","match","","","","","","","","","","","","","","key","j","4.201715189873412","853.3333333333334","476","f","false","nonmatch","img/triangle.png","菱形","三角","ALT1_1","prac_ALT1_1","","","","","","","","","",""
"null","<span style='color:red; font-size: 70px;'>错误! </span>","null","html-keyboard-response","10","131503","0.0-7.0-0.0-1.0-0.0-1.0","3","3","3","3","2","2","2","4","2","4","4","1","1","2","4","4","4","2","3","2","5","5","5","4","5","5","4","5","5","","1","0","0","1","0","0","1","0","0","1","0","0","0","0","1","5","4","4","5","5","5","5","5","1","4","230809","程","","","","","","","","","","","","","","","","","","","","","","","","","","","","","","feedback_test","","","","","","","","","",""
"820","","f","psychophysics","11","133324","0.0-7.0-0.0-1.0-0.0-0.1","3","3","3","3","2","2","2","4","2","4","4","1","1","2","4","4","4","2","3","2","5","5","5","4","5","5","4","5","5","","1","0","0","1","0","0","1","0","0","1","0","0","0","0","1","5","4","4","5","5","5","5","5","1","4","230809","程","","","","nonmatch","","","","","","","","","","","","","","key","f","4.17619815668203","853.3333333333334","476","f","true","nonmatch","img/square.png","圆形","方形","ALT1_1","prac_ALT1_1","","","","","","","","","",""
"null","<span style='color:GreenYellow; font-size: 70px;'>正确! </span>","null","html-keyboard-response","12","133825","0.0-7.0-0.0-1.0-0.0-1.1","3","3","3","3","2","2","2","4","2","4","4","1","1","2","4","4","4","2","3","2","5","5","5","4","5","5","4","5","5","","1","0","0","1","0","0","1","0","0","1","0","0","0","0","1","5","4","4","5","5","5","5","5","1","4","230809","程","","","","","","","","","","","","","","","","","","","","","","","","","","","","","","feedback_test","","","","","","","","","",""
"801","","f","psychophysics","13","135627","0.0-7.0-0.0-1.0-0.0-0.2","3","3","3","3","2","2","2","4","2","4","4","1","1","2","4","4","4","2","3","2","5","5","5","4","5","5","4","5","5","","1","0","0","1","0","0","1","0","0","1","0","0","0","0","1","5","4","4","5","5","5","5","5","1","4","230809","程","","","","nonmatch","","","","","","","","","","","","","","key","f","4.166548837209255","853.3333333333334","476","f","true","nonmatch","img/circle.png","三角","圆形","ALT1_1","prac_ALT1_1","","","","","","","","","",""
"null","<span style='color:GreenYellow; font-size: 70px;'>正确! </span>","null","html-keyboard-response","14","136128","0.0-7.0-0.0-1.0-0.0-1.2","3","3","3","3","2","2","2","4","2","4","4","1","1","2","4","4","4","2","3","2","5","5","5","4","5","5","4","5","5","","1","0","0","1","0","0","1","0","0","1","0","0","0","0","1","5","4","4","5","5","5","5","5","1","4","230809","程","","","","","","","","","","","","","","","","","","","","","","","","","","","","","","feedback_test","","","","","","","","","",""
"785","","f","psychophysics","15","137915","0.0-7.0-0.0-1.0-0.0-0.3","3","3","3","3","2","2","2","4","2","4","4","1","1","2","4","4","4","2","3","2","5","5","5","4","5","5","4","5","5","","1","0","0","1","0","0","1","0","0","1","0","0","0","0","1","5","4","4","5","5","5","5","5","1","4","230809","程","","","","nonmatch","","","","","","","","","","","","","","key","f","4.176279342723007","853.3333333333334","476","f","true","nonmatch","img/diamond.png","方形","菱形","ALT1_1","prac_ALT1_1","","","","","","","","","",""
"null","<span style='color:GreenYellow; font-size: 70px;'>正确! </span>","null","html-keyboard-response","16","138415","0.0-7.0-0.0-1.0-0.0-1.3","3","3","3","3","2","2","2","4","2","4","4","1","1","2","4","4","4","2","3","2","5","5","5","4","5","5","4","5","5","","1","0","0","1","0","0","1","0","0","1","0","0","0","0","1","5","4","4","5","5","5","5","5","1","4","230809","程","","","","","","","","","","","","","","","","","","","","","","","","","","","","","","feedback_test","","","","","","","","","",""
"622","","j","psychophysics","17","140038","0.0-7.0-0.0-1.0-0.0-0.4","3","3","3","3","2","2","2","4","2","4","4","1","1","2","4","4","4","2","3","2","5","5","5","4","5","5","4","5","5","","1","0","0","1","0","0","1","0","0","1","0","0","0","0","1","5","4","4","5","5","5","5","5","1","4","230809","程","","","","match","","","","","","","","","","","","","","key","j","4.162020618556705","853.3333333333334","476","j","true","match","img/diamond.png","菱形","菱形","ALT1_1","prac_ALT1_1","","","","","","","","","",""
"null","<span style='color:GreenYellow; font-size: 70px;'>正确! </span>","null","html-keyboard-response","18","140540","0.0-7.0-0.0-1.0-0.0-1.4","3","3","3","3","2","2","2","4","2","4","4","1","1","2","4","4","4","2","3","2","5","5","5","4","5","5","4","5","5","","1","0","0","1","0","0","1","0","0","1","0","0","0","0","1","5","4","4","5","5","5","5","5","1","4","230809","程","","","","","","","","","","","","","","","","","","","","","","","","","","","","","","feedback_test","","","","","","","","","",""
"506","","j","psychophysics","19","142046","0.0-7.0-0.0-1.0-0.0-0.5","3","3","3","3","2","2","2","4","2","4","4","1","1","2","4","4","4","2","3","2","5","5","5","4","5","5","4","5","5","","1","0","0","1","0","0","1","0","0","1","0","0","0","0","1","5","4","4","5","5","5","5","5","1","4","230809","程","","","","match","","","","","","","","","","","","","","key","j","4.1617444444444525","853.3333333333334","476","j","true","match","img/square.png","方形","方形","ALT1_1","prac_ALT1_1","","","","","","","","","",""
"null","<span style='color:GreenYellow; font-size: 70px;'>正确! </span>","null","html-keyboard-response","20","142547","0.0-7.0-0.0-1.0-0.0-1.5","3","3","3","3","2","2","2","4","2","4","4","1","1","2","4","4","4","2","3","2","5","5","5","4","5","5","4","5","5","","1","0","0","1","0","0","1","0","0","1","0","0","0","0","1","5","4","4","5","5","5","5","5","1","4","230809","程","","","","","","","","","","","","","","","","","","","","","","","","","","","","","","feedback_test","","","","","","","","","",""
"757","","j","psychophysics","21","144305","0.0-7.0-0.0-1.0-0.0-0.6","3","3","3","3","2","2","2","4","2","4","4","1","1","2","4","4","4","2","3","2","5","5","5","4","5","5","4","5","5","","1","0","0","1","0","0","1","0","0","1","0","0","0","0","1","5","4","4","5","5","5","5","5","1","4","230809","程","","","","match","","","","","","","","","","","","","","key","j","4.161826190476131","853.3333333333334","476","j","true","match","img/triangle.png","三角","三角","ALT1_1","prac_ALT1_1","","","","","","","","","",""
"null","<span style='color:GreenYellow; font-size: 70px;'>正确! </span>","null","html-keyboard-response","22","144813","0.0-7.0-0.0-1.0-0.0-1.6","3","3","3","3","2","2","2","4","2","4","4","1","1","2","4","4","4","2","3","2","5","5","5","4","5","5","4","5","5","","1","0","0","1","0","0","1","0","0","1","0","0","0","0","1","5","4","4","5","5","5","5","5","1","4","230809","程","","","","","","","","","","","","","","","","","","","","","","","","","","","","","","feedback_test","","","","","","","","","",""
"648","","j","psychophysics","23","146463","0.0-7.0-0.0-1.0-0.0-0.7","3","3","3","3","2","2","2","4","2","4","4","1","1","2","4","4","4","2","3","2","5","5","5","4","5","5","4","5","5","","1","0","0","1","0","0","1","0","0","1","0","0","0","0","1","5","4","4","5","5","5","5","5","1","4","230809","程","","","","match","","","","","","","","","","","","","","key","j","4.177195928753196","853.3333333333334","476","j","true","match","img/circle.png","圆形","圆形","ALT1_1","prac_ALT1_1","","","","","","","","","",""
"null","<span style='color:GreenYellow; font-size: 70px;'>正确! </span>","null","html-keyboard-response","24","146963","0.0-7.0-0.0-1.0-0.0-1.7","3","3","3","3","2","2","2","4","2","4","4","1","1","2","4","4","4","2","3","2","5","5","5","4","5","5","4","5","5","","1","0","0","1","0","0","1","0","0","1","0","0","0","0","1","5","4","4","5","5","5","5","5","1","4","230809","程","","","","","","","","","","","","","","","","","","","","","","","","","","","","","","feedback_test","","","","","","","","","",""
"870","","f","psychophysics","25","148835","0.0-7.0-0.0-1.0-0.0-0.8","3","3","3","3","2","2","2","4","2","4","4","1","1","2","4","4","4","2","3","2","5","5","5","4","5","5","4","5","5","","1","0","0","1","0","0","1","0","0","1","0","0","0","0","1","5","4","4","5","5","5","5","5","1","4","230809","程","","","","nonmatch","","","","","","","","","","","","","","key","f","4.175820627802685","853.3333333333334","476","f","true","nonmatch","img/square.png","菱形","方形","ALT1_1","prac_ALT1_1","","","","","","","","","",""
"null","<span style='color:GreenYellow; font-size: 70px;'>正确! </span>","null","html-keyboard-response","26","149336","0.0-7.0-0.0-1.0-0.0-1.8","3","3","3","3","2","2","2","4","2","4","4","1","1","2","4","4","4","2","3","2","5","5","5","4","5","5","4","5","5","","1","0","0","1","0","0","1","0","0","1","0","0","0","0","1","5","4","4","5","5","5","5","5","1","4","230809","程","","","","","","","","","","","","","","","","","","","","","","","","","","","","","","feedback_test","","","","","","","","","",""
"836","","j","psychophysics","27","151173","0.0-7.0-0.0-1.0-0.0-0.9","3","3","3","3","2","2","2","4","2","4","4","1","1","2","4","4","4","2","3","2","5","5","5","4","5","5","4","5","5","","1","0","0","1","0","0","1","0","0","1","0","0","0","0","1","5","4","4","5","5","5","5","5","1","4","230809","程","","","","match","","","","","","","","","","","","","","key","j","4.2048894009216395","853.3333333333334","476","j","true","match","img/square.png","方形","方形","ALT1_1","prac_ALT1_1","","","","","","","","","",""
"null","<span style='color:GreenYellow; font-size: 70px;'>正确! </span>","null","html-keyboard-response","28","151683","0.0-7.0-0.0-1.0-0.0-1.9","3","3","3","3","2","2","2","4","2","4","4","1","1","2","4","4","4","2","3","2","5","5","5","4","5","5","4","5","5","","1","0","0","1","0","0","1","0","0","1","0","0","0","0","1","5","4","4","5","5","5","5","5","1","4","230809","程","","","","","","","","","","","","","","","","","","","","","","","","","","","","","","feedback_test","","","","","","","","","",""
"706","","f","psychophysics","29","153390","0.0-7.0-0.0-1.0-0.0-0.10","3","3","3","3","2","2","2","4","2","4","4","1","1","2","4","4","4","2","3","2","5","5","5","4","5","5","4","5","5","","1","0","0","1","0","0","1","0","0","1","0","0","0","0","1","5","4","4","5","5","5","5","5","1","4","230809","程","","","","nonmatch","","","","","","","","","","","","","","key","f","4.176726600985195","853.3333333333334","476","f","true","nonmatch","img/circle.png","菱形","圆形","ALT1_1","prac_ALT1_1","","","","","","","","","",""
"null","<span style='color:GreenYellow; font-size: 70px;'>正确! </span>","null","html-keyboard-response","30","153893","0.0-7.0-0.0-1.0-0.0-1.10","3","3","3","3","2","2","2","4","2","4","4","1","1","2","4","4","4","2","3","2","5","5","5","4","5","5","4","5","5","","1","0","0","1","0","0","1","0","0","1","0","0","0","0","1","5","4","4","5","5","5","5","5","1","4","230809","程","","","","","","","","","","","","","","","","","","","","","","","","","","","","","","feedback_test","","","","","","","","","",""
"669","","j","psychophysics","31","155564","0.0-7.0-0.0-1.0-0.0-0.11","3","3","3","3","2","2","2","4","2","4","4","1","1","2","4","4","4","2","3","2","5","5","5","4","5","5","4","5","5","","1","0","0","1","0","0","1","0","0","1","0","0","0","0","1","5","4","4","5","5","5","5","5","1","4","230809","程","","","","match","","","","","","","","","","","","","","key","j","4.208734177215145","853.3333333333334","476","j","true","match","img/triangle.png","三角","三角","ALT1_1","prac_ALT1_1","","","","","","","","","",""
"null","<span style='color:GreenYellow; font-size: 70px;'>正确! </span>","null","html-keyboard-response","32","156065","0.0-7.0-0.0-1.0-0.0-1.11","3","3","3","3","2","2","2","4","2","4","4","1","1","2","4","4","4","2","3","2","5","5","5","4","5","5","4","5","5","","1","0","0","1","0","0","1","0","0","1","0","0","0","0","1","5","4","4","5","5","5","5","5","1","4","230809","程","","","","","","","","","","","","","","","","","","","","","","","","","","","","","","feedback_test","","","","","","","","","",""
"685","","j","psychophysics","33","157752","0.0-7.0-0.0-1.0-0.0-0.12","3","3","3","3","2","2","2","4","2","4","4","1","1","2","4","4","4","2","3","2","5","5","5","4","5","5","4","5","5","","1","0","0","1","0","0","1","0","0","1","0","0","0","0","1","5","4","4","5","5","5","5","5","1","4","230809","程","","","","match","","","","","","","","","","","","","","key","j","4.194384999999966","853.3333333333334","476","j","true","match","img/circle.png","圆形","圆形","ALT1_1","prac_ALT1_1","","","","","","","","","",""
"null","<span style='color:GreenYellow; font-size: 70px;'>正确! </span>","null","html-keyboard-response","34","158253","0.0-7.0-0.0-1.0-0.0-1.12","3","3","3","3","2","2","2","4","2","4","4","1","1","2","4","4","4","2","3","2","5","5","5","4","5","5","4","5","5","","1","0","0","1","0","0","1","0","0","1","0","0","0","0","1","5","4","4","5","5","5","5","5","1","4","230809","程","","","","","","","","","","","","","","","","","","","","","","","","","","","","","","feedback_test","","","","","","","","","",""
"869","","f","psychophysics","35","160124","0.0-7.0-0.0-1.0-0.0-0.13","3","3","3","3","2","2","2","4","2","4","4","1","1","2","4","4","4","2","3","2","5","5","5","4","5","5","4","5","5","","1","0","0","1","0","0","1","0","0","1","0","0","0","0","1","5","4","4","5","5","5","5","5","1","4","230809","程","","","","nonmatch","","","","","","","","","","","","","","key","f","4.232974943052421","853.3333333333334","476","f","true","nonmatch","img/triangle.png","圆形","三角","ALT1_1","prac_ALT1_1","","","","","","","","","",""
"null","<span style='color:GreenYellow; font-size: 70px;'>正确! </span>","null","html-keyboard-response","36","160625","0.0-7.0-0.0-1.0-0.0-1.13","3","3","3","3","2","2","2","4","2","4","4","1","1","2","4","4","4","2","3","2","5","5","5","4","5","5","4","5","5","","1","0","0","1","0","0","1","0","0","1","0","0","0","0","1","5","4","4","5","5","5","5","5","1","4","230809","程","","","","","","","","","","","","","","","","","","","","","","","","","","","","","","feedback_test","","","","","","","","","",""
"492","","j","psychophysics","37","162118","0.0-7.0-0.0-1.0-0.0-0.14","3","3","3","3","2","2","2","4","2","4","4","1","1","2","4","4","4","2","3","2","5","5","5","4","5","5","4","5","5","","1","0","0","1","0","0","1","0","0","1","0","0","0","0","1","5","4","4","5","5","5","5","5","1","4","230809","程","","","","match","","","","","","","","","","","","","","key","j","4.190059322033947","853.3333333333334","476","j","true","match","img/triangle.png","三角","三角","ALT1_1","prac_ALT1_1","","","","","","","","","",""
"null","<span style='color:GreenYellow; font-size: 70px;'>正确! </span>","null","html-keyboard-response","38","162619","0.0-7.0-0.0-1.0-0.0-1.14","3","3","3","3","2","2","2","4","2","4","4","1","1","2","4","4","4","2","3","2","5","5","5","4","5","5","4","5","5","","1","0","0","1","0","0","1","0","0","1","0","0","0","0","1","5","4","4","5","5","5","5","5","1","4","230809","程","","","","","","","","","","","","","","","","","","","","","","","","","","","","","","feedback_test","","","","","","","","","",""
"735","","f","psychophysics","39","164355","0.0-7.0-0.0-1.0-0.0-0.15","3","3","3","3","2","2","2","4","2","4","4","1","1","2","4","4","4","2","3","2","5","5","5","4","5","5","4","5","5","","1","0","0","1","0","0","1","0","0","1","0","0","0","0","1","5","4","4","5","5","5","5","5","1","4","230809","程","","","","nonmatch","","","","","","","","","","","","","","key","f","4.196861313868551","853.3333333333334","476","f","true","nonmatch","img/circle.png","方形","圆形","ALT1_1","prac_ALT1_1","","","","","","","","","",""
"null","<span style='color:GreenYellow; font-size: 70px;'>正确! </span>","null","html-keyboard-response","40","164856","0.0-7.0-0.0-1.0-0.0-1.15","3","3","3","3","2","2","2","4","2","4","4","1","1","2","4","4","4","2","3","2","5","5","5","4","5","5","4","5","5","","1","0","0","1","0","0","1","0","0","1","0","0","0","0","1","5","4","4","5","5","5","5","5","1","4","230809","程","","","","","","","","","","","","","","","","","","","","","","","","","","","","","","feedback_test","","","","","","","","","",""
"771","","f","psychophysics","41","166628","0.0-7.0-0.0-1.0-0.0-0.16","3","3","3","3","2","2","2","4","2","4","4","1","1","2","4","4","4","2","3","2","5","5","5","4","5","5","4","5","5","","1","0","0","1","0","0","1","0","0","1","0","0","0","0","1","5","4","4","5","5","5","5","5","1","4","230809","程","","","","nonmatch","","","","","","","","","","","","","","key","f","4.234264423076918","853.3333333333334","476","f","true","nonmatch","img/triangle.png","方形","三角","ALT1_1","prac_ALT1_1","","","","","","","","","",""
"null","<span style='color:GreenYellow; font-size: 70px;'>正确! </span>","null","html-keyboard-response","42","167129","0.0-7.0-0.0-1.0-0.0-1.16","3","3","3","3","2","2","2","4","2","4","4","1","1","2","4","4","4","2","3","2","5","5","5","4","5","5","4","5","5","","1","0","0","1","0","0","1","0","0","1","0","0","0","0","1","5","4","4","5","5","5","5","5","1","4","230809","程","","","","","","","","","","","","","","","","","","","","","","","","","","","","","","feedback_test","","","","","","","","","",""
"960","","f","psychophysics","43","169090","0.0-7.0-0.0-1.0-0.0-0.17","3","3","3","3","2","2","2","4","2","4","4","1","1","2","4","4","4","2","3","2","5","5","5","4","5","5","4","5","5","","1","0","0","1","0","0","1","0","0","1","0","0","0","0","1","5","4","4","5","5","5","5","5","1","4","230809","程","","","","nonmatch","","","","","","","","","","","","","","key","f","4.184381974248908","853.3333333333334","476","f","true","nonmatch","img/diamond.png","圆形","菱形","ALT1_1","prac_ALT1_1","","","","","","","","","",""
"null","<span style='color:GreenYellow; font-size: 70px;'>正确! </span>","null","html-keyboard-response","44","169591","0.0-7.0-0.0-1.0-0.0-1.17","3","3","3","3","2","2","2","4","2","4","4","1","1","2","4","4","4","2","3","2","5","5","5","4","5","5","4","5","5","","1","0","0","1","0","0","1","0","0","1","0","0","0","0","1","5","4","4","5","5","5","5","5","1","4","230809","程","","","","","","","","","","","","","","","","","","","","","","","","","","","","","","feedback_test","","","","","","","","","",""
"668","","j","psychophysics","45","171259","0.0-7.0-0.0-1.0-0.0-0.18","3","3","3","3","2","2","2","4","2","4","4","1","1","2","4","4","4","2","3","2","5","5","5","4","5","5","4","5","5","","1","0","0","1","0","0","1","0","0","1","0","0","0","0","1","5","4","4","5","5","5","5","5","1","4","230809","程","","","","match","","","","","","","","","","","","","","key","j","4.198093670886084","853.3333333333334","476","j","true","match","img/square.png","方形","方形","ALT1_1","prac_ALT1_1","","","","","","","","","",""
"null","<span style='color:GreenYellow; font-size: 70px;'>正确! </span>","null","html-keyboard-response","46","171762","0.0-7.0-0.0-1.0-0.0-1.18","3","3","3","3","2","2","2","4","2","4","4","1","1","2","4","4","4","2","3","2","5","5","5","4","5","5","4","5","5","","1","0","0","1","0","0","1","0","0","1","0","0","0","0","1","5","4","4","5","5","5","5","5","1","4","230809","程","","","","","","","","","","","","","","","","","","","","","","","","","","","","","","feedback_test","","","","","","","","","",""
"612","","j","psychophysics","47","173376","0.0-7.0-0.0-1.0-0.0-0.19","3","3","3","3","2","2","2","4","2","4","4","1","1","2","4","4","4","2","3","2","5","5","5","4","5","5","4","5","5","","1","0","0","1","0","0","1","0","0","1","0","0","0","0","1","5","4","4","5","5","5","5","5","1","4","230809","程","","","","match","","","","","","","","","","","","","","key","j","4.210183727034087","853.3333333333334","476","j","true","match","img/circle.png","圆形","圆形","ALT1_1","prac_ALT1_1","","","","","","","","","",""
"null","<span style='color:GreenYellow; font-size: 70px;'>正确! </span>","null","html-keyboard-response","48","173877","0.0-7.0-0.0-1.0-0.0-1.19","3","3","3","3","2","2","2","4","2","4","4","1","1","2","4","4","4","2","3","2","5","5","5","4","5","5","4","5","5","","1","0","0","1","0","0","1","0","0","1","0","0","0","0","1","5","4","4","5","5","5","5","5","1","4","230809","程","","","","","","","","","","","","","","","","","","","","","","","","","","","","","","feedback_test","","","","","","","","","",""
"807","","f","psychophysics","49","175685","0.0-7.0-0.0-1.0-0.0-0.20","3","3","3","3","2","2","2","4","2","4","4","1","1","2","4","4","4","2","3","2","5","5","5","4","5","5","4","5","5","","1","0","0","1","0","0","1","0","0","1","0","0","0","0","1","5","4","4","5","5","5","5","5","1","4","230809","程","","","","nonmatch","","","","","","","","","","","","","","key","f","4.182981395348839","853.3333333333334","476","f","true","nonmatch","img/square.png","三角","方形","ALT1_1","prac_ALT1_1","","","","","","","","","",""
"null","<span style='color:GreenYellow; font-size: 70px;'>正确! </span>","null","html-keyboard-response","50","176186","0.0-7.0-0.0-1.0-0.0-1.20","3","3","3","3","2","2","2","4","2","4","4","1","1","2","4","4","4","2","3","2","5","5","5","4","5","5","4","5","5","","1","0","0","1","0","0","1","0","0","1","0","0","0","0","1","5","4","4","5","5","5","5","5","1","4","230809","程","","","","","","","","","","","","","","","","","","","","","","","","","","","","","","feedback_test","","","","","","","","","",""
"581","","j","psychophysics","51","177768","0.0-7.0-0.0-1.0-0.0-0.21","3","3","3","3","2","2","2","4","2","4","4","1","1","2","4","4","4","2","3","2","5","5","5","4","5","5","4","5","5","","1","0","0","1","0","0","1","0","0","1","0","0","0","0","1","5","4","4","5","5","5","5","5","1","4","230809","程","","","","match","","","","","","","","","","","","","","key","j","4.199930481283357","853.3333333333334","476","j","true","match","img/diamond.png","菱形","菱形","ALT1_1","prac_ALT1_1","","","","","","","","","",""
"null","<span style='color:GreenYellow; font-size: 70px;'>正确! </span>","null","html-keyboard-response","52","178268","0.0-7.0-0.0-1.0-0.0-1.21","3","3","3","3","2","2","2","4","2","4","4","1","1","2","4","4","4","2","3","2","5","5","5","4","5","5","4","5","5","","1","0","0","1","0","0","1","0","0","1","0","0","0","0","1","5","4","4","5","5","5","5","5","1","4","230809","程","","","","","","","","","","","","","","","","","","","","","","","","","","","","","","feedback_test","","","","","","","","","",""
"766","","f","psychophysics","53","180035","0.0-7.0-0.0-1.0-0.0-0.22","3","3","3","3","2","2","2","4","2","4","4","1","1","2","4","4","4","2","3","2","5","5","5","4","5","5","4","5","5","","1","0","0","1","0","0","1","0","0","1","0","0","0","0","1","5","4","4","5","5","5","5","5","1","4","230809","程","","","","nonmatch","","","","","","","","","","","","","","key","f","4.193837708830533","853.3333333333334","476","f","true","nonmatch","img/diamond.png","三角","菱形","ALT1_1","prac_ALT1_1","","","","","","","","","",""
"null","<span style='color:GreenYellow; font-size: 70px;'>正确! </span>","null","html-keyboard-response","54","180542","0.0-7.0-0.0-1.0-0.0-1.22","3","3","3","3","2","2","2","4","2","4","4","1","1","2","4","4","4","2","3","2","5","5","5","4","5","5","4","5","5","","1","0","0","1","0","0","1","0","0","1","0","0","0","0","1","5","4","4","5","5","5","5","5","1","4","230809","程","","","","","","","","","","","","","","","","","","","","","","","","","","","","","","feedback_test","","","","","","","","","",""
"640","","j","psychophysics","55","182183","0.0-7.0-0.0-1.0-0.0-0.23","3","3","3","3","2","2","2","4","2","4","4","1","1","2","4","4","4","2","3","2","5","5","5","4","5","5","4","5","5","","1","0","0","1","0","0","1","0","0","1","0","0","0","0","1","5","4","4","5","5","5","5","5","1","4","230809","程","","","","match","","","","","","","","","","","","","","key","j","4.22038242894057","853.3333333333334","476","j","true","match","img/diamond.png","菱形","菱形","ALT1_1","prac_ALT1_1","","","","","","","","","",""
"null","<span style='color:GreenYellow; font-size: 70px;'>正确! </span>","null","html-keyboard-response","56","182684","0.0-7.0-0.0-1.0-0.0-1.23","3","3","3","3","2","2","2","4","2","4","4","1","1","2","4","4","4","2","3","2","5","5","5","4","5","5","4","5","5","","1","0","0","1","0","0","1","0","0","1","0","0","0","0","1","5","4","4","5","5","5","5","5","1","4","230809","程","","","","","","","","","","","","","","","","","","","","","","","","","","","","","","feedback_test","","","","","","","","","",""
"755","","f","psychophysics","57","184440","0.0-7.0-0.0-1.0-0.0-0.24","3","3","3","3","2","2","2","4","2","4","4","1","1","2","4","4","4","2","3","2","5","5","5","4","5","5","4","5","5","","1","0","0","1","0","0","1","0","0","1","0","0","0","0","1","5","4","4","5","5","5","5","5","1","4","230809","程","","","","nonmatch","","","","","","","","","","","","","","key","f","4.196526442307704","853.3333333333334","476","f","true","nonmatch","img/triangle.png","菱形","三角","ALT1_1","prac_ALT1_1","","","","","","","","","",""
"null","<span style='color:GreenYellow; font-size: 70px;'>正确! </span>","null","html-keyboard-response","58","184943","0.0-7.0-0.0-1.0-0.0-1.24","3","3","3","3","2","2","2","4","2","4","4","1","1","2","4","4","4","2","3","2","5","5","5","4","5","5","4","5","5","","1","0","0","1","0","0","1","0","0","1","0","0","0","0","1","5","4","4","5","5","5","5","5","1","4","230809","程","","","","","","","","","","","","","","","","","","","","","","","","","","","","","","feedback_test","","","","","","","","","",""
"649","","f","psychophysics","59","186593","0.0-7.0-0.0-1.0-0.0-0.25","3","3","3","3","2","2","2","4","2","4","4","1","1","2","4","4","4","2","3","2","5","5","5","4","5","5","4","5","5","","1","0","0","1","0","0","1","0","0","1","0","0","0","0","1","5","4","4","5","5","5","5","5","1","4","230809","程","","","","nonmatch","","","","","","","","","","","","","","key","f","4.166532994923862","853.3333333333334","476","f","true","nonmatch","img/triangle.png","方形","三角","ALT1_1","prac_ALT1_1","","","","","","","","","",""
"null","<span style='color:GreenYellow; font-size: 70px;'>正确! </span>","null","html-keyboard-response","60","187094","0.0-7.0-0.0-1.0-0.0-1.25","3","3","3","3","2","2","2","4","2","4","4","1","1","2","4","4","4","2","3","2","5","5","5","4","5","5","4","5","5","","1","0","0","1","0","0","1","0","0","1","0","0","0","0","1","5","4","4","5","5","5","5","5","1","4","230809","程","","","","","","","","","","","","","","","","","","","","","","","","","","","","","","feedback_test","","","","","","","","","",""
"776","","f","psychophysics","61","188872","0.0-7.0-0.0-1.0-0.0-0.26","3","3","3","3","2","2","2","4","2","4","4","1","1","2","4","4","4","2","3","2","5","5","5","4","5","5","4","5","5","","1","0","0","1","0","0","1","0","0","1","0","0","0","0","1","5","4","4","5","5","5","5","5","1","4","230809","程","","","","nonmatch","","","","","","","","","","","","","","key","f","4.1962137767220895","853.3333333333334","476","f","true","nonmatch","img/circle.png","菱形","圆形","ALT1_1","prac_ALT1_1","","","","","","","","","",""
"null","<span style='color:GreenYellow; font-size: 70px;'>正确! </span>","null","html-keyboard-response","62","189372","0.0-7.0-0.0-1.0-0.0-1.26","3","3","3","3","2","2","2","4","2","4","4","1","1","2","4","4","4","2","3","2","5","5","5","4","5","5","4","5","5","","1","0","0","1","0","0","1","0","0","1","0","0","0","0","1","5","4","4","5","5","5","5","5","1","4","230809","程","","","","","","","","","","","","","","","","","","","","","","","","","","","","","","feedback_test","","","","","","","","","",""
"686","","f","psychophysics","63","191059","0.0-7.0-0.0-1.0-0.0-0.27","3","3","3","3","2","2","2","4","2","4","4","1","1","2","4","4","4","2","3","2","5","5","5","4","5","5","4","5","5","","1","0","0","1","0","0","1","0","0","1","0","0","0","0","1","5","4","4","5","5","5","5","5","1","4","230809","程","","","","nonmatch","","","","","","","","","","","","","","key","f","4.182865336658349","853.3333333333334","476","f","true","nonmatch","img/circle.png","三角","圆形","ALT1_1","prac_ALT1_1","","","","","","","","","",""
"null","<span style='color:GreenYellow; font-size: 70px;'>正确! </span>","null","html-keyboard-response","64","191560","0.0-7.0-0.0-1.0-0.0-1.27","3","3","3","3","2","2","2","4","2","4","4","1","1","2","4","4","4","2","3","2","5","5","5","4","5","5","4","5","5","","1","0","0","1","0","0","1","0","0","1","0","0","0","0","1","5","4","4","5","5","5","5","5","1","4","230809","程","","","","","","","","","","","","","","","","","","","","","","","","","","","","","","feedback_test","","","","","","","","","",""
"856","","j","psychophysics","65","193417","0.0-7.0-0.0-1.0-0.0-0.28","3","3","3","3","2","2","2","4","2","4","4","1","1","2","4","4","4","2","3","2","5","5","5","4","5","5","4","5","5","","1","0","0","1","0","0","1","0","0","1","0","0","0","0","1","5","4","4","5","5","5","5","5","1","4","230809","程","","","","match","","","","","","","","","","","","","","key","j","4.202338636363658","853.3333333333334","476","j","true","match","img/triangle.png","三角","三角","ALT1_1","prac_ALT1_1","","","","","","","","","",""
"null","<span style='color:GreenYellow; font-size: 70px;'>正确! </span>","null","html-keyboard-response","66","193919","0.0-7.0-0.0-1.0-0.0-1.28","3","3","3","3","2","2","2","4","2","4","4","1","1","2","4","4","4","2","3","2","5","5","5","4","5","5","4","5","5","","1","0","0","1","0","0","1","0","0","1","0","0","0","0","1","5","4","4","5","5","5","5","5","1","4","230809","程","","","","","","","","","","","","","","","","","","","","","","","","","","","","","","feedback_test","","","","","","","","","",""
"601","","j","psychophysics","67","195520","0.0-7.0-0.0-1.0-0.0-0.29","3","3","3","3","2","2","2","4","2","4","4","1","1","2","4","4","4","2","3","2","5","5","5","4","5","5","4","5","5","","1","0","0","1","0","0","1","0","0","1","0","0","0","0","1","5","4","4","5","5","5","5","5","1","4","230809","程","","","","match","","","","","","","","","","","","","","key","j","4.20753298153034","853.3333333333334","476","j","true","match","img/circle.png","圆形","圆形","ALT1_1","prac_ALT1_1","","","","","","","","","",""
"null","<span style='color:GreenYellow; font-size: 70px;'>正确! </span>","null","html-keyboard-response","68","196021","0.0-7.0-0.0-1.0-0.0-1.29","3","3","3","3","2","2","2","4","2","4","4","1","1","2","4","4","4","2","3","2","5","5","5","4","5","5","4","5","5","","1","0","0","1","0","0","1","0","0","1","0","0","0","0","1","5","4","4","5","5","5","5","5","1","4","230809","程","","","","","","","","","","","","","","","","","","","","","","","","","","","","","","feedback_test","","","","","","","","","",""
"725","","f","psychophysics","69","197748","0.0-7.0-0.0-1.0-0.0-0.30","3","3","3","3","2","2","2","4","2","4","4","1","1","2","4","4","4","2","3","2","5","5","5","4","5","5","4","5","5","","1","0","0","1","0","0","1","0","0","1","0","0","0","0","1","5","4","4","5","5","5","5","5","1","4","230809","程","","","","nonmatch","","","","","","","","","","","","","","key","f","4.186853658536622","853.3333333333334","476","f","true","nonmatch","img/square.png","菱形","方形","ALT1_1","prac_ALT1_1","","","","","","","","","",""
"null","<span style='color:GreenYellow; font-size: 70px;'>正确! </span>","null","html-keyboard-response","70","198248","0.0-7.0-0.0-1.0-0.0-1.30","3","3","3","3","2","2","2","4","2","4","4","1","1","2","4","4","4","2","3","2","5","5","5","4","5","5","4","5","5","","1","0","0","1","0","0","1","0","0","1","0","0","0","0","1","5","4","4","5","5","5","5","5","1","4","230809","程","","","","","","","","","","","","","","","","","","","","","","","","","","","","","","feedback_test","","","","","","","","","",""
"728","","j","psychophysics","71","199977","0.0-7.0-0.0-1.0-0.0-0.31","3","3","3","3","2","2","2","4","2","4","4","1","1","2","4","4","4","2","3","2","5","5","5","4","5","5","4","5","5","","1","0","0","1","0","0","1","0","0","1","0","0","0","0","1","5","4","4","5","5","5","5","5","1","4","230809","程","","","","match","","","","","","","","","","","","","","key","j","4.197012224938897","853.3333333333334","476","j","true","match","img/diamond.png","菱形","菱形","ALT1_1","prac_ALT1_1","","","","","","","","","",""
"null","<span style='color:GreenYellow; font-size: 70px;'>正确! </span>","null","html-keyboard-response","72","200483","0.0-7.0-0.0-1.0-0.0-1.31","3","3","3","3","2","2","2","4","2","4","4","1","1","2","4","4","4","2","3","2","5","5","5","4","5","5","4","5","5","","1","0","0","1","0","0","1","0","0","1","0","0","0","0","1","5","4","4","5","5","5","5","5","1","4","230809","程","","","","","","","","","","","","","","","","","","","","","","","","","","","","","","feedback_test","","","","","","","","","",""
"625","","j","psychophysics","73","202109","0.0-7.0-0.0-1.0-0.0-0.32","3","3","3","3","2","2","2","4","2","4","4","1","1","2","4","4","4","2","3","2","5","5","5","4","5","5","4","5","5","","1","0","0","1","0","0","1","0","0","1","0","0","0","0","1","5","4","4","5","5","5","5","5","1","4","230809","程","","","","match","","","","","","","","","","","","","","key","j","4.221169712793769","853.3333333333334","476","j","true","match","img/diamond.png","菱形","菱形","ALT1_1","prac_ALT1_1","","","","","","","","","",""
"null","<span style='color:GreenYellow; font-size: 70px;'>正确! </span>","null","html-keyboard-response","74","202613","0.0-7.0-0.0-1.0-0.0-1.32","3","3","3","3","2","2","2","4","2","4","4","1","1","2","4","4","4","2","3","2","5","5","5","4","5","5","4","5","5","","1","0","0","1","0","0","1","0","0","1","0","0","0","0","1","5","4","4","5","5","5","5","5","1","4","230809","程","","","","","","","","","","","","","","","","","","","","","","","","","","","","","","feedback_test","","","","","","","","","",""
"678","","f","psychophysics","75","204293","0.0-7.0-0.0-1.0-0.0-0.33","3","3","3","3","2","2","2","4","2","4","4","1","1","2","4","4","4","2","3","2","5","5","5","4","5","5","4","5","5","","1","0","0","1","0","0","1","0","0","1","0","0","0","0","1","5","4","4","5","5","5","5","5","1","4","230809","程","","","","nonmatch","","","","","","","","","","","","","","key","f","4.197957286432189","853.3333333333334","476","f","true","nonmatch","img/triangle.png","圆形","三角","ALT1_1","prac_ALT1_1","","","","","","","","","",""
"null","<span style='color:GreenYellow; font-size: 70px;'>正确! </span>","null","html-keyboard-response","76","204794","0.0-7.0-0.0-1.0-0.0-1.33","3","3","3","3","2","2","2","4","2","4","4","1","1","2","4","4","4","2","3","2","5","5","5","4","5","5","4","5","5","","1","0","0","1","0","0","1","0","0","1","0","0","0","0","1","5","4","4","5","5","5","5","5","1","4","230809","程","","","","","","","","","","","","","","","","","","","","","","","","","","","","","","feedback_test","","","","","","","","","",""
"854","","f","psychophysics","77","206649","0.0-7.0-0.0-1.0-0.0-0.34","3","3","3","3","2","2","2","4","2","4","4","1","1","2","4","4","4","2","3","2","5","5","5","4","5","5","4","5","5","","1","0","0","1","0","0","1","0","0","1","0","0","0","0","1","5","4","4","5","5","5","5","5","1","4","230809","程","","","","nonmatch","","","","","","","","","","","","","","key","f","4.230323394495418","853.3333333333334","476","f","true","nonmatch","img/square.png","圆形","方形","ALT1_1","prac_ALT1_1","","","","","","","","","",""
"null","<span style='color:GreenYellow; font-size: 70px;'>正确! </span>","null","html-keyboard-response","78","207150","0.0-7.0-0.0-1.0-0.0-1.34","3","3","3","3","2","2","2","4","2","4","4","1","1","2","4","4","4","2","3","2","5","5","5","4","5","5","4","5","5","","1","0","0","1","0","0","1","0","0","1","0","0","0","0","1","5","4","4","5","5","5","5","5","1","4","230809","程","","","","","","","","","","","","","","","","","","","","","","","","","","","","","","feedback_test","","","","","","","","","",""
"601","","j","psychophysics","79","208752","0.0-7.0-0.0-1.0-0.0-0.35","3","3","3","3","2","2","2","4","2","4","4","1","1","2","4","4","4","2","3","2","5","5","5","4","5","5","4","5","5","","1","0","0","1","0","0","1","0","0","1","0","0","0","0","1","5","4","4","5","5","5","5","5","1","4","230809","程","","","","match","","","","","","","","","","","","","","key","j","4.638840116279066","853.3333333333334","476","j","true","match","img/triangle.png","三角","三角","ALT1_1","prac_ALT1_1","","","","","","","","","",""
"null","<span style='color:GreenYellow; font-size: 70px;'>正确! </span>","null","html-keyboard-response","80","209254","0.0-7.0-0.0-1.0-0.0-1.35","3","3","3","3","2","2","2","4","2","4","4","1","1","2","4","4","4","2","3","2","5","5","5","4","5","5","4","5","5","","1","0","0","1","0","0","1","0","0","1","0","0","0","0","1","5","4","4","5","5","5","5","5","1","4","230809","程","","","","","","","","","","","","","","","","","","","","","","","","","","","","","","feedback_test","","","","","","","","","",""
"580","","j","psychophysics","81","210836","0.0-7.0-0.0-1.0-0.0-0.36","3","3","3","3","2","2","2","4","2","4","4","1","1","2","4","4","4","2","3","2","5","5","5","4","5","5","4","5","5","","1","0","0","1","0","0","1","0","0","1","0","0","0","0","1","5","4","4","5","5","5","5","5","1","4","230809","程","","","","match","","","","","","","","","","","","","","key","j","4.166469496021196","853.3333333333334","476","j","true","match","img/circle.png","圆形","圆形","ALT1_1","prac_ALT1_1","","","","","","","","","",""
"null","<span style='color:GreenYellow; font-size: 70px;'>正确! </span>","null","html-keyboard-response","82","211343","0.0-7.0-0.0-1.0-0.0-1.36","3","3","3","3","2","2","2","4","2","4","4","1","1","2","4","4","4","2","3","2","5","5","5","4","5","5","4","5","5","","1","0","0","1","0","0","1","0","0","1","0","0","0","0","1","5","4","4","5","5","5","5","5","1","4","230809","程","","","","","","","","","","","","","","","","","","","","","","","","","","","","","","feedback_test","","","","","","","","","",""
"805","","j","psychophysics","83","213149","0.0-7.0-0.0-1.0-0.0-0.37","3","3","3","3","2","2","2","4","2","4","4","1","1","2","4","4","4","2","3","2","5","5","5","4","5","5","4","5","5","","1","0","0","1","0","0","1","0","0","1","0","0","0","0","1","5","4","4","5","5","5","5","5","1","4","230809","程","","","","match","","","","","","","","","","","","","","key","j","4.166560185185181","853.3333333333334","476","j","true","match","img/circle.png","圆形","圆形","ALT1_1","prac_ALT1_1","","","","","","","","","",""
"null","<span style='color:GreenYellow; font-size: 70px;'>正确! </span>","null","html-keyboard-response","84","213653","0.0-7.0-0.0-1.0-0.0-1.37","3","3","3","3","2","2","2","4","2","4","4","1","1","2","4","4","4","2","3","2","5","5","5","4","5","5","4","5","5","","1","0","0","1","0","0","1","0","0","1","0","0","0","0","1","5","4","4","5","5","5","5","5","1","4","230809","程","","","","","","","","","","","","","","","","","","","","","","","","","","","","","","feedback_test","","","","","","","","","",""
"625","","f","psychophysics","85","215278","0.0-7.0-0.0-1.0-0.0-0.38","3","3","3","3","2","2","2","4","2","4","4","1","1","2","4","4","4","2","3","2","5","5","5","4","5","5","4","5","5","","1","0","0","1","0","0","1","0","0","1","0","0","0","0","1","5","4","4","5","5","5","5","5","1","4","230809","程","","","","nonmatch","","","","","","","","","","","","","","key","f","4.16648195876289","853.3333333333334","476","f","true","nonmatch","img/diamond.png","三角","菱形","ALT1_1","prac_ALT1_1","","","","","","","","","",""
"null","<span style='color:GreenYellow; font-size: 70px;'>正确! </span>","null","html-keyboard-response","86","215780","0.0-7.0-0.0-1.0-0.0-1.38","3","3","3","3","2","2","2","4","2","4","4","1","1","2","4","4","4","2","3","2","5","5","5","4","5","5","4","5","5","","1","0","0","1","0","0","1","0","0","1","0","0","0","0","1","5","4","4","5","5","5","5","5","1","4","230809","程","","","","","","","","","","","","","","","","","","","","","","","","","","","","","","feedback_test","","","","","","","","","",""
"570","","j","psychophysics","87","217351","0.0-7.0-0.0-1.0-0.0-0.39","3","3","3","3","2","2","2","4","2","4","4","1","1","2","4","4","4","2","3","2","5","5","5","4","5","5","4","5","5","","1","0","0","1","0","0","1","0","0","1","0","0","0","0","1","5","4","4","5","5","5","5","5","1","4","230809","程","","","","match","","","","","","","","","","","","","","key","j","4.166583999999954","853.3333333333334","476","j","true","match","img/square.png","方形","方形","ALT1_1","prac_ALT1_1","","","","","","","","","",""
"null","<span style='color:GreenYellow; font-size: 70px;'>正确! </span>","null","html-keyboard-response","88","217853","0.0-7.0-0.0-1.0-0.0-1.39","3","3","3","3","2","2","2","4","2","4","4","1","1","2","4","4","4","2","3","2","5","5","5","4","5","5","4","5","5","","1","0","0","1","0","0","1","0","0","1","0","0","0","0","1","5","4","4","5","5","5","5","5","1","4","230809","程","","","","","","","","","","","","","","","","","","","","","","","","","","","","","","feedback_test","","","","","","","","","",""
"630","","j","psychophysics","89","219484","0.0-7.0-0.0-1.0-0.0-0.40","3","3","3","3","2","2","2","4","2","4","4","1","1","2","4","4","4","2","3","2","5","5","5","4","5","5","4","5","5","","1","0","0","1","0","0","1","0","0","1","0","0","0","0","1","5","4","4","5","5","5","5","5","1","4","230809","程","","","","match","","","","","","","","","","","","","","key","j","4.1665218508997475","853.3333333333334","476","j","true","match","img/square.png","方形","方形","ALT1_1","prac_ALT1_1","","","","","","","","","",""
"null","<span style='color:GreenYellow; font-size: 70px;'>正确! </span>","null","html-keyboard-response","90","219985","0.0-7.0-0.0-1.0-0.0-1.40","3","3","3","3","2","2","2","4","2","4","4","1","1","2","4","4","4","2","3","2","5","5","5","4","5","5","4","5","5","","1","0","0","1","0","0","1","0","0","1","0","0","0","0","1","5","4","4","5","5","5","5","5","1","4","230809","程","","","","","","","","","","","","","","","","","","","","","","","","","","","","","","feedback_test","","","","","","","","","",""
"565","","j","psychophysics","91","221552","0.0-7.0-0.0-1.0-0.0-0.41","3","3","3","3","2","2","2","4","2","4","4","1","1","2","4","4","4","2","3","2","5","5","5","4","5","5","4","5","5","","1","0","0","1","0","0","1","0","0","1","0","0","0","0","1","5","4","4","5","5","5","5","5","1","4","230809","程","","","","match","","","","","","","","","","","","","","key","j","4.166576407506707","853.3333333333334","476","j","true","match","img/triangle.png","三角","三角","ALT1_1","prac_ALT1_1","","","","","","","","","",""
"null","<span style='color:GreenYellow; font-size: 70px;'>正确! </span>","null","html-keyboard-response","92","222053","0.0-7.0-0.0-1.0-0.0-1.41","3","3","3","3","2","2","2","4","2","4","4","1","1","2","4","4","4","2","3","2","5","5","5","4","5","5","4","5","5","","1","0","0","1","0","0","1","0","0","1","0","0","0","0","1","5","4","4","5","5","5","5","5","1","4","230809","程","","","","","","","","","","","","","","","","","","","","","","","","","","","","","","feedback_test","","","","","","","","","",""
"527","","j","psychophysics","93","223581","0.0-7.0-0.0-1.0-0.0-0.42","3","3","3","3","2","2","2","4","2","4","4","1","1","2","4","4","4","2","3","2","5","5","5","4","5","5","4","5","5","","1","0","0","1","0","0","1","0","0","1","0","0","0","0","1","5","4","4","5","5","5","5","5","1","4","230809","程","","","","match","","","","","","","","","","","","","","key","j","4.166442307692285","853.3333333333334","476","j","true","match","img/diamond.png","菱形","菱形","ALT1_1","prac_ALT1_1","","","","","","","","","",""
"null","<span style='color:GreenYellow; font-size: 70px;'>正确! </span>","null","html-keyboard-response","94","224083","0.0-7.0-0.0-1.0-0.0-1.42","3","3","3","3","2","2","2","4","2","4","4","1","1","2","4","4","4","2","3","2","5","5","5","4","5","5","4","5","5","","1","0","0","1","0","0","1","0","0","1","0","0","0","0","1","5","4","4","5","5","5","5","5","1","4","230809","程","","","","","","","","","","","","","","","","","","","","","","","","","","","","","","feedback_test","","","","","","","","","",""
"571","","j","psychophysics","95","225655","0.0-7.0-0.0-1.0-0.0-0.43","3","3","3","3","2","2","2","4","2","4","4","1","1","2","4","4","4","2","3","2","5","5","5","4","5","5","4","5","5","","1","0","0","1","0","0","1","0","0","1","0","0","0","0","1","5","4","4","5","5","5","5","5","1","4","230809","程","","","","match","","","","","","","","","","","","","","key","j","4.166565333333332","853.3333333333334","476","j","true","match","img/square.png","方形","方形","ALT1_1","prac_ALT1_1","","","","","","","","","",""
"null","<span style='color:GreenYellow; font-size: 70px;'>正确! </span>","null","html-keyboard-response","96","226155","0.0-7.0-0.0-1.0-0.0-1.43","3","3","3","3","2","2","2","4","2","4","4","1","1","2","4","4","4","2","3","2","5","5","5","4","5","5","4","5","5","","1","0","0","1","0","0","1","0","0","1","0","0","0","0","1","5","4","4","5","5","5","5","5","1","4","230809","程","","","","","","","","","","","","","","","","","","","","","","","","","","","","","","feedback_test","","","","","","","","","",""
"627","","f","psychophysics","97","227783","0.0-7.0-0.0-1.0-0.0-0.44","3","3","3","3","2","2","2","4","2","4","4","1","1","2","4","4","4","2","3","2","5","5","5","4","5","5","4","5","5","","1","0","0","1","0","0","1","0","0","1","0","0","0","0","1","5","4","4","5","5","5","5","5","1","4","230809","程","","","","nonmatch","","","","","","","","","","","","","","key","f","4.166514138817493","853.3333333333334","476","f","true","nonmatch","img/diamond.png","圆形","菱形","ALT1_1","prac_ALT1_1","","","","","","","","","",""
"null","<span style='color:GreenYellow; font-size: 70px;'>正确! </span>","null","html-keyboard-response","98","228284","0.0-7.0-0.0-1.0-0.0-1.44","3","3","3","3","2","2","2","4","2","4","4","1","1","2","4","4","4","2","3","2","5","5","5","4","5","5","4","5","5","","1","0","0","1","0","0","1","0","0","1","0","0","0","0","1","5","4","4","5","5","5","5","5","1","4","230809","程","","","","","","","","","","","","","","","","","","","","","","","","","","","","","","feedback_test","","","","","","","","","",""
"641","","f","psychophysics","99","229926","0.0-7.0-0.0-1.0-0.0-0.45","3","3","3","3","2","2","2","4","2","4","4","1","1","2","4","4","4","2","3","2","5","5","5","4","5","5","4","5","5","","1","0","0","1","0","0","1","0","0","1","0","0","0","0","1","5","4","4","5","5","5","5","5","1","4","230809","程","","","","nonmatch","","","","","","","","","","","","","","key","f","4.166538265306111","853.3333333333334","476","f","true","nonmatch","img/square.png","三角","方形","ALT1_1","prac_ALT1_1","","","","","","","","","",""
"null","<span style='color:GreenYellow; font-size: 70px;'>正确! </span>","null","html-keyboard-response","100","230427","0.0-7.0-0.0-1.0-0.0-1.45","3","3","3","3","2","2","2","4","2","4","4","1","1","2","4","4","4","2","3","2","5","5","5","4","5","5","4","5","5","","1","0","0","1","0","0","1","0","0","1","0","0","0","0","1","5","4","4","5","5","5","5","5","1","4","230809","程","","","","","","","","","","","","","","","","","","","","","","","","","","","","","","feedback_test","","","","","","","","","",""
"561","","j","psychophysics","101","231990","0.0-7.0-0.0-1.0-0.0-0.46","3","3","3","3","2","2","2","4","2","4","4","1","1","2","4","4","4","2","3","2","5","5","5","4","5","5","4","5","5","","1","0","0","1","0","0","1","0","0","1","0","0","0","0","1","5","4","4","5","5","5","5","5","1","4","230809","程","","","","match","","","","","","","","","","","","","","key","j","4.166524193548427","853.3333333333334","476","f","false","nonmatch","img/circle.png","方形","圆形","ALT1_1","prac_ALT1_1","","","","","","","","","",""
"null","<span style='color:red; font-size: 70px;'>错误! </span>","null","html-keyboard-response","102","232491","0.0-7.0-0.0-1.0-0.0-1.46","3","3","3","3","2","2","2","4","2","4","4","1","1","2","4","4","4","2","3","2","5","5","5","4","5","5","4","5","5","","1","0","0","1","0","0","1","0","0","1","0","0","0","0","1","5","4","4","5","5","5","5","5","1","4","230809","程","","","","","","","","","","","","","","","","","","","","","","","","","","","","","","feedback_test","","","","","","","","","",""
"1121","","f","psychophysics","103","234612","0.0-7.0-0.0-1.0-0.0-0.47","3","3","3","3","2","2","2","4","2","4","4","1","1","2","4","4","4","2","3","2","5","5","5","4","5","5","4","5","5","","1","0","0","1","0","0","1","0","0","1","0","0","0","0","1","5","4","4","5","5","5","5","5","1","4","230809","程","","","","nonmatch","","","","","","","","","","","","","","key","f","4.16656410256411","853.3333333333334","476","f","true","nonmatch","img/diamond.png","方形","菱形","ALT1_1","prac_ALT1_1","","","","","","","","","",""
"null","<span style='color:GreenYellow; font-size: 70px;'>正确! </span>","null","html-keyboard-response","104","235113","0.0-7.0-0.0-1.0-0.0-1.47","3","3","3","3","2","2","2","4","2","4","4","1","1","2","4","4","4","2","3","2","5","5","5","4","5","5","4","5","5","","1","0","0","1","0","0","1","0","0","1","0","0","0","0","1","5","4","4","5","5","5","5","5","1","4","230809","程","","","","","","","","","","","","","","","","","","","","","","","","","","","","","","feedback_test","","","","","","","","","",""
"2667","<style>.context{color:white; font-size: 35px; line-height:40px}</style>                            <div><p class='context'>您正确回答了96% 的试次。</p><p class='context'>您的平均反应时为704毫秒。</p><p class='context'>恭喜您完成练习。按空格键进入正式实验。</p><p class='footer' style='font-size: 35px; line-height:40px;'>请在进入正式实验实验之前将您的<span style='color: lightgreen;'>食指</span>放在电脑键盘的相应键位上进行按键。</p>"," ","html-keyboard-response","105","237782","0.0-7.0-0.0-2.0","3","3","3","3","2","2","2","4","2","4","4","1","1","2","4","4","4","2","3","2","5","5","5","4","5","5","4","5","5","","1","0","0","1","0","0","1","0","0","1","0","0","0","0","1","5","4","4","5","5","5","5","5","1","4","230809","程","","","","","","","","","","","","","","","","","","","","","","","","","","","","","","","","","","","","","","","",""
"1444","
    <p>请您将手指放在按键上，准备进入正式的匹配任务。</p>
    <p> <div style = ""color: green""><按空格键进入下一阶段的匹配任务></div></p>
    "," ","html-keyboard-response","106","239228","0.0-7.0-0.0-3.0","3","3","3","3","2","2","2","4","2","4","4","1","1","2","4","4","4","2","3","2","5","5","5","4","5","5","4","5","5","","1","0","0","1","0","0","1","0","0","1","0","0","0","0","1","5","4","4","5","5","5","5","5","1","4","230809","程","","","","","","","","","","","","","","","","","","","","","","","","","","","","","","","","","","","","","","","",""
"643","","f","psychophysics","107","240872","0.0-7.0-0.0-4.0-0.0-0.0","3","3","3","3","2","2","2","4","2","4","4","1","1","2","4","4","4","2","3","2","5","5","5","4","5","5","4","5","5","","1","0","0","1","0","0","1","0","0","1","0","0","0","0","1","5","4","4","5","5","5","5","5","1","4","230809","程","","","","nonmatch","","","","","","","","","","","","","","key","f","4.166607142857137","853.3333333333334","476","f","true","nonmatch","img/square.png","三角","方形","ALT1","formal_ALT1_1","","","","","","","","","",""
"null","<span style='color:GreenYellow; font-size: 70px;'>正确! </span>","null","html-keyboard-response","108","241373","0.0-7.0-0.0-4.0-0.0-1.0","3","3","3","3","2","2","2","4","2","4","4","1","1","2","4","4","4","2","3","2","5","5","5","4","5","5","4","5","5","","1","0","0","1","0","0","1","0","0","1","0","0","0","0","1","5","4","4","5","5","5","5","5","1","4","230809","程","","","","","","","","","","","","","","","","","","","","","","","","","","","","","","feedback_test","","","","","","","","","",""
"631","","f","psychophysics","109","243005","0.0-7.0-0.0-4.0-0.0-0.1","3","3","3","3","2","2","2","4","2","4","4","1","1","2","4","4","4","2","3","2","5","5","5","4","5","5","4","5","5","","1","0","0","1","0","0","1","0","0","1","0","0","0","0","1","5","4","4","5","5","5","5","5","1","4","230809","程","","","","nonmatch","","","","","","","","","","","","","","key","f","4.16649100257073","853.3333333333334","476","f","true","nonmatch","img/square.png","菱形","方形","ALT1","formal_ALT1_1","","","","","","","","","",""
"null","<span style='color:GreenYellow; font-size: 70px;'>正确! </span>","null","html-keyboard-response","110","243508","0.0-7.0-0.0-4.0-0.0-1.1","3","3","3","3","2","2","2","4","2","4","4","1","1","2","4","4","4","2","3","2","5","5","5","4","5","5","4","5","5","","1","0","0","1","0","0","1","0","0","1","0","0","0","0","1","5","4","4","5","5","5","5","5","1","4","230809","程","","","","","","","","","","","","","","","","","","","","","","","","","","","","","","feedback_test","","","","","","","","","",""
"769","","j","psychophysics","111","245278","0.0-7.0-0.0-4.0-0.0-0.2","3","3","3","3","2","2","2","4","2","4","4","1","1","2","4","4","4","2","3","2","5","5","5","4","5","5","4","5","5","","1","0","0","1","0","0","1","0","0","1","0","0","0","0","1","5","4","4","5","5","5","5","5","1","4","230809","程","","","","match","","","","","","","","","","","","","","key","j","4.166508274231655","853.3333333333334","476","j","true","match","img/diamond.png","菱形","菱形","ALT1","formal_ALT1_1","","","","","","","","","",""
"null","<span style='color:GreenYellow; font-size: 70px;'>正确! </span>","null","html-keyboard-response","112","245779","0.0-7.0-0.0-4.0-0.0-1.2","3","3","3","3","2","2","2","4","2","4","4","1","1","2","4","4","4","2","3","2","5","5","5","4","5","5","4","5","5","","1","0","0","1","0","0","1","0","0","1","0","0","0","0","1","5","4","4","5","5","5","5","5","1","4","230809","程","","","","","","","","","","","","","","","","","","","","","","","","","","","","","","feedback_test","","","","","","","","","",""
"761","","f","psychophysics","113","247542","0.0-7.0-0.0-4.0-0.0-0.3","3","3","3","3","2","2","2","4","2","4","4","1","1","2","4","4","4","2","3","2","5","5","5","4","5","5","4","5","5","","1","0","0","1","0","0","1","0","0","1","0","0","0","0","1","5","4","4","5","5","5","5","5","1","4","230809","程","","","","nonmatch","","","","","","","","","","","","","","key","f","4.166586698337296","853.3333333333334","476","f","true","nonmatch","img/circle.png","菱形","圆形","ALT1","formal_ALT1_1","","","","","","","","","",""
"null","<span style='color:GreenYellow; font-size: 70px;'>正确! </span>","null","html-keyboard-response","114","248043","0.0-7.0-0.0-4.0-0.0-1.3","3","3","3","3","2","2","2","4","2","4","4","1","1","2","4","4","4","2","3","2","5","5","5","4","5","5","4","5","5","","1","0","0","1","0","0","1","0","0","1","0","0","0","0","1","5","4","4","5","5","5","5","5","1","4","230809","程","","","","","","","","","","","","","","","","","","","","","","","","","","","","","","feedback_test","","","","","","","","","",""
"677","","f","psychophysics","115","249721","0.0-7.0-0.0-4.0-0.0-0.4","3","3","3","3","2","2","2","4","2","4","4","1","1","2","4","4","4","2","3","2","5","5","5","4","5","5","4","5","5","","1","0","0","1","0","0","1","0","0","1","0","0","0","0","1","5","4","4","5","5","5","5","5","1","4","230809","程","","","","nonmatch","","","","","","","","","","","","","","key","f","4.1642219451371645","853.3333333333334","476","f","true","nonmatch","img/diamond.png","三角","菱形","ALT1","formal_ALT1_1","","","","","","","","","",""
"null","<span style='color:GreenYellow; font-size: 70px;'>正确! </span>","null","html-keyboard-response","116","250223","0.0-7.0-0.0-4.0-0.0-1.4","3","3","3","3","2","2","2","4","2","4","4","1","1","2","4","4","4","2","3","2","5","5","5","4","5","5","4","5","5","","1","0","0","1","0","0","1","0","0","1","0","0","0","0","1","5","4","4","5","5","5","5","5","1","4","230809","程","","","","","","","","","","","","","","","","","","","","","","","","","","","","","","feedback_test","","","","","","","","","",""
"719","","f","psychophysics","117","251943","0.0-7.0-0.0-4.0-0.0-0.5","3","3","3","3","2","2","2","4","2","4","4","1","1","2","4","4","4","2","3","2","5","5","5","4","5","5","4","5","5","","1","0","0","1","0","0","1","0","0","1","0","0","0","0","1","5","4","4","5","5","5","5","5","1","4","230809","程","","","","nonmatch","","","","","","","","","","","","","","key","f","4.166525547445209","853.3333333333334","476","f","true","nonmatch","img/circle.png","方形","圆形","ALT1","formal_ALT1_1","","","","","","","","","",""
"null","<span style='color:GreenYellow; font-size: 70px;'>正确! </span>","null","html-keyboard-response","118","252444","0.0-7.0-0.0-4.0-0.0-1.5","3","3","3","3","2","2","2","4","2","4","4","1","1","2","4","4","4","2","3","2","5","5","5","4","5","5","4","5","5","","1","0","0","1","0","0","1","0","0","1","0","0","0","0","1","5","4","4","5","5","5","5","5","1","4","230809","程","","","","","","","","","","","","","","","","","","","","","","","","","","","","","","feedback_test","","","","","","","","","",""
"662","","f","psychophysics","119","254106","0.0-7.0-0.0-4.0-0.0-0.6","3","3","3","3","2","2","2","4","2","4","4","1","1","2","4","4","4","2","3","2","5","5","5","4","5","5","4","5","5","","1","0","0","1","0","0","1","0","0","1","0","0","0","0","1","5","4","4","5","5","5","5","5","1","4","230809","程","","","","nonmatch","","","","","","","","","","","","","","key","f","4.166469696969675","853.3333333333334","476","f","true","nonmatch","img/diamond.png","圆形","菱形","ALT1","formal_ALT1_1","","","","","","","","","",""
"null","<span style='color:GreenYellow; font-size: 70px;'>正确! </span>","null","html-keyboard-response","120","254608","0.0-7.0-0.0-4.0-0.0-1.6","3","3","3","3","2","2","2","4","2","4","4","1","1","2","4","4","4","2","3","2","5","5","5","4","5","5","4","5","5","","1","0","0","1","0","0","1","0","0","1","0","0","0","0","1","5","4","4","5","5","5","5","5","1","4","230809","程","","","","","","","","","","","","","","","","","","","","","","","","","","","","","","feedback_test","","","","","","","","","",""
"641","","j","psychophysics","121","256250","0.0-7.0-0.0-4.0-0.0-0.7","3","3","3","3","2","2","2","4","2","4","4","1","1","2","4","4","4","2","3","2","5","5","5","4","5","5","4","5","5","","1","0","0","1","0","0","1","0","0","1","0","0","0","0","1","5","4","4","5","5","5","5","5","1","4","230809","程","","","","match","","","","","","","","","","","","","","key","j","4.166510204081625","853.3333333333334","476","j","true","match","img/circle.png","圆形","圆形","ALT1","formal_ALT1_1","","","","","","","","","",""
"null","<span style='color:GreenYellow; font-size: 70px;'>正确! </span>","null","html-keyboard-response","122","256753","0.0-7.0-0.0-4.0-0.0-1.7","3","3","3","3","2","2","2","4","2","4","4","1","1","2","4","4","4","2","3","2","5","5","5","4","5","5","4","5","5","","1","0","0","1","0","0","1","0","0","1","0","0","0","0","1","5","4","4","5","5","5","5","5","1","4","230809","程","","","","","","","","","","","","","","","","","","","","","","","","","","","","","","feedback_test","","","","","","","","","",""
"639","","f","psychophysics","123","258392","0.0-7.0-0.0-4.0-0.0-0.8","3","3","3","3","2","2","2","4","2","4","4","1","1","2","4","4","4","2","3","2","5","5","5","4","5","5","4","5","5","","1","0","0","1","0","0","1","0","0","1","0","0","0","0","1","5","4","4","5","5","5","5","5","1","4","230809","程","","","","nonmatch","","","","","","","","","","","","","","key","f","4.166511508951406","853.3333333333334","476","f","true","nonmatch","img/triangle.png","圆形","三角","ALT1","formal_ALT1_1","","","","","","","","","",""
"null","<span style='color:GreenYellow; font-size: 70px;'>正确! </span>","null","html-keyboard-response","124","258893","0.0-7.0-0.0-4.0-0.0-1.8","3","3","3","3","2","2","2","4","2","4","4","1","1","2","4","4","4","2","3","2","5","5","5","4","5","5","4","5","5","","1","0","0","1","0","0","1","0","0","1","0","0","0","0","1","5","4","4","5","5","5","5","5","1","4","230809","程","","","","","","","","","","","","","","","","","","","","","","","","","","","","","","feedback_test","","","","","","","","","",""
"616","","f","psychophysics","125","260510","0.0-7.0-0.0-4.0-0.0-0.9","3","3","3","3","2","2","2","4","2","4","4","1","1","2","4","4","4","2","3","2","5","5","5","4","5","5","4","5","5","","1","0","0","1","0","0","1","0","0","1","0","0","0","0","1","5","4","4","5","5","5","5","5","1","4","230809","程","","","","nonmatch","","","","","","","","","","","","","","key","f","4.166497409326378","853.3333333333334","476","f","true","nonmatch","img/triangle.png","菱形","三角","ALT1","formal_ALT1_1","","","","","","","","","",""
"null","<span style='color:GreenYellow; font-size: 70px;'>正确! </span>","null","html-keyboard-response","126","261011","0.0-7.0-0.0-4.0-0.0-1.9","3","3","3","3","2","2","2","4","2","4","4","1","1","2","4","4","4","2","3","2","5","5","5","4","5","5","4","5","5","","1","0","0","1","0","0","1","0","0","1","0","0","0","0","1","5","4","4","5","5","5","5","5","1","4","230809","程","","","","","","","","","","","","","","","","","","","","","","","","","","","","","","feedback_test","","","","","","","","","",""
"642","","f","psychophysics","127","262654","0.0-7.0-0.0-4.0-0.0-0.10","3","3","3","3","2","2","2","4","2","4","4","1","1","2","4","4","4","2","3","2","5","5","5","4","5","5","4","5","5","","1","0","0","1","0","0","1","0","0","1","0","0","0","0","1","5","4","4","5","5","5","5","5","1","4","230809","程","","","","nonmatch","","","","","","","","","","","","","","key","f","4.1664872448980494","853.3333333333334","476","f","true","nonmatch","img/triangle.png","方形","三角","ALT1","formal_ALT1_1","","","","","","","","","",""
"null","<span style='color:GreenYellow; font-size: 70px;'>正确! </span>","null","html-keyboard-response","128","263155","0.0-7.0-0.0-4.0-0.0-1.10","3","3","3","3","2","2","2","4","2","4","4","1","1","2","4","4","4","2","3","2","5","5","5","4","5","5","4","5","5","","1","0","0","1","0","0","1","0","0","1","0","0","0","0","1","5","4","4","5","5","5","5","5","1","4","230809","程","","","","","","","","","","","","","","","","","","","","","","","","","","","","","","feedback_test","","","","","","","","","",""
"601","","j","psychophysics","129","264758","0.0-7.0-0.0-4.0-0.0-0.11","3","3","3","3","2","2","2","4","2","4","4","1","1","2","4","4","4","2","3","2","5","5","5","4","5","5","4","5","5","","1","0","0","1","0","0","1","0","0","1","0","0","0","0","1","5","4","4","5","5","5","5","5","1","4","230809","程","","","","match","","","","","","","","","","","","","","key","j","4.164216710182664","853.3333333333334","476","j","true","match","img/circle.png","圆形","圆形","ALT1","formal_ALT1_1","","","","","","","","","",""
"null","<span style='color:GreenYellow; font-size: 70px;'>正确! </span>","null","html-keyboard-response","130","265262","0.0-7.0-0.0-4.0-0.0-1.11","3","3","3","3","2","2","2","4","2","4","4","1","1","2","4","4","4","2","3","2","5","5","5","4","5","5","4","5","5","","1","0","0","1","0","0","1","0","0","1","0","0","0","0","1","5","4","4","5","5","5","5","5","1","4","230809","程","","","","","","","","","","","","","","","","","","","","","","","","","","","","","","feedback_test","","","","","","","","","",""
"766","","j","psychophysics","131","267030","0.0-7.0-0.0-4.0-0.0-0.12","3","3","3","3","2","2","2","4","2","4","4","1","1","2","4","4","4","2","3","2","5","5","5","4","5","5","4","5","5","","1","0","0","1","0","0","1","0","0","1","0","0","0","0","1","5","4","4","5","5","5","5","5","1","4","230809","程","","","","match","","","","","","","","","","","","","","key","j","4.162549763033084","853.3333333333334","476","j","true","match","img/square.png","方形","方形","ALT1","formal_ALT1_1","","","","","","","","","",""
"null","<span style='color:GreenYellow; font-size: 70px;'>正确! </span>","null","html-keyboard-response","132","267531","0.0-7.0-0.0-4.0-0.0-1.12","3","3","3","3","2","2","2","4","2","4","4","1","1","2","4","4","4","2","3","2","5","5","5","4","5","5","4","5","5","","1","0","0","1","0","0","1","0","0","1","0","0","0","0","1","5","4","4","5","5","5","5","5","1","4","230809","程","","","","","","","","","","","","","","","","","","","","","","","","","","","","","","feedback_test","","","","","","","","","",""
"618","","j","psychophysics","133","269150","0.0-7.0-0.0-4.0-0.0-0.13","3","3","3","3","2","2","2","4","2","4","4","1","1","2","4","4","4","2","3","2","5","5","5","4","5","5","4","5","5","","1","0","0","1","0","0","1","0","0","1","0","0","0","0","1","5","4","4","5","5","5","5","5","1","4","230809","程","","","","match","","","","","","","","","","","","","","key","j","4.166569948186609","853.3333333333334","476","j","true","match","img/square.png","方形","方形","ALT1","formal_ALT1_1","","","","","","","","","",""
"null","<span style='color:GreenYellow; font-size: 70px;'>正确! </span>","null","html-keyboard-response","134","269651","0.0-7.0-0.0-4.0-0.0-1.13","3","3","3","3","2","2","2","4","2","4","4","1","1","2","4","4","4","2","3","2","5","5","5","4","5","5","4","5","5","","1","0","0","1","0","0","1","0","0","1","0","0","0","0","1","5","4","4","5","5","5","5","5","1","4","230809","程","","","","","","","","","","","","","","","","","","","","","","","","","","","","","","feedback_test","","","","","","","","","",""
"973","","f","psychophysics","135","271625","0.0-7.0-0.0-4.0-0.0-0.14","3","3","3","3","2","2","2","4","2","4","4","1","1","2","4","4","4","2","3","2","5","5","5","4","5","5","4","5","5","","1","0","0","1","0","0","1","0","0","1","0","0","0","0","1","5","4","4","5","5","5","5","5","1","4","230809","程","","","","nonmatch","","","","","","","","","","","","","","key","f","4.166490445859906","853.3333333333334","476","j","false","match","img/diamond.png","菱形","菱形","ALT1","formal_ALT1_1","","","","","","","","","",""
"null","<span style='color:red; font-size: 70px;'>错误! </span>","null","html-keyboard-response","136","272127","0.0-7.0-0.0-4.0-0.0-1.14","3","3","3","3","2","2","2","4","2","4","4","1","1","2","4","4","4","2","3","2","5","5","5","4","5","5","4","5","5","","1","0","0","1","0","0","1","0","0","1","0","0","0","0","1","5","4","4","5","5","5","5","5","1","4","230809","程","","","","","","","","","","","","","","","","","","","","","","","","","","","","","","feedback_test","","","","","","","","","",""
"1150","","f","psychophysics","137","274278","0.0-7.0-0.0-4.0-0.0-0.15","3","3","3","3","2","2","2","4","2","4","4","1","1","2","4","4","4","2","3","2","5","5","5","4","5","5","4","5","5","","1","0","0","1","0","0","1","0","0","1","0","0","0","0","1","5","4","4","5","5","5","5","5","1","4","230809","程","","","","nonmatch","","","","","","","","","","","","","","key","f","4.166540856031041","853.3333333333334","476","f","true","nonmatch","img/diamond.png","方形","菱形","ALT1","formal_ALT1_1","","","","","","","","","",""
"null","<span style='color:GreenYellow; font-size: 70px;'>正确! </span>","null","html-keyboard-response","138","274782","0.0-7.0-0.0-4.0-0.0-1.15","3","3","3","3","2","2","2","4","2","4","4","1","1","2","4","4","4","2","3","2","5","5","5","4","5","5","4","5","5","","1","0","0","1","0","0","1","0","0","1","0","0","0","0","1","5","4","4","5","5","5","5","5","1","4","230809","程","","","","","","","","","","","","","","","","","","","","","","","","","","","","","","feedback_test","","","","","","","","","",""
"528","","j","psychophysics","139","276312","0.0-7.0-0.0-4.0-0.0-0.16","3","3","3","3","2","2","2","4","2","4","4","1","1","2","4","4","4","2","3","2","5","5","5","4","5","5","4","5","5","","1","0","0","1","0","0","1","0","0","1","0","0","0","0","1","5","4","4","5","5","5","5","5","1","4","230809","程","","","","match","","","","","","","","","","","","","","key","j","4.166456284153032","853.3333333333334","476","j","true","match","img/triangle.png","三角","三角","ALT1","formal_ALT1_1","","","","","","","","","",""
"null","<span style='color:GreenYellow; font-size: 70px;'>正确! </span>","null","html-keyboard-response","140","276813","0.0-7.0-0.0-4.0-0.0-1.16","3","3","3","3","2","2","2","4","2","4","4","1","1","2","4","4","4","2","3","2","5","5","5","4","5","5","4","5","5","","1","0","0","1","0","0","1","0","0","1","0","0","0","0","1","5","4","4","5","5","5","5","5","1","4","230809","程","","","","","","","","","","","","","","","","","","","","","","","","","","","","","","feedback_test","","","","","","","","","",""
"497","","j","psychophysics","141","278311","0.0-7.0-0.0-4.0-0.0-0.17","3","3","3","3","2","2","2","4","2","4","4","1","1","2","4","4","4","2","3","2","5","5","5","4","5","5","4","5","5","","1","0","0","1","0","0","1","0","0","1","0","0","0","0","1","5","4","4","5","5","5","5","5","1","4","230809","程","","","","match","","","","","","","","","","","","","","key","j","4.383473529411747","853.3333333333334","476","j","true","match","img/triangle.png","三角","三角","ALT1","formal_ALT1_1","","","","","","","","","",""
"null","<span style='color:GreenYellow; font-size: 70px;'>正确! </span>","null","html-keyboard-response","142","278811","0.0-7.0-0.0-4.0-0.0-1.17","3","3","3","3","2","2","2","4","2","4","4","1","1","2","4","4","4","2","3","2","5","5","5","4","5","5","4","5","5","","1","0","0","1","0","0","1","0","0","1","0","0","0","0","1","5","4","4","5","5","5","5","5","1","4","230809","程","","","","","","","","","","","","","","","","","","","","","","","","","","","","","","feedback_test","","","","","","","","","",""
"571","","j","psychophysics","143","280384","0.0-7.0-0.0-4.0-0.0-0.18","3","3","3","3","2","2","2","4","2","4","4","1","1","2","4","4","4","2","3","2","5","5","5","4","5","5","4","5","5","","1","0","0","1","0","0","1","0","0","1","0","0","0","0","1","5","4","4","5","5","5","5","5","1","4","230809","程","","","","match","","","","","","","","","","","","","","key","j","4.166520000000019","853.3333333333334","476","j","true","match","img/square.png","方形","方形","ALT1","formal_ALT1_1","","","","","","","","","",""
"null","<span style='color:GreenYellow; font-size: 70px;'>正确! </span>","null","html-keyboard-response","144","280885","0.0-7.0-0.0-4.0-0.0-1.18","3","3","3","3","2","2","2","4","2","4","4","1","1","2","4","4","4","2","3","2","5","5","5","4","5","5","4","5","5","","1","0","0","1","0","0","1","0","0","1","0","0","0","0","1","5","4","4","5","5","5","5","5","1","4","230809","程","","","","","","","","","","","","","","","","","","","","","","","","","","","","","","feedback_test","","","","","","","","","",""
"606","","j","psychophysics","145","282493","0.0-7.0-0.0-4.0-0.0-0.19","3","3","3","3","2","2","2","4","2","4","4","1","1","2","4","4","4","2","3","2","5","5","5","4","5","5","4","5","5","","1","0","0","1","0","0","1","0","0","1","0","0","0","0","1","5","4","4","5","5","5","5","5","1","4","230809","程","","","","match","","","","","","","","","","","","","","key","j","4.1665416666666415","853.3333333333334","476","j","true","match","img/circle.png","圆形","圆形","ALT1","formal_ALT1_1","","","","","","","","","",""
"null","<span style='color:GreenYellow; font-size: 70px;'>正确! </span>","null","html-keyboard-response","146","282994","0.0-7.0-0.0-4.0-0.0-1.19","3","3","3","3","2","2","2","4","2","4","4","1","1","2","4","4","4","2","3","2","5","5","5","4","5","5","4","5","5","","1","0","0","1","0","0","1","0","0","1","0","0","0","0","1","5","4","4","5","5","5","5","5","1","4","230809","程","","","","","","","","","","","","","","","","","","","","","","","","","","","","","","feedback_test","","","","","","","","","",""
"611","","j","psychophysics","147","284606","0.0-7.0-0.0-4.0-0.0-0.20","3","3","3","3","2","2","2","4","2","4","4","1","1","2","4","4","4","2","3","2","5","5","5","4","5","5","4","5","5","","1","0","0","1","0","0","1","0","0","1","0","0","0","0","1","5","4","4","5","5","5","5","5","1","4","230809","程","","","","match","","","","","","","","","","","","","","key","j","4.166522077922014","853.3333333333334","476","j","true","match","img/triangle.png","三角","三角","ALT1","formal_ALT1_1","","","","","","","","","",""
"null","<span style='color:GreenYellow; font-size: 70px;'>正确! </span>","null","html-keyboard-response","148","285107","0.0-7.0-0.0-4.0-0.0-1.20","3","3","3","3","2","2","2","4","2","4","4","1","1","2","4","4","4","2","3","2","5","5","5","4","5","5","4","5","5","","1","0","0","1","0","0","1","0","0","1","0","0","0","0","1","5","4","4","5","5","5","5","5","1","4","230809","程","","","","","","","","","","","","","","","","","","","","","","","","","","","","","","feedback_test","","","","","","","","","",""
"796","","f","psychophysics","149","286904","0.0-7.0-0.0-4.0-0.0-0.21","3","3","3","3","2","2","2","4","2","4","4","1","1","2","4","4","4","2","3","2","5","5","5","4","5","5","4","5","5","","1","0","0","1","0","0","1","0","0","1","0","0","0","0","1","5","4","4","5","5","5","5","5","1","4","230809","程","","","","nonmatch","","","","","","","","","","","","","","key","f","4.16651282051284","853.3333333333334","476","f","true","nonmatch","img/circle.png","三角","圆形","ALT1","formal_ALT1_1","","","","","","","","","",""
"null","<span style='color:GreenYellow; font-size: 70px;'>正确! </span>","null","html-keyboard-response","150","287405","0.0-7.0-0.0-4.0-0.0-1.21","3","3","3","3","2","2","2","4","2","4","4","1","1","2","4","4","4","2","3","2","5","5","5","4","5","5","4","5","5","","1","0","0","1","0","0","1","0","0","1","0","0","0","0","1","5","4","4","5","5","5","5","5","1","4","230809","程","","","","","","","","","","","","","","","","","","","","","","","","","","","","","","feedback_test","","","","","","","","","",""
"865","","f","psychophysics","151","289272","0.0-7.0-0.0-4.0-0.0-0.22","3","3","3","3","2","2","2","4","2","4","4","1","1","2","4","4","4","2","3","2","5","5","5","4","5","5","4","5","5","","1","0","0","1","0","0","1","0","0","1","0","0","0","0","1","5","4","4","5","5","5","5","5","1","4","230809","程","","","","nonmatch","","","","","","","","","","","","","","key","f","4.166523595505624","853.3333333333334","476","f","true","nonmatch","img/square.png","圆形","方形","ALT1","formal_ALT1_1","","","","","","","","","",""
"null","<span style='color:GreenYellow; font-size: 70px;'>正确! </span>","null","html-keyboard-response","152","289772","0.0-7.0-0.0-4.0-0.0-1.22","3","3","3","3","2","2","2","4","2","4","4","1","1","2","4","4","4","2","3","2","5","5","5","4","5","5","4","5","5","","1","0","0","1","0","0","1","0","0","1","0","0","0","0","1","5","4","4","5","5","5","5","5","1","4","230809","程","","","","","","","","","","","","","","","","","","","","","","","","","","","","","","feedback_test","","","","","","","","","",""
"752","","j","psychophysics","153","291525","0.0-7.0-0.0-4.0-0.0-0.23","3","3","3","3","2","2","2","4","2","4","4","1","1","2","4","4","4","2","3","2","5","5","5","4","5","5","4","5","5","","1","0","0","1","0","0","1","0","0","1","0","0","0","0","1","5","4","4","5","5","5","5","5","1","4","230809","程","","","","match","","","","","","","","","","","","","","key","j","4.166498806682662","853.3333333333334","476","j","true","match","img/diamond.png","菱形","菱形","ALT1","formal_ALT1_1","","","","","","","","","",""
"null","<span style='color:GreenYellow; font-size: 70px;'>正确! </span>","null","html-keyboard-response","154","292025","0.0-7.0-0.0-4.0-0.0-1.23","3","3","3","3","2","2","2","4","2","4","4","1","1","2","4","4","4","2","3","2","5","5","5","4","5","5","4","5","5","","1","0","0","1","0","0","1","0","0","1","0","0","0","0","1","5","4","4","5","5","5","5","5","1","4","230809","程","","","","","","","","","","","","","","","","","","","","","","","","","","","","","","feedback_test","","","","","","","","","",""
"576","","j","psychophysics","155","293604","0.0-7.0-0.0-4.0-0.0-0.24","3","3","3","3","2","2","2","4","2","4","4","1","1","2","4","4","4","2","3","2","5","5","5","4","5","5","4","5","5","","1","0","0","1","0","0","1","0","0","1","0","0","0","0","1","5","4","4","5","5","5","5","5","1","4","230809","程","","","","match","","","","","","","","","","","","","","key","j","4.166438829787249","853.3333333333334","476","j","true","match","img/triangle.png","三角","三角","ALT1","formal_ALT1_1","","","","","","","","","",""
"null","<span style='color:GreenYellow; font-size: 70px;'>正确! </span>","null","html-keyboard-response","156","294105","0.0-7.0-0.0-4.0-0.0-1.24","3","3","3","3","2","2","2","4","2","4","4","1","1","2","4","4","4","2","3","2","5","5","5","4","5","5","4","5","5","","1","0","0","1","0","0","1","0","0","1","0","0","0","0","1","5","4","4","5","5","5","5","5","1","4","230809","程","","","","","","","","","","","","","","","","","","","","","","","","","","","","","","feedback_test","","","","","","","","","",""
"596","","j","psychophysics","157","295703","0.0-7.0-0.0-4.0-0.0-0.25","3","3","3","3","2","2","2","4","2","4","4","1","1","2","4","4","4","2","3","2","5","5","5","4","5","5","4","5","5","","1","0","0","1","0","0","1","0","0","1","0","0","0","0","1","5","4","4","5","5","5","5","5","1","4","230809","程","","","","match","","","","","","","","","","","","","","key","j","4.166438320209975","853.3333333333334","476","j","true","match","img/circle.png","圆形","圆形","ALT1","formal_ALT1_1","","","","","","","","","",""
"null","<span style='color:GreenYellow; font-size: 70px;'>正确! </span>","null","html-keyboard-response","158","296206","0.0-7.0-0.0-4.0-0.0-1.25","3","3","3","3","2","2","2","4","2","4","4","1","1","2","4","4","4","2","3","2","5","5","5","4","5","5","4","5","5","","1","0","0","1","0","0","1","0","0","1","0","0","0","0","1","5","4","4","5","5","5","5","5","1","4","230809","程","","","","","","","","","","","","","","","","","","","","","","","","","","","","","","feedback_test","","","","","","","","","",""
"566","","j","psychophysics","159","297773","0.0-7.0-0.0-4.0-0.0-0.26","3","3","3","3","2","2","2","4","2","4","4","1","1","2","4","4","4","2","3","2","5","5","5","4","5","5","4","5","5","","1","0","0","1","0","0","1","0","0","1","0","0","0","0","1","5","4","4","5","5","5","5","5","1","4","230809","程","","","","match","","","","","","","","","","","","","","key","j","4.166564171122951","853.3333333333334","476","j","true","match","img/circle.png","圆形","圆形","ALT1","formal_ALT1_1","","","","","","","","","",""
"null","<span style='color:GreenYellow; font-size: 70px;'>正确! </span>","null","html-keyboard-response","160","298275","0.0-7.0-0.0-4.0-0.0-1.26","3","3","3","3","2","2","2","4","2","4","4","1","1","2","4","4","4","2","3","2","5","5","5","4","5","5","4","5","5","","1","0","0","1","0","0","1","0","0","1","0","0","0","0","1","5","4","4","5","5","5","5","5","1","4","230809","程","","","","","","","","","","","","","","","","","","","","","","","","","","","","","","feedback_test","","","","","","","","","",""
"629","","j","psychophysics","161","299904","0.0-7.0-0.0-4.0-0.0-0.27","3","3","3","3","2","2","2","4","2","4","4","1","1","2","4","4","4","2","3","2","5","5","5","4","5","5","4","5","5","","1","0","0","1","0","0","1","0","0","1","0","0","0","0","1","5","4","4","5","5","5","5","5","1","4","230809","程","","","","match","","","","","","","","","","","","","","key","j","4.162244215938334","853.3333333333334","476","j","true","match","img/square.png","方形","方形","ALT1","formal_ALT1_1","","","","","","","","","",""
"null","<span style='color:GreenYellow; font-size: 70px;'>正确! </span>","null","html-keyboard-response","162","300406","0.0-7.0-0.0-4.0-0.0-1.27","3","3","3","3","2","2","2","4","2","4","4","1","1","2","4","4","4","2","3","2","5","5","5","4","5","5","4","5","5","","1","0","0","1","0","0","1","0","0","1","0","0","0","0","1","5","4","4","5","5","5","5","5","1","4","230809","程","","","","","","","","","","","","","","","","","","","","","","","","","","","","","","feedback_test","","","","","","","","","",""
"864","","f","psychophysics","163","302272","0.0-7.0-0.0-4.0-0.0-0.28","3","3","3","3","2","2","2","4","2","4","4","1","1","2","4","4","4","2","3","2","5","5","5","4","5","5","4","5","5","","1","0","0","1","0","0","1","0","0","1","0","0","0","0","1","5","4","4","5","5","5","5","5","1","4","230809","程","","","","nonmatch","","","","","","","","","","","","","","key","f","4.166542600896972","853.3333333333334","476","f","true","nonmatch","img/diamond.png","圆形","菱形","ALT1","formal_ALT1_1","","","","","","","","","",""
"null","<span style='color:GreenYellow; font-size: 70px;'>正确! </span>","null","html-keyboard-response","164","302773","0.0-7.0-0.0-4.0-0.0-1.28","3","3","3","3","2","2","2","4","2","4","4","1","1","2","4","4","4","2","3","2","5","5","5","4","5","5","4","5","5","","1","0","0","1","0","0","1","0","0","1","0","0","0","0","1","5","4","4","5","5","5","5","5","1","4","230809","程","","","","","","","","","","","","","","","","","","","","","","","","","","","","","","feedback_test","","","","","","","","","",""
"850","","f","psychophysics","165","304625","0.0-7.0-0.0-4.0-0.0-0.29","3","3","3","3","2","2","2","4","2","4","4","1","1","2","4","4","4","2","3","2","5","5","5","4","5","5","4","5","5","","1","0","0","1","0","0","1","0","0","1","0","0","0","0","1","5","4","4","5","5","5","5","5","1","4","230809","程","","","","nonmatch","","","","","","","","","","","","","","key","f","4.166550790067735","853.3333333333334","476","f","true","nonmatch","img/circle.png","方形","圆形","ALT1","formal_ALT1_1","","","","","","","","","",""
"null","<span style='color:GreenYellow; font-size: 70px;'>正确! </span>","null","html-keyboard-response","166","305132","0.0-7.0-0.0-4.0-0.0-1.29","3","3","3","3","2","2","2","4","2","4","4","1","1","2","4","4","4","2","3","2","5","5","5","4","5","5","4","5","5","","1","0","0","1","0","0","1","0","0","1","0","0","0","0","1","5","4","4","5","5","5","5","5","1","4","230809","程","","","","","","","","","","","","","","","","","","","","","","","","","","","","","","feedback_test","","","","","","","","","",""
"745","","f","psychophysics","167","306878","0.0-7.0-0.0-4.0-0.0-0.30","3","3","3","3","2","2","2","4","2","4","4","1","1","2","4","4","4","2","3","2","5","5","5","4","5","5","4","5","5","","1","0","0","1","0","0","1","0","0","1","0","0","0","0","1","5","4","4","5","5","5","5","5","1","4","230809","程","","","","nonmatch","","","","","","","","","","","","","","key","f","4.166508393285392","853.3333333333334","476","f","true","nonmatch","img/square.png","三角","方形","ALT1","formal_ALT1_1","","","","","","","","","",""
"null","<span style='color:GreenYellow; font-size: 70px;'>正确! </span>","null","html-keyboard-response","168","307380","0.0-7.0-0.0-4.0-0.0-1.30","3","3","3","3","2","2","2","4","2","4","4","1","1","2","4","4","4","2","3","2","5","5","5","4","5","5","4","5","5","","1","0","0","1","0","0","1","0","0","1","0","0","0","0","1","5","4","4","5","5","5","5","5","1","4","230809","程","","","","","","","","","","","","","","","","","","","","","","","","","","","","","","feedback_test","","","","","","","","","",""
"794","","f","psychophysics","169","309176","0.0-7.0-0.0-4.0-0.0-0.31","3","3","3","3","2","2","2","4","2","4","4","1","1","2","4","4","4","2","3","2","5","5","5","4","5","5","4","5","5","","1","0","0","1","0","0","1","0","0","1","0","0","0","0","1","5","4","4","5","5","5","5","5","1","4","230809","程","","","","nonmatch","","","","","","","","","","","","","","key","f","4.166487179487202","853.3333333333334","476","f","true","nonmatch","img/diamond.png","三角","菱形","ALT1","formal_ALT1_1","","","","","","","","","",""
"null","<span style='color:GreenYellow; font-size: 70px;'>正确! </span>","null","html-keyboard-response","170","309678","0.0-7.0-0.0-4.0-0.0-1.31","3","3","3","3","2","2","2","4","2","4","4","1","1","2","4","4","4","2","3","2","5","5","5","4","5","5","4","5","5","","1","0","0","1","0","0","1","0","0","1","0","0","0","0","1","5","4","4","5","5","5","5","5","1","4","230809","程","","","","","","","","","","","","","","","","","","","","","","","","","","","","","","feedback_test","","","","","","","","","",""
"790","","j","psychophysics","171","311469","0.0-7.0-0.0-4.0-0.0-0.32","3","3","3","3","2","2","2","4","2","4","4","1","1","2","4","4","4","2","3","2","5","5","5","4","5","5","4","5","5","","1","0","0","1","0","0","1","0","0","1","0","0","0","0","1","5","4","4","5","5","5","5","5","1","4","230809","程","","","","match","","","","","","","","","","","","","","key","j","4.166467289719677","853.3333333333334","476","j","true","match","img/diamond.png","菱形","菱形","ALT1","formal_ALT1_1","","","","","","","","","",""
"null","<span style='color:GreenYellow; font-size: 70px;'>正确! </span>","null","html-keyboard-response","172","311970","0.0-7.0-0.0-4.0-0.0-1.32","3","3","3","3","2","2","2","4","2","4","4","1","1","2","4","4","4","2","3","2","5","5","5","4","5","5","4","5","5","","1","0","0","1","0","0","1","0","0","1","0","0","0","0","1","5","4","4","5","5","5","5","5","1","4","230809","程","","","","","","","","","","","","","","","","","","","","","","","","","","","","","","feedback_test","","","","","","","","","",""
"735","","f","psychophysics","173","313707","0.0-7.0-0.0-4.0-0.0-0.33","3","3","3","3","2","2","2","4","2","4","4","1","1","2","4","4","4","2","3","2","5","5","5","4","5","5","4","5","5","","1","0","0","1","0","0","1","0","0","1","0","0","0","0","1","5","4","4","5","5","5","5","5","1","4","230809","程","","","","nonmatch","","","","","","","","","","","","","","key","f","4.162845783132403","853.3333333333334","476","f","true","nonmatch","img/circle.png","三角","圆形","ALT1","formal_ALT1_1","","","","","","","","","",""
"null","<span style='color:GreenYellow; font-size: 70px;'>正确! </span>","null","html-keyboard-response","174","314208","0.0-7.0-0.0-4.0-0.0-1.33","3","3","3","3","2","2","2","4","2","4","4","1","1","2","4","4","4","2","3","2","5","5","5","4","5","5","4","5","5","","1","0","0","1","0","0","1","0","0","1","0","0","0","0","1","5","4","4","5","5","5","5","5","1","4","230809","程","","","","","","","","","","","","","","","","","","","","","","","","","","","","","","feedback_test","","","","","","","","","",""
"552","","j","psychophysics","175","315760","0.0-7.0-0.0-4.0-0.0-0.34","3","3","3","3","2","2","2","4","2","4","4","1","1","2","4","4","4","2","3","2","5","5","5","4","5","5","4","5","5","","1","0","0","1","0","0","1","0","0","1","0","0","0","0","1","5","4","4","5","5","5","5","5","1","4","230809","程","","","","match","","","","","","","","","","","","","","key","j","4.1664864864864235","853.3333333333334","476","j","true","match","img/triangle.png","三角","三角","ALT1","formal_ALT1_1","","","","","","","","","",""
"null","<span style='color:GreenYellow; font-size: 70px;'>正确! </span>","null","html-keyboard-response","176","316262","0.0-7.0-0.0-4.0-0.0-1.34","3","3","3","3","2","2","2","4","2","4","4","1","1","2","4","4","4","2","3","2","5","5","5","4","5","5","4","5","5","","1","0","0","1","0","0","1","0","0","1","0","0","0","0","1","5","4","4","5","5","5","5","5","1","4","230809","程","","","","","","","","","","","","","","","","","","","","","","","","","","","","","","feedback_test","","","","","","","","","",""
"955","","j","psychophysics","177","318219","0.0-7.0-0.0-4.0-0.0-0.35","3","3","3","3","2","2","2","4","2","4","4","1","1","2","4","4","4","2","3","2","5","5","5","4","5","5","4","5","5","","1","0","0","1","0","0","1","0","0","1","0","0","0","0","1","5","4","4","5","5","5","5","5","1","4","230809","程","","","","match","","","","","","","","","","","","","","key","j","4.163730769230746","853.3333333333334","476","j","true","match","img/square.png","方形","方形","ALT1","formal_ALT1_1","","","","","","","","","",""
"null","<span style='color:GreenYellow; font-size: 70px;'>正确! </span>","null","html-keyboard-response","178","318720","0.0-7.0-0.0-4.0-0.0-1.35","3","3","3","3","2","2","2","4","2","4","4","1","1","2","4","4","4","2","3","2","5","5","5","4","5","5","4","5","5","","1","0","0","1","0","0","1","0","0","1","0","0","0","0","1","5","4","4","5","5","5","5","5","1","4","230809","程","","","","","","","","","","","","","","","","","","","","","","","","","","","","","","feedback_test","","","","","","","","","",""
"831","","f","psychophysics","179","320553","0.0-7.0-0.0-4.0-0.0-0.36","3","3","3","3","2","2","2","4","2","4","4","1","1","2","4","4","4","2","3","2","5","5","5","4","5","5","4","5","5","","1","0","0","1","0","0","1","0","0","1","0","0","0","0","1","5","4","4","5","5","5","5","5","1","4","230809","程","","","","nonmatch","","","","","","","","","","","","","","key","f","4.166454337899558","853.3333333333334","476","f","true","nonmatch","img/triangle.png","菱形","三角","ALT1","formal_ALT1_1","","","","","","","","","",""
"null","<span style='color:GreenYellow; font-size: 70px;'>正确! </span>","null","html-keyboard-response","180","321054","0.0-7.0-0.0-4.0-0.0-1.36","3","3","3","3","2","2","2","4","2","4","4","1","1","2","4","4","4","2","3","2","5","5","5","4","5","5","4","5","5","","1","0","0","1","0","0","1","0","0","1","0","0","0","0","1","5","4","4","5","5","5","5","5","1","4","230809","程","","","","","","","","","","","","","","","","","","","","","","","","","","","","","","feedback_test","","","","","","","","","",""
"686","","f","psychophysics","181","322741","0.0-7.0-0.0-4.0-0.0-0.37","3","3","3","3","2","2","2","4","2","4","4","1","1","2","4","4","4","2","3","2","5","5","5","4","5","5","4","5","5","","1","0","0","1","0","0","1","0","0","1","0","0","0","0","1","5","4","4","5","5","5","5","5","1","4","230809","程","","","","nonmatch","","","","","","","","","","","","","","key","f","4.176865671641733","853.3333333333334","476","f","true","nonmatch","img/square.png","菱形","方形","ALT1","formal_ALT1_1","","","","","","","","","",""
"null","<span style='color:GreenYellow; font-size: 70px;'>正确! </span>","null","html-keyboard-response","182","323242","0.0-7.0-0.0-4.0-0.0-1.37","3","3","3","3","2","2","2","4","2","4","4","1","1","2","4","4","4","2","3","2","5","5","5","4","5","5","4","5","5","","1","0","0","1","0","0","1","0","0","1","0","0","0","0","1","5","4","4","5","5","5","5","5","1","4","230809","程","","","","","","","","","","","","","","","","","","","","","","","","","","","","","","feedback_test","","","","","","","","","",""
"1026","","j","psychophysics","183","325269","0.0-7.0-0.0-4.0-0.0-0.38","3","3","3","3","2","2","2","4","2","4","4","1","1","2","4","4","4","2","3","2","5","5","5","4","5","5","4","5","5","","1","0","0","1","0","0","1","0","0","1","0","0","0","0","1","5","4","4","5","5","5","5","5","1","4","230809","程","","","","match","","","","","","","","","","","","","","key","j","4.164404123711409","853.3333333333334","476","j","true","match","img/diamond.png","菱形","菱形","ALT1","formal_ALT1_1","","","","","","","","","",""
"null","<span style='color:GreenYellow; font-size: 70px;'>正确! </span>","null","html-keyboard-response","184","325770","0.0-7.0-0.0-4.0-0.0-1.38","3","3","3","3","2","2","2","4","2","4","4","1","1","2","4","4","4","2","3","2","5","5","5","4","5","5","4","5","5","","1","0","0","1","0","0","1","0","0","1","0","0","0","0","1","5","4","4","5","5","5","5","5","1","4","230809","程","","","","","","","","","","","","","","","","","","","","","","","","","","","","","","feedback_test","","","","","","","","","",""
"595","","f","psychophysics","185","327367","0.0-7.0-0.0-4.0-0.0-0.39","3","3","3","3","2","2","2","4","2","4","4","1","1","2","4","4","4","2","3","2","5","5","5","4","5","5","4","5","5","","1","0","0","1","0","0","1","0","0","1","0","0","0","0","1","5","4","4","5","5","5","5","5","1","4","230809","程","","","","nonmatch","","","","","","","","","","","","","","key","f","4.166603674540746","853.3333333333334","476","f","true","nonmatch","img/circle.png","菱形","圆形","ALT1","formal_ALT1_1","","","","","","","","","",""
"null","<span style='color:GreenYellow; font-size: 70px;'>正确! </span>","null","html-keyboard-response","186","327867","0.0-7.0-0.0-4.0-0.0-1.39","3","3","3","3","2","2","2","4","2","4","4","1","1","2","4","4","4","2","3","2","5","5","5","4","5","5","4","5","5","","1","0","0","1","0","0","1","0","0","1","0","0","0","0","1","5","4","4","5","5","5","5","5","1","4","230809","程","","","","","","","","","","","","","","","","","","","","","","","","","","","","","","feedback_test","","","","","","","","","",""
"751","","f","psychophysics","187","329620","0.0-7.0-0.0-4.0-0.0-0.40","3","3","3","3","2","2","2","4","2","4","4","1","1","2","4","4","4","2","3","2","5","5","5","4","5","5","4","5","5","","1","0","0","1","0","0","1","0","0","1","0","0","0","0","1","5","4","4","5","5","5","5","5","1","4","230809","程","","","","nonmatch","","","","","","","","","","","","","","key","f","4.166435406698581","853.3333333333334","476","f","true","nonmatch","img/triangle.png","圆形","三角","ALT1","formal_ALT1_1","","","","","","","","","",""
"null","<span style='color:GreenYellow; font-size: 70px;'>正确! </span>","null","html-keyboard-response","188","330120","0.0-7.0-0.0-4.0-0.0-1.40","3","3","3","3","2","2","2","4","2","4","4","1","1","2","4","4","4","2","3","2","5","5","5","4","5","5","4","5","5","","1","0","0","1","0","0","1","0","0","1","0","0","0","0","1","5","4","4","5","5","5","5","5","1","4","230809","程","","","","","","","","","","","","","","","","","","","","","","","","","","","","","","feedback_test","","","","","","","","","",""
