"rt","stimulus","response","trial_type","trial_index","time_elapsed","internal_node_id","ses_1","ses_2","ses_3","ses_4","ses_5","ses_6","ses_7","ses_8","ses_9","ses_10","coreself_1","coreself_2","coreself_3","coreself_4","coreself_5","coreself_6","coreself_7","coreself_8","coreself_9","coreself_10","SGPS_1","SGPS_2","SGPS_3","SGPS_4","SGPS_5","SGPS_6","SGPS_7","SGPS_8","SGPS_9","NPI1","NPI2","NPI3","NPI4","NPI5","NPI6","NPI7","NPI8","NPI9","NPI10","NPI11","NPI12","NPI13","NPI14","NPI15","hsns_1","hsns_2","hsns_3","hsns_4","hsns_5","hsns_6","hsns_7","hsns_8","hsns_9","hsns_10","subj_idx","friend_name","value","success","user_agent","responses","item_order","radio_event_ids","radio_event_times","key_event_times","mouse_event_times","straightlining","zigzagging","honeypot","timeout","failed_images","failed_audio","failed_video","version_attrib2","version_target2","correct","IAT","screen_id","task_id","RT","condition","word","varname","summary","version_attrib","version_target","time_stamp","view_history","response_type","key_press","avg_frame_time","center_x","center_y","correct_response","identity","Image","question_order"
"1517","
   <p><div style = ""color: white;font-size:25px;"">您好，欢迎参加本次实验。</div> </p>
   <p><div style = ""color: white;font-size:25px;"">为充分保障您的权利，请确保您已经知晓并同意《参与实验同意书》以及《数据公开知情同意书》。</div></p>
   <p><div style = ""color: white;font-size:25px;"">如果您未见过上述内容，请咨询实验员。</div></p>
   <p><div style = ""color: white;font-size:25px;"">如果您选择继续实验，则表示您已经清楚两份知情同意书的内容并同意。</div></p>
   <p> <div style = ""color: green;font-size:25px;""><按空格键至下页></div> </p>
   "," ","html-keyboard-response","0","1519","0.0-0.0","2","2","3","2","3","2","2","3","3","3","3","4","3","3","2","3","4","4","2","5","5","5","5","4","4","4","3","4","5","1","0","0","1","1","0","1","1","1","1","-1","0","1","0","1","2","3","4","2","4","4","3","2","2","2","5","张","","","","","","","","","","","","","","","","","","","","","","","","","","","","","","","","","","","","","","","",""
"","","","call-function","1","1520","0.0-1.0-0.0","2","2","3","2","3","2","2","3","3","3","3","4","3","3","2","3","4","4","2","5","5","5","5","4","4","4","3","4","5","1","0","0","1","1","0","1","1","1","1","-1","0","1","0","1","2","3","4","2","4","4","3","2","2","2","5","张","","","","","","","","","","","","","","","","","","","","","","","","","","","","","","","","","","","","","","","",""
"13117","","{""friend_name"":""张"",""subj_idx"":""5""}","survey-html-form","2","14638","0.0-1.0-1.0","2","2","3","2","3","2","2","3","3","3","3","4","3","3","2","3","4","4","2","5","5","5","5","4","4","4","3","4","5","1","0","0","1","1","0","1","1","1","1","-1","0","1","0","1","2","3","4","2","4","4","3","2","2","2","5","张","","","","","","","","","","","","","","","","","","","","","","","","","","","","","","","","","","","","","","","",""
"","","","fullscreen","3","16215","0.0-2.0","2","2","3","2","3","2","2","3","3","3","3","4","3","3","2","3","4","4","2","5","5","5","5","4","4","4","3","4","5","1","0","0","1","1","0","1","1","1","1","-1","0","1","0","1","2","3","4","2","4","4","3","2","2","2","5","张","","true","{}","","","","","","","","","","","","","","","","","","","","","","","","","","","","","","","","","","","","",""
"13840.30000000028","","{""Q01"":""2"",""Q02"":""2"",""Q03"":""3"",""Q04"":""2"",""Q05"":""3"",""Q06"":""2"",""Q07"":""2"",""Q08"":""3"",""Q09"":""3"",""Q10"":""3""}","survey-template","4","30061","0.0-3.0","2","2","3","2","3","2","2","3","3","3","3","4","3","3","2","3","4","4","2","5","5","5","5","4","4","4","3","4","5","1","0","0","1","1","0","1","1","1","1","-1","0","1","0","1","2","3","4","2","4","4","3","2","2","2","5","张","","","","{""Q01"":""2"",""Q02"":""2"",""Q03"":""3"",""Q04"":""2"",""Q05"":""3"",""Q06"":""2"",""Q07"":""2"",""Q08"":""3"",""Q09"":""3"",""Q10"":""3""}","[0,1,2,3,4,5,6,7,8,9]","[""Q01"",""Q02"",""Q03"",""Q04"",""Q05"",""Q06"",""Q07"",""Q08"",""Q09"",""Q10""]","[3482.100000000093,4343.5,5394.800000000279,5970.800000000279,7575.600000000093,9156.899999999907,10215.600000000093,10961.899999999907,11692.700000000186,12773]","[]","[2143.3000000002794,2954.7000000001863,3482.100000000093,4343.5,4892,5394.800000000279,5970.800000000279,7052.899999999907,7575.600000000093,8651,9156.899999999907,10215.600000000093,10961.899999999907,11692.700000000186,12773,13839]","1","0","0","","","","","","","","","","","","","","","","","","","","","","","","","","","",""
"16154.299999999814","","{""Q01"":""3"",""Q02"":""4"",""Q03"":""3"",""Q04"":""3"",""Q05"":""2"",""Q06"":""3"",""Q07"":""4"",""Q08"":""4"",""Q09"":""2"",""Q10"":""5""}","survey-template","5","46222","0.0-4.0","2","2","3","2","3","2","2","3","3","3","3","4","3","3","2","3","4","4","2","5","5","5","5","4","4","4","3","4","5","1","0","0","1","1","0","1","1","1","1","-1","0","1","0","1","2","3","4","2","4","4","3","2","2","2","5","张","","","","{""Q01"":""3"",""Q02"":""4"",""Q03"":""3"",""Q04"":""3"",""Q05"":""2"",""Q06"":""3"",""Q07"":""4"",""Q08"":""4"",""Q09"":""2"",""Q10"":""5""}","[0,1,2,3,4,5,6,7,8,9]","[""Q01"",""Q02"",""Q03"",""Q04"",""Q05"",""Q06"",""Q07"",""Q08"",""Q09"",""Q10""]","[2347,3175.7999999998137,5422.5,7161.899999999907,9033.099999999627,10480.799999999814,11455.899999999907,12646.899999999907,13542.799999999814,15022.69999999972]","[]","[1919.5,2347,3175.7999999998137,5422.5,7161.899999999907,7987.0999999996275,9033.099999999627,10480.799999999814,11455.899999999907,12646.899999999907,13542.799999999814,15022.69999999972,16151.899999999907]","0.4","0.6666666666666666","0","","","","","","","","","","","","","","","","","","","","","","","","","","","",""
"","","","preload","6","46257","0.0-5.0","2","2","3","2","3","2","2","3","3","3","3","4","3","3","2","3","4","4","2","5","5","5","5","4","4","4","3","4","5","1","0","0","1","1","0","1","1","1","1","-1","0","1","0","1","2","3","4","2","4","4","3","2","2","2","5","张","","true","","","","","","","","","","","false","[]","[]","[]","","","","","","","","","","","","","","","","","","","","","","","",""
"10503","
    <h3>词语分类任务</h3>
    <p>在接下来的任务中，你需要对一系列词语进行分类。<p/>
    请先熟悉这些词语，这有利于你完成接下来的任务。</p>
    <table align=""center"" border=1 cellpadding=3 cellspacing=0>
    <tr> <th>类别</th> <th>词语</th> </tr>
    <tr> <td>&emsp;积极&emsp;</td> <td>&emsp;高尚、诚信、善良、君子、廉正、正直&emsp;</td> </tr>
    <tr> <td>&emsp;消极&emsp;</td> <td>&emsp;缺德、卑鄙、不孝、不仁、小人、黑心&emsp;</td> </tr>
    <tr> <td>&emsp;自我&emsp;</td> <td>&emsp;我、我的、自己、自己的、本人、本人的&emsp;</td> </tr>
    <tr> <td>&emsp;他人&emsp;</td> <td>&emsp;他、他的、别人、别人的、他人、他人的&emsp;</td> </tr>
    </table><br/>","0","html-button-response","7","56761","0.0-6.0-1.0-0.0","2","2","3","2","3","2","2","3","3","3","3","4","3","3","2","3","4","4","2","5","5","5","5","4","4","4","3","4","5","1","0","0","1","1","0","1","1","1","1","-1","0","1","0","1","2","3","4","2","4","4","3","2","2","2","5","张","","","","","","","","","","","","","","","","","2","1","","","","","","","","","","","","","","","","","","","","","",""
"3056","
    <div class=""tag-bottom""><p>
    —— 任务1：对“自我”词和“他人”词分类 ——<p/>
    不同词语会出现在屏幕中央，类别标签将始终显示在屏幕上方<p/>   
    <span style=""color:#FFD866""><b>请根据上方标签的提示，尽可能正确并且快速地做出按键反应</b></span><p/>
    当按键错误时屏幕中会出现<span style=""color:red""> X </span>，需要按另一个键纠正才能继续<br/><p/>
    请把双手食指分别放在键盘的“E”键和“I”键上<p/>
    按<空格键>开始
    </p></div>"," ","html-keyboard-response","8","59819","0.0-6.0-1.0-1.0","2","2","3","2","3","2","2","3","3","3","3","4","3","3","2","3","4","4","2","5","5","5","5","4","4","4","3","4","5","1","0","0","1","1","0","1","1","1","1","-1","0","1","0","1","2","3","4","2","4","4","3","2","2","2","5","张","","","","","","","","","","","","","","","","","","","","","","","","","","","","","","","","","","","","","","","",""
"null","","null","html-keyboard-response","9","60070","0.0-6.0-1.0-2.0-0.0","2","2","3","2","3","2","2","3","3","3","3","4","3","3","2","3","4","4","2","5","5","5","5","4","4","4","3","4","5","1","0","0","1","1","0","1","1","1","1","-1","0","1","0","1","2","3","4","2","4","4","3","2","2","2","5","张","","","","","","","","","","","","","","","","","","","","","","","","","","","","","","","","","","","","","","","",""
"552","<p style=""color:rgb(150, 250, 100); font-size: 35px;"">他的</p>","i","categorize-html","10","60624","0.0-6.0-1.0-2.0-1.0","2","2","3","2","3","2","2","3","3","3","3","4","3","3","2","3","4","4","2","5","5","5","5","4","4","4","3","4","5","1","0","0","1","1","0","1","1","1","1","-1","0","1","0","1","2","3","4","2","4","4","3","2","2","2","5","张","","","","","","","","","","","","","","","","","","","true","11","1","moral","552","other","他的","","","","","","","","","","","","","","",""
"null","","null","html-keyboard-response","11","60876","0.0-6.0-1.0-2.0-0.1","2","2","3","2","3","2","2","3","3","3","3","4","3","3","2","3","4","4","2","5","5","5","5","4","4","4","3","4","5","1","0","0","1","1","0","1","1","1","1","-1","0","1","0","1","2","3","4","2","4","4","3","2","2","2","5","张","","","","","","","","","","","","","","","","","","","","","","","","","","","","","","","","","","","","","","","",""
"24","<p style=""color:rgb(150, 250, 100); font-size: 35px;"">别人</p>","i","categorize-html","12","60901","0.0-6.0-1.0-2.0-1.1","2","2","3","2","3","2","2","3","3","3","3","4","3","3","2","3","4","4","2","5","5","5","5","4","4","4","3","4","5","1","0","0","1","1","0","1","1","1","1","-1","0","1","0","1","2","3","4","2","4","4","3","2","2","2","5","张","","","","","","","","","","","","","","","","","","","true","11","1","moral","24","other","别人","","","","","","","","","","","","","","",""
"null","","null","html-keyboard-response","13","61153","0.0-6.0-1.0-2.0-0.2","2","2","3","2","3","2","2","3","3","3","3","4","3","3","2","3","4","4","2","5","5","5","5","4","4","4","3","4","5","1","0","0","1","1","0","1","1","1","1","-1","0","1","0","1","2","3","4","2","4","4","3","2","2","2","5","张","","","","","","","","","","","","","","","","","","","","","","","","","","","","","","","","","","","","","","","",""
"35","<p style=""color:rgb(150, 250, 100); font-size: 35px;"">自己</p>","i","categorize-html","14","61763","0.0-6.0-1.0-2.0-1.2","2","2","3","2","3","2","2","3","3","3","3","4","3","3","2","3","4","4","2","5","5","5","5","4","4","4","3","4","5","1","0","0","1","1","0","1","1","1","1","-1","0","1","0","1","2","3","4","2","4","4","3","2","2","2","5","张","","","","","","","","","","","","","","","","","","","false","11","1","moral","35","self","自己","","","","","","","","","","","","","","",""
"null","","null","html-keyboard-response","15","62014","0.0-6.0-1.0-2.0-0.3","2","2","3","2","3","2","2","3","3","3","3","4","3","3","2","3","4","4","2","5","5","5","5","4","4","4","3","4","5","1","0","0","1","1","0","1","1","1","1","-1","0","1","0","1","2","3","4","2","4","4","3","2","2","2","5","张","","","","","","","","","","","","","","","","","","","","","","","","","","","","","","","","","","","","","","","",""
"135","<p style=""color:rgb(150, 250, 100); font-size: 35px;"">自己的</p>","i","categorize-html","16","62784","0.0-6.0-1.0-2.0-1.3","2","2","3","2","3","2","2","3","3","3","3","4","3","3","2","3","4","4","2","5","5","5","5","4","4","4","3","4","5","1","0","0","1","1","0","1","1","1","1","-1","0","1","0","1","2","3","4","2","4","4","3","2","2","2","5","张","","","","","","","","","","","","","","","","","","","false","11","1","moral","135","self","自己的","","","","","","","","","","","","","","",""
"null","","null","html-keyboard-response","17","63036","0.0-6.0-1.0-2.0-0.4","2","2","3","2","3","2","2","3","3","3","3","4","3","3","2","3","4","4","2","5","5","5","5","4","4","4","3","4","5","1","0","0","1","1","0","1","1","1","1","-1","0","1","0","1","2","3","4","2","4","4","3","2","2","2","5","张","","","","","","","","","","","","","","","","","","","","","","","","","","","","","","","","","","","","","","","",""
"184","<p style=""color:rgb(150, 250, 100); font-size: 35px;"">本人</p>","e","categorize-html","18","63222","0.0-6.0-1.0-2.0-1.4","2","2","3","2","3","2","2","3","3","3","3","4","3","3","2","3","4","4","2","5","5","5","5","4","4","4","3","4","5","1","0","0","1","1","0","1","1","1","1","-1","0","1","0","1","2","3","4","2","4","4","3","2","2","2","5","张","","","","","","","","","","","","","","","","","","","true","11","1","moral","184","self","本人","","","","","","","","","","","","","","",""
"null","","null","html-keyboard-response","19","63472","0.0-6.0-1.0-2.0-0.5","2","2","3","2","3","2","2","3","3","3","3","4","3","3","2","3","4","4","2","5","5","5","5","4","4","4","3","4","5","1","0","0","1","1","0","1","1","1","1","-1","0","1","0","1","2","3","4","2","4","4","3","2","2","2","5","张","","","","","","","","","","","","","","","","","","","","","","","","","","","","","","","","","","","","","","","",""
"210","<p style=""color:rgb(150, 250, 100); font-size: 35px;"">我的</p>","e","categorize-html","20","63684","0.0-6.0-1.0-2.0-1.5","2","2","3","2","3","2","2","3","3","3","3","4","3","3","2","3","4","4","2","5","5","5","5","4","4","4","3","4","5","1","0","0","1","1","0","1","1","1","1","-1","0","1","0","1","2","3","4","2","4","4","3","2","2","2","5","张","","","","","","","","","","","","","","","","","","","true","11","1","moral","210","self","我的","","","","","","","","","","","","","","",""
"null","","null","html-keyboard-response","21","63935","0.0-6.0-1.0-2.0-0.6","2","2","3","2","3","2","2","3","3","3","3","4","3","3","2","3","4","4","2","5","5","5","5","4","4","4","3","4","5","1","0","0","1","1","0","1","1","1","1","-1","0","1","0","1","2","3","4","2","4","4","3","2","2","2","5","张","","","","","","","","","","","","","","","","","","","","","","","","","","","","","","","","","","","","","","","",""
"12","<p style=""color:rgb(150, 250, 100); font-size: 35px;"">他</p>","e","categorize-html","22","64405","0.0-6.0-1.0-2.0-1.6","2","2","3","2","3","2","2","3","3","3","3","4","3","3","2","3","4","4","2","5","5","5","5","4","4","4","3","4","5","1","0","0","1","1","0","1","1","1","1","-1","0","1","0","1","2","3","4","2","4","4","3","2","2","2","5","张","","","","","","","","","","","","","","","","","","","false","11","1","moral","12","other","他","","","","","","","","","","","","","","",""
"null","","null","html-keyboard-response","23","64656","0.0-6.0-1.0-2.0-0.7","2","2","3","2","3","2","2","3","3","3","3","4","3","3","2","3","4","4","2","5","5","5","5","4","4","4","3","4","5","1","0","0","1","1","0","1","1","1","1","-1","0","1","0","1","2","3","4","2","4","4","3","2","2","2","5","张","","","","","","","","","","","","","","","","","","","","","","","","","","","","","","","","","","","","","","","",""
"39","<p style=""color:rgb(150, 250, 100); font-size: 35px;"">他人</p>","e","categorize-html","24","65002","0.0-6.0-1.0-2.0-1.7","2","2","3","2","3","2","2","3","3","3","3","4","3","3","2","3","4","4","2","5","5","5","5","4","4","4","3","4","5","1","0","0","1","1","0","1","1","1","1","-1","0","1","0","1","2","3","4","2","4","4","3","2","2","2","5","张","","","","","","","","","","","","","","","","","","","false","11","1","moral","39","other","他人","","","","","","","","","","","","","","",""
"null","","null","html-keyboard-response","25","65254","0.0-6.0-1.0-2.0-0.8","2","2","3","2","3","2","2","3","3","3","3","4","3","3","2","3","4","4","2","5","5","5","5","4","4","4","3","4","5","1","0","0","1","1","0","1","1","1","1","-1","0","1","0","1","2","3","4","2","4","4","3","2","2","2","5","张","","","","","","","","","","","","","","","","","","","","","","","","","","","","","","","","","","","","","","","",""
"186","<p style=""color:rgb(150, 250, 100); font-size: 35px;"">本人的</p>","i","categorize-html","26","65790","0.0-6.0-1.0-2.0-1.8","2","2","3","2","3","2","2","3","3","3","3","4","3","3","2","3","4","4","2","5","5","5","5","4","4","4","3","4","5","1","0","0","1","1","0","1","1","1","1","-1","0","1","0","1","2","3","4","2","4","4","3","2","2","2","5","张","","","","","","","","","","","","","","","","","","","false","11","1","moral","186","self","本人的","","","","","","","","","","","","","","",""
"null","","null","html-keyboard-response","27","66042","0.0-6.0-1.0-2.0-0.9","2","2","3","2","3","2","2","3","3","3","3","4","3","3","2","3","4","4","2","5","5","5","5","4","4","4","3","4","5","1","0","0","1","1","0","1","1","1","1","-1","0","1","0","1","2","3","4","2","4","4","3","2","2","2","5","张","","","","","","","","","","","","","","","","","","","","","","","","","","","","","","","","","","","","","","","",""
"59","<p style=""color:rgb(150, 250, 100); font-size: 35px;"">别人的</p>","i","categorize-html","28","66103","0.0-6.0-1.0-2.0-1.9","2","2","3","2","3","2","2","3","3","3","3","4","3","3","2","3","4","4","2","5","5","5","5","4","4","4","3","4","5","1","0","0","1","1","0","1","1","1","1","-1","0","1","0","1","2","3","4","2","4","4","3","2","2","2","5","张","","","","","","","","","","","","","","","","","","","true","11","1","moral","59","other","别人的","","","","","","","","","","","","","","",""
"null","","null","html-keyboard-response","29","66355","0.0-6.0-1.0-2.0-0.10","2","2","3","2","3","2","2","3","3","3","3","4","3","3","2","3","4","4","2","5","5","5","5","4","4","4","3","4","5","1","0","0","1","1","0","1","1","1","1","-1","0","1","0","1","2","3","4","2","4","4","3","2","2","2","5","张","","","","","","","","","","","","","","","","","","","","","","","","","","","","","","","","","","","","","","","",""
"61","<p style=""color:rgb(150, 250, 100); font-size: 35px;"">他人的</p>","e","categorize-html","30","66641","0.0-6.0-1.0-2.0-1.10","2","2","3","2","3","2","2","3","3","3","3","4","3","3","2","3","4","4","2","5","5","5","5","4","4","4","3","4","5","1","0","0","1","1","0","1","1","1","1","-1","0","1","0","1","2","3","4","2","4","4","3","2","2","2","5","张","","","","","","","","","","","","","","","","","","","false","11","1","moral","61","other","他人的","","","","","","","","","","","","","","",""
"null","","null","html-keyboard-response","31","66892","0.0-6.0-1.0-2.0-0.11","2","2","3","2","3","2","2","3","3","3","3","4","3","3","2","3","4","4","2","5","5","5","5","4","4","4","3","4","5","1","0","0","1","1","0","1","1","1","1","-1","0","1","0","1","2","3","4","2","4","4","3","2","2","2","5","张","","","","","","","","","","","","","","","","","","","","","","","","","","","","","","","","","","","","","","","",""
"12","<p style=""color:rgb(150, 250, 100); font-size: 35px;"">我</p>","e","categorize-html","32","66906","0.0-6.0-1.0-2.0-1.11","2","2","3","2","3","2","2","3","3","3","3","4","3","3","2","3","4","4","2","5","5","5","5","4","4","4","3","4","5","1","0","0","1","1","0","1","1","1","1","-1","0","1","0","1","2","3","4","2","4","4","3","2","2","2","5","张","","","","","","","","","","","","","","","","","","","true","11","1","moral","12","self","我","","","","","","","","","","","","","","",""
"1112","
    <div class=""tag-bottom""><p>
    —— 任务2：对“消极”词和“积极”词分类 ——<p/>   
    <span style=""color:#78DCE8""><b>注意上方，类别标签和需要分类的词语都已经改变</b></span><p/>
    <span style=""color:#FFD866""><b>请根据上方标签的提示，尽可能正确并且快速地做出按键反应</b></span><p/>
    当按键错误时屏幕中会出现<span style=""color:red""> X </span>，需要按另一个键纠正才能继续<br/><p/>
    请把双手食指分别放在键盘的“E”键和“I”键上<p/>
    按<空格键>开始
    </p></div>"," ","html-keyboard-response","33","68019","0.0-6.0-1.0-3.0","2","2","3","2","3","2","2","3","3","3","3","4","3","3","2","3","4","4","2","5","5","5","5","4","4","4","3","4","5","1","0","0","1","1","0","1","1","1","1","-1","0","1","0","1","2","3","4","2","4","4","3","2","2","2","5","张","","","","","","","","","","","","","","","","","","","","","","","","","","","","","","","","","","","","","","","",""
"null","","null","html-keyboard-response","34","68270","0.0-6.0-1.0-4.0-0.0","2","2","3","2","3","2","2","3","3","3","3","4","3","3","2","3","4","4","2","5","5","5","5","4","4","4","3","4","5","1","0","0","1","1","0","1","1","1","1","-1","0","1","0","1","2","3","4","2","4","4","3","2","2","2","5","张","","","","","","","","","","","","","","","","","","","","","","","","","","","","","","","","","","","","","","","",""
"310","<p style=""color:white; font-size: 35px;"">君子</p>","e","categorize-html","35","68706","0.0-6.0-1.0-4.0-1.0","2","2","3","2","3","2","2","3","3","3","3","4","3","3","2","3","4","4","2","5","5","5","5","4","4","4","3","4","5","1","0","0","1","1","0","1","1","1","1","-1","0","1","0","1","2","3","4","2","4","4","3","2","2","2","5","张","","","","","","","","","","","","","","","","","","","false","12","2","moral","310","positive","君子","","","","","","","","","","","","","","",""
"null","","null","html-keyboard-response","36","68960","0.0-6.0-1.0-4.0-0.1","2","2","3","2","3","2","2","3","3","3","3","4","3","3","2","3","4","4","2","5","5","5","5","4","4","4","3","4","5","1","0","0","1","1","0","1","1","1","1","-1","0","1","0","1","2","3","4","2","4","4","3","2","2","2","5","张","","","","","","","","","","","","","","","","","","","","","","","","","","","","","","","","","","","","","","","",""
"45","<p style=""color:white; font-size: 35px;"">缺德</p>","i","categorize-html","37","69198","0.0-6.0-1.0-4.0-1.1","2","2","3","2","3","2","2","3","3","3","3","4","3","3","2","3","4","4","2","5","5","5","5","4","4","4","3","4","5","1","0","0","1","1","0","1","1","1","1","-1","0","1","0","1","2","3","4","2","4","4","3","2","2","2","5","张","","","","","","","","","","","","","","","","","","","false","12","2","moral","45","negative","缺德","","","","","","","","","","","","","","",""
"null","","null","html-keyboard-response","38","69449","0.0-6.0-1.0-4.0-0.2","2","2","3","2","3","2","2","3","3","3","3","4","3","3","2","3","4","4","2","5","5","5","5","4","4","4","3","4","5","1","0","0","1","1","0","1","1","1","1","-1","0","1","0","1","2","3","4","2","4","4","3","2","2","2","5","张","","","","","","","","","","","","","","","","","","","","","","","","","","","","","","","","","","","","","","","",""
"172","<p style=""color:white; font-size: 35px;"">高尚</p>","e","categorize-html","39","69776","0.0-6.0-1.0-4.0-1.2","2","2","3","2","3","2","2","3","3","3","3","4","3","3","2","3","4","4","2","5","5","5","5","4","4","4","3","4","5","1","0","0","1","1","0","1","1","1","1","-1","0","1","0","1","2","3","4","2","4","4","3","2","2","2","5","张","","","","","","","","","","","","","","","","","","","false","12","2","moral","172","positive","高尚","","","","","","","","","","","","","","",""
"null","","null","html-keyboard-response","40","70027","0.0-6.0-1.0-4.0-0.3","2","2","3","2","3","2","2","3","3","3","3","4","3","3","2","3","4","4","2","5","5","5","5","4","4","4","3","4","5","1","0","0","1","1","0","1","1","1","1","-1","0","1","0","1","2","3","4","2","4","4","3","2","2","2","5","张","","","","","","","","","","","","","","","","","","","","","","","","","","","","","","","","","","","","","","","",""
"105","<p style=""color:white; font-size: 35px;"">不仁</p>","i","categorize-html","41","70284","0.0-6.0-1.0-4.0-1.3","2","2","3","2","3","2","2","3","3","3","3","4","3","3","2","3","4","4","2","5","5","5","5","4","4","4","3","4","5","1","0","0","1","1","0","1","1","1","1","-1","0","1","0","1","2","3","4","2","4","4","3","2","2","2","5","张","","","","","","","","","","","","","","","","","","","false","12","2","moral","105","negative","不仁","","","","","","","","","","","","","","",""
"null","","null","html-keyboard-response","42","70535","0.0-6.0-1.0-4.0-0.4","2","2","3","2","3","2","2","3","3","3","3","4","3","3","2","3","4","4","2","5","5","5","5","4","4","4","3","4","5","1","0","0","1","1","0","1","1","1","1","-1","0","1","0","1","2","3","4","2","4","4","3","2","2","2","5","张","","","","","","","","","","","","","","","","","","","","","","","","","","","","","","","","","","","","","","","",""
"76","<p style=""color:white; font-size: 35px;"">卑鄙</p>","e","categorize-html","43","70613","0.0-6.0-1.0-4.0-1.4","2","2","3","2","3","2","2","3","3","3","3","4","3","3","2","3","4","4","2","5","5","5","5","4","4","4","3","4","5","1","0","0","1","1","0","1","1","1","1","-1","0","1","0","1","2","3","4","2","4","4","3","2","2","2","5","张","","","","","","","","","","","","","","","","","","","true","12","2","moral","76","negative","卑鄙","","","","","","","","","","","","","","",""
"null","","null","html-keyboard-response","44","70865","0.0-6.0-1.0-4.0-0.5","2","2","3","2","3","2","2","3","3","3","3","4","3","3","2","3","4","4","2","5","5","5","5","4","4","4","3","4","5","1","0","0","1","1","0","1","1","1","1","-1","0","1","0","1","2","3","4","2","4","4","3","2","2","2","5","张","","","","","","","","","","","","","","","","","","","","","","","","","","","","","","","","","","","","","","","",""
"61","<p style=""color:white; font-size: 35px;"">诚信</p>","e","categorize-html","45","71447","0.0-6.0-1.0-4.0-1.5","2","2","3","2","3","2","2","3","3","3","3","4","3","3","2","3","4","4","2","5","5","5","5","4","4","4","3","4","5","1","0","0","1","1","0","1","1","1","1","-1","0","1","0","1","2","3","4","2","4","4","3","2","2","2","5","张","","","","","","","","","","","","","","","","","","","false","12","2","moral","61","positive","诚信","","","","","","","","","","","","","","",""
"null","","null","html-keyboard-response","46","71699","0.0-6.0-1.0-4.0-0.6","2","2","3","2","3","2","2","3","3","3","3","4","3","3","2","3","4","4","2","5","5","5","5","4","4","4","3","4","5","1","0","0","1","1","0","1","1","1","1","-1","0","1","0","1","2","3","4","2","4","4","3","2","2","2","5","张","","","","","","","","","","","","","","","","","","","","","","","","","","","","","","","","","","","","","","","",""
"31","<p style=""color:white; font-size: 35px;"">正直</p>","e","categorize-html","47","71892","0.0-6.0-1.0-4.0-1.6","2","2","3","2","3","2","2","3","3","3","3","4","3","3","2","3","4","4","2","5","5","5","5","4","4","4","3","4","5","1","0","0","1","1","0","1","1","1","1","-1","0","1","0","1","2","3","4","2","4","4","3","2","2","2","5","张","","","","","","","","","","","","","","","","","","","false","12","2","moral","31","positive","正直","","","","","","","","","","","","","","",""
"null","","null","html-keyboard-response","48","72143","0.0-6.0-1.0-4.0-0.7","2","2","3","2","3","2","2","3","3","3","3","4","3","3","2","3","4","4","2","5","5","5","5","4","4","4","3","4","5","1","0","0","1","1","0","1","1","1","1","-1","0","1","0","1","2","3","4","2","4","4","3","2","2","2","5","张","","","","","","","","","","","","","","","","","","","","","","","","","","","","","","","","","","","","","","","",""
"102","<p style=""color:white; font-size: 35px;"">善良</p>","i","categorize-html","49","72246","0.0-6.0-1.0-4.0-1.7","2","2","3","2","3","2","2","3","3","3","3","4","3","3","2","3","4","4","2","5","5","5","5","4","4","4","3","4","5","1","0","0","1","1","0","1","1","1","1","-1","0","1","0","1","2","3","4","2","4","4","3","2","2","2","5","张","","","","","","","","","","","","","","","","","","","true","12","2","moral","102","positive","善良","","","","","","","","","","","","","","",""
"null","","null","html-keyboard-response","50","72497","0.0-6.0-1.0-4.0-0.8","2","2","3","2","3","2","2","3","3","3","3","4","3","3","2","3","4","4","2","5","5","5","5","4","4","4","3","4","5","1","0","0","1","1","0","1","1","1","1","-1","0","1","0","1","2","3","4","2","4","4","3","2","2","2","5","张","","","","","","","","","","","","","","","","","","","","","","","","","","","","","","","","","","","","","","","",""
"16","<p style=""color:white; font-size: 35px;"">廉正</p>","i","categorize-html","51","72515","0.0-6.0-1.0-4.0-1.8","2","2","3","2","3","2","2","3","3","3","3","4","3","3","2","3","4","4","2","5","5","5","5","4","4","4","3","4","5","1","0","0","1","1","0","1","1","1","1","-1","0","1","0","1","2","3","4","2","4","4","3","2","2","2","5","张","","","","","","","","","","","","","","","","","","","true","12","2","moral","16","positive","廉正","","","","","","","","","","","","","","",""
"null","","null","html-keyboard-response","52","72767","0.0-6.0-1.0-4.0-0.9","2","2","3","2","3","2","2","3","3","3","3","4","3","3","2","3","4","4","2","5","5","5","5","4","4","4","3","4","5","1","0","0","1","1","0","1","1","1","1","-1","0","1","0","1","2","3","4","2","4","4","3","2","2","2","5","张","","","","","","","","","","","","","","","","","","","","","","","","","","","","","","","","","","","","","","","",""
"242","<p style=""color:white; font-size: 35px;"">小人</p>","i","categorize-html","53","73119","0.0-6.0-1.0-4.0-1.9","2","2","3","2","3","2","2","3","3","3","3","4","3","3","2","3","4","4","2","5","5","5","5","4","4","4","3","4","5","1","0","0","1","1","0","1","1","1","1","-1","0","1","0","1","2","3","4","2","4","4","3","2","2","2","5","张","","","","","","","","","","","","","","","","","","","false","12","2","moral","242","negative","小人","","","","","","","","","","","","","","",""
"null","","null","html-keyboard-response","54","73369","0.0-6.0-1.0-4.0-0.10","2","2","3","2","3","2","2","3","3","3","3","4","3","3","2","3","4","4","2","5","5","5","5","4","4","4","3","4","5","1","0","0","1","1","0","1","1","1","1","-1","0","1","0","1","2","3","4","2","4","4","3","2","2","2","5","张","","","","","","","","","","","","","","","","","","","","","","","","","","","","","","","","","","","","","","","",""
"63","<p style=""color:white; font-size: 35px;"">不孝</p>","e","categorize-html","55","73433","0.0-6.0-1.0-4.0-1.10","2","2","3","2","3","2","2","3","3","3","3","4","3","3","2","3","4","4","2","5","5","5","5","4","4","4","3","4","5","1","0","0","1","1","0","1","1","1","1","-1","0","1","0","1","2","3","4","2","4","4","3","2","2","2","5","张","","","","","","","","","","","","","","","","","","","true","12","2","moral","63","negative","不孝","","","","","","","","","","","","","","",""
"null","","null","html-keyboard-response","56","73684","0.0-6.0-1.0-4.0-0.11","2","2","3","2","3","2","2","3","3","3","3","4","3","3","2","3","4","4","2","5","5","5","5","4","4","4","3","4","5","1","0","0","1","1","0","1","1","1","1","-1","0","1","0","1","2","3","4","2","4","4","3","2","2","2","5","张","","","","","","","","","","","","","","","","","","","","","","","","","","","","","","","","","","","","","","","",""
"70","<p style=""color:white; font-size: 35px;"">黑心</p>","e","categorize-html","57","73756","0.0-6.0-1.0-4.0-1.11","2","2","3","2","3","2","2","3","3","3","3","4","3","3","2","3","4","4","2","5","5","5","5","4","4","4","3","4","5","1","0","0","1","1","0","1","1","1","1","-1","0","1","0","1","2","3","4","2","4","4","3","2","2","2","5","张","","","","","","","","","","","","","","","","","","","true","12","2","moral","70","negative","黑心","","","","","","","","","","","","","","",""
"760","
    <div class=""tag-bottom""><p>
    —— 任务3：对“自我/消极”词和“他人/积极”词分类 ——<p/>
    <span style=""color:#78DCE8""><b>注意上方，之前的四类词语将混合在一起交替呈现</b></span><p/>
    <span style=""color:#FFD866""><b>请根据上方标签的提示，尽可能正确并且快速地做出按键反应</b></span><p/>
    当按键错误时屏幕中会出现<span style=""color:red""> X </span>，需要按另一个键纠正才能继续<br/><p/>
    请把双手食指分别放在键盘的“E”键和“I”键上<p/>
    按<空格键>开始
    </p></div>"," ","html-keyboard-response","58","74517","0.0-6.0-1.0-5.0","2","2","3","2","3","2","2","3","3","3","3","4","3","3","2","3","4","4","2","5","5","5","5","4","4","4","3","4","5","1","0","0","1","1","0","1","1","1","1","-1","0","1","0","1","2","3","4","2","4","4","3","2","2","2","5","张","","","","","","","","","","","","","","","","","","","","","","","","","","","","","","","","","","","","","","","",""
"null","","null","html-keyboard-response","59","74769","0.0-6.0-1.0-6.0-0.0","2","2","3","2","3","2","2","3","3","3","3","4","3","3","2","3","4","4","2","5","5","5","5","4","4","4","3","4","5","1","0","0","1","1","0","1","1","1","1","-1","0","1","0","1","2","3","4","2","4","4","3","2","2","2","5","张","","","","","","","","","","","","","","","","","","","","","","","","","","","","","","","","","","","","","","","",""
"235","<p style=""color:rgb(150, 250, 100); font-size: 35px;"">他人的</p>","e","categorize-html","60","75089","0.0-6.0-1.0-6.0-1.0","2","2","3","2","3","2","2","3","3","3","3","4","3","3","2","3","4","4","2","5","5","5","5","4","4","4","3","4","5","1","0","0","1","1","0","1","1","1","1","-1","0","1","0","1","2","3","4","2","4","4","3","2","2","2","5","张","","","","","","","","","","","","","","","","","","","false","13","3","moral","693.9166666666666","other","他人的","","","","","","","","","","","","","","",""
"null","","null","html-keyboard-response","61","75340","0.0-6.0-1.0-6.0-0.1","2","2","3","2","3","2","2","3","3","3","3","4","3","3","2","3","4","4","2","5","5","5","5","4","4","4","3","4","5","1","0","0","1","1","0","1","1","1","1","-1","0","1","0","1","2","3","4","2","4","4","3","2","2","2","5","张","","","","","","","","","","","","","","","","","","","","","","","","","","","","","","","","","","","","","","","",""
"187","<p style=""color:white; font-size: 35px;"">不孝</p>","i","categorize-html","62","75541","0.0-6.0-1.0-6.0-1.1","2","2","3","2","3","2","2","3","3","3","3","4","3","3","2","3","4","4","2","5","5","5","5","4","4","4","3","4","5","1","0","0","1","1","0","1","1","1","1","-1","0","1","0","1","2","3","4","2","4","4","3","2","2","2","5","张","","","","","","","","","","","","","","","","","","","false","13","3","moral","693.9166666666666","negative","不孝","","","","","","","","","","","","","","",""
"null","","null","html-keyboard-response","63","75792","0.0-6.0-1.0-6.0-0.2","2","2","3","2","3","2","2","3","3","3","3","4","3","3","2","3","4","4","2","5","5","5","5","4","4","4","3","4","5","1","0","0","1","1","0","1","1","1","1","-1","0","1","0","1","2","3","4","2","4","4","3","2","2","2","5","张","","","","","","","","","","","","","","","","","","","","","","","","","","","","","","","","","","","","","","","",""
"147","<p style=""color:rgb(150, 250, 100); font-size: 35px;"">自己的</p>","e","categorize-html","64","75940","0.0-6.0-1.0-6.0-1.2","2","2","3","2","3","2","2","3","3","3","3","4","3","3","2","3","4","4","2","5","5","5","5","4","4","4","3","4","5","1","0","0","1","1","0","1","1","1","1","-1","0","1","0","1","2","3","4","2","4","4","3","2","2","2","5","张","","","","","","","","","","","","","","","","","","","true","13","3","moral","147","self","自己的","","","","","","","","","","","","","","",""
"null","","null","html-keyboard-response","65","76191","0.0-6.0-1.0-6.0-0.3","2","2","3","2","3","2","2","3","3","3","3","4","3","3","2","3","4","4","2","5","5","5","5","4","4","4","3","4","5","1","0","0","1","1","0","1","1","1","1","-1","0","1","0","1","2","3","4","2","4","4","3","2","2","2","5","张","","","","","","","","","","","","","","","","","","","","","","","","","","","","","","","","","","","","","","","",""
"19","<p style=""color:white; font-size: 35px;"">高尚</p>","i","categorize-html","66","76212","0.0-6.0-1.0-6.0-1.3","2","2","3","2","3","2","2","3","3","3","3","4","3","3","2","3","4","4","2","5","5","5","5","4","4","4","3","4","5","1","0","0","1","1","0","1","1","1","1","-1","0","1","0","1","2","3","4","2","4","4","3","2","2","2","5","张","","","","","","","","","","","","","","","","","","","true","13","3","moral","19","positive","高尚","","","","","","","","","","","","","","",""
"null","","null","html-keyboard-response","67","76464","0.0-6.0-1.0-6.0-0.4","2","2","3","2","3","2","2","3","3","3","3","4","3","3","2","3","4","4","2","5","5","5","5","4","4","4","3","4","5","1","0","0","1","1","0","1","1","1","1","-1","0","1","0","1","2","3","4","2","4","4","3","2","2","2","5","张","","","","","","","","","","","","","","","","","","","","","","","","","","","","","","","","","","","","","","","",""
"23","<p style=""color:rgb(150, 250, 100); font-size: 35px;"">他</p>","i","categorize-html","68","76491","0.0-6.0-1.0-6.0-1.4","2","2","3","2","3","2","2","3","3","3","3","4","3","3","2","3","4","4","2","5","5","5","5","4","4","4","3","4","5","1","0","0","1","1","0","1","1","1","1","-1","0","1","0","1","2","3","4","2","4","4","3","2","2","2","5","张","","","","","","","","","","","","","","","","","","","true","13","3","moral","23","other","他","","","","","","","","","","","","","","",""
"null","","null","html-keyboard-response","69","76743","0.0-6.0-1.0-6.0-0.5","2","2","3","2","3","2","2","3","3","3","3","4","3","3","2","3","4","4","2","5","5","5","5","4","4","4","3","4","5","1","0","0","1","1","0","1","1","1","1","-1","0","1","0","1","2","3","4","2","4","4","3","2","2","2","5","张","","","","","","","","","","","","","","","","","","","","","","","","","","","","","","","","","","","","","","","",""
"15","<p style=""color:white; font-size: 35px;"">君子</p>","i","categorize-html","70","76759","0.0-6.0-1.0-6.0-1.5","2","2","3","2","3","2","2","3","3","3","3","4","3","3","2","3","4","4","2","5","5","5","5","4","4","4","3","4","5","1","0","0","1","1","0","1","1","1","1","-1","0","1","0","1","2","3","4","2","4","4","3","2","2","2","5","张","","","","","","","","","","","","","","","","","","","true","13","3","moral","15","positive","君子","","","","","","","","","","","","","","",""
"null","","null","html-keyboard-response","71","77010","0.0-6.0-1.0-6.0-0.6","2","2","3","2","3","2","2","3","3","3","3","4","3","3","2","3","4","4","2","5","5","5","5","4","4","4","3","4","5","1","0","0","1","1","0","1","1","1","1","-1","0","1","0","1","2","3","4","2","4","4","3","2","2","2","5","张","","","","","","","","","","","","","","","","","","","","","","","","","","","","","","","","","","","","","","","",""
"170","<p style=""color:rgb(150, 250, 100); font-size: 35px;"">我</p>","i","categorize-html","72","77204","0.0-6.0-1.0-6.0-1.6","2","2","3","2","3","2","2","3","3","3","3","4","3","3","2","3","4","4","2","5","5","5","5","4","4","4","3","4","5","1","0","0","1","1","0","1","1","1","1","-1","0","1","0","1","2","3","4","2","4","4","3","2","2","2","5","张","","","","","","","","","","","","","","","","","","","false","13","3","moral","693.9166666666666","self","我","","","","","","","","","","","","","","",""
"null","","null","html-keyboard-response","73","77457","0.0-6.0-1.0-6.0-0.7","2","2","3","2","3","2","2","3","3","3","3","4","3","3","2","3","4","4","2","5","5","5","5","4","4","4","3","4","5","1","0","0","1","1","0","1","1","1","1","-1","0","1","0","1","2","3","4","2","4","4","3","2","2","2","5","张","","","","","","","","","","","","","","","","","","","","","","","","","","","","","","","","","","","","","","","",""
"71","<p style=""color:white; font-size: 35px;"">小人</p>","e","categorize-html","74","77531","0.0-6.0-1.0-6.0-1.7","2","2","3","2","3","2","2","3","3","3","3","4","3","3","2","3","4","4","2","5","5","5","5","4","4","4","3","4","5","1","0","0","1","1","0","1","1","1","1","-1","0","1","0","1","2","3","4","2","4","4","3","2","2","2","5","张","","","","","","","","","","","","","","","","","","","true","13","3","moral","71","negative","小人","","","","","","","","","","","","","","",""
"null","","null","html-keyboard-response","75","77783","0.0-6.0-1.0-6.0-0.8","2","2","3","2","3","2","2","3","3","3","3","4","3","3","2","3","4","4","2","5","5","5","5","4","4","4","3","4","5","1","0","0","1","1","0","1","1","1","1","-1","0","1","0","1","2","3","4","2","4","4","3","2","2","2","5","张","","","","","","","","","","","","","","","","","","","","","","","","","","","","","","","","","","","","","","","",""
"49","<p style=""color:rgb(150, 250, 100); font-size: 35px;"">别人</p>","e","categorize-html","76","77862","0.0-6.0-1.0-6.0-1.8","2","2","3","2","3","2","2","3","3","3","3","4","3","3","2","3","4","4","2","5","5","5","5","4","4","4","3","4","5","1","0","0","1","1","0","1","1","1","1","-1","0","1","0","1","2","3","4","2","4","4","3","2","2","2","5","张","","","","","","","","","","","","","","","","","","","false","13","3","moral","693.9166666666666","other","别人","","","","","","","","","","","","","","",""
"null","","null","html-keyboard-response","77","78112","0.0-6.0-1.0-6.0-0.9","2","2","3","2","3","2","2","3","3","3","3","4","3","3","2","3","4","4","2","5","5","5","5","4","4","4","3","4","5","1","0","0","1","1","0","1","1","1","1","-1","0","1","0","1","2","3","4","2","4","4","3","2","2","2","5","张","","","","","","","","","","","","","","","","","","","","","","","","","","","","","","","","","","","","","","","",""
"28","<p style=""color:white; font-size: 35px;"">廉正</p>","e","categorize-html","78","78344","0.0-6.0-1.0-6.0-1.9","2","2","3","2","3","2","2","3","3","3","3","4","3","3","2","3","4","4","2","5","5","5","5","4","4","4","3","4","5","1","0","0","1","1","0","1","1","1","1","-1","0","1","0","1","2","3","4","2","4","4","3","2","2","2","5","张","","","","","","","","","","","","","","","","","","","false","13","3","moral","693.9166666666666","positive","廉正","","","","","","","","","","","","","","",""
"null","","null","html-keyboard-response","79","78596","0.0-6.0-1.0-6.0-0.10","2","2","3","2","3","2","2","3","3","3","3","4","3","3","2","3","4","4","2","5","5","5","5","4","4","4","3","4","5","1","0","0","1","1","0","1","1","1","1","-1","0","1","0","1","2","3","4","2","4","4","3","2","2","2","5","张","","","","","","","","","","","","","","","","","","","","","","","","","","","","","","","","","","","","","","","",""
"36","<p style=""color:rgb(150, 250, 100); font-size: 35px;"">本人</p>","i","categorize-html","80","78828","0.0-6.0-1.0-6.0-1.10","2","2","3","2","3","2","2","3","3","3","3","4","3","3","2","3","4","4","2","5","5","5","5","4","4","4","3","4","5","1","0","0","1","1","0","1","1","1","1","-1","0","1","0","1","2","3","4","2","4","4","3","2","2","2","5","张","","","","","","","","","","","","","","","","","","","false","13","3","moral","693.9166666666666","self","本人","","","","","","","","","","","","","","",""
"null","","null","html-keyboard-response","81","79080","0.0-6.0-1.0-6.0-0.11","2","2","3","2","3","2","2","3","3","3","3","4","3","3","2","3","4","4","2","5","5","5","5","4","4","4","3","4","5","1","0","0","1","1","0","1","1","1","1","-1","0","1","0","1","2","3","4","2","4","4","3","2","2","2","5","张","","","","","","","","","","","","","","","","","","","","","","","","","","","","","","","","","","","","","","","",""
"8","<p style=""color:white; font-size: 35px;"">缺德</p>","i","categorize-html","82","79175","0.0-6.0-1.0-6.0-1.11","2","2","3","2","3","2","2","3","3","3","3","4","3","3","2","3","4","4","2","5","5","5","5","4","4","4","3","4","5","1","0","0","1","1","0","1","1","1","1","-1","0","1","0","1","2","3","4","2","4","4","3","2","2","2","5","张","","","","","","","","","","","","","","","","","","","false","13","3","moral","693.9166666666666","negative","缺德","","","","","","","","","","","","","","",""
"null","","null","html-keyboard-response","83","79426","0.0-6.0-1.0-6.0-0.12","2","2","3","2","3","2","2","3","3","3","3","4","3","3","2","3","4","4","2","5","5","5","5","4","4","4","3","4","5","1","0","0","1","1","0","1","1","1","1","-1","0","1","0","1","2","3","4","2","4","4","3","2","2","2","5","张","","","","","","","","","","","","","","","","","","","","","","","","","","","","","","","","","","","","","","","",""
"84","<p style=""color:rgb(150, 250, 100); font-size: 35px;"">他人</p>","e","categorize-html","84","79546","0.0-6.0-1.0-6.0-1.12","2","2","3","2","3","2","2","3","3","3","3","4","3","3","2","3","4","4","2","5","5","5","5","4","4","4","3","4","5","1","0","0","1","1","0","1","1","1","1","-1","0","1","0","1","2","3","4","2","4","4","3","2","2","2","5","张","","","","","","","","","","","","","","","","","","","false","13","3","moral","693.9166666666666","other","他人","","","","","","","","","","","","","","",""
"null","","null","html-keyboard-response","85","79797","0.0-6.0-1.0-6.0-0.13","2","2","3","2","3","2","2","3","3","3","3","4","3","3","2","3","4","4","2","5","5","5","5","4","4","4","3","4","5","1","0","0","1","1","0","1","1","1","1","-1","0","1","0","1","2","3","4","2","4","4","3","2","2","2","5","张","","","","","","","","","","","","","","","","","","","","","","","","","","","","","","","","","","","","","","","",""
"58","<p style=""color:white; font-size: 35px;"">善良</p>","e","categorize-html","86","80015","0.0-6.0-1.0-6.0-1.13","2","2","3","2","3","2","2","3","3","3","3","4","3","3","2","3","4","4","2","5","5","5","5","4","4","4","3","4","5","1","0","0","1","1","0","1","1","1","1","-1","0","1","0","1","2","3","4","2","4","4","3","2","2","2","5","张","","","","","","","","","","","","","","","","","","","false","13","3","moral","693.9166666666666","positive","善良","","","","","","","","","","","","","","",""
"null","","null","html-keyboard-response","87","80267","0.0-6.0-1.0-6.0-0.14","2","2","3","2","3","2","2","3","3","3","3","4","3","3","2","3","4","4","2","5","5","5","5","4","4","4","3","4","5","1","0","0","1","1","0","1","1","1","1","-1","0","1","0","1","2","3","4","2","4","4","3","2","2","2","5","张","","","","","","","","","","","","","","","","","","","","","","","","","","","","","","","","","","","","","","","",""
"163","<p style=""color:rgb(150, 250, 100); font-size: 35px;"">本人的</p>","e","categorize-html","88","80432","0.0-6.0-1.0-6.0-1.14","2","2","3","2","3","2","2","3","3","3","3","4","3","3","2","3","4","4","2","5","5","5","5","4","4","4","3","4","5","1","0","0","1","1","0","1","1","1","1","-1","0","1","0","1","2","3","4","2","4","4","3","2","2","2","5","张","","","","","","","","","","","","","","","","","","","true","13","3","moral","163","self","本人的","","","","","","","","","","","","","","",""
"null","","null","html-keyboard-response","89","80683","0.0-6.0-1.0-6.0-0.15","2","2","3","2","3","2","2","3","3","3","3","4","3","3","2","3","4","4","2","5","5","5","5","4","4","4","3","4","5","1","0","0","1","1","0","1","1","1","1","-1","0","1","0","1","2","3","4","2","4","4","3","2","2","2","5","张","","","","","","","","","","","","","","","","","","","","","","","","","","","","","","","","","","","","","","","",""
"110","<p style=""color:white; font-size: 35px;"">卑鄙</p>","e","categorize-html","90","80795","0.0-6.0-1.0-6.0-1.15","2","2","3","2","3","2","2","3","3","3","3","4","3","3","2","3","4","4","2","5","5","5","5","4","4","4","3","4","5","1","0","0","1","1","0","1","1","1","1","-1","0","1","0","1","2","3","4","2","4","4","3","2","2","2","5","张","","","","","","","","","","","","","","","","","","","true","13","3","moral","110","negative","卑鄙","","","","","","","","","","","","","","",""
"null","","null","html-keyboard-response","91","81046","0.0-6.0-1.0-6.0-0.16","2","2","3","2","3","2","2","3","3","3","3","4","3","3","2","3","4","4","2","5","5","5","5","4","4","4","3","4","5","1","0","0","1","1","0","1","1","1","1","-1","0","1","0","1","2","3","4","2","4","4","3","2","2","2","5","张","","","","","","","","","","","","","","","","","","","","","","","","","","","","","","","","","","","","","","","",""
"40","<p style=""color:rgb(150, 250, 100); font-size: 35px;"">自己</p>","e","categorize-html","92","81089","0.0-6.0-1.0-6.0-1.16","2","2","3","2","3","2","2","3","3","3","3","4","3","3","2","3","4","4","2","5","5","5","5","4","4","4","3","4","5","1","0","0","1","1","0","1","1","1","1","-1","0","1","0","1","2","3","4","2","4","4","3","2","2","2","5","张","","","","","","","","","","","","","","","","","","","true","13","3","moral","40","self","自己","","","","","","","","","","","","","","",""
"null","","null","html-keyboard-response","93","81341","0.0-6.0-1.0-6.0-0.17","2","2","3","2","3","2","2","3","3","3","3","4","3","3","2","3","4","4","2","5","5","5","5","4","4","4","3","4","5","1","0","0","1","1","0","1","1","1","1","-1","0","1","0","1","2","3","4","2","4","4","3","2","2","2","5","张","","","","","","","","","","","","","","","","","","","","","","","","","","","","","","","","","","","","","","","",""
"43","<p style=""color:white; font-size: 35px;"">正直</p>","e","categorize-html","94","81513","0.0-6.0-1.0-6.0-1.17","2","2","3","2","3","2","2","3","3","3","3","4","3","3","2","3","4","4","2","5","5","5","5","4","4","4","3","4","5","1","0","0","1","1","0","1","1","1","1","-1","0","1","0","1","2","3","4","2","4","4","3","2","2","2","5","张","","","","","","","","","","","","","","","","","","","false","13","3","moral","693.9166666666666","positive","正直","","","","","","","","","","","","","","",""
"null","","null","html-keyboard-response","95","81764","0.0-6.0-1.0-6.0-0.18","2","2","3","2","3","2","2","3","3","3","3","4","3","3","2","3","4","4","2","5","5","5","5","4","4","4","3","4","5","1","0","0","1","1","0","1","1","1","1","-1","0","1","0","1","2","3","4","2","4","4","3","2","2","2","5","张","","","","","","","","","","","","","","","","","","","","","","","","","","","","","","","","","","","","","","","",""
"175","<p style=""color:rgb(150, 250, 100); font-size: 35px;"">别人的</p>","i","categorize-html","96","81941","0.0-6.0-1.0-6.0-1.18","2","2","3","2","3","2","2","3","3","3","3","4","3","3","2","3","4","4","2","5","5","5","5","4","4","4","3","4","5","1","0","0","1","1","0","1","1","1","1","-1","0","1","0","1","2","3","4","2","4","4","3","2","2","2","5","张","","","","","","","","","","","","","","","","","","","true","13","3","moral","175","other","别人的","","","","","","","","","","","","","","",""
"null","","null","html-keyboard-response","97","82191","0.0-6.0-1.0-6.0-0.19","2","2","3","2","3","2","2","3","3","3","3","4","3","3","2","3","4","4","2","5","5","5","5","4","4","4","3","4","5","1","0","0","1","1","0","1","1","1","1","-1","0","1","0","1","2","3","4","2","4","4","3","2","2","2","5","张","","","","","","","","","","","","","","","","","","","","","","","","","","","","","","","","","","","","","","","",""
"67","<p style=""color:white; font-size: 35px;"">不仁</p>","i","categorize-html","98","82297","0.0-6.0-1.0-6.0-1.19","2","2","3","2","3","2","2","3","3","3","3","4","3","3","2","3","4","4","2","5","5","5","5","4","4","4","3","4","5","1","0","0","1","1","0","1","1","1","1","-1","0","1","0","1","2","3","4","2","4","4","3","2","2","2","5","张","","","","","","","","","","","","","","","","","","","false","13","3","moral","693.9166666666666","negative","不仁","","","","","","","","","","","","","","",""
"null","","null","html-keyboard-response","99","82548","0.0-6.0-1.0-6.0-0.20","2","2","3","2","3","2","2","3","3","3","3","4","3","3","2","3","4","4","2","5","5","5","5","4","4","4","3","4","5","1","0","0","1","1","0","1","1","1","1","-1","0","1","0","1","2","3","4","2","4","4","3","2","2","2","5","张","","","","","","","","","","","","","","","","","","","","","","","","","","","","","","","","","","","","","","","",""
"167","<p style=""color:rgb(150, 250, 100); font-size: 35px;"">他的</p>","i","categorize-html","100","82716","0.0-6.0-1.0-6.0-1.20","2","2","3","2","3","2","2","3","3","3","3","4","3","3","2","3","4","4","2","5","5","5","5","4","4","4","3","4","5","1","0","0","1","1","0","1","1","1","1","-1","0","1","0","1","2","3","4","2","4","4","3","2","2","2","5","张","","","","","","","","","","","","","","","","","","","true","13","3","moral","167","other","他的","","","","","","","","","","","","","","",""
"null","","null","html-keyboard-response","101","82967","0.0-6.0-1.0-6.0-0.21","2","2","3","2","3","2","2","3","3","3","3","4","3","3","2","3","4","4","2","5","5","5","5","4","4","4","3","4","5","1","0","0","1","1","0","1","1","1","1","-1","0","1","0","1","2","3","4","2","4","4","3","2","2","2","5","张","","","","","","","","","","","","","","","","","","","","","","","","","","","","","","","","","","","","","","","",""
"147","<p style=""color:white; font-size: 35px;"">黑心</p>","e","categorize-html","102","83116","0.0-6.0-1.0-6.0-1.21","2","2","3","2","3","2","2","3","3","3","3","4","3","3","2","3","4","4","2","5","5","5","5","4","4","4","3","4","5","1","0","0","1","1","0","1","1","1","1","-1","0","1","0","1","2","3","4","2","4","4","3","2","2","2","5","张","","","","","","","","","","","","","","","","","","","true","13","3","moral","147","negative","黑心","","","","","","","","","","","","","","",""
"null","","null","html-keyboard-response","103","83367","0.0-6.0-1.0-6.0-0.22","2","2","3","2","3","2","2","3","3","3","3","4","3","3","2","3","4","4","2","5","5","5","5","4","4","4","3","4","5","1","0","0","1","1","0","1","1","1","1","-1","0","1","0","1","2","3","4","2","4","4","3","2","2","2","5","张","","","","","","","","","","","","","","","","","","","","","","","","","","","","","","","","","","","","","","","",""
"50","<p style=""color:rgb(150, 250, 100); font-size: 35px;"">我的</p>","e","categorize-html","104","83418","0.0-6.0-1.0-6.0-1.22","2","2","3","2","3","2","2","3","3","3","3","4","3","3","2","3","4","4","2","5","5","5","5","4","4","4","3","4","5","1","0","0","1","1","0","1","1","1","1","-1","0","1","0","1","2","3","4","2","4","4","3","2","2","2","5","张","","","","","","","","","","","","","","","","","","","true","13","3","moral","50","self","我的","","","","","","","","","","","","","","",""
"null","","null","html-keyboard-response","105","83669","0.0-6.0-1.0-6.0-0.23","2","2","3","2","3","2","2","3","3","3","3","4","3","3","2","3","4","4","2","5","5","5","5","4","4","4","3","4","5","1","0","0","1","1","0","1","1","1","1","-1","0","1","0","1","2","3","4","2","4","4","3","2","2","2","5","张","","","","","","","","","","","","","","","","","","","","","","","","","","","","","","","","","","","","","","","",""
"44","<p style=""color:white; font-size: 35px;"">诚信</p>","e","categorize-html","106","83842","0.0-6.0-1.0-6.0-1.23","2","2","3","2","3","2","2","3","3","3","3","4","3","3","2","3","4","4","2","5","5","5","5","4","4","4","3","4","5","1","0","0","1","1","0","1","1","1","1","-1","0","1","0","1","2","3","4","2","4","4","3","2","2","2","5","张","","","","","","","","","","","","","","","","","","","false","13","3","moral","693.9166666666666","positive","诚信","","","","","","","","","","","","","","",""
"800","
    <div class=""tag-bottom""><p>
    —— 任务4：对“自我/消极”词和“他人/积极”词分类 ——<p/>
    <span style=""color:#78DCE8""><b>与刚才的任务完全相同，请再次对这四类词语分类</b></span><p/>
    <span style=""color:#FFD866""><b>请根据上方标签的提示，尽可能正确并且快速地做出按键反应</b></span><p/>
    当按键错误时屏幕中会出现<span style=""color:red""> X </span>，需要按另一个键纠正才能继续<br/><p/>
    请把双手食指分别放在键盘的“E”键和“I”键上<p/>
    按<空格键>开始
    </p></div>"," ","html-keyboard-response","107","84642","0.0-6.0-1.0-7.0","2","2","3","2","3","2","2","3","3","3","3","4","3","3","2","3","4","4","2","5","5","5","5","4","4","4","3","4","5","1","0","0","1","1","0","1","1","1","1","-1","0","1","0","1","2","3","4","2","4","4","3","2","2","2","5","张","","","","","","","","","","","","","","","","","","","","","","","","","","","","","","","","","","","","","","","",""
"null","","null","html-keyboard-response","108","84904","0.0-6.0-1.0-8.0-0.0","2","2","3","2","3","2","2","3","3","3","3","4","3","3","2","3","4","4","2","5","5","5","5","4","4","4","3","4","5","1","0","0","1","1","0","1","1","1","1","-1","0","1","0","1","2","3","4","2","4","4","3","2","2","2","5","张","","","","","","","","","","","","","","","","","","","","","","","","","","","","","","","","","","","","","","","",""
"213","<p style=""color:rgb(150, 250, 100); font-size: 35px;"">本人</p>","e","categorize-html","109","85119","0.0-6.0-1.0-8.0-1.0","2","2","3","2","3","2","2","3","3","3","3","4","3","3","2","3","4","4","2","5","5","5","5","4","4","4","3","4","5","1","0","0","1","1","0","1","1","1","1","-1","0","1","0","1","2","3","4","2","4","4","3","2","2","2","5","张","","","","","","","","","","","","","","","","","","","true","14","4","moral","213","self","本人","","","","","","","","","","","","","","",""
"null","","null","html-keyboard-response","110","85369","0.0-6.0-1.0-8.0-0.1","2","2","3","2","3","2","2","3","3","3","3","4","3","3","2","3","4","4","2","5","5","5","5","4","4","4","3","4","5","1","0","0","1","1","0","1","1","1","1","-1","0","1","0","1","2","3","4","2","4","4","3","2","2","2","5","张","","","","","","","","","","","","","","","","","","","","","","","","","","","","","","","","","","","","","","","",""
"25","<p style=""color:white; font-size: 35px;"">不孝</p>","e","categorize-html","111","85395","0.0-6.0-1.0-8.0-1.1","2","2","3","2","3","2","2","3","3","3","3","4","3","3","2","3","4","4","2","5","5","5","5","4","4","4","3","4","5","1","0","0","1","1","0","1","1","1","1","-1","0","1","0","1","2","3","4","2","4","4","3","2","2","2","5","张","","","","","","","","","","","","","","","","","","","true","14","4","moral","25","negative","不孝","","","","","","","","","","","","","","",""
"null","","null","html-keyboard-response","112","85646","0.0-6.0-1.0-8.0-0.2","2","2","3","2","3","2","2","3","3","3","3","4","3","3","2","3","4","4","2","5","5","5","5","4","4","4","3","4","5","1","0","0","1","1","0","1","1","1","1","-1","0","1","0","1","2","3","4","2","4","4","3","2","2","2","5","张","","","","","","","","","","","","","","","","","","","","","","","","","","","","","","","","","","","","","","","",""
"4","<p style=""color:rgb(150, 250, 100); font-size: 35px;"">他的</p>","e","categorize-html","113","85660","0.0-6.0-1.0-8.0-1.2","2","2","3","2","3","2","2","3","3","3","3","4","3","3","2","3","4","4","2","5","5","5","5","4","4","4","3","4","5","1","0","0","1","1","0","1","1","1","1","-1","0","1","0","1","2","3","4","2","4","4","3","2","2","2","5","张","","","","","","","","","","","","","","","","","","","false","14","4","moral","672.8461538461538","other","他的","","","","","","","","","","","","","","",""
"null","","null","html-keyboard-response","114","85925","0.0-6.0-1.0-8.0-0.3","2","2","3","2","3","2","2","3","3","3","3","4","3","3","2","3","4","4","2","5","5","5","5","4","4","4","3","4","5","1","0","0","1","1","0","1","1","1","1","-1","0","1","0","1","2","3","4","2","4","4","3","2","2","2","5","张","","","","","","","","","","","","","","","","","","","","","","","","","","","","","","","","","","","","","","","",""
"117","<p style=""color:white; font-size: 35px;"">君子</p>","i","categorize-html","115","86044","0.0-6.0-1.0-8.0-1.3","2","2","3","2","3","2","2","3","3","3","3","4","3","3","2","3","4","4","2","5","5","5","5","4","4","4","3","4","5","1","0","0","1","1","0","1","1","1","1","-1","0","1","0","1","2","3","4","2","4","4","3","2","2","2","5","张","","","","","","","","","","","","","","","","","","","true","14","4","moral","117","positive","君子","","","","","","","","","","","","","","",""
"null","","null","html-keyboard-response","116","86295","0.0-6.0-1.0-8.0-0.4","2","2","3","2","3","2","2","3","3","3","3","4","3","3","2","3","4","4","2","5","5","5","5","4","4","4","3","4","5","1","0","0","1","1","0","1","1","1","1","-1","0","1","0","1","2","3","4","2","4","4","3","2","2","2","5","张","","","","","","","","","","","","","","","","","","","","","","","","","","","","","","","","","","","","","","","",""
"119","<p style=""color:rgb(150, 250, 100); font-size: 35px;"">他人</p>","e","categorize-html","117","86441","0.0-6.0-1.0-8.0-1.4","2","2","3","2","3","2","2","3","3","3","3","4","3","3","2","3","4","4","2","5","5","5","5","4","4","4","3","4","5","1","0","0","1","1","0","1","1","1","1","-1","0","1","0","1","2","3","4","2","4","4","3","2","2","2","5","张","","","","","","","","","","","","","","","","","","","false","14","4","moral","672.8461538461538","other","他人","","","","","","","","","","","","","","",""
"null","","null","html-keyboard-response","118","86692","0.0-6.0-1.0-8.0-0.5","2","2","3","2","3","2","2","3","3","3","3","4","3","3","2","3","4","4","2","5","5","5","5","4","4","4","3","4","5","1","0","0","1","1","0","1","1","1","1","-1","0","1","0","1","2","3","4","2","4","4","3","2","2","2","5","张","","","","","","","","","","","","","","","","","","","","","","","","","","","","","","","","","","","","","","","",""
"142","<p style=""color:white; font-size: 35px;"">正直</p>","i","categorize-html","119","86836","0.0-6.0-1.0-8.0-1.5","2","2","3","2","3","2","2","3","3","3","3","4","3","3","2","3","4","4","2","5","5","5","5","4","4","4","3","4","5","1","0","0","1","1","0","1","1","1","1","-1","0","1","0","1","2","3","4","2","4","4","3","2","2","2","5","张","","","","","","","","","","","","","","","","","","","true","14","4","moral","142","positive","正直","","","","","","","","","","","","","","",""
"null","","null","html-keyboard-response","120","87087","0.0-6.0-1.0-8.0-0.6","2","2","3","2","3","2","2","3","3","3","3","4","3","3","2","3","4","4","2","5","5","5","5","4","4","4","3","4","5","1","0","0","1","1","0","1","1","1","1","-1","0","1","0","1","2","3","4","2","4","4","3","2","2","2","5","张","","","","","","","","","","","","","","","","","","","","","","","","","","","","","","","","","","","","","","","",""
"121","<p style=""color:rgb(150, 250, 100); font-size: 35px;"">我的</p>","e","categorize-html","121","87210","0.0-6.0-1.0-8.0-1.6","2","2","3","2","3","2","2","3","3","3","3","4","3","3","2","3","4","4","2","5","5","5","5","4","4","4","3","4","5","1","0","0","1","1","0","1","1","1","1","-1","0","1","0","1","2","3","4","2","4","4","3","2","2","2","5","张","","","","","","","","","","","","","","","","","","","true","14","4","moral","121","self","我的","","","","","","","","","","","","","","",""
"null","","null","html-keyboard-response","122","87461","0.0-6.0-1.0-8.0-0.7","2","2","3","2","3","2","2","3","3","3","3","4","3","3","2","3","4","4","2","5","5","5","5","4","4","4","3","4","5","1","0","0","1","1","0","1","1","1","1","-1","0","1","0","1","2","3","4","2","4","4","3","2","2","2","5","张","","","","","","","","","","","","","","","","","","","","","","","","","","","","","","","","","","","","","","","",""
"47","<p style=""color:white; font-size: 35px;"">不孝</p>","e","categorize-html","123","87510","0.0-6.0-1.0-8.0-1.7","2","2","3","2","3","2","2","3","3","3","3","4","3","3","2","3","4","4","2","5","5","5","5","4","4","4","3","4","5","1","0","0","1","1","0","1","1","1","1","-1","0","1","0","1","2","3","4","2","4","4","3","2","2","2","5","张","","","","","","","","","","","","","","","","","","","true","14","4","moral","47","negative","不孝","","","","","","","","","","","","","","",""
"null","","null","html-keyboard-response","124","87761","0.0-6.0-1.0-8.0-0.8","2","2","3","2","3","2","2","3","3","3","3","4","3","3","2","3","4","4","2","5","5","5","5","4","4","4","3","4","5","1","0","0","1","1","0","1","1","1","1","-1","0","1","0","1","2","3","4","2","4","4","3","2","2","2","5","张","","","","","","","","","","","","","","","","","","","","","","","","","","","","","","","","","","","","","","","",""
"29","<p style=""color:rgb(150, 250, 100); font-size: 35px;"">他人的</p>","e","categorize-html","125","87887","0.0-6.0-1.0-8.0-1.8","2","2","3","2","3","2","2","3","3","3","3","4","3","3","2","3","4","4","2","5","5","5","5","4","4","4","3","4","5","1","0","0","1","1","0","1","1","1","1","-1","0","1","0","1","2","3","4","2","4","4","3","2","2","2","5","张","","","","","","","","","","","","","","","","","","","false","14","4","moral","672.8461538461538","other","他人的","","","","","","","","","","","","","","",""
"null","","null","html-keyboard-response","126","88138","0.0-6.0-1.0-8.0-0.9","2","2","3","2","3","2","2","3","3","3","3","4","3","3","2","3","4","4","2","5","5","5","5","4","4","4","3","4","5","1","0","0","1","1","0","1","1","1","1","-1","0","1","0","1","2","3","4","2","4","4","3","2","2","2","5","张","","","","","","","","","","","","","","","","","","","","","","","","","","","","","","","","","","","","","","","",""
"168","<p style=""color:white; font-size: 35px;"">黑心</p>","i","categorize-html","127","88356","0.0-6.0-1.0-8.0-1.9","2","2","3","2","3","2","2","3","3","3","3","4","3","3","2","3","4","4","2","5","5","5","5","4","4","4","3","4","5","1","0","0","1","1","0","1","1","1","1","-1","0","1","0","1","2","3","4","2","4","4","3","2","2","2","5","张","","","","","","","","","","","","","","","","","","","false","14","4","moral","672.8461538461538","negative","黑心","","","","","","","","","","","","","","",""
"null","","null","html-keyboard-response","128","88609","0.0-6.0-1.0-8.0-0.10","2","2","3","2","3","2","2","3","3","3","3","4","3","3","2","3","4","4","2","5","5","5","5","4","4","4","3","4","5","1","0","0","1","1","0","1","1","1","1","-1","0","1","0","1","2","3","4","2","4","4","3","2","2","2","5","张","","","","","","","","","","","","","","","","","","","","","","","","","","","","","","","","","","","","","","","",""
"73","<p style=""color:rgb(150, 250, 100); font-size: 35px;"">我</p>","e","categorize-html","129","88684","0.0-6.0-1.0-8.0-1.10","2","2","3","2","3","2","2","3","3","3","3","4","3","3","2","3","4","4","2","5","5","5","5","4","4","4","3","4","5","1","0","0","1","1","0","1","1","1","1","-1","0","1","0","1","2","3","4","2","4","4","3","2","2","2","5","张","","","","","","","","","","","","","","","","","","","true","14","4","moral","73","self","我","","","","","","","","","","","","","","",""
"null","","null","html-keyboard-response","130","88936","0.0-6.0-1.0-8.0-0.11","2","2","3","2","3","2","2","3","3","3","3","4","3","3","2","3","4","4","2","5","5","5","5","4","4","4","3","4","5","1","0","0","1","1","0","1","1","1","1","-1","0","1","0","1","2","3","4","2","4","4","3","2","2","2","5","张","","","","","","","","","","","","","","","","","","","","","","","","","","","","","","","","","","","","","","","",""
"1","<p style=""color:white; font-size: 35px;"">诚信</p>","i","categorize-html","131","88938","0.0-6.0-1.0-8.0-1.11","2","2","3","2","3","2","2","3","3","3","3","4","3","3","2","3","4","4","2","5","5","5","5","4","4","4","3","4","5","1","0","0","1","1","0","1","1","1","1","-1","0","1","0","1","2","3","4","2","4","4","3","2","2","2","5","张","","","","","","","","","","","","","","","","","","","true","14","4","moral","1","positive","诚信","","","","","","","","","","","","","","",""
"null","","null","html-keyboard-response","132","89190","0.0-6.0-1.0-8.0-0.12","2","2","3","2","3","2","2","3","3","3","3","4","3","3","2","3","4","4","2","5","5","5","5","4","4","4","3","4","5","1","0","0","1","1","0","1","1","1","1","-1","0","1","0","1","2","3","4","2","4","4","3","2","2","2","5","张","","","","","","","","","","","","","","","","","","","","","","","","","","","","","","","","","","","","","","","",""
"89","<p style=""color:rgb(150, 250, 100); font-size: 35px;"">他</p>","e","categorize-html","133","89397","0.0-6.0-1.0-8.0-1.12","2","2","3","2","3","2","2","3","3","3","3","4","3","3","2","3","4","4","2","5","5","5","5","4","4","4","3","4","5","1","0","0","1","1","0","1","1","1","1","-1","0","1","0","1","2","3","4","2","4","4","3","2","2","2","5","张","","","","","","","","","","","","","","","","","","","false","14","4","moral","672.8461538461538","other","他","","","","","","","","","","","","","","",""
"null","","null","html-keyboard-response","134","89648","0.0-6.0-1.0-8.0-0.13","2","2","3","2","3","2","2","3","3","3","3","4","3","3","2","3","4","4","2","5","5","5","5","4","4","4","3","4","5","1","0","0","1","1","0","1","1","1","1","-1","0","1","0","1","2","3","4","2","4","4","3","2","2","2","5","张","","","","","","","","","","","","","","","","","","","","","","","","","","","","","","","","","","","","","","","",""
"180","<p style=""color:white; font-size: 35px;"">黑心</p>","i","categorize-html","135","89937","0.0-6.0-1.0-8.0-1.13","2","2","3","2","3","2","2","3","3","3","3","4","3","3","2","3","4","4","2","5","5","5","5","4","4","4","3","4","5","1","0","0","1","1","0","1","1","1","1","-1","0","1","0","1","2","3","4","2","4","4","3","2","2","2","5","张","","","","","","","","","","","","","","","","","","","false","14","4","moral","672.8461538461538","negative","黑心","","","","","","","","","","","","","","",""
"null","","null","html-keyboard-response","136","90188","0.0-6.0-1.0-8.0-0.14","2","2","3","2","3","2","2","3","3","3","3","4","3","3","2","3","4","4","2","5","5","5","5","4","4","4","3","4","5","1","0","0","1","1","0","1","1","1","1","-1","0","1","0","1","2","3","4","2","4","4","3","2","2","2","5","张","","","","","","","","","","","","","","","","","","","","","","","","","","","","","","","","","","","","","","","",""
"73","<p style=""color:rgb(150, 250, 100); font-size: 35px;"">自己的</p>","i","categorize-html","137","90272","0.0-6.0-1.0-8.0-1.14","2","2","3","2","3","2","2","3","3","3","3","4","3","3","2","3","4","4","2","5","5","5","5","4","4","4","3","4","5","1","0","0","1","1","0","1","1","1","1","-1","0","1","0","1","2","3","4","2","4","4","3","2","2","2","5","张","","","","","","","","","","","","","","","","","","","false","14","4","moral","672.8461538461538","self","自己的","","","","","","","","","","","","","","",""
"null","","null","html-keyboard-response","138","90524","0.0-6.0-1.0-8.0-0.15","2","2","3","2","3","2","2","3","3","3","3","4","3","3","2","3","4","4","2","5","5","5","5","4","4","4","3","4","5","1","0","0","1","1","0","1","1","1","1","-1","0","1","0","1","2","3","4","2","4","4","3","2","2","2","5","张","","","","","","","","","","","","","","","","","","","","","","","","","","","","","","","","","","","","","","","",""
"79","<p style=""color:white; font-size: 35px;"">高尚</p>","e","categorize-html","139","90721","0.0-6.0-1.0-8.0-1.15","2","2","3","2","3","2","2","3","3","3","3","4","3","3","2","3","4","4","2","5","5","5","5","4","4","4","3","4","5","1","0","0","1","1","0","1","1","1","1","-1","0","1","0","1","2","3","4","2","4","4","3","2","2","2","5","张","","","","","","","","","","","","","","","","","","","false","14","4","moral","672.8461538461538","positive","高尚","","","","","","","","","","","","","","",""
"null","","null","html-keyboard-response","140","90973","0.0-6.0-1.0-8.0-0.16","2","2","3","2","3","2","2","3","3","3","3","4","3","3","2","3","4","4","2","5","5","5","5","4","4","4","3","4","5","1","0","0","1","1","0","1","1","1","1","-1","0","1","0","1","2","3","4","2","4","4","3","2","2","2","5","张","","","","","","","","","","","","","","","","","","","","","","","","","","","","","","","","","","","","","","","",""
"243","<p style=""color:rgb(150, 250, 100); font-size: 35px;"">自己</p>","i","categorize-html","141","91249","0.0-6.0-1.0-8.0-1.16","2","2","3","2","3","2","2","3","3","3","3","4","3","3","2","3","4","4","2","5","5","5","5","4","4","4","3","4","5","1","0","0","1","1","0","1","1","1","1","-1","0","1","0","1","2","3","4","2","4","4","3","2","2","2","5","张","","","","","","","","","","","","","","","","","","","false","14","4","moral","672.8461538461538","self","自己","","","","","","","","","","","","","","",""
"null","","null","html-keyboard-response","142","91501","0.0-6.0-1.0-8.0-0.17","2","2","3","2","3","2","2","3","3","3","3","4","3","3","2","3","4","4","2","5","5","5","5","4","4","4","3","4","5","1","0","0","1","1","0","1","1","1","1","-1","0","1","0","1","2","3","4","2","4","4","3","2","2","2","5","张","","","","","","","","","","","","","","","","","","","","","","","","","","","","","","","","","","","","","","","",""
"107","<p style=""color:white; font-size: 35px;"">正直</p>","e","categorize-html","143","91742","0.0-6.0-1.0-8.0-1.17","2","2","3","2","3","2","2","3","3","3","3","4","3","3","2","3","4","4","2","5","5","5","5","4","4","4","3","4","5","1","0","0","1","1","0","1","1","1","1","-1","0","1","0","1","2","3","4","2","4","4","3","2","2","2","5","张","","","","","","","","","","","","","","","","","","","false","14","4","moral","672.8461538461538","positive","正直","","","","","","","","","","","","","","",""
"null","","null","html-keyboard-response","144","91993","0.0-6.0-1.0-8.0-0.18","2","2","3","2","3","2","2","3","3","3","3","4","3","3","2","3","4","4","2","5","5","5","5","4","4","4","3","4","5","1","0","0","1","1","0","1","1","1","1","-1","0","1","0","1","2","3","4","2","4","4","3","2","2","2","5","张","","","","","","","","","","","","","","","","","","","","","","","","","","","","","","","","","","","","","","","",""
"12","<p style=""color:rgb(150, 250, 100); font-size: 35px;"">他</p>","i","categorize-html","145","92008","0.0-6.0-1.0-8.0-1.18","2","2","3","2","3","2","2","3","3","3","3","4","3","3","2","3","4","4","2","5","5","5","5","4","4","4","3","4","5","1","0","0","1","1","0","1","1","1","1","-1","0","1","0","1","2","3","4","2","4","4","3","2","2","2","5","张","","","","","","","","","","","","","","","","","","","true","14","4","moral","12","other","他","","","","","","","","","","","","","","",""
"null","","null","html-keyboard-response","146","92260","0.0-6.0-1.0-8.0-0.19","2","2","3","2","3","2","2","3","3","3","3","4","3","3","2","3","4","4","2","5","5","5","5","4","4","4","3","4","5","1","0","0","1","1","0","1","1","1","1","-1","0","1","0","1","2","3","4","2","4","4","3","2","2","2","5","张","","","","","","","","","","","","","","","","","","","","","","","","","","","","","","","","","","","","","","","",""
"24","<p style=""color:white; font-size: 35px;"">小人</p>","i","categorize-html","147","92571","0.0-6.0-1.0-8.0-1.19","2","2","3","2","3","2","2","3","3","3","3","4","3","3","2","3","4","4","2","5","5","5","5","4","4","4","3","4","5","1","0","0","1","1","0","1","1","1","1","-1","0","1","0","1","2","3","4","2","4","4","3","2","2","2","5","张","","","","","","","","","","","","","","","","","","","false","14","4","moral","672.8461538461538","negative","小人","","","","","","","","","","","","","","",""
"null","","null","html-keyboard-response","148","92821","0.0-6.0-1.0-8.0-0.20","2","2","3","2","3","2","2","3","3","3","3","4","3","3","2","3","4","4","2","5","5","5","5","4","4","4","3","4","5","1","0","0","1","1","0","1","1","1","1","-1","0","1","0","1","2","3","4","2","4","4","3","2","2","2","5","张","","","","","","","","","","","","","","","","","","","","","","","","","","","","","","","","","","","","","","","",""
"96","<p style=""color:rgb(150, 250, 100); font-size: 35px;"">自己</p>","e","categorize-html","149","92920","0.0-6.0-1.0-8.0-1.20","2","2","3","2","3","2","2","3","3","3","3","4","3","3","2","3","4","4","2","5","5","5","5","4","4","4","3","4","5","1","0","0","1","1","0","1","1","1","1","-1","0","1","0","1","2","3","4","2","4","4","3","2","2","2","5","张","","","","","","","","","","","","","","","","","","","true","14","4","moral","96","self","自己","","","","","","","","","","","","","","",""
"null","","null","html-keyboard-response","150","93172","0.0-6.0-1.0-8.0-0.21","2","2","3","2","3","2","2","3","3","3","3","4","3","3","2","3","4","4","2","5","5","5","5","4","4","4","3","4","5","1","0","0","1","1","0","1","1","1","1","-1","0","1","0","1","2","3","4","2","4","4","3","2","2","2","5","张","","","","","","","","","","","","","","","","","","","","","","","","","","","","","","","","","","","","","","","",""
"77","<p style=""color:white; font-size: 35px;"">善良</p>","e","categorize-html","151","93292","0.0-6.0-1.0-8.0-1.21","2","2","3","2","3","2","2","3","3","3","3","4","3","3","2","3","4","4","2","5","5","5","5","4","4","4","3","4","5","1","0","0","1","1","0","1","1","1","1","-1","0","1","0","1","2","3","4","2","4","4","3","2","2","2","5","张","","","","","","","","","","","","","","","","","","","false","14","4","moral","672.8461538461538","positive","善良","","","","","","","","","","","","","","",""
"null","","null","html-keyboard-response","152","93543","0.0-6.0-1.0-8.0-0.22","2","2","3","2","3","2","2","3","3","3","3","4","3","3","2","3","4","4","2","5","5","5","5","4","4","4","3","4","5","1","0","0","1","1","0","1","1","1","1","-1","0","1","0","1","2","3","4","2","4","4","3","2","2","2","5","张","","","","","","","","","","","","","","","","","","","","","","","","","","","","","","","","","","","","","","","",""
"183","<p style=""color:rgb(150, 250, 100); font-size: 35px;"">他人的</p>","i","categorize-html","153","93729","0.0-6.0-1.0-8.0-1.22","2","2","3","2","3","2","2","3","3","3","3","4","3","3","2","3","4","4","2","5","5","5","5","4","4","4","3","4","5","1","0","0","1","1","0","1","1","1","1","-1","0","1","0","1","2","3","4","2","4","4","3","2","2","2","5","张","","","","","","","","","","","","","","","","","","","true","14","4","moral","183","other","他人的","","","","","","","","","","","","","","",""
"null","","null","html-keyboard-response","154","93980","0.0-6.0-1.0-8.0-0.23","2","2","3","2","3","2","2","3","3","3","3","4","3","3","2","3","4","4","2","5","5","5","5","4","4","4","3","4","5","1","0","0","1","1","0","1","1","1","1","-1","0","1","0","1","2","3","4","2","4","4","3","2","2","2","5","张","","","","","","","","","","","","","","","","","","","","","","","","","","","","","","","","","","","","","","","",""
"30","<p style=""color:white; font-size: 35px;"">不仁</p>","e","categorize-html","155","94013","0.0-6.0-1.0-8.0-1.23","2","2","3","2","3","2","2","3","3","3","3","4","3","3","2","3","4","4","2","5","5","5","5","4","4","4","3","4","5","1","0","0","1","1","0","1","1","1","1","-1","0","1","0","1","2","3","4","2","4","4","3","2","2","2","5","张","","","","","","","","","","","","","","","","","","","true","14","4","moral","30","negative","不仁","","","","","","","","","","","","","","",""
"null","","null","html-keyboard-response","156","94264","0.0-6.0-1.0-8.0-0.24","2","2","3","2","3","2","2","3","3","3","3","4","3","3","2","3","4","4","2","5","5","5","5","4","4","4","3","4","5","1","0","0","1","1","0","1","1","1","1","-1","0","1","0","1","2","3","4","2","4","4","3","2","2","2","5","张","","","","","","","","","","","","","","","","","","","","","","","","","","","","","","","","","","","","","","","",""
"22","<p style=""color:rgb(150, 250, 100); font-size: 35px;"">本人</p>","e","categorize-html","157","94287","0.0-6.0-1.0-8.0-1.24","2","2","3","2","3","2","2","3","3","3","3","4","3","3","2","3","4","4","2","5","5","5","5","4","4","4","3","4","5","1","0","0","1","1","0","1","1","1","1","-1","0","1","0","1","2","3","4","2","4","4","3","2","2","2","5","张","","","","","","","","","","","","","","","","","","","true","14","4","moral","22","self","本人","","","","","","","","","","","","","","",""
"null","","null","html-keyboard-response","158","94538","0.0-6.0-1.0-8.0-0.25","2","2","3","2","3","2","2","3","3","3","3","4","3","3","2","3","4","4","2","5","5","5","5","4","4","4","3","4","5","1","0","0","1","1","0","1","1","1","1","-1","0","1","0","1","2","3","4","2","4","4","3","2","2","2","5","张","","","","","","","","","","","","","","","","","","","","","","","","","","","","","","","","","","","","","","","",""
"26","<p style=""color:white; font-size: 35px;"">缺德</p>","e","categorize-html","159","94567","0.0-6.0-1.0-8.0-1.25","2","2","3","2","3","2","2","3","3","3","3","4","3","3","2","3","4","4","2","5","5","5","5","4","4","4","3","4","5","1","0","0","1","1","0","1","1","1","1","-1","0","1","0","1","2","3","4","2","4","4","3","2","2","2","5","张","","","","","","","","","","","","","","","","","","","true","14","4","moral","26","negative","缺德","","","","","","","","","","","","","","",""
"null","","null","html-keyboard-response","160","94819","0.0-6.0-1.0-8.0-0.26","2","2","3","2","3","2","2","3","3","3","3","4","3","3","2","3","4","4","2","5","5","5","5","4","4","4","3","4","5","1","0","0","1","1","0","1","1","1","1","-1","0","1","0","1","2","3","4","2","4","4","3","2","2","2","5","张","","","","","","","","","","","","","","","","","","","","","","","","","","","","","","","","","","","","","","","",""
"40","<p style=""color:rgb(150, 250, 100); font-size: 35px;"">他的</p>","i","categorize-html","161","94861","0.0-6.0-1.0-8.0-1.26","2","2","3","2","3","2","2","3","3","3","3","4","3","3","2","3","4","4","2","5","5","5","5","4","4","4","3","4","5","1","0","0","1","1","0","1","1","1","1","-1","0","1","0","1","2","3","4","2","4","4","3","2","2","2","5","张","","","","","","","","","","","","","","","","","","","true","14","4","moral","40","other","他的","","","","","","","","","","","","","","",""
"null","","null","html-keyboard-response","162","95113","0.0-6.0-1.0-8.0-0.27","2","2","3","2","3","2","2","3","3","3","3","4","3","3","2","3","4","4","2","5","5","5","5","4","4","4","3","4","5","1","0","0","1","1","0","1","1","1","1","-1","0","1","0","1","2","3","4","2","4","4","3","2","2","2","5","张","","","","","","","","","","","","","","","","","","","","","","","","","","","","","","","","","","","","","","","",""
"72","<p style=""color:white; font-size: 35px;"">廉正</p>","e","categorize-html","163","95324","0.0-6.0-1.0-8.0-1.27","2","2","3","2","3","2","2","3","3","3","3","4","3","3","2","3","4","4","2","5","5","5","5","4","4","4","3","4","5","1","0","0","1","1","0","1","1","1","1","-1","0","1","0","1","2","3","4","2","4","4","3","2","2","2","5","张","","","","","","","","","","","","","","","","","","","false","14","4","moral","672.8461538461538","positive","廉正","","","","","","","","","","","","","","",""
"null","","null","html-keyboard-response","164","95574","0.0-6.0-1.0-8.0-0.28","2","2","3","2","3","2","2","3","3","3","3","4","3","3","2","3","4","4","2","5","5","5","5","4","4","4","3","4","5","1","0","0","1","1","0","1","1","1","1","-1","0","1","0","1","2","3","4","2","4","4","3","2","2","2","5","张","","","","","","","","","","","","","","","","","","","","","","","","","","","","","","","","","","","","","","","",""
"214","<p style=""color:rgb(150, 250, 100); font-size: 35px;"">别人的</p>","i","categorize-html","165","95790","0.0-6.0-1.0-8.0-1.28","2","2","3","2","3","2","2","3","3","3","3","4","3","3","2","3","4","4","2","5","5","5","5","4","4","4","3","4","5","1","0","0","1","1","0","1","1","1","1","-1","0","1","0","1","2","3","4","2","4","4","3","2","2","2","5","张","","","","","","","","","","","","","","","","","","","true","14","4","moral","214","other","别人的","","","","","","","","","","","","","","",""
"null","","null","html-keyboard-response","166","96042","0.0-6.0-1.0-8.0-0.29","2","2","3","2","3","2","2","3","3","3","3","4","3","3","2","3","4","4","2","5","5","5","5","4","4","4","3","4","5","1","0","0","1","1","0","1","1","1","1","-1","0","1","0","1","2","3","4","2","4","4","3","2","2","2","5","张","","","","","","","","","","","","","","","","","","","","","","","","","","","","","","","","","","","","","","","",""
"3","<p style=""color:white; font-size: 35px;"">高尚</p>","i","categorize-html","167","96046","0.0-6.0-1.0-8.0-1.29","2","2","3","2","3","2","2","3","3","3","3","4","3","3","2","3","4","4","2","5","5","5","5","4","4","4","3","4","5","1","0","0","1","1","0","1","1","1","1","-1","0","1","0","1","2","3","4","2","4","4","3","2","2","2","5","张","","","","","","","","","","","","","","","","","","","true","14","4","moral","3","positive","高尚","","","","","","","","","","","","","","",""
"null","","null","html-keyboard-response","168","96297","0.0-6.0-1.0-8.0-0.30","2","2","3","2","3","2","2","3","3","3","3","4","3","3","2","3","4","4","2","5","5","5","5","4","4","4","3","4","5","1","0","0","1","1","0","1","1","1","1","-1","0","1","0","1","2","3","4","2","4","4","3","2","2","2","5","张","","","","","","","","","","","","","","","","","","","","","","","","","","","","","","","","","","","","","","","",""
"185","<p style=""color:rgb(150, 250, 100); font-size: 35px;"">本人的</p>","i","categorize-html","169","96494","0.0-6.0-1.0-8.0-1.30","2","2","3","2","3","2","2","3","3","3","3","4","3","3","2","3","4","4","2","5","5","5","5","4","4","4","3","4","5","1","0","0","1","1","0","1","1","1","1","-1","0","1","0","1","2","3","4","2","4","4","3","2","2","2","5","张","","","","","","","","","","","","","","","","","","","false","14","4","moral","672.8461538461538","self","本人的","","","","","","","","","","","","","","",""
"null","","null","html-keyboard-response","170","96745","0.0-6.0-1.0-8.0-0.31","2","2","3","2","3","2","2","3","3","3","3","4","3","3","2","3","4","4","2","5","5","5","5","4","4","4","3","4","5","1","0","0","1","1","0","1","1","1","1","-1","0","1","0","1","2","3","4","2","4","4","3","2","2","2","5","张","","","","","","","","","","","","","","","","","","","","","","","","","","","","","","","","","","","","","","","",""
"37","<p style=""color:white; font-size: 35px;"">卑鄙</p>","e","categorize-html","171","96786","0.0-6.0-1.0-8.0-1.31","2","2","3","2","3","2","2","3","3","3","3","4","3","3","2","3","4","4","2","5","5","5","5","4","4","4","3","4","5","1","0","0","1","1","0","1","1","1","1","-1","0","1","0","1","2","3","4","2","4","4","3","2","2","2","5","张","","","","","","","","","","","","","","","","","","","true","14","4","moral","37","negative","卑鄙","","","","","","","","","","","","","","",""
"null","","null","html-keyboard-response","172","97038","0.0-6.0-1.0-8.0-0.32","2","2","3","2","3","2","2","3","3","3","3","4","3","3","2","3","4","4","2","5","5","5","5","4","4","4","3","4","5","1","0","0","1","1","0","1","1","1","1","-1","0","1","0","1","2","3","4","2","4","4","3","2","2","2","5","张","","","","","","","","","","","","","","","","","","","","","","","","","","","","","","","","","","","","","","","",""
"94","<p style=""color:rgb(150, 250, 100); font-size: 35px;"">本人的</p>","e","categorize-html","173","97134","0.0-6.0-1.0-8.0-1.32","2","2","3","2","3","2","2","3","3","3","3","4","3","3","2","3","4","4","2","5","5","5","5","4","4","4","3","4","5","1","0","0","1","1","0","1","1","1","1","-1","0","1","0","1","2","3","4","2","4","4","3","2","2","2","5","张","","","","","","","","","","","","","","","","","","","true","14","4","moral","94","self","本人的","","","","","","","","","","","","","","",""
"null","","null","html-keyboard-response","174","97386","0.0-6.0-1.0-8.0-0.33","2","2","3","2","3","2","2","3","3","3","3","4","3","3","2","3","4","4","2","5","5","5","5","4","4","4","3","4","5","1","0","0","1","1","0","1","1","1","1","-1","0","1","0","1","2","3","4","2","4","4","3","2","2","2","5","张","","","","","","","","","","","","","","","","","","","","","","","","","","","","","","","","","","","","","","","",""
"107","<p style=""color:white; font-size: 35px;"">不仁</p>","e","categorize-html","175","97496","0.0-6.0-1.0-8.0-1.33","2","2","3","2","3","2","2","3","3","3","3","4","3","3","2","3","4","4","2","5","5","5","5","4","4","4","3","4","5","1","0","0","1","1","0","1","1","1","1","-1","0","1","0","1","2","3","4","2","4","4","3","2","2","2","5","张","","","","","","","","","","","","","","","","","","","true","14","4","moral","107","negative","不仁","","","","","","","","","","","","","","",""
"null","","null","html-keyboard-response","176","97747","0.0-6.0-1.0-8.0-0.34","2","2","3","2","3","2","2","3","3","3","3","4","3","3","2","3","4","4","2","5","5","5","5","4","4","4","3","4","5","1","0","0","1","1","0","1","1","1","1","-1","0","1","0","1","2","3","4","2","4","4","3","2","2","2","5","张","","","","","","","","","","","","","","","","","","","","","","","","","","","","","","","","","","","","","","","",""
"56","<p style=""color:rgb(150, 250, 100); font-size: 35px;"">别人</p>","e","categorize-html","177","97814","0.0-6.0-1.0-8.0-1.34","2","2","3","2","3","2","2","3","3","3","3","4","3","3","2","3","4","4","2","5","5","5","5","4","4","4","3","4","5","1","0","0","1","1","0","1","1","1","1","-1","0","1","0","1","2","3","4","2","4","4","3","2","2","2","5","张","","","","","","","","","","","","","","","","","","","false","14","4","moral","672.8461538461538","other","别人","","","","","","","","","","","","","","",""
"null","","null","html-keyboard-response","178","98066","0.0-6.0-1.0-8.0-0.35","2","2","3","2","3","2","2","3","3","3","3","4","3","3","2","3","4","4","2","5","5","5","5","4","4","4","3","4","5","1","0","0","1","1","0","1","1","1","1","-1","0","1","0","1","2","3","4","2","4","4","3","2","2","2","5","张","","","","","","","","","","","","","","","","","","","","","","","","","","","","","","","","","","","","","","","",""
"30","<p style=""color:white; font-size: 35px;"">善良</p>","e","categorize-html","179","98275","0.0-6.0-1.0-8.0-1.35","2","2","3","2","3","2","2","3","3","3","3","4","3","3","2","3","4","4","2","5","5","5","5","4","4","4","3","4","5","1","0","0","1","1","0","1","1","1","1","-1","0","1","0","1","2","3","4","2","4","4","3","2","2","2","5","张","","","","","","","","","","","","","","","","","","","false","14","4","moral","672.8461538461538","positive","善良","","","","","","","","","","","","","","",""
"null","","null","html-keyboard-response","180","98526","0.0-6.0-1.0-8.0-0.36","2","2","3","2","3","2","2","3","3","3","3","4","3","3","2","3","4","4","2","5","5","5","5","4","4","4","3","4","5","1","0","0","1","1","0","1","1","1","1","-1","0","1","0","1","2","3","4","2","4","4","3","2","2","2","5","张","","","","","","","","","","","","","","","","","","","","","","","","","","","","","","","","","","","","","","","",""
"108","<p style=""color:rgb(150, 250, 100); font-size: 35px;"">他人</p>","e","categorize-html","181","98721","0.0-6.0-1.0-8.0-1.36","2","2","3","2","3","2","2","3","3","3","3","4","3","3","2","3","4","4","2","5","5","5","5","4","4","4","3","4","5","1","0","0","1","1","0","1","1","1","1","-1","0","1","0","1","2","3","4","2","4","4","3","2","2","2","5","张","","","","","","","","","","","","","","","","","","","false","14","4","moral","672.8461538461538","other","他人","","","","","","","","","","","","","","",""
"null","","null","html-keyboard-response","182","98973","0.0-6.0-1.0-8.0-0.37","2","2","3","2","3","2","2","3","3","3","3","4","3","3","2","3","4","4","2","5","5","5","5","4","4","4","3","4","5","1","0","0","1","1","0","1","1","1","1","-1","0","1","0","1","2","3","4","2","4","4","3","2","2","2","5","张","","","","","","","","","","","","","","","","","","","","","","","","","","","","","","","","","","","","","","","",""
"168","<p style=""color:white; font-size: 35px;"">卑鄙</p>","i","categorize-html","183","99236","0.0-6.0-1.0-8.0-1.37","2","2","3","2","3","2","2","3","3","3","3","4","3","3","2","3","4","4","2","5","5","5","5","4","4","4","3","4","5","1","0","0","1","1","0","1","1","1","1","-1","0","1","0","1","2","3","4","2","4","4","3","2","2","2","5","张","","","","","","","","","","","","","","","","","","","false","14","4","moral","672.8461538461538","negative","卑鄙","","","","","","","","","","","","","","",""
"null","","null","html-keyboard-response","184","99488","0.0-6.0-1.0-8.0-0.38","2","2","3","2","3","2","2","3","3","3","3","4","3","3","2","3","4","4","2","5","5","5","5","4","4","4","3","4","5","1","0","0","1","1","0","1","1","1","1","-1","0","1","0","1","2","3","4","2","4","4","3","2","2","2","5","张","","","","","","","","","","","","","","","","","","","","","","","","","","","","","","","","","","","","","","","",""
"30","<p style=""color:rgb(150, 250, 100); font-size: 35px;"">我</p>","e","categorize-html","185","99520","0.0-6.0-1.0-8.0-1.38","2","2","3","2","3","2","2","3","3","3","3","4","3","3","2","3","4","4","2","5","5","5","5","4","4","4","3","4","5","1","0","0","1","1","0","1","1","1","1","-1","0","1","0","1","2","3","4","2","4","4","3","2","2","2","5","张","","","","","","","","","","","","","","","","","","","true","14","4","moral","30","self","我","","","","","","","","","","","","","","",""
"null","","null","html-keyboard-response","186","99772","0.0-6.0-1.0-8.0-0.39","2","2","3","2","3","2","2","3","3","3","3","4","3","3","2","3","4","4","2","5","5","5","5","4","4","4","3","4","5","1","0","0","1","1","0","1","1","1","1","-1","0","1","0","1","2","3","4","2","4","4","3","2","2","2","5","张","","","","","","","","","","","","","","","","","","","","","","","","","","","","","","","","","","","","","","","",""
"10","<p style=""color:white; font-size: 35px;"">廉正</p>","e","categorize-html","187","99838","0.0-6.0-1.0-8.0-1.39","2","2","3","2","3","2","2","3","3","3","3","4","3","3","2","3","4","4","2","5","5","5","5","4","4","4","3","4","5","1","0","0","1","1","0","1","1","1","1","-1","0","1","0","1","2","3","4","2","4","4","3","2","2","2","5","张","","","","","","","","","","","","","","","","","","","false","14","4","moral","672.8461538461538","positive","廉正","","","","","","","","","","","","","","",""
"null","","null","html-keyboard-response","188","100091","0.0-6.0-1.0-8.0-0.40","2","2","3","2","3","2","2","3","3","3","3","4","3","3","2","3","4","4","2","5","5","5","5","4","4","4","3","4","5","1","0","0","1","1","0","1","1","1","1","-1","0","1","0","1","2","3","4","2","4","4","3","2","2","2","5","张","","","","","","","","","","","","","","","","","","","","","","","","","","","","","","","","","","","","","","","",""
"207","<p style=""color:rgb(150, 250, 100); font-size: 35px;"">别人</p>","i","categorize-html","189","100301","0.0-6.0-1.0-8.0-1.40","2","2","3","2","3","2","2","3","3","3","3","4","3","3","2","3","4","4","2","5","5","5","5","4","4","4","3","4","5","1","0","0","1","1","0","1","1","1","1","-1","0","1","0","1","2","3","4","2","4","4","3","2","2","2","5","张","","","","","","","","","","","","","","","","","","","true","14","4","moral","207","other","别人","","","","","","","","","","","","","","",""
"null","","null","html-keyboard-response","190","100552","0.0-6.0-1.0-8.0-0.41","2","2","3","2","3","2","2","3","3","3","3","4","3","3","2","3","4","4","2","5","5","5","5","4","4","4","3","4","5","1","0","0","1","1","0","1","1","1","1","-1","0","1","0","1","2","3","4","2","4","4","3","2","2","2","5","张","","","","","","","","","","","","","","","","","","","","","","","","","","","","","","","","","","","","","","","",""
"196","<p style=""color:white; font-size: 35px;"">君子</p>","e","categorize-html","191","100811","0.0-6.0-1.0-8.0-1.41","2","2","3","2","3","2","2","3","3","3","3","4","3","3","2","3","4","4","2","5","5","5","5","4","4","4","3","4","5","1","0","0","1","1","0","1","1","1","1","-1","0","1","0","1","2","3","4","2","4","4","3","2","2","2","5","张","","","","","","","","","","","","","","","","","","","false","14","4","moral","672.8461538461538","positive","君子","","","","","","","","","","","","","","",""
"null","","null","html-keyboard-response","192","101062","0.0-6.0-1.0-8.0-0.42","2","2","3","2","3","2","2","3","3","3","3","4","3","3","2","3","4","4","2","5","5","5","5","4","4","4","3","4","5","1","0","0","1","1","0","1","1","1","1","-1","0","1","0","1","2","3","4","2","4","4","3","2","2","2","5","张","","","","","","","","","","","","","","","","","","","","","","","","","","","","","","","","","","","","","","","",""
"1","<p style=""color:rgb(150, 250, 100); font-size: 35px;"">自己的</p>","e","categorize-html","193","101066","0.0-6.0-1.0-8.0-1.42","2","2","3","2","3","2","2","3","3","3","3","4","3","3","2","3","4","4","2","5","5","5","5","4","4","4","3","4","5","1","0","0","1","1","0","1","1","1","1","-1","0","1","0","1","2","3","4","2","4","4","3","2","2","2","5","张","","","","","","","","","","","","","","","","","","","true","14","4","moral","1","self","自己的","","","","","","","","","","","","","","",""
"null","","null","html-keyboard-response","194","101318","0.0-6.0-1.0-8.0-0.43","2","2","3","2","3","2","2","3","3","3","3","4","3","3","2","3","4","4","2","5","5","5","5","4","4","4","3","4","5","1","0","0","1","1","0","1","1","1","1","-1","0","1","0","1","2","3","4","2","4","4","3","2","2","2","5","张","","","","","","","","","","","","","","","","","","","","","","","","","","","","","","","","","","","","","","","",""
"24","<p style=""color:white; font-size: 35px;"">缺德</p>","e","categorize-html","195","101345","0.0-6.0-1.0-8.0-1.43","2","2","3","2","3","2","2","3","3","3","3","4","3","3","2","3","4","4","2","5","5","5","5","4","4","4","3","4","5","1","0","0","1","1","0","1","1","1","1","-1","0","1","0","1","2","3","4","2","4","4","3","2","2","2","5","张","","","","","","","","","","","","","","","","","","","true","14","4","moral","24","negative","缺德","","","","","","","","","","","","","","",""
"null","","null","html-keyboard-response","196","101596","0.0-6.0-1.0-8.0-0.44","2","2","3","2","3","2","2","3","3","3","3","4","3","3","2","3","4","4","2","5","5","5","5","4","4","4","3","4","5","1","0","0","1","1","0","1","1","1","1","-1","0","1","0","1","2","3","4","2","4","4","3","2","2","2","5","张","","","","","","","","","","","","","","","","","","","","","","","","","","","","","","","","","","","","","","","",""
"11","<p style=""color:rgb(150, 250, 100); font-size: 35px;"">我的</p>","e","categorize-html","197","101608","0.0-6.0-1.0-8.0-1.44","2","2","3","2","3","2","2","3","3","3","3","4","3","3","2","3","4","4","2","5","5","5","5","4","4","4","3","4","5","1","0","0","1","1","0","1","1","1","1","-1","0","1","0","1","2","3","4","2","4","4","3","2","2","2","5","张","","","","","","","","","","","","","","","","","","","true","14","4","moral","11","self","我的","","","","","","","","","","","","","","",""
"null","","null","html-keyboard-response","198","101860","0.0-6.0-1.0-8.0-0.45","2","2","3","2","3","2","2","3","3","3","3","4","3","3","2","3","4","4","2","5","5","5","5","4","4","4","3","4","5","1","0","0","1","1","0","1","1","1","1","-1","0","1","0","1","2","3","4","2","4","4","3","2","2","2","5","张","","","","","","","","","","","","","","","","","","","","","","","","","","","","","","","","","","","","","","","",""
"25","<p style=""color:white; font-size: 35px;"">诚信</p>","e","categorize-html","199","102052","0.0-6.0-1.0-8.0-1.45","2","2","3","2","3","2","2","3","3","3","3","4","3","3","2","3","4","4","2","5","5","5","5","4","4","4","3","4","5","1","0","0","1","1","0","1","1","1","1","-1","0","1","0","1","2","3","4","2","4","4","3","2","2","2","5","张","","","","","","","","","","","","","","","","","","","false","14","4","moral","672.8461538461538","positive","诚信","","","","","","","","","","","","","","",""
"null","","null","html-keyboard-response","200","102304","0.0-6.0-1.0-8.0-0.46","2","2","3","2","3","2","2","3","3","3","3","4","3","3","2","3","4","4","2","5","5","5","5","4","4","4","3","4","5","1","0","0","1","1","0","1","1","1","1","-1","0","1","0","1","2","3","4","2","4","4","3","2","2","2","5","张","","","","","","","","","","","","","","","","","","","","","","","","","","","","","","","","","","","","","","","",""
"18","<p style=""color:rgb(150, 250, 100); font-size: 35px;"">别人的</p>","i","categorize-html","201","102325","0.0-6.0-1.0-8.0-1.46","2","2","3","2","3","2","2","3","3","3","3","4","3","3","2","3","4","4","2","5","5","5","5","4","4","4","3","4","5","1","0","0","1","1","0","1","1","1","1","-1","0","1","0","1","2","3","4","2","4","4","3","2","2","2","5","张","","","","","","","","","","","","","","","","","","","true","14","4","moral","18","other","别人的","","","","","","","","","","","","","","",""
"null","","null","html-keyboard-response","202","102576","0.0-6.0-1.0-8.0-0.47","2","2","3","2","3","2","2","3","3","3","3","4","3","3","2","3","4","4","2","5","5","5","5","4","4","4","3","4","5","1","0","0","1","1","0","1","1","1","1","-1","0","1","0","1","2","3","4","2","4","4","3","2","2","2","5","张","","","","","","","","","","","","","","","","","","","","","","","","","","","","","","","","","","","","","","","",""
"196","<p style=""color:white; font-size: 35px;"">小人</p>","i","categorize-html","203","102810","0.0-6.0-1.0-8.0-1.47","2","2","3","2","3","2","2","3","3","3","3","4","3","3","2","3","4","4","2","5","5","5","5","4","4","4","3","4","5","1","0","0","1","1","0","1","1","1","1","-1","0","1","0","1","2","3","4","2","4","4","3","2","2","2","5","张","","","","","","","","","","","","","","","","","","","false","14","4","moral","672.8461538461538","negative","小人","","","","","","","","","","","","","","",""
"702","
    <div class=""tag-bottom""><p>
    —— 任务5：对“他人”词和“自我”词分类 ——<p/>
    <span style=""color:#FF6188""><b>注意上方，仍然是两个类别标签，但互换了位置！</b></span><p/>
    <span style=""color:#FFD866""><b>请根据上方标签的提示，尽可能正确并且快速地做出按键反应</b></span><p/>
    当按键错误时屏幕中会出现<span style=""color:red""> X </span>，需要按另一个键纠正才能继续<br/><p/>
    请把双手食指分别放在键盘的“E”键和“I”键上<p/>
    按<空格键>开始
    </p></div>"," ","html-keyboard-response","204","103512","0.0-6.0-1.0-9.0","2","2","3","2","3","2","2","3","3","3","3","4","3","3","2","3","4","4","2","5","5","5","5","4","4","4","3","4","5","1","0","0","1","1","0","1","1","1","1","-1","0","1","0","1","2","3","4","2","4","4","3","2","2","2","5","张","","","","","","","","","","","","","","","","","","","","","","","","","","","","","","","","","","","","","","","",""
"null","","null","html-keyboard-response","205","103764","0.0-6.0-1.0-10.0-0.0","2","2","3","2","3","2","2","3","3","3","3","4","3","3","2","3","4","4","2","5","5","5","5","4","4","4","3","4","5","1","0","0","1","1","0","1","1","1","1","-1","0","1","0","1","2","3","4","2","4","4","3","2","2","2","5","张","","","","","","","","","","","","","","","","","","","","","","","","","","","","","","","","","","","","","","","",""
"521","<p style=""color:rgb(150, 250, 100); font-size: 35px;"">自己</p>","e","categorize-html","206","104383","0.0-6.0-1.0-10.0-1.0","2","2","3","2","3","2","2","3","3","3","3","4","3","3","2","3","4","4","2","5","5","5","5","4","4","4","3","4","5","1","0","0","1","1","0","1","1","1","1","-1","0","1","0","1","2","3","4","2","4","4","3","2","2","2","5","张","","","","","","","","","","","","","","","","","","","false","15","5","moral","521","self","自己","","","","","","","","","","","","","","",""
