"rt","stimulus","response","trial_type","trial_index","time_elapsed","internal_node_id","ses_1","ses_2","ses_3","ses_4","ses_5","ses_6","ses_7","ses_8","ses_9","ses_10","coreself_1","coreself_2","coreself_3","coreself_4","coreself_5","coreself_6","coreself_7","coreself_8","coreself_9","coreself_10","SGPS_1","SGPS_2","SGPS_3","SGPS_4","SGPS_5","SGPS_6","SGPS_7","SGPS_8","SGPS_9","NPI1","NPI2","NPI3","NPI4","NPI5","NPI6","NPI7","NPI8","NPI9","NPI10","NPI11","NPI12","NPI13","NPI14","NPI15","hsns_1","hsns_2","hsns_3","hsns_4","hsns_5","hsns_6","hsns_7","hsns_8","hsns_9","hsns_10","subj_idx","friend_name","value","success","user_agent","responses","item_order","radio_event_ids","radio_event_times","key_event_times","mouse_event_times","straightlining","zigzagging","honeypot","timeout","failed_images","failed_audio","failed_video","version_attrib","version_target","correct","IAT","screen_id","task_id","RT","condition","word","varname","summary","version_attrib2","version_target2","time_stamp","view_history","response_type","key_press","avg_frame_time","center_x","center_y","correct_response","identity","Image","question_order"
"4162","
   <p><div style = ""color: white;font-size:25px;"">您好，欢迎参加本次实验。</div> </p>
   <p><div style = ""color: white;font-size:25px;"">为充分保障您的权利，请确保您已经知晓并同意《参与实验同意书》以及《数据公开知情同意书》。</div></p>
   <p><div style = ""color: white;font-size:25px;"">如果您未见过上述内容，请咨询实验员。</div></p>
   <p><div style = ""color: white;font-size:25px;"">如果您选择继续实验，则表示您已经清楚两份知情同意书的内容并同意。</div></p>
   <p> <div style = ""color: green;font-size:25px;""><按空格键至下页></div> </p>
   "," ","html-keyboard-response","0","4165","0.0-0.0","3","3","3","3","2","3","3","3","3","3","4","3","2","3","4","4","4","2","4","4","4","4","4","4","3","4","2","4","1","1","0","1","1","0","0","1","1","0","1","1","0","1","0","1","4","4","4","2","2","4","4","4","4","2","742006860881858562","刘","","","","","","","","","","","","","","","","","","","","","","","","","","","","","","","","","","","","","","","",""
"","","","call-function","1","4167","0.0-1.0-0.0","3","3","3","3","2","3","3","3","3","3","4","3","2","3","4","4","4","2","4","4","4","4","4","4","3","4","2","4","1","1","0","1","1","0","0","1","1","0","1","1","0","1","0","1","4","4","4","2","2","4","4","4","4","2","742006860881858562","刘","","","","","","","","","","","","","","","","","","","","","","","","","","","","","","","","","","","","","","","",""
"8928","","{""friend_name"":""刘"",""subj_idx"":""742006860881858562""}","survey-html-form","2","13096","0.0-1.0-1.0","3","3","3","3","2","3","3","3","3","3","4","3","2","3","4","4","4","2","4","4","4","4","4","4","3","4","2","4","1","1","0","1","1","0","0","1","1","0","1","1","0","1","0","1","4","4","4","2","2","4","4","4","4","2","742006860881858562","刘","","","","","","","","","","","","","","","","","","","","","","","","","","","","","","","","","","","","","","","",""
"","","","fullscreen","3","47494","0.0-2.0","3","3","3","3","2","3","3","3","3","3","4","3","2","3","4","4","4","2","4","4","4","4","4","4","3","4","2","4","1","1","0","1","1","0","0","1","1","0","1","1","0","1","0","1","4","4","4","2","2","4","4","4","4","2","742006860881858562","刘","","true","{}","","","","","","","","","","","","","","","","","","","","","","","","","","","","","","","","","","","","",""
"32089.20000000298","","{""Q01"":""3"",""Q02"":""3"",""Q03"":""3"",""Q04"":""3"",""Q05"":""2"",""Q06"":""3"",""Q07"":""3"",""Q08"":""3"",""Q09"":""3"",""Q10"":""3""}","survey-template","4","79586","0.0-3.0","3","3","3","3","2","3","3","3","3","3","4","3","2","3","4","4","4","2","4","4","4","4","4","4","3","4","2","4","1","1","0","1","1","0","0","1","1","0","1","1","0","1","0","1","4","4","4","2","2","4","4","4","4","2","742006860881858562","刘","","","","{""Q01"":""3"",""Q02"":""3"",""Q03"":""3"",""Q04"":""3"",""Q05"":""2"",""Q06"":""3"",""Q07"":""3"",""Q08"":""3"",""Q09"":""3"",""Q10"":""3""}","[0,1,2,3,4,5,6,7,8,9]","[""Q01"",""Q02"",""Q03"",""Q04"",""Q05"",""Q06"",""Q07"",""Q08"",""Q09"",""Q09"",""Q10""]","[5852.5999999940395,10045.5,13859.20000000298,16345.09999999404,19637.29999999702,21121.09999999404,22373.90000000596,25853.09999999404,28943.20000000298,29303.20000000298,30878]","[]","[5852.5999999940395,10045.5,13859.20000000298,16345.09999999404,19637.29999999702,21121.09999999404,22373.90000000596,24803.90000000596,25151.40000000596,25853.09999999404,28678.20000000298,28943.20000000298,29303.20000000298,30878,32087.90000000596]","0.6","0.3333333333333333","0","","","","","","","","","","","","","","","","","","","","","","","","","","","",""
"47251.89999999106","","{""Q01"":""4"",""Q02"":""3"",""Q03"":""2"",""Q04"":""3"",""Q05"":""4"",""Q06"":""4"",""Q07"":""4"",""Q08"":""2"",""Q09"":""4"",""Q10"":""4""}","survey-template","5","126843","0.0-4.0","3","3","3","3","2","3","3","3","3","3","4","3","2","3","4","4","4","2","4","4","4","4","4","4","3","4","2","4","1","1","0","1","1","0","0","1","1","0","1","1","0","1","0","1","4","4","4","2","2","4","4","4","4","2","742006860881858562","刘","","","","{""Q01"":""4"",""Q02"":""3"",""Q03"":""2"",""Q04"":""3"",""Q05"":""4"",""Q06"":""4"",""Q07"":""4"",""Q08"":""2"",""Q09"":""4"",""Q10"":""4""}","[0,1,2,3,4,5,6,7,8,9]","[""Q01"",""Q02"",""Q03"",""Q04"",""Q05"",""Q05"",""Q06"",""Q07"",""Q08"",""Q09"",""Q10""]","[9770.79999999702,13910.699999988079,15667.5,17245.09999999404,21630.69999998808,24209,28168.89999999106,31724.79999999702,39274.89999999106,43584.69999998808,46410.69999998808]","[]","[9770.79999999702,13910.699999988079,15667.5,17245.09999999404,21630.69999998808,24209,28168.89999999106,31724.79999999702,39274.89999999106,43584.69999998808,46410.69999998808,47250.69999998808]","0.5","0.4444444444444444","0","","","","","","","","","","","","","","","","","","","","","","","","","","","",""
"","","","preload","6","127149","0.0-5.0","3","3","3","3","2","3","3","3","3","3","4","3","2","3","4","4","4","2","4","4","4","4","4","4","3","4","2","4","1","1","0","1","1","0","0","1","1","0","1","1","0","1","0","1","4","4","4","2","2","4","4","4","4","2","742006860881858562","刘","","true","","","","","","","","","","","false","[]","[]","[]","","","","","","","","","","","","","","","","","","","","","","","",""
"27118","
    <h3>词语分类任务</h3>
    <p>在接下来的任务中，你需要对一系列词语进行分类。</p>
    <p>请先熟悉这些词语，这有利于你完成接下来的任务。</p>
    <table align=""center"" border=1 cellpadding=3 cellspacing=0>
    <tr> <th>类别</th> <th>词语</th> </tr>
    <tr> <td>&emsp;积极&emsp;</td> <td>&emsp;能干、全能、全才、高效、精干、天才&emsp;</td> </tr>
    <tr> <td>&emsp;消极&emsp;</td> <td>&emsp;无能、低能、废物、拙笨、愚钝、蠢笨&emsp;</td> </tr>
    <tr> <td>&emsp;自我&emsp;</td> <td>&emsp;我、我的、自己、自己的、本人、本人的&emsp;</td> </tr>
    <tr> <td>&emsp;他人&emsp;</td> <td>&emsp;他、他的、别人、别人的、他人、他人的&emsp;</td> </tr>
    </table><br/>","0","html-button-response","7","154268","0.0-6.0-0.0-0.0","3","3","3","3","2","3","3","3","3","3","4","3","2","3","4","4","4","2","4","4","4","4","4","4","3","4","2","4","1","1","0","1","1","0","0","1","1","0","1","1","0","1","0","1","4","4","4","2","2","4","4","4","4","2","742006860881858562","刘","","","","","","","","","","","","","","","","","2","2","","","","","","","","","","","","","","","","","","","","","",""
"24661","
    <div class=""tag-bottom"">
    <p> —— 任务1：对“他人”词和“自我”词分类 ——<p/>
    不同词语会出现在屏幕中央，类别标签将始终显示在屏幕上方<p/>   
    <span style=""color:#FFD866""><b>请根据上方标签的提示，尽可能正确并且快速地做出按键反应</b></span><p/>
    当按键错误时屏幕中会出现<span style=""color:red""> X </span>，需要按另一个键纠正才能继续<br/><p/>
    请把双手食指分别放在键盘的“E”键和“I”键上<p/>
    按<空格键>开始
    </p></div>"," ","html-keyboard-response","8","178932","0.0-6.0-0.0-1.0","3","3","3","3","2","3","3","3","3","3","4","3","2","3","4","4","4","2","4","4","4","4","4","4","3","4","2","4","1","1","0","1","1","0","0","1","1","0","1","1","0","1","0","1","4","4","4","2","2","4","4","4","4","2","742006860881858562","刘","","","","","","","","","","","","","","","","","","","","","","","","","","","","","","","","","","","","","","","",""
"null","","null","html-keyboard-response","9","179183","0.0-6.0-0.0-2.0-0.0","3","3","3","3","2","3","3","3","3","3","4","3","2","3","4","4","4","2","4","4","4","4","4","4","3","4","2","4","1","1","0","1","1","0","0","1","1","0","1","1","0","1","0","1","4","4","4","2","2","4","4","4","4","2","742006860881858562","刘","","","","","","","","","","","","","","","","","","","","","","","","","","","","","","","","","","","","","","","",""
"1115","<p style=""color:rgb(150, 250, 100); font-size: 35px;"">他人的</p>","e","categorize-html","10","180304","0.0-6.0-0.0-2.0-1.0","3","3","3","3","2","3","3","3","3","3","4","3","2","3","4","4","4","2","4","4","4","4","4","4","3","4","2","4","1","1","0","1","1","0","0","1","1","0","1","1","0","1","0","1","4","4","4","2","2","4","4","4","4","2","742006860881858562","刘","","","","","","","","","","","","","","","","","","","true","1","1","ability","1115","other","他人的","","","","","","","","","","","","","","",""
"null","","null","html-keyboard-response","11","180557","0.0-6.0-0.0-2.0-0.1","3","3","3","3","2","3","3","3","3","3","4","3","2","3","4","4","4","2","4","4","4","4","4","4","3","4","2","4","1","1","0","1","1","0","0","1","1","0","1","1","0","1","0","1","4","4","4","2","2","4","4","4","4","2","742006860881858562","刘","","","","","","","","","","","","","","","","","","","","","","","","","","","","","","","","","","","","","","","",""
"898","<p style=""color:rgb(150, 250, 100); font-size: 35px;"">本人的</p>","i","categorize-html","12","181457","0.0-6.0-0.0-2.0-1.1","3","3","3","3","2","3","3","3","3","3","4","3","2","3","4","4","4","2","4","4","4","4","4","4","3","4","2","4","1","1","0","1","1","0","0","1","1","0","1","1","0","1","0","1","4","4","4","2","2","4","4","4","4","2","742006860881858562","刘","","","","","","","","","","","","","","","","","","","true","1","1","ability","898","self","本人的","","","","","","","","","","","","","","",""
"null","","null","html-keyboard-response","13","181708","0.0-6.0-0.0-2.0-0.2","3","3","3","3","2","3","3","3","3","3","4","3","2","3","4","4","4","2","4","4","4","4","4","4","3","4","2","4","1","1","0","1","1","0","0","1","1","0","1","1","0","1","0","1","4","4","4","2","2","4","4","4","4","2","742006860881858562","刘","","","","","","","","","","","","","","","","","","","","","","","","","","","","","","","","","","","","","","","",""
"808","<p style=""color:rgb(150, 250, 100); font-size: 35px;"">自己的</p>","i","categorize-html","14","182516","0.0-6.0-0.0-2.0-1.2","3","3","3","3","2","3","3","3","3","3","4","3","2","3","4","4","4","2","4","4","4","4","4","4","3","4","2","4","1","1","0","1","1","0","0","1","1","0","1","1","0","1","0","1","4","4","4","2","2","4","4","4","4","2","742006860881858562","刘","","","","","","","","","","","","","","","","","","","true","1","1","ability","808","self","自己的","","","","","","","","","","","","","","",""
"null","","null","html-keyboard-response","15","182767","0.0-6.0-0.0-2.0-0.3","3","3","3","3","2","3","3","3","3","3","4","3","2","3","4","4","4","2","4","4","4","4","4","4","3","4","2","4","1","1","0","1","1","0","0","1","1","0","1","1","0","1","0","1","4","4","4","2","2","4","4","4","4","2","742006860881858562","刘","","","","","","","","","","","","","","","","","","","","","","","","","","","","","","","","","","","","","","","",""
"506","<p style=""color:rgb(150, 250, 100); font-size: 35px;"">自己</p>","i","categorize-html","16","183274","0.0-6.0-0.0-2.0-1.3","3","3","3","3","2","3","3","3","3","3","4","3","2","3","4","4","4","2","4","4","4","4","4","4","3","4","2","4","1","1","0","1","1","0","0","1","1","0","1","1","0","1","0","1","4","4","4","2","2","4","4","4","4","2","742006860881858562","刘","","","","","","","","","","","","","","","","","","","true","1","1","ability","506","self","自己","","","","","","","","","","","","","","",""
"null","","null","html-keyboard-response","17","183525","0.0-6.0-0.0-2.0-0.4","3","3","3","3","2","3","3","3","3","3","4","3","2","3","4","4","4","2","4","4","4","4","4","4","3","4","2","4","1","1","0","1","1","0","0","1","1","0","1","1","0","1","0","1","4","4","4","2","2","4","4","4","4","2","742006860881858562","刘","","","","","","","","","","","","","","","","","","","","","","","","","","","","","","","","","","","","","","","",""
"457","<p style=""color:rgb(150, 250, 100); font-size: 35px;"">本人</p>","i","categorize-html","18","183986","0.0-6.0-0.0-2.0-1.4","3","3","3","3","2","3","3","3","3","3","4","3","2","3","4","4","4","2","4","4","4","4","4","4","3","4","2","4","1","1","0","1","1","0","0","1","1","0","1","1","0","1","0","1","4","4","4","2","2","4","4","4","4","2","742006860881858562","刘","","","","","","","","","","","","","","","","","","","true","1","1","ability","457","self","本人","","","","","","","","","","","","","","",""
"null","","null","html-keyboard-response","19","184238","0.0-6.0-0.0-2.0-0.5","3","3","3","3","2","3","3","3","3","3","4","3","2","3","4","4","4","2","4","4","4","4","4","4","3","4","2","4","1","1","0","1","1","0","0","1","1","0","1","1","0","1","0","1","4","4","4","2","2","4","4","4","4","2","742006860881858562","刘","","","","","","","","","","","","","","","","","","","","","","","","","","","","","","","","","","","","","","","",""
"516","<p style=""color:rgb(150, 250, 100); font-size: 35px;"">别人的</p>","e","categorize-html","20","184756","0.0-6.0-0.0-2.0-1.5","3","3","3","3","2","3","3","3","3","3","4","3","2","3","4","4","4","2","4","4","4","4","4","4","3","4","2","4","1","1","0","1","1","0","0","1","1","0","1","1","0","1","0","1","4","4","4","2","2","4","4","4","4","2","742006860881858562","刘","","","","","","","","","","","","","","","","","","","true","1","1","ability","516","other","别人的","","","","","","","","","","","","","","",""
"null","","null","html-keyboard-response","21","185008","0.0-6.0-0.0-2.0-0.6","3","3","3","3","2","3","3","3","3","3","4","3","2","3","4","4","4","2","4","4","4","4","4","4","3","4","2","4","1","1","0","1","1","0","0","1","1","0","1","1","0","1","0","1","4","4","4","2","2","4","4","4","4","2","742006860881858562","刘","","","","","","","","","","","","","","","","","","","","","","","","","","","","","","","","","","","","","","","",""
"618","<p style=""color:rgb(150, 250, 100); font-size: 35px;"">我的</p>","i","categorize-html","22","185629","0.0-6.0-0.0-2.0-1.6","3","3","3","3","2","3","3","3","3","3","4","3","2","3","4","4","4","2","4","4","4","4","4","4","3","4","2","4","1","1","0","1","1","0","0","1","1","0","1","1","0","1","0","1","4","4","4","2","2","4","4","4","4","2","742006860881858562","刘","","","","","","","","","","","","","","","","","","","true","1","1","ability","618","self","我的","","","","","","","","","","","","","","",""
"null","","null","html-keyboard-response","23","185881","0.0-6.0-0.0-2.0-0.7","3","3","3","3","2","3","3","3","3","3","4","3","2","3","4","4","4","2","4","4","4","4","4","4","3","4","2","4","1","1","0","1","1","0","0","1","1","0","1","1","0","1","0","1","4","4","4","2","2","4","4","4","4","2","742006860881858562","刘","","","","","","","","","","","","","","","","","","","","","","","","","","","","","","","","","","","","","","","",""
"548","<p style=""color:rgb(150, 250, 100); font-size: 35px;"">我</p>","i","categorize-html","24","186430","0.0-6.0-0.0-2.0-1.7","3","3","3","3","2","3","3","3","3","3","4","3","2","3","4","4","4","2","4","4","4","4","4","4","3","4","2","4","1","1","0","1","1","0","0","1","1","0","1","1","0","1","0","1","4","4","4","2","2","4","4","4","4","2","742006860881858562","刘","","","","","","","","","","","","","","","","","","","true","1","1","ability","548","self","我","","","","","","","","","","","","","","",""
"null","","null","html-keyboard-response","25","186682","0.0-6.0-0.0-2.0-0.8","3","3","3","3","2","3","3","3","3","3","4","3","2","3","4","4","4","2","4","4","4","4","4","4","3","4","2","4","1","1","0","1","1","0","0","1","1","0","1","1","0","1","0","1","4","4","4","2","2","4","4","4","4","2","742006860881858562","刘","","","","","","","","","","","","","","","","","","","","","","","","","","","","","","","","","","","","","","","",""
"533","<p style=""color:rgb(150, 250, 100); font-size: 35px;"">别人</p>","e","categorize-html","26","187216","0.0-6.0-0.0-2.0-1.8","3","3","3","3","2","3","3","3","3","3","4","3","2","3","4","4","4","2","4","4","4","4","4","4","3","4","2","4","1","1","0","1","1","0","0","1","1","0","1","1","0","1","0","1","4","4","4","2","2","4","4","4","4","2","742006860881858562","刘","","","","","","","","","","","","","","","","","","","true","1","1","ability","533","other","别人","","","","","","","","","","","","","","",""
"null","","null","html-keyboard-response","27","187468","0.0-6.0-0.0-2.0-0.9","3","3","3","3","2","3","3","3","3","3","4","3","2","3","4","4","4","2","4","4","4","4","4","4","3","4","2","4","1","1","0","1","1","0","0","1","1","0","1","1","0","1","0","1","4","4","4","2","2","4","4","4","4","2","742006860881858562","刘","","","","","","","","","","","","","","","","","","","","","","","","","","","","","","","","","","","","","","","",""
"649","<p style=""color:rgb(150, 250, 100); font-size: 35px;"">他的</p>","e","categorize-html","28","188122","0.0-6.0-0.0-2.0-1.9","3","3","3","3","2","3","3","3","3","3","4","3","2","3","4","4","4","2","4","4","4","4","4","4","3","4","2","4","1","1","0","1","1","0","0","1","1","0","1","1","0","1","0","1","4","4","4","2","2","4","4","4","4","2","742006860881858562","刘","","","","","","","","","","","","","","","","","","","true","1","1","ability","649","other","他的","","","","","","","","","","","","","","",""
"null","","null","html-keyboard-response","29","188374","0.0-6.0-0.0-2.0-0.10","3","3","3","3","2","3","3","3","3","3","4","3","2","3","4","4","4","2","4","4","4","4","4","4","3","4","2","4","1","1","0","1","1","0","0","1","1","0","1","1","0","1","0","1","4","4","4","2","2","4","4","4","4","2","742006860881858562","刘","","","","","","","","","","","","","","","","","","","","","","","","","","","","","","","","","","","","","","","",""
"484","<p style=""color:rgb(150, 250, 100); font-size: 35px;"">他</p>","e","categorize-html","30","188859","0.0-6.0-0.0-2.0-1.10","3","3","3","3","2","3","3","3","3","3","4","3","2","3","4","4","4","2","4","4","4","4","4","4","3","4","2","4","1","1","0","1","1","0","0","1","1","0","1","1","0","1","0","1","4","4","4","2","2","4","4","4","4","2","742006860881858562","刘","","","","","","","","","","","","","","","","","","","true","1","1","ability","484","other","他","","","","","","","","","","","","","","",""
"null","","null","html-keyboard-response","31","189110","0.0-6.0-0.0-2.0-0.11","3","3","3","3","2","3","3","3","3","3","4","3","2","3","4","4","4","2","4","4","4","4","4","4","3","4","2","4","1","1","0","1","1","0","0","1","1","0","1","1","0","1","0","1","4","4","4","2","2","4","4","4","4","2","742006860881858562","刘","","","","","","","","","","","","","","","","","","","","","","","","","","","","","","","","","","","","","","","",""
"457","<p style=""color:rgb(150, 250, 100); font-size: 35px;"">他人</p>","e","categorize-html","32","189570","0.0-6.0-0.0-2.0-1.11","3","3","3","3","2","3","3","3","3","3","4","3","2","3","4","4","4","2","4","4","4","4","4","4","3","4","2","4","1","1","0","1","1","0","0","1","1","0","1","1","0","1","0","1","4","4","4","2","2","4","4","4","4","2","742006860881858562","刘","","","","","","","","","","","","","","","","","","","true","1","1","ability","457","other","他人","","","","","","","","","","","","","","",""
"13156","
    <div class=""tag-bottom""><p>
    —— 任务2：对“消极”词和“积极”词分类 ——<p/>   
    <span style=""color:#78DCE8""><b>注意上方，类别标签和需要分类的词语都已经改变</b></span><p/>
    <span style=""color:#FFD866""><b>请根据上方标签的提示，尽可能正确并且快速地做出按键反应</b></span><p/>
    当按键错误时屏幕中会出现<span style=""color:red""> X </span>，需要按另一个键纠正才能继续<br/><p/>
    请把双手食指分别放在键盘的“E”键和“I”键上<p/>
    按<空格键>开始
    </p></div>"," ","html-keyboard-response","33","202726","0.0-6.0-0.0-3.0","3","3","3","3","2","3","3","3","3","3","4","3","2","3","4","4","4","2","4","4","4","4","4","4","3","4","2","4","1","1","0","1","1","0","0","1","1","0","1","1","0","1","0","1","4","4","4","2","2","4","4","4","4","2","742006860881858562","刘","","","","","","","","","","","","","","","","","","","","","","","","","","","","","","","","","","","","","","","",""
"null","","null","html-keyboard-response","34","202978","0.0-6.0-0.0-4.0-0.0","3","3","3","3","2","3","3","3","3","3","4","3","2","3","4","4","4","2","4","4","4","4","4","4","3","4","2","4","1","1","0","1","1","0","0","1","1","0","1","1","0","1","0","1","4","4","4","2","2","4","4","4","4","2","742006860881858562","刘","","","","","","","","","","","","","","","","","","","","","","","","","","","","","","","","","","","","","","","",""
"1393","<p style=""color:white; font-size: 35px;"">天才</p>","i","categorize-html","35","204373","0.0-6.0-0.0-4.0-1.0","3","3","3","3","2","3","3","3","3","3","4","3","2","3","4","4","4","2","4","4","4","4","4","4","3","4","2","4","1","1","0","1","1","0","0","1","1","0","1","1","0","1","0","1","4","4","4","2","2","4","4","4","4","2","742006860881858562","刘","","","","","","","","","","","","","","","","","","","true","2","2","ability","1393","positive","天才","","","","","","","","","","","","","","",""
"null","","null","html-keyboard-response","36","204624","0.0-6.0-0.0-4.0-0.1","3","3","3","3","2","3","3","3","3","3","4","3","2","3","4","4","4","2","4","4","4","4","4","4","3","4","2","4","1","1","0","1","1","0","0","1","1","0","1","1","0","1","0","1","4","4","4","2","2","4","4","4","4","2","742006860881858562","刘","","","","","","","","","","","","","","","","","","","","","","","","","","","","","","","","","","","","","","","",""
"532","<p style=""color:white; font-size: 35px;"">全才</p>","i","categorize-html","37","205162","0.0-6.0-0.0-4.0-1.1","3","3","3","3","2","3","3","3","3","3","4","3","2","3","4","4","4","2","4","4","4","4","4","4","3","4","2","4","1","1","0","1","1","0","0","1","1","0","1","1","0","1","0","1","4","4","4","2","2","4","4","4","4","2","742006860881858562","刘","","","","","","","","","","","","","","","","","","","true","2","2","ability","532","positive","全才","","","","","","","","","","","","","","",""
"null","","null","html-keyboard-response","38","205415","0.0-6.0-0.0-4.0-0.2","3","3","3","3","2","3","3","3","3","3","4","3","2","3","4","4","4","2","4","4","4","4","4","4","3","4","2","4","1","1","0","1","1","0","0","1","1","0","1","1","0","1","0","1","4","4","4","2","2","4","4","4","4","2","742006860881858562","刘","","","","","","","","","","","","","","","","","","","","","","","","","","","","","","","","","","","","","","","",""
"513","<p style=""color:white; font-size: 35px;"">废物</p>","e","categorize-html","39","205929","0.0-6.0-0.0-4.0-1.2","3","3","3","3","2","3","3","3","3","3","4","3","2","3","4","4","4","2","4","4","4","4","4","4","3","4","2","4","1","1","0","1","1","0","0","1","1","0","1","1","0","1","0","1","4","4","4","2","2","4","4","4","4","2","742006860881858562","刘","","","","","","","","","","","","","","","","","","","true","2","2","ability","513","negative","废物","","","","","","","","","","","","","","",""
"null","","null","html-keyboard-response","40","206180","0.0-6.0-0.0-4.0-0.3","3","3","3","3","2","3","3","3","3","3","4","3","2","3","4","4","4","2","4","4","4","4","4","4","3","4","2","4","1","1","0","1","1","0","0","1","1","0","1","1","0","1","0","1","4","4","4","2","2","4","4","4","4","2","742006860881858562","刘","","","","","","","","","","","","","","","","","","","","","","","","","","","","","","","","","","","","","","","",""
"499","<p style=""color:white; font-size: 35px;"">拙笨</p>","e","categorize-html","41","206680","0.0-6.0-0.0-4.0-1.3","3","3","3","3","2","3","3","3","3","3","4","3","2","3","4","4","4","2","4","4","4","4","4","4","3","4","2","4","1","1","0","1","1","0","0","1","1","0","1","1","0","1","0","1","4","4","4","2","2","4","4","4","4","2","742006860881858562","刘","","","","","","","","","","","","","","","","","","","true","2","2","ability","499","negative","拙笨","","","","","","","","","","","","","","",""
"null","","null","html-keyboard-response","42","206931","0.0-6.0-0.0-4.0-0.4","3","3","3","3","2","3","3","3","3","3","4","3","2","3","4","4","4","2","4","4","4","4","4","4","3","4","2","4","1","1","0","1","1","0","0","1","1","0","1","1","0","1","0","1","4","4","4","2","2","4","4","4","4","2","742006860881858562","刘","","","","","","","","","","","","","","","","","","","","","","","","","","","","","","","","","","","","","","","",""
"553","<p style=""color:white; font-size: 35px;"">精干</p>","i","categorize-html","43","207485","0.0-6.0-0.0-4.0-1.4","3","3","3","3","2","3","3","3","3","3","4","3","2","3","4","4","4","2","4","4","4","4","4","4","3","4","2","4","1","1","0","1","1","0","0","1","1","0","1","1","0","1","0","1","4","4","4","2","2","4","4","4","4","2","742006860881858562","刘","","","","","","","","","","","","","","","","","","","true","2","2","ability","553","positive","精干","","","","","","","","","","","","","","",""
"null","","null","html-keyboard-response","44","207737","0.0-6.0-0.0-4.0-0.5","3","3","3","3","2","3","3","3","3","3","4","3","2","3","4","4","4","2","4","4","4","4","4","4","3","4","2","4","1","1","0","1","1","0","0","1","1","0","1","1","0","1","0","1","4","4","4","2","2","4","4","4","4","2","742006860881858562","刘","","","","","","","","","","","","","","","","","","","","","","","","","","","","","","","","","","","","","","","",""
"576","<p style=""color:white; font-size: 35px;"">高效</p>","i","categorize-html","45","208314","0.0-6.0-0.0-4.0-1.5","3","3","3","3","2","3","3","3","3","3","4","3","2","3","4","4","4","2","4","4","4","4","4","4","3","4","2","4","1","1","0","1","1","0","0","1","1","0","1","1","0","1","0","1","4","4","4","2","2","4","4","4","4","2","742006860881858562","刘","","","","","","","","","","","","","","","","","","","true","2","2","ability","576","positive","高效","","","","","","","","","","","","","","",""
"null","","null","html-keyboard-response","46","208571","0.0-6.0-0.0-4.0-0.6","3","3","3","3","2","3","3","3","3","3","4","3","2","3","4","4","4","2","4","4","4","4","4","4","3","4","2","4","1","1","0","1","1","0","0","1","1","0","1","1","0","1","0","1","4","4","4","2","2","4","4","4","4","2","742006860881858562","刘","","","","","","","","","","","","","","","","","","","","","","","","","","","","","","","","","","","","","","","",""
"506","<p style=""color:white; font-size: 35px;"">愚钝</p>","e","categorize-html","47","209079","0.0-6.0-0.0-4.0-1.6","3","3","3","3","2","3","3","3","3","3","4","3","2","3","4","4","4","2","4","4","4","4","4","4","3","4","2","4","1","1","0","1","1","0","0","1","1","0","1","1","0","1","0","1","4","4","4","2","2","4","4","4","4","2","742006860881858562","刘","","","","","","","","","","","","","","","","","","","true","2","2","ability","506","negative","愚钝","","","","","","","","","","","","","","",""
"null","","null","html-keyboard-response","48","209330","0.0-6.0-0.0-4.0-0.7","3","3","3","3","2","3","3","3","3","3","4","3","2","3","4","4","4","2","4","4","4","4","4","4","3","4","2","4","1","1","0","1","1","0","0","1","1","0","1","1","0","1","0","1","4","4","4","2","2","4","4","4","4","2","742006860881858562","刘","","","","","","","","","","","","","","","","","","","","","","","","","","","","","","","","","","","","","","","",""
"628","<p style=""color:white; font-size: 35px;"">无能</p>","e","categorize-html","49","209960","0.0-6.0-0.0-4.0-1.7","3","3","3","3","2","3","3","3","3","3","4","3","2","3","4","4","4","2","4","4","4","4","4","4","3","4","2","4","1","1","0","1","1","0","0","1","1","0","1","1","0","1","0","1","4","4","4","2","2","4","4","4","4","2","742006860881858562","刘","","","","","","","","","","","","","","","","","","","true","2","2","ability","628","negative","无能","","","","","","","","","","","","","","",""
"null","","null","html-keyboard-response","50","210212","0.0-6.0-0.0-4.0-0.8","3","3","3","3","2","3","3","3","3","3","4","3","2","3","4","4","4","2","4","4","4","4","4","4","3","4","2","4","1","1","0","1","1","0","0","1","1","0","1","1","0","1","0","1","4","4","4","2","2","4","4","4","4","2","742006860881858562","刘","","","","","","","","","","","","","","","","","","","","","","","","","","","","","","","","","","","","","","","",""
"620","<p style=""color:white; font-size: 35px;"">能干</p>","i","categorize-html","51","210836","0.0-6.0-0.0-4.0-1.8","3","3","3","3","2","3","3","3","3","3","4","3","2","3","4","4","4","2","4","4","4","4","4","4","3","4","2","4","1","1","0","1","1","0","0","1","1","0","1","1","0","1","0","1","4","4","4","2","2","4","4","4","4","2","742006860881858562","刘","","","","","","","","","","","","","","","","","","","true","2","2","ability","620","positive","能干","","","","","","","","","","","","","","",""
"null","","null","html-keyboard-response","52","211088","0.0-6.0-0.0-4.0-0.9","3","3","3","3","2","3","3","3","3","3","4","3","2","3","4","4","4","2","4","4","4","4","4","4","3","4","2","4","1","1","0","1","1","0","0","1","1","0","1","1","0","1","0","1","4","4","4","2","2","4","4","4","4","2","742006860881858562","刘","","","","","","","","","","","","","","","","","","","","","","","","","","","","","","","","","","","","","","","",""
"546","<p style=""color:white; font-size: 35px;"">低能</p>","e","categorize-html","53","211634","0.0-6.0-0.0-4.0-1.9","3","3","3","3","2","3","3","3","3","3","4","3","2","3","4","4","4","2","4","4","4","4","4","4","3","4","2","4","1","1","0","1","1","0","0","1","1","0","1","1","0","1","0","1","4","4","4","2","2","4","4","4","4","2","742006860881858562","刘","","","","","","","","","","","","","","","","","","","true","2","2","ability","546","negative","低能","","","","","","","","","","","","","","",""
"null","","null","html-keyboard-response","54","211885","0.0-6.0-0.0-4.0-0.10","3","3","3","3","2","3","3","3","3","3","4","3","2","3","4","4","4","2","4","4","4","4","4","4","3","4","2","4","1","1","0","1","1","0","0","1","1","0","1","1","0","1","0","1","4","4","4","2","2","4","4","4","4","2","742006860881858562","刘","","","","","","","","","","","","","","","","","","","","","","","","","","","","","","","","","","","","","","","",""
"1202","<p style=""color:white; font-size: 35px;"">蠢笨</p>","e","categorize-html","55","213088","0.0-6.0-0.0-4.0-1.10","3","3","3","3","2","3","3","3","3","3","4","3","2","3","4","4","4","2","4","4","4","4","4","4","3","4","2","4","1","1","0","1","1","0","0","1","1","0","1","1","0","1","0","1","4","4","4","2","2","4","4","4","4","2","742006860881858562","刘","","","","","","","","","","","","","","","","","","","true","2","2","ability","1202","negative","蠢笨","","","","","","","","","","","","","","",""
"null","","null","html-keyboard-response","56","213339","0.0-6.0-0.0-4.0-0.11","3","3","3","3","2","3","3","3","3","3","4","3","2","3","4","4","4","2","4","4","4","4","4","4","3","4","2","4","1","1","0","1","1","0","0","1","1","0","1","1","0","1","0","1","4","4","4","2","2","4","4","4","4","2","742006860881858562","刘","","","","","","","","","","","","","","","","","","","","","","","","","","","","","","","","","","","","","","","",""
"530","<p style=""color:white; font-size: 35px;"">全能</p>","i","categorize-html","57","213870","0.0-6.0-0.0-4.0-1.11","3","3","3","3","2","3","3","3","3","3","4","3","2","3","4","4","4","2","4","4","4","4","4","4","3","4","2","4","1","1","0","1","1","0","0","1","1","0","1","1","0","1","0","1","4","4","4","2","2","4","4","4","4","2","742006860881858562","刘","","","","","","","","","","","","","","","","","","","true","2","2","ability","530","positive","全能","","","","","","","","","","","","","","",""
"14365","
    <div class=""tag-bottom""><p>
    —— 任务3：对“他人/消极”词和“自我/积极”词分类 ——<p/>
    <span style=""color:#78DCE8""><b>注意上方，之前的四类词语将混合在一起交替呈现</b></span><p/>
    <span style=""color:#FFD866""><b>请根据上方标签的提示，尽可能正确并且快速地做出按键反应</b></span><p/>
    当按键错误时屏幕中会出现<span style=""color:red""> X </span>，需要按另一个键纠正才能继续<br/><p/>
    请把双手食指分别放在键盘的“E”键和“I”键上<p/>
    按<空格键>开始
    </p></div>"," ","html-keyboard-response","58","228235","0.0-6.0-0.0-5.0","3","3","3","3","2","3","3","3","3","3","4","3","2","3","4","4","4","2","4","4","4","4","4","4","3","4","2","4","1","1","0","1","1","0","0","1","1","0","1","1","0","1","0","1","4","4","4","2","2","4","4","4","4","2","742006860881858562","刘","","","","","","","","","","","","","","","","","","","","","","","","","","","","","","","","","","","","","","","",""
"null","","null","html-keyboard-response","59","228487","0.0-6.0-0.0-6.0-0.0","3","3","3","3","2","3","3","3","3","3","4","3","2","3","4","4","4","2","4","4","4","4","4","4","3","4","2","4","1","1","0","1","1","0","0","1","1","0","1","1","0","1","0","1","4","4","4","2","2","4","4","4","4","2","742006860881858562","刘","","","","","","","","","","","","","","","","","","","","","","","","","","","","","","","","","","","","","","","",""
"960","<p style=""color:rgb(150, 250, 100); font-size: 35px;"">他</p>","e","categorize-html","60","229449","0.0-6.0-0.0-6.0-1.0","3","3","3","3","2","3","3","3","3","3","4","3","2","3","4","4","4","2","4","4","4","4","4","4","3","4","2","4","1","1","0","1","1","0","0","1","1","0","1","1","0","1","0","1","4","4","4","2","2","4","4","4","4","2","742006860881858562","刘","","","","","","","","","","","","","","","","","","","true","3","3","ability","960","other","他","","","","","","","","","","","","","","",""
"null","","null","html-keyboard-response","61","229702","0.0-6.0-0.0-6.0-0.1","3","3","3","3","2","3","3","3","3","3","4","3","2","3","4","4","4","2","4","4","4","4","4","4","3","4","2","4","1","1","0","1","1","0","0","1","1","0","1","1","0","1","0","1","4","4","4","2","2","4","4","4","4","2","742006860881858562","刘","","","","","","","","","","","","","","","","","","","","","","","","","","","","","","","","","","","","","","","",""
"909","<p style=""color:white; font-size: 35px;"">精干</p>","i","categorize-html","62","230612","0.0-6.0-0.0-6.0-1.1","3","3","3","3","2","3","3","3","3","3","4","3","2","3","4","4","4","2","4","4","4","4","4","4","3","4","2","4","1","1","0","1","1","0","0","1","1","0","1","1","0","1","0","1","4","4","4","2","2","4","4","4","4","2","742006860881858562","刘","","","","","","","","","","","","","","","","","","","true","3","3","ability","909","positive","精干","","","","","","","","","","","","","","",""
"null","","null","html-keyboard-response","63","230865","0.0-6.0-0.0-6.0-0.2","3","3","3","3","2","3","3","3","3","3","4","3","2","3","4","4","4","2","4","4","4","4","4","4","3","4","2","4","1","1","0","1","1","0","0","1","1","0","1","1","0","1","0","1","4","4","4","2","2","4","4","4","4","2","742006860881858562","刘","","","","","","","","","","","","","","","","","","","","","","","","","","","","","","","","","","","","","","","",""
"696","<p style=""color:rgb(150, 250, 100); font-size: 35px;"">本人</p>","i","categorize-html","64","231565","0.0-6.0-0.0-6.0-1.2","3","3","3","3","2","3","3","3","3","3","4","3","2","3","4","4","4","2","4","4","4","4","4","4","3","4","2","4","1","1","0","1","1","0","0","1","1","0","1","1","0","1","0","1","4","4","4","2","2","4","4","4","4","2","742006860881858562","刘","","","","","","","","","","","","","","","","","","","true","3","3","ability","696","self","本人","","","","","","","","","","","","","","",""
"null","","null","html-keyboard-response","65","231818","0.0-6.0-0.0-6.0-0.3","3","3","3","3","2","3","3","3","3","3","4","3","2","3","4","4","4","2","4","4","4","4","4","4","3","4","2","4","1","1","0","1","1","0","0","1","1","0","1","1","0","1","0","1","4","4","4","2","2","4","4","4","4","2","742006860881858562","刘","","","","","","","","","","","","","","","","","","","","","","","","","","","","","","","","","","","","","","","",""
"2388","<p style=""color:white; font-size: 35px;"">无能</p>","e","categorize-html","66","234207","0.0-6.0-0.0-6.0-1.3","3","3","3","3","2","3","3","3","3","3","4","3","2","3","4","4","4","2","4","4","4","4","4","4","3","4","2","4","1","1","0","1","1","0","0","1","1","0","1","1","0","1","0","1","4","4","4","2","2","4","4","4","4","2","742006860881858562","刘","","","","","","","","","","","","","","","","","","","true","3","3","ability","2388","negative","无能","","","","","","","","","","","","","","",""
"null","","null","html-keyboard-response","67","234458","0.0-6.0-0.0-6.0-0.4","3","3","3","3","2","3","3","3","3","3","4","3","2","3","4","4","4","2","4","4","4","4","4","4","3","4","2","4","1","1","0","1","1","0","0","1","1","0","1","1","0","1","0","1","4","4","4","2","2","4","4","4","4","2","742006860881858562","刘","","","","","","","","","","","","","","","","","","","","","","","","","","","","","","","","","","","","","","","",""
"777","<p style=""color:rgb(150, 250, 100); font-size: 35px;"">我的</p>","i","categorize-html","68","235237","0.0-6.0-0.0-6.0-1.4","3","3","3","3","2","3","3","3","3","3","4","3","2","3","4","4","4","2","4","4","4","4","4","4","3","4","2","4","1","1","0","1","1","0","0","1","1","0","1","1","0","1","0","1","4","4","4","2","2","4","4","4","4","2","742006860881858562","刘","","","","","","","","","","","","","","","","","","","true","3","3","ability","777","self","我的","","","","","","","","","","","","","","",""
"null","","null","html-keyboard-response","69","235489","0.0-6.0-0.0-6.0-0.5","3","3","3","3","2","3","3","3","3","3","4","3","2","3","4","4","4","2","4","4","4","4","4","4","3","4","2","4","1","1","0","1","1","0","0","1","1","0","1","1","0","1","0","1","4","4","4","2","2","4","4","4","4","2","742006860881858562","刘","","","","","","","","","","","","","","","","","","","","","","","","","","","","","","","","","","","","","","","",""
"854","<p style=""color:white; font-size: 35px;"">低能</p>","e","categorize-html","70","236345","0.0-6.0-0.0-6.0-1.5","3","3","3","3","2","3","3","3","3","3","4","3","2","3","4","4","4","2","4","4","4","4","4","4","3","4","2","4","1","1","0","1","1","0","0","1","1","0","1","1","0","1","0","1","4","4","4","2","2","4","4","4","4","2","742006860881858562","刘","","","","","","","","","","","","","","","","","","","true","3","3","ability","854","negative","低能","","","","","","","","","","","","","","",""
"null","","null","html-keyboard-response","71","236596","0.0-6.0-0.0-6.0-0.6","3","3","3","3","2","3","3","3","3","3","4","3","2","3","4","4","4","2","4","4","4","4","4","4","3","4","2","4","1","1","0","1","1","0","0","1","1","0","1","1","0","1","0","1","4","4","4","2","2","4","4","4","4","2","742006860881858562","刘","","","","","","","","","","","","","","","","","","","","","","","","","","","","","","","","","","","","","","","",""
"722","<p style=""color:rgb(150, 250, 100); font-size: 35px;"">他人的</p>","e","categorize-html","72","237320","0.0-6.0-0.0-6.0-1.6","3","3","3","3","2","3","3","3","3","3","4","3","2","3","4","4","4","2","4","4","4","4","4","4","3","4","2","4","1","1","0","1","1","0","0","1","1","0","1","1","0","1","0","1","4","4","4","2","2","4","4","4","4","2","742006860881858562","刘","","","","","","","","","","","","","","","","","","","true","3","3","ability","722","other","他人的","","","","","","","","","","","","","","",""
"null","","null","html-keyboard-response","73","237571","0.0-6.0-0.0-6.0-0.7","3","3","3","3","2","3","3","3","3","3","4","3","2","3","4","4","4","2","4","4","4","4","4","4","3","4","2","4","1","1","0","1","1","0","0","1","1","0","1","1","0","1","0","1","4","4","4","2","2","4","4","4","4","2","742006860881858562","刘","","","","","","","","","","","","","","","","","","","","","","","","","","","","","","","","","","","","","","","",""
"1380","<p style=""color:white; font-size: 35px;"">天才</p>","i","categorize-html","74","238956","0.0-6.0-0.0-6.0-1.7","3","3","3","3","2","3","3","3","3","3","4","3","2","3","4","4","4","2","4","4","4","4","4","4","3","4","2","4","1","1","0","1","1","0","0","1","1","0","1","1","0","1","0","1","4","4","4","2","2","4","4","4","4","2","742006860881858562","刘","","","","","","","","","","","","","","","","","","","true","3","3","ability","1380","positive","天才","","","","","","","","","","","","","","",""
"null","","null","html-keyboard-response","75","239209","0.0-6.0-0.0-6.0-0.8","3","3","3","3","2","3","3","3","3","3","4","3","2","3","4","4","4","2","4","4","4","4","4","4","3","4","2","4","1","1","0","1","1","0","0","1","1","0","1","1","0","1","0","1","4","4","4","2","2","4","4","4","4","2","742006860881858562","刘","","","","","","","","","","","","","","","","","","","","","","","","","","","","","","","","","","","","","","","",""
"547","<p style=""color:rgb(150, 250, 100); font-size: 35px;"">自己</p>","i","categorize-html","76","239757","0.0-6.0-0.0-6.0-1.8","3","3","3","3","2","3","3","3","3","3","4","3","2","3","4","4","4","2","4","4","4","4","4","4","3","4","2","4","1","1","0","1","1","0","0","1","1","0","1","1","0","1","0","1","4","4","4","2","2","4","4","4","4","2","742006860881858562","刘","","","","","","","","","","","","","","","","","","","true","3","3","ability","547","self","自己","","","","","","","","","","","","","","",""
"null","","null","html-keyboard-response","77","240007","0.0-6.0-0.0-6.0-0.9","3","3","3","3","2","3","3","3","3","3","4","3","2","3","4","4","4","2","4","4","4","4","4","4","3","4","2","4","1","1","0","1","1","0","0","1","1","0","1","1","0","1","0","1","4","4","4","2","2","4","4","4","4","2","742006860881858562","刘","","","","","","","","","","","","","","","","","","","","","","","","","","","","","","","","","","","","","","","",""
"572","<p style=""color:white; font-size: 35px;"">拙笨</p>","e","categorize-html","78","240580","0.0-6.0-0.0-6.0-1.9","3","3","3","3","2","3","3","3","3","3","4","3","2","3","4","4","4","2","4","4","4","4","4","4","3","4","2","4","1","1","0","1","1","0","0","1","1","0","1","1","0","1","0","1","4","4","4","2","2","4","4","4","4","2","742006860881858562","刘","","","","","","","","","","","","","","","","","","","true","3","3","ability","572","negative","拙笨","","","","","","","","","","","","","","",""
"null","","null","html-keyboard-response","79","240831","0.0-6.0-0.0-6.0-0.10","3","3","3","3","2","3","3","3","3","3","4","3","2","3","4","4","4","2","4","4","4","4","4","4","3","4","2","4","1","1","0","1","1","0","0","1","1","0","1","1","0","1","0","1","4","4","4","2","2","4","4","4","4","2","742006860881858562","刘","","","","","","","","","","","","","","","","","","","","","","","","","","","","","","","","","","","","","","","",""
"738","<p style=""color:rgb(150, 250, 100); font-size: 35px;"">别人</p>","e","categorize-html","80","241571","0.0-6.0-0.0-6.0-1.10","3","3","3","3","2","3","3","3","3","3","4","3","2","3","4","4","4","2","4","4","4","4","4","4","3","4","2","4","1","1","0","1","1","0","0","1","1","0","1","1","0","1","0","1","4","4","4","2","2","4","4","4","4","2","742006860881858562","刘","","","","","","","","","","","","","","","","","","","true","3","3","ability","738","other","别人","","","","","","","","","","","","","","",""
"null","","null","html-keyboard-response","81","241822","0.0-6.0-0.0-6.0-0.11","3","3","3","3","2","3","3","3","3","3","4","3","2","3","4","4","4","2","4","4","4","4","4","4","3","4","2","4","1","1","0","1","1","0","0","1","1","0","1","1","0","1","0","1","4","4","4","2","2","4","4","4","4","2","742006860881858562","刘","","","","","","","","","","","","","","","","","","","","","","","","","","","","","","","","","","","","","","","",""
"561","<p style=""color:white; font-size: 35px;"">全能</p>","i","categorize-html","82","242385","0.0-6.0-0.0-6.0-1.11","3","3","3","3","2","3","3","3","3","3","4","3","2","3","4","4","4","2","4","4","4","4","4","4","3","4","2","4","1","1","0","1","1","0","0","1","1","0","1","1","0","1","0","1","4","4","4","2","2","4","4","4","4","2","742006860881858562","刘","","","","","","","","","","","","","","","","","","","true","3","3","ability","561","positive","全能","","","","","","","","","","","","","","",""
"null","","null","html-keyboard-response","83","242636","0.0-6.0-0.0-6.0-0.12","3","3","3","3","2","3","3","3","3","3","4","3","2","3","4","4","4","2","4","4","4","4","4","4","3","4","2","4","1","1","0","1","1","0","0","1","1","0","1","1","0","1","0","1","4","4","4","2","2","4","4","4","4","2","742006860881858562","刘","","","","","","","","","","","","","","","","","","","","","","","","","","","","","","","","","","","","","","","",""
"504","<p style=""color:rgb(150, 250, 100); font-size: 35px;"">自己的</p>","i","categorize-html","84","243141","0.0-6.0-0.0-6.0-1.12","3","3","3","3","2","3","3","3","3","3","4","3","2","3","4","4","4","2","4","4","4","4","4","4","3","4","2","4","1","1","0","1","1","0","0","1","1","0","1","1","0","1","0","1","4","4","4","2","2","4","4","4","4","2","742006860881858562","刘","","","","","","","","","","","","","","","","","","","true","3","3","ability","504","self","自己的","","","","","","","","","","","","","","",""
"null","","null","html-keyboard-response","85","243393","0.0-6.0-0.0-6.0-0.13","3","3","3","3","2","3","3","3","3","3","4","3","2","3","4","4","4","2","4","4","4","4","4","4","3","4","2","4","1","1","0","1","1","0","0","1","1","0","1","1","0","1","0","1","4","4","4","2","2","4","4","4","4","2","742006860881858562","刘","","","","","","","","","","","","","","","","","","","","","","","","","","","","","","","","","","","","","","","",""
"638","<p style=""color:white; font-size: 35px;"">能干</p>","i","categorize-html","86","244032","0.0-6.0-0.0-6.0-1.13","3","3","3","3","2","3","3","3","3","3","4","3","2","3","4","4","4","2","4","4","4","4","4","4","3","4","2","4","1","1","0","1","1","0","0","1","1","0","1","1","0","1","0","1","4","4","4","2","2","4","4","4","4","2","742006860881858562","刘","","","","","","","","","","","","","","","","","","","true","3","3","ability","638","positive","能干","","","","","","","","","","","","","","",""
"null","","null","html-keyboard-response","87","244284","0.0-6.0-0.0-6.0-0.14","3","3","3","3","2","3","3","3","3","3","4","3","2","3","4","4","4","2","4","4","4","4","4","4","3","4","2","4","1","1","0","1","1","0","0","1","1","0","1","1","0","1","0","1","4","4","4","2","2","4","4","4","4","2","742006860881858562","刘","","","","","","","","","","","","","","","","","","","","","","","","","","","","","","","","","","","","","","","",""
"746","<p style=""color:rgb(150, 250, 100); font-size: 35px;"">他的</p>","e","categorize-html","88","245031","0.0-6.0-0.0-6.0-1.14","3","3","3","3","2","3","3","3","3","3","4","3","2","3","4","4","4","2","4","4","4","4","4","4","3","4","2","4","1","1","0","1","1","0","0","1","1","0","1","1","0","1","0","1","4","4","4","2","2","4","4","4","4","2","742006860881858562","刘","","","","","","","","","","","","","","","","","","","true","3","3","ability","746","other","他的","","","","","","","","","","","","","","",""
"null","","null","html-keyboard-response","89","245283","0.0-6.0-0.0-6.0-0.15","3","3","3","3","2","3","3","3","3","3","4","3","2","3","4","4","4","2","4","4","4","4","4","4","3","4","2","4","1","1","0","1","1","0","0","1","1","0","1","1","0","1","0","1","4","4","4","2","2","4","4","4","4","2","742006860881858562","刘","","","","","","","","","","","","","","","","","","","","","","","","","","","","","","","","","","","","","","","",""
"479","<p style=""color:white; font-size: 35px;"">蠢笨</p>","e","categorize-html","90","245763","0.0-6.0-0.0-6.0-1.15","3","3","3","3","2","3","3","3","3","3","4","3","2","3","4","4","4","2","4","4","4","4","4","4","3","4","2","4","1","1","0","1","1","0","0","1","1","0","1","1","0","1","0","1","4","4","4","2","2","4","4","4","4","2","742006860881858562","刘","","","","","","","","","","","","","","","","","","","true","3","3","ability","479","negative","蠢笨","","","","","","","","","","","","","","",""
"null","","null","html-keyboard-response","91","246014","0.0-6.0-0.0-6.0-0.16","3","3","3","3","2","3","3","3","3","3","4","3","2","3","4","4","4","2","4","4","4","4","4","4","3","4","2","4","1","1","0","1","1","0","0","1","1","0","1","1","0","1","0","1","4","4","4","2","2","4","4","4","4","2","742006860881858562","刘","","","","","","","","","","","","","","","","","","","","","","","","","","","","","","","","","","","","","","","",""
"448","<p style=""color:rgb(150, 250, 100); font-size: 35px;"">我</p>","i","categorize-html","92","246463","0.0-6.0-0.0-6.0-1.16","3","3","3","3","2","3","3","3","3","3","4","3","2","3","4","4","4","2","4","4","4","4","4","4","3","4","2","4","1","1","0","1","1","0","0","1","1","0","1","1","0","1","0","1","4","4","4","2","2","4","4","4","4","2","742006860881858562","刘","","","","","","","","","","","","","","","","","","","true","3","3","ability","448","self","我","","","","","","","","","","","","","","",""
"null","","null","html-keyboard-response","93","246714","0.0-6.0-0.0-6.0-0.17","3","3","3","3","2","3","3","3","3","3","4","3","2","3","4","4","4","2","4","4","4","4","4","4","3","4","2","4","1","1","0","1","1","0","0","1","1","0","1","1","0","1","0","1","4","4","4","2","2","4","4","4","4","2","742006860881858562","刘","","","","","","","","","","","","","","","","","","","","","","","","","","","","","","","","","","","","","","","",""
"703","<p style=""color:white; font-size: 35px;"">愚钝</p>","e","categorize-html","94","247418","0.0-6.0-0.0-6.0-1.17","3","3","3","3","2","3","3","3","3","3","4","3","2","3","4","4","4","2","4","4","4","4","4","4","3","4","2","4","1","1","0","1","1","0","0","1","1","0","1","1","0","1","0","1","4","4","4","2","2","4","4","4","4","2","742006860881858562","刘","","","","","","","","","","","","","","","","","","","true","3","3","ability","703","negative","愚钝","","","","","","","","","","","","","","",""
"null","","null","html-keyboard-response","95","247669","0.0-6.0-0.0-6.0-0.18","3","3","3","3","2","3","3","3","3","3","4","3","2","3","4","4","4","2","4","4","4","4","4","4","3","4","2","4","1","1","0","1","1","0","0","1","1","0","1","1","0","1","0","1","4","4","4","2","2","4","4","4","4","2","742006860881858562","刘","","","","","","","","","","","","","","","","","","","","","","","","","","","","","","","","","","","","","","","",""
"464","<p style=""color:rgb(150, 250, 100); font-size: 35px;"">他人</p>","e","categorize-html","96","248136","0.0-6.0-0.0-6.0-1.18","3","3","3","3","2","3","3","3","3","3","4","3","2","3","4","4","4","2","4","4","4","4","4","4","3","4","2","4","1","1","0","1","1","0","0","1","1","0","1","1","0","1","0","1","4","4","4","2","2","4","4","4","4","2","742006860881858562","刘","","","","","","","","","","","","","","","","","","","true","3","3","ability","464","other","他人","","","","","","","","","","","","","","",""
"null","","null","html-keyboard-response","97","248388","0.0-6.0-0.0-6.0-0.19","3","3","3","3","2","3","3","3","3","3","4","3","2","3","4","4","4","2","4","4","4","4","4","4","3","4","2","4","1","1","0","1","1","0","0","1","1","0","1","1","0","1","0","1","4","4","4","2","2","4","4","4","4","2","742006860881858562","刘","","","","","","","","","","","","","","","","","","","","","","","","","","","","","","","","","","","","","","","",""
"515","<p style=""color:white; font-size: 35px;"">高效</p>","i","categorize-html","98","248904","0.0-6.0-0.0-6.0-1.19","3","3","3","3","2","3","3","3","3","3","4","3","2","3","4","4","4","2","4","4","4","4","4","4","3","4","2","4","1","1","0","1","1","0","0","1","1","0","1","1","0","1","0","1","4","4","4","2","2","4","4","4","4","2","742006860881858562","刘","","","","","","","","","","","","","","","","","","","true","3","3","ability","515","positive","高效","","","","","","","","","","","","","","",""
"null","","null","html-keyboard-response","99","249160","0.0-6.0-0.0-6.0-0.20","3","3","3","3","2","3","3","3","3","3","4","3","2","3","4","4","4","2","4","4","4","4","4","4","3","4","2","4","1","1","0","1","1","0","0","1","1","0","1","1","0","1","0","1","4","4","4","2","2","4","4","4","4","2","742006860881858562","刘","","","","","","","","","","","","","","","","","","","","","","","","","","","","","","","","","","","","","","","",""
"629","<p style=""color:rgb(150, 250, 100); font-size: 35px;"">别人的</p>","e","categorize-html","100","249790","0.0-6.0-0.0-6.0-1.20","3","3","3","3","2","3","3","3","3","3","4","3","2","3","4","4","4","2","4","4","4","4","4","4","3","4","2","4","1","1","0","1","1","0","0","1","1","0","1","1","0","1","0","1","4","4","4","2","2","4","4","4","4","2","742006860881858562","刘","","","","","","","","","","","","","","","","","","","true","3","3","ability","629","other","别人的","","","","","","","","","","","","","","",""
"null","","null","html-keyboard-response","101","250042","0.0-6.0-0.0-6.0-0.21","3","3","3","3","2","3","3","3","3","3","4","3","2","3","4","4","4","2","4","4","4","4","4","4","3","4","2","4","1","1","0","1","1","0","0","1","1","0","1","1","0","1","0","1","4","4","4","2","2","4","4","4","4","2","742006860881858562","刘","","","","","","","","","","","","","","","","","","","","","","","","","","","","","","","","","","","","","","","",""
"593","<p style=""color:white; font-size: 35px;"">全才</p>","i","categorize-html","102","250637","0.0-6.0-0.0-6.0-1.21","3","3","3","3","2","3","3","3","3","3","4","3","2","3","4","4","4","2","4","4","4","4","4","4","3","4","2","4","1","1","0","1","1","0","0","1","1","0","1","1","0","1","0","1","4","4","4","2","2","4","4","4","4","2","742006860881858562","刘","","","","","","","","","","","","","","","","","","","true","3","3","ability","593","positive","全才","","","","","","","","","","","","","","",""
"null","","null","html-keyboard-response","103","250888","0.0-6.0-0.0-6.0-0.22","3","3","3","3","2","3","3","3","3","3","4","3","2","3","4","4","4","2","4","4","4","4","4","4","3","4","2","4","1","1","0","1","1","0","0","1","1","0","1","1","0","1","0","1","4","4","4","2","2","4","4","4","4","2","742006860881858562","刘","","","","","","","","","","","","","","","","","","","","","","","","","","","","","","","","","","","","","","","",""
"578","<p style=""color:rgb(150, 250, 100); font-size: 35px;"">本人的</p>","i","categorize-html","104","251467","0.0-6.0-0.0-6.0-1.22","3","3","3","3","2","3","3","3","3","3","4","3","2","3","4","4","4","2","4","4","4","4","4","4","3","4","2","4","1","1","0","1","1","0","0","1","1","0","1","1","0","1","0","1","4","4","4","2","2","4","4","4","4","2","742006860881858562","刘","","","","","","","","","","","","","","","","","","","true","3","3","ability","578","self","本人的","","","","","","","","","","","","","","",""
"null","","null","html-keyboard-response","105","251718","0.0-6.0-0.0-6.0-0.23","3","3","3","3","2","3","3","3","3","3","4","3","2","3","4","4","4","2","4","4","4","4","4","4","3","4","2","4","1","1","0","1","1","0","0","1","1","0","1","1","0","1","0","1","4","4","4","2","2","4","4","4","4","2","742006860881858562","刘","","","","","","","","","","","","","","","","","","","","","","","","","","","","","","","","","","","","","","","",""
"1157","<p style=""color:white; font-size: 35px;"">废物</p>","e","categorize-html","106","252876","0.0-6.0-0.0-6.0-1.23","3","3","3","3","2","3","3","3","3","3","4","3","2","3","4","4","4","2","4","4","4","4","4","4","3","4","2","4","1","1","0","1","1","0","0","1","1","0","1","1","0","1","0","1","4","4","4","2","2","4","4","4","4","2","742006860881858562","刘","","","","","","","","","","","","","","","","","","","true","3","3","ability","1157","negative","废物","","","","","","","","","","","","","","",""
"5897","
    <div class=""tag-bottom""><p>
    —— 任务4：对“他人/消极”词和“自我/积极”词分类 ——<p/>
    <span style=""color:#78DCE8""><b>与刚才的任务完全相同，请再次对这四类词语分类</b></span><p/>
    <span style=""color:#FFD866""><b>请根据上方标签的提示，尽可能正确并且快速地做出按键反应</b></span><p/>
    当按键错误时屏幕中会出现<span style=""color:red""> X </span>，需要按另一个键纠正才能继续<br/><p/>
    请把双手食指分别放在键盘的“E”键和“I”键上<p/>
    按<空格键>开始
    </p></div>"," ","html-keyboard-response","107","258773","0.0-6.0-0.0-7.0","3","3","3","3","2","3","3","3","3","3","4","3","2","3","4","4","4","2","4","4","4","4","4","4","3","4","2","4","1","1","0","1","1","0","0","1","1","0","1","1","0","1","0","1","4","4","4","2","2","4","4","4","4","2","742006860881858562","刘","","","","","","","","","","","","","","","","","","","","","","","","","","","","","","","","","","","","","","","",""
"null","","null","html-keyboard-response","108","259033","0.0-6.0-0.0-8.0-0.0","3","3","3","3","2","3","3","3","3","3","4","3","2","3","4","4","4","2","4","4","4","4","4","4","3","4","2","4","1","1","0","1","1","0","0","1","1","0","1","1","0","1","0","1","4","4","4","2","2","4","4","4","4","2","742006860881858562","刘","","","","","","","","","","","","","","","","","","","","","","","","","","","","","","","","","","","","","","","",""
"756","<p style=""color:rgb(150, 250, 100); font-size: 35px;"">他的</p>","e","categorize-html","109","259792","0.0-6.0-0.0-8.0-1.0","3","3","3","3","2","3","3","3","3","3","4","3","2","3","4","4","4","2","4","4","4","4","4","4","3","4","2","4","1","1","0","1","1","0","0","1","1","0","1","1","0","1","0","1","4","4","4","2","2","4","4","4","4","2","742006860881858562","刘","","","","","","","","","","","","","","","","","","","true","4","4","ability","756","other","他的","","","","","","","","","","","","","","",""
"null","","null","html-keyboard-response","110","260043","0.0-6.0-0.0-8.0-0.1","3","3","3","3","2","3","3","3","3","3","4","3","2","3","4","4","4","2","4","4","4","4","4","4","3","4","2","4","1","1","0","1","1","0","0","1","1","0","1","1","0","1","0","1","4","4","4","2","2","4","4","4","4","2","742006860881858562","刘","","","","","","","","","","","","","","","","","","","","","","","","","","","","","","","","","","","","","","","",""
"532","<p style=""color:white; font-size: 35px;"">精干</p>","i","categorize-html","111","260576","0.0-6.0-0.0-8.0-1.1","3","3","3","3","2","3","3","3","3","3","4","3","2","3","4","4","4","2","4","4","4","4","4","4","3","4","2","4","1","1","0","1","1","0","0","1","1","0","1","1","0","1","0","1","4","4","4","2","2","4","4","4","4","2","742006860881858562","刘","","","","","","","","","","","","","","","","","","","true","4","4","ability","532","positive","精干","","","","","","","","","","","","","","",""
"null","","null","html-keyboard-response","112","260828","0.0-6.0-0.0-8.0-0.2","3","3","3","3","2","3","3","3","3","3","4","3","2","3","4","4","4","2","4","4","4","4","4","4","3","4","2","4","1","1","0","1","1","0","0","1","1","0","1","1","0","1","0","1","4","4","4","2","2","4","4","4","4","2","742006860881858562","刘","","","","","","","","","","","","","","","","","","","","","","","","","","","","","","","","","","","","","","","",""
"568","<p style=""color:rgb(150, 250, 100); font-size: 35px;"">自己的</p>","i","categorize-html","113","261398","0.0-6.0-0.0-8.0-1.2","3","3","3","3","2","3","3","3","3","3","4","3","2","3","4","4","4","2","4","4","4","4","4","4","3","4","2","4","1","1","0","1","1","0","0","1","1","0","1","1","0","1","0","1","4","4","4","2","2","4","4","4","4","2","742006860881858562","刘","","","","","","","","","","","","","","","","","","","true","4","4","ability","568","self","自己的","","","","","","","","","","","","","","",""
"null","","null","html-keyboard-response","114","261649","0.0-6.0-0.0-8.0-0.3","3","3","3","3","2","3","3","3","3","3","4","3","2","3","4","4","4","2","4","4","4","4","4","4","3","4","2","4","1","1","0","1","1","0","0","1","1","0","1","1","0","1","0","1","4","4","4","2","2","4","4","4","4","2","742006860881858562","刘","","","","","","","","","","","","","","","","","","","","","","","","","","","","","","","","","","","","","","","",""
"491","<p style=""color:white; font-size: 35px;"">废物</p>","e","categorize-html","115","262140","0.0-6.0-0.0-8.0-1.3","3","3","3","3","2","3","3","3","3","3","4","3","2","3","4","4","4","2","4","4","4","4","4","4","3","4","2","4","1","1","0","1","1","0","0","1","1","0","1","1","0","1","0","1","4","4","4","2","2","4","4","4","4","2","742006860881858562","刘","","","","","","","","","","","","","","","","","","","true","4","4","ability","491","negative","废物","","","","","","","","","","","","","","",""
"null","","null","html-keyboard-response","116","262391","0.0-6.0-0.0-8.0-0.4","3","3","3","3","2","3","3","3","3","3","4","3","2","3","4","4","4","2","4","4","4","4","4","4","3","4","2","4","1","1","0","1","1","0","0","1","1","0","1","1","0","1","0","1","4","4","4","2","2","4","4","4","4","2","742006860881858562","刘","","","","","","","","","","","","","","","","","","","","","","","","","","","","","","","","","","","","","","","",""
"449","<p style=""color:rgb(150, 250, 100); font-size: 35px;"">我的</p>","i","categorize-html","117","262842","0.0-6.0-0.0-8.0-1.4","3","3","3","3","2","3","3","3","3","3","4","3","2","3","4","4","4","2","4","4","4","4","4","4","3","4","2","4","1","1","0","1","1","0","0","1","1","0","1","1","0","1","0","1","4","4","4","2","2","4","4","4","4","2","742006860881858562","刘","","","","","","","","","","","","","","","","","","","true","4","4","ability","449","self","我的","","","","","","","","","","","","","","",""
"null","","null","html-keyboard-response","118","263095","0.0-6.0-0.0-8.0-0.5","3","3","3","3","2","3","3","3","3","3","4","3","2","3","4","4","4","2","4","4","4","4","4","4","3","4","2","4","1","1","0","1","1","0","0","1","1","0","1","1","0","1","0","1","4","4","4","2","2","4","4","4","4","2","742006860881858562","刘","","","","","","","","","","","","","","","","","","","","","","","","","","","","","","","","","","","","","","","",""
"517","<p style=""color:white; font-size: 35px;"">拙笨</p>","e","categorize-html","119","263613","0.0-6.0-0.0-8.0-1.5","3","3","3","3","2","3","3","3","3","3","4","3","2","3","4","4","4","2","4","4","4","4","4","4","3","4","2","4","1","1","0","1","1","0","0","1","1","0","1","1","0","1","0","1","4","4","4","2","2","4","4","4","4","2","742006860881858562","刘","","","","","","","","","","","","","","","","","","","true","4","4","ability","517","negative","拙笨","","","","","","","","","","","","","","",""
"null","","null","html-keyboard-response","120","263865","0.0-6.0-0.0-8.0-0.6","3","3","3","3","2","3","3","3","3","3","4","3","2","3","4","4","4","2","4","4","4","4","4","4","3","4","2","4","1","1","0","1","1","0","0","1","1","0","1","1","0","1","0","1","4","4","4","2","2","4","4","4","4","2","742006860881858562","刘","","","","","","","","","","","","","","","","","","","","","","","","","","","","","","","","","","","","","","","",""
"541","<p style=""color:rgb(150, 250, 100); font-size: 35px;"">他人的</p>","e","categorize-html","121","264408","0.0-6.0-0.0-8.0-1.6","3","3","3","3","2","3","3","3","3","3","4","3","2","3","4","4","4","2","4","4","4","4","4","4","3","4","2","4","1","1","0","1","1","0","0","1","1","0","1","1","0","1","0","1","4","4","4","2","2","4","4","4","4","2","742006860881858562","刘","","","","","","","","","","","","","","","","","","","true","4","4","ability","541","other","他人的","","","","","","","","","","","","","","",""
"null","","null","html-keyboard-response","122","264659","0.0-6.0-0.0-8.0-0.7","3","3","3","3","2","3","3","3","3","3","4","3","2","3","4","4","4","2","4","4","4","4","4","4","3","4","2","4","1","1","0","1","1","0","0","1","1","0","1","1","0","1","0","1","4","4","4","2","2","4","4","4","4","2","742006860881858562","刘","","","","","","","","","","","","","","","","","","","","","","","","","","","","","","","","","","","","","","","",""
"568","<p style=""color:white; font-size: 35px;"">能干</p>","i","categorize-html","123","265229","0.0-6.0-0.0-8.0-1.7","3","3","3","3","2","3","3","3","3","3","4","3","2","3","4","4","4","2","4","4","4","4","4","4","3","4","2","4","1","1","0","1","1","0","0","1","1","0","1","1","0","1","0","1","4","4","4","2","2","4","4","4","4","2","742006860881858562","刘","","","","","","","","","","","","","","","","","","","true","4","4","ability","568","positive","能干","","","","","","","","","","","","","","",""
"null","","null","html-keyboard-response","124","265482","0.0-6.0-0.0-8.0-0.8","3","3","3","3","2","3","3","3","3","3","4","3","2","3","4","4","4","2","4","4","4","4","4","4","3","4","2","4","1","1","0","1","1","0","0","1","1","0","1","1","0","1","0","1","4","4","4","2","2","4","4","4","4","2","742006860881858562","刘","","","","","","","","","","","","","","","","","","","","","","","","","","","","","","","","","","","","","","","",""
"560","<p style=""color:rgb(150, 250, 100); font-size: 35px;"">我</p>","i","categorize-html","125","266044","0.0-6.0-0.0-8.0-1.8","3","3","3","3","2","3","3","3","3","3","4","3","2","3","4","4","4","2","4","4","4","4","4","4","3","4","2","4","1","1","0","1","1","0","0","1","1","0","1","1","0","1","0","1","4","4","4","2","2","4","4","4","4","2","742006860881858562","刘","","","","","","","","","","","","","","","","","","","true","4","4","ability","560","self","我","","","","","","","","","","","","","","",""
"null","","null","html-keyboard-response","126","266295","0.0-6.0-0.0-8.0-0.9","3","3","3","3","2","3","3","3","3","3","4","3","2","3","4","4","4","2","4","4","4","4","4","4","3","4","2","4","1","1","0","1","1","0","0","1","1","0","1","1","0","1","0","1","4","4","4","2","2","4","4","4","4","2","742006860881858562","刘","","","","","","","","","","","","","","","","","","","","","","","","","","","","","","","","","","","","","","","",""
"748","<p style=""color:white; font-size: 35px;"">低能</p>","e","categorize-html","127","267044","0.0-6.0-0.0-8.0-1.9","3","3","3","3","2","3","3","3","3","3","4","3","2","3","4","4","4","2","4","4","4","4","4","4","3","4","2","4","1","1","0","1","1","0","0","1","1","0","1","1","0","1","0","1","4","4","4","2","2","4","4","4","4","2","742006860881858562","刘","","","","","","","","","","","","","","","","","","","true","4","4","ability","748","negative","低能","","","","","","","","","","","","","","",""
"null","","null","html-keyboard-response","128","267296","0.0-6.0-0.0-8.0-0.10","3","3","3","3","2","3","3","3","3","3","4","3","2","3","4","4","4","2","4","4","4","4","4","4","3","4","2","4","1","1","0","1","1","0","0","1","1","0","1","1","0","1","0","1","4","4","4","2","2","4","4","4","4","2","742006860881858562","刘","","","","","","","","","","","","","","","","","","","","","","","","","","","","","","","","","","","","","","","",""
"517","<p style=""color:rgb(150, 250, 100); font-size: 35px;"">别人</p>","e","categorize-html","129","267814","0.0-6.0-0.0-8.0-1.10","3","3","3","3","2","3","3","3","3","3","4","3","2","3","4","4","4","2","4","4","4","4","4","4","3","4","2","4","1","1","0","1","1","0","0","1","1","0","1","1","0","1","0","1","4","4","4","2","2","4","4","4","4","2","742006860881858562","刘","","","","","","","","","","","","","","","","","","","true","4","4","ability","517","other","别人","","","","","","","","","","","","","","",""
"null","","null","html-keyboard-response","130","268066","0.0-6.0-0.0-8.0-0.11","3","3","3","3","2","3","3","3","3","3","4","3","2","3","4","4","4","2","4","4","4","4","4","4","3","4","2","4","1","1","0","1","1","0","0","1","1","0","1","1","0","1","0","1","4","4","4","2","2","4","4","4","4","2","742006860881858562","刘","","","","","","","","","","","","","","","","","","","","","","","","","","","","","","","","","","","","","","","",""
"622","<p style=""color:white; font-size: 35px;"">天才</p>","i","categorize-html","131","268689","0.0-6.0-0.0-8.0-1.11","3","3","3","3","2","3","3","3","3","3","4","3","2","3","4","4","4","2","4","4","4","4","4","4","3","4","2","4","1","1","0","1","1","0","0","1","1","0","1","1","0","1","0","1","4","4","4","2","2","4","4","4","4","2","742006860881858562","刘","","","","","","","","","","","","","","","","","","","true","4","4","ability","622","positive","天才","","","","","","","","","","","","","","",""
"null","","null","html-keyboard-response","132","268940","0.0-6.0-0.0-8.0-0.12","3","3","3","3","2","3","3","3","3","3","4","3","2","3","4","4","4","2","4","4","4","4","4","4","3","4","2","4","1","1","0","1","1","0","0","1","1","0","1","1","0","1","0","1","4","4","4","2","2","4","4","4","4","2","742006860881858562","刘","","","","","","","","","","","","","","","","","","","","","","","","","","","","","","","","","","","","","","","",""
"687","<p style=""color:rgb(150, 250, 100); font-size: 35px;"">别人</p>","e","categorize-html","133","269628","0.0-6.0-0.0-8.0-1.12","3","3","3","3","2","3","3","3","3","3","4","3","2","3","4","4","4","2","4","4","4","4","4","4","3","4","2","4","1","1","0","1","1","0","0","1","1","0","1","1","0","1","0","1","4","4","4","2","2","4","4","4","4","2","742006860881858562","刘","","","","","","","","","","","","","","","","","","","true","4","4","ability","687","other","别人","","","","","","","","","","","","","","",""
"null","","null","html-keyboard-response","134","269881","0.0-6.0-0.0-8.0-0.13","3","3","3","3","2","3","3","3","3","3","4","3","2","3","4","4","4","2","4","4","4","4","4","4","3","4","2","4","1","1","0","1","1","0","0","1","1","0","1","1","0","1","0","1","4","4","4","2","2","4","4","4","4","2","742006860881858562","刘","","","","","","","","","","","","","","","","","","","","","","","","","","","","","","","","","","","","","","","",""
"886","<p style=""color:white; font-size: 35px;"">无能</p>","e","categorize-html","135","270773","0.0-6.0-0.0-8.0-1.13","3","3","3","3","2","3","3","3","3","3","4","3","2","3","4","4","4","2","4","4","4","4","4","4","3","4","2","4","1","1","0","1","1","0","0","1","1","0","1","1","0","1","0","1","4","4","4","2","2","4","4","4","4","2","742006860881858562","刘","","","","","","","","","","","","","","","","","","","true","4","4","ability","886","negative","无能","","","","","","","","","","","","","","",""
"null","","null","html-keyboard-response","136","271037","0.0-6.0-0.0-8.0-0.14","3","3","3","3","2","3","3","3","3","3","4","3","2","3","4","4","4","2","4","4","4","4","4","4","3","4","2","4","1","1","0","1","1","0","0","1","1","0","1","1","0","1","0","1","4","4","4","2","2","4","4","4","4","2","742006860881858562","刘","","","","","","","","","","","","","","","","","","","","","","","","","","","","","","","","","","","","","","","",""
"556","<p style=""color:rgb(150, 250, 100); font-size: 35px;"">我</p>","i","categorize-html","137","271594","0.0-6.0-0.0-8.0-1.14","3","3","3","3","2","3","3","3","3","3","4","3","2","3","4","4","4","2","4","4","4","4","4","4","3","4","2","4","1","1","0","1","1","0","0","1","1","0","1","1","0","1","0","1","4","4","4","2","2","4","4","4","4","2","742006860881858562","刘","","","","","","","","","","","","","","","","","","","true","4","4","ability","556","self","我","","","","","","","","","","","","","","",""
"null","","null","html-keyboard-response","138","271846","0.0-6.0-0.0-8.0-0.15","3","3","3","3","2","3","3","3","3","3","4","3","2","3","4","4","4","2","4","4","4","4","4","4","3","4","2","4","1","1","0","1","1","0","0","1","1","0","1","1","0","1","0","1","4","4","4","2","2","4","4","4","4","2","742006860881858562","刘","","","","","","","","","","","","","","","","","","","","","","","","","","","","","","","","","","","","","","","",""
"956","<p style=""color:white; font-size: 35px;"">高效</p>","i","categorize-html","139","272803","0.0-6.0-0.0-8.0-1.15","3","3","3","3","2","3","3","3","3","3","4","3","2","3","4","4","4","2","4","4","4","4","4","4","3","4","2","4","1","1","0","1","1","0","0","1","1","0","1","1","0","1","0","1","4","4","4","2","2","4","4","4","4","2","742006860881858562","刘","","","","","","","","","","","","","","","","","","","true","4","4","ability","956","positive","高效","","","","","","","","","","","","","","",""
"null","","null","html-keyboard-response","140","273054","0.0-6.0-0.0-8.0-0.16","3","3","3","3","2","3","3","3","3","3","4","3","2","3","4","4","4","2","4","4","4","4","4","4","3","4","2","4","1","1","0","1","1","0","0","1","1","0","1","1","0","1","0","1","4","4","4","2","2","4","4","4","4","2","742006860881858562","刘","","","","","","","","","","","","","","","","","","","","","","","","","","","","","","","","","","","","","","","",""
"931","<p style=""color:rgb(150, 250, 100); font-size: 35px;"">他的</p>","e","categorize-html","141","273988","0.0-6.0-0.0-8.0-1.16","3","3","3","3","2","3","3","3","3","3","4","3","2","3","4","4","4","2","4","4","4","4","4","4","3","4","2","4","1","1","0","1","1","0","0","1","1","0","1","1","0","1","0","1","4","4","4","2","2","4","4","4","4","2","742006860881858562","刘","","","","","","","","","","","","","","","","","","","true","4","4","ability","931","other","他的","","","","","","","","","","","","","","",""
"null","","null","html-keyboard-response","142","274239","0.0-6.0-0.0-8.0-0.17","3","3","3","3","2","3","3","3","3","3","4","3","2","3","4","4","4","2","4","4","4","4","4","4","3","4","2","4","1","1","0","1","1","0","0","1","1","0","1","1","0","1","0","1","4","4","4","2","2","4","4","4","4","2","742006860881858562","刘","","","","","","","","","","","","","","","","","","","","","","","","","","","","","","","","","","","","","","","",""
"514","<p style=""color:white; font-size: 35px;"">精干</p>","i","categorize-html","143","274755","0.0-6.0-0.0-8.0-1.17","3","3","3","3","2","3","3","3","3","3","4","3","2","3","4","4","4","2","4","4","4","4","4","4","3","4","2","4","1","1","0","1","1","0","0","1","1","0","1","1","0","1","0","1","4","4","4","2","2","4","4","4","4","2","742006860881858562","刘","","","","","","","","","","","","","","","","","","","true","4","4","ability","514","positive","精干","","","","","","","","","","","","","","",""
"null","","null","html-keyboard-response","144","275007","0.0-6.0-0.0-8.0-0.18","3","3","3","3","2","3","3","3","3","3","4","3","2","3","4","4","4","2","4","4","4","4","4","4","3","4","2","4","1","1","0","1","1","0","0","1","1","0","1","1","0","1","0","1","4","4","4","2","2","4","4","4","4","2","742006860881858562","刘","","","","","","","","","","","","","","","","","","","","","","","","","","","","","","","","","","","","","","","",""
"840","<p style=""color:rgb(150, 250, 100); font-size: 35px;"">自己</p>","i","categorize-html","145","275849","0.0-6.0-0.0-8.0-1.18","3","3","3","3","2","3","3","3","3","3","4","3","2","3","4","4","4","2","4","4","4","4","4","4","3","4","2","4","1","1","0","1","1","0","0","1","1","0","1","1","0","1","0","1","4","4","4","2","2","4","4","4","4","2","742006860881858562","刘","","","","","","","","","","","","","","","","","","","true","4","4","ability","840","self","自己","","","","","","","","","","","","","","",""
"null","","null","html-keyboard-response","146","276101","0.0-6.0-0.0-8.0-0.19","3","3","3","3","2","3","3","3","3","3","4","3","2","3","4","4","4","2","4","4","4","4","4","4","3","4","2","4","1","1","0","1","1","0","0","1","1","0","1","1","0","1","0","1","4","4","4","2","2","4","4","4","4","2","742006860881858562","刘","","","","","","","","","","","","","","","","","","","","","","","","","","","","","","","","","","","","","","","",""
"1241","<p style=""color:white; font-size: 35px;"">愚钝</p>","e","categorize-html","147","277343","0.0-6.0-0.0-8.0-1.19","3","3","3","3","2","3","3","3","3","3","4","3","2","3","4","4","4","2","4","4","4","4","4","4","3","4","2","4","1","1","0","1","1","0","0","1","1","0","1","1","0","1","0","1","4","4","4","2","2","4","4","4","4","2","742006860881858562","刘","","","","","","","","","","","","","","","","","","","true","4","4","ability","1241","negative","愚钝","","","","","","","","","","","","","","",""
"null","","null","html-keyboard-response","148","277595","0.0-6.0-0.0-8.0-0.20","3","3","3","3","2","3","3","3","3","3","4","3","2","3","4","4","4","2","4","4","4","4","4","4","3","4","2","4","1","1","0","1","1","0","0","1","1","0","1","1","0","1","0","1","4","4","4","2","2","4","4","4","4","2","742006860881858562","刘","","","","","","","","","","","","","","","","","","","","","","","","","","","","","","","","","","","","","","","",""
"572","<p style=""color:rgb(150, 250, 100); font-size: 35px;"">我的</p>","i","categorize-html","149","278168","0.0-6.0-0.0-8.0-1.20","3","3","3","3","2","3","3","3","3","3","4","3","2","3","4","4","4","2","4","4","4","4","4","4","3","4","2","4","1","1","0","1","1","0","0","1","1","0","1","1","0","1","0","1","4","4","4","2","2","4","4","4","4","2","742006860881858562","刘","","","","","","","","","","","","","","","","","","","true","4","4","ability","572","self","我的","","","","","","","","","","","","","","",""
"null","","null","html-keyboard-response","150","278420","0.0-6.0-0.0-8.0-0.21","3","3","3","3","2","3","3","3","3","3","4","3","2","3","4","4","4","2","4","4","4","4","4","4","3","4","2","4","1","1","0","1","1","0","0","1","1","0","1","1","0","1","0","1","4","4","4","2","2","4","4","4","4","2","742006860881858562","刘","","","","","","","","","","","","","","","","","","","","","","","","","","","","","","","","","","","","","","","",""
"621","<p style=""color:white; font-size: 35px;"">全能</p>","i","categorize-html","151","279042","0.0-6.0-0.0-8.0-1.21","3","3","3","3","2","3","3","3","3","3","4","3","2","3","4","4","4","2","4","4","4","4","4","4","3","4","2","4","1","1","0","1","1","0","0","1","1","0","1","1","0","1","0","1","4","4","4","2","2","4","4","4","4","2","742006860881858562","刘","","","","","","","","","","","","","","","","","","","true","4","4","ability","621","positive","全能","","","","","","","","","","","","","","",""
"null","","null","html-keyboard-response","152","279294","0.0-6.0-0.0-8.0-0.22","3","3","3","3","2","3","3","3","3","3","4","3","2","3","4","4","4","2","4","4","4","4","4","4","3","4","2","4","1","1","0","1","1","0","0","1","1","0","1","1","0","1","0","1","4","4","4","2","2","4","4","4","4","2","742006860881858562","刘","","","","","","","","","","","","","","","","","","","","","","","","","","","","","","","","","","","","","","","",""
"554","<p style=""color:rgb(150, 250, 100); font-size: 35px;"">他</p>","e","categorize-html","153","279849","0.0-6.0-0.0-8.0-1.22","3","3","3","3","2","3","3","3","3","3","4","3","2","3","4","4","4","2","4","4","4","4","4","4","3","4","2","4","1","1","0","1","1","0","0","1","1","0","1","1","0","1","0","1","4","4","4","2","2","4","4","4","4","2","742006860881858562","刘","","","","","","","","","","","","","","","","","","","true","4","4","ability","554","other","他","","","","","","","","","","","","","","",""
"null","","null","html-keyboard-response","154","280099","0.0-6.0-0.0-8.0-0.23","3","3","3","3","2","3","3","3","3","3","4","3","2","3","4","4","4","2","4","4","4","4","4","4","3","4","2","4","1","1","0","1","1","0","0","1","1","0","1","1","0","1","0","1","4","4","4","2","2","4","4","4","4","2","742006860881858562","刘","","","","","","","","","","","","","","","","","","","","","","","","","","","","","","","","","","","","","","","",""
"1056","<p style=""color:white; font-size: 35px;"">无能</p>","e","categorize-html","155","281160","0.0-6.0-0.0-8.0-1.23","3","3","3","3","2","3","3","3","3","3","4","3","2","3","4","4","4","2","4","4","4","4","4","4","3","4","2","4","1","1","0","1","1","0","0","1","1","0","1","1","0","1","0","1","4","4","4","2","2","4","4","4","4","2","742006860881858562","刘","","","","","","","","","","","","","","","","","","","true","4","4","ability","1056","negative","无能","","","","","","","","","","","","","","",""
"null","","null","html-keyboard-response","156","281411","0.0-6.0-0.0-8.0-0.24","3","3","3","3","2","3","3","3","3","3","4","3","2","3","4","4","4","2","4","4","4","4","4","4","3","4","2","4","1","1","0","1","1","0","0","1","1","0","1","1","0","1","0","1","4","4","4","2","2","4","4","4","4","2","742006860881858562","刘","","","","","","","","","","","","","","","","","","","","","","","","","","","","","","","","","","","","","","","",""
"508","<p style=""color:rgb(150, 250, 100); font-size: 35px;"">他人的</p>","e","categorize-html","157","281924","0.0-6.0-0.0-8.0-1.24","3","3","3","3","2","3","3","3","3","3","4","3","2","3","4","4","4","2","4","4","4","4","4","4","3","4","2","4","1","1","0","1","1","0","0","1","1","0","1","1","0","1","0","1","4","4","4","2","2","4","4","4","4","2","742006860881858562","刘","","","","","","","","","","","","","","","","","","","true","4","4","ability","508","other","他人的","","","","","","","","","","","","","","",""
"null","","null","html-keyboard-response","158","282176","0.0-6.0-0.0-8.0-0.25","3","3","3","3","2","3","3","3","3","3","4","3","2","3","4","4","4","2","4","4","4","4","4","4","3","4","2","4","1","1","0","1","1","0","0","1","1","0","1","1","0","1","0","1","4","4","4","2","2","4","4","4","4","2","742006860881858562","刘","","","","","","","","","","","","","","","","","","","","","","","","","","","","","","","","","","","","","","","",""
"541","<p style=""color:white; font-size: 35px;"">高效</p>","i","categorize-html","159","282718","0.0-6.0-0.0-8.0-1.25","3","3","3","3","2","3","3","3","3","3","4","3","2","3","4","4","4","2","4","4","4","4","4","4","3","4","2","4","1","1","0","1","1","0","0","1","1","0","1","1","0","1","0","1","4","4","4","2","2","4","4","4","4","2","742006860881858562","刘","","","","","","","","","","","","","","","","","","","true","4","4","ability","541","positive","高效","","","","","","","","","","","","","","",""
"null","","null","html-keyboard-response","160","282970","0.0-6.0-0.0-8.0-0.26","3","3","3","3","2","3","3","3","3","3","4","3","2","3","4","4","4","2","4","4","4","4","4","4","3","4","2","4","1","1","0","1","1","0","0","1","1","0","1","1","0","1","0","1","4","4","4","2","2","4","4","4","4","2","742006860881858562","刘","","","","","","","","","","","","","","","","","","","","","","","","","","","","","","","","","","","","","","","",""
"838","<p style=""color:rgb(150, 250, 100); font-size: 35px;"">自己的</p>","i","categorize-html","161","283809","0.0-6.0-0.0-8.0-1.26","3","3","3","3","2","3","3","3","3","3","4","3","2","3","4","4","4","2","4","4","4","4","4","4","3","4","2","4","1","1","0","1","1","0","0","1","1","0","1","1","0","1","0","1","4","4","4","2","2","4","4","4","4","2","742006860881858562","刘","","","","","","","","","","","","","","","","","","","true","4","4","ability","838","self","自己的","","","","","","","","","","","","","","",""
"null","","null","html-keyboard-response","162","284060","0.0-6.0-0.0-8.0-0.27","3","3","3","3","2","3","3","3","3","3","4","3","2","3","4","4","4","2","4","4","4","4","4","4","3","4","2","4","1","1","0","1","1","0","0","1","1","0","1","1","0","1","0","1","4","4","4","2","2","4","4","4","4","2","742006860881858562","刘","","","","","","","","","","","","","","","","","","","","","","","","","","","","","","","","","","","","","","","",""
"563","<p style=""color:white; font-size: 35px;"">愚钝</p>","e","categorize-html","163","284627","0.0-6.0-0.0-8.0-1.27","3","3","3","3","2","3","3","3","3","3","4","3","2","3","4","4","4","2","4","4","4","4","4","4","3","4","2","4","1","1","0","1","1","0","0","1","1","0","1","1","0","1","0","1","4","4","4","2","2","4","4","4","4","2","742006860881858562","刘","","","","","","","","","","","","","","","","","","","true","4","4","ability","563","negative","愚钝","","","","","","","","","","","","","","",""
"null","","null","html-keyboard-response","164","284878","0.0-6.0-0.0-8.0-0.28","3","3","3","3","2","3","3","3","3","3","4","3","2","3","4","4","4","2","4","4","4","4","4","4","3","4","2","4","1","1","0","1","1","0","0","1","1","0","1","1","0","1","0","1","4","4","4","2","2","4","4","4","4","2","742006860881858562","刘","","","","","","","","","","","","","","","","","","","","","","","","","","","","","","","","","","","","","","","",""
"599","<p style=""color:rgb(150, 250, 100); font-size: 35px;"">本人的</p>","i","categorize-html","165","285479","0.0-6.0-0.0-8.0-1.28","3","3","3","3","2","3","3","3","3","3","4","3","2","3","4","4","4","2","4","4","4","4","4","4","3","4","2","4","1","1","0","1","1","0","0","1","1","0","1","1","0","1","0","1","4","4","4","2","2","4","4","4","4","2","742006860881858562","刘","","","","","","","","","","","","","","","","","","","true","4","4","ability","599","self","本人的","","","","","","","","","","","","","","",""
"null","","null","html-keyboard-response","166","285730","0.0-6.0-0.0-8.0-0.29","3","3","3","3","2","3","3","3","3","3","4","3","2","3","4","4","4","2","4","4","4","4","4","4","3","4","2","4","1","1","0","1","1","0","0","1","1","0","1","1","0","1","0","1","4","4","4","2","2","4","4","4","4","2","742006860881858562","刘","","","","","","","","","","","","","","","","","","","","","","","","","","","","","","","","","","","","","","","",""
"527","<p style=""color:white; font-size: 35px;"">蠢笨</p>","e","categorize-html","167","286258","0.0-6.0-0.0-8.0-1.29","3","3","3","3","2","3","3","3","3","3","4","3","2","3","4","4","4","2","4","4","4","4","4","4","3","4","2","4","1","1","0","1","1","0","0","1","1","0","1","1","0","1","0","1","4","4","4","2","2","4","4","4","4","2","742006860881858562","刘","","","","","","","","","","","","","","","","","","","true","4","4","ability","527","negative","蠢笨","","","","","","","","","","","","","","",""
"null","","null","html-keyboard-response","168","286510","0.0-6.0-0.0-8.0-0.30","3","3","3","3","2","3","3","3","3","3","4","3","2","3","4","4","4","2","4","4","4","4","4","4","3","4","2","4","1","1","0","1","1","0","0","1","1","0","1","1","0","1","0","1","4","4","4","2","2","4","4","4","4","2","742006860881858562","刘","","","","","","","","","","","","","","","","","","","","","","","","","","","","","","","","","","","","","","","",""
"783","<p style=""color:rgb(150, 250, 100); font-size: 35px;"">别人的</p>","e","categorize-html","169","287296","0.0-6.0-0.0-8.0-1.30","3","3","3","3","2","3","3","3","3","3","4","3","2","3","4","4","4","2","4","4","4","4","4","4","3","4","2","4","1","1","0","1","1","0","0","1","1","0","1","1","0","1","0","1","4","4","4","2","2","4","4","4","4","2","742006860881858562","刘","","","","","","","","","","","","","","","","","","","true","4","4","ability","783","other","别人的","","","","","","","","","","","","","","",""
"null","","null","html-keyboard-response","170","287548","0.0-6.0-0.0-8.0-0.31","3","3","3","3","2","3","3","3","3","3","4","3","2","3","4","4","4","2","4","4","4","4","4","4","3","4","2","4","1","1","0","1","1","0","0","1","1","0","1","1","0","1","0","1","4","4","4","2","2","4","4","4","4","2","742006860881858562","刘","","","","","","","","","","","","","","","","","","","","","","","","","","","","","","","","","","","","","","","",""
"546","<p style=""color:white; font-size: 35px;"">全才</p>","i","categorize-html","171","288096","0.0-6.0-0.0-8.0-1.31","3","3","3","3","2","3","3","3","3","3","4","3","2","3","4","4","4","2","4","4","4","4","4","4","3","4","2","4","1","1","0","1","1","0","0","1","1","0","1","1","0","1","0","1","4","4","4","2","2","4","4","4","4","2","742006860881858562","刘","","","","","","","","","","","","","","","","","","","true","4","4","ability","546","positive","全才","","","","","","","","","","","","","","",""
"null","","null","html-keyboard-response","172","288347","0.0-6.0-0.0-8.0-0.32","3","3","3","3","2","3","3","3","3","3","4","3","2","3","4","4","4","2","4","4","4","4","4","4","3","4","2","4","1","1","0","1","1","0","0","1","1","0","1","1","0","1","0","1","4","4","4","2","2","4","4","4","4","2","742006860881858562","刘","","","","","","","","","","","","","","","","","","","","","","","","","","","","","","","","","","","","","","","",""
"889","<p style=""color:rgb(150, 250, 100); font-size: 35px;"">别人的</p>","e","categorize-html","173","289237","0.0-6.0-0.0-8.0-1.32","3","3","3","3","2","3","3","3","3","3","4","3","2","3","4","4","4","2","4","4","4","4","4","4","3","4","2","4","1","1","0","1","1","0","0","1","1","0","1","1","0","1","0","1","4","4","4","2","2","4","4","4","4","2","742006860881858562","刘","","","","","","","","","","","","","","","","","","","true","4","4","ability","889","other","别人的","","","","","","","","","","","","","","",""
"null","","null","html-keyboard-response","174","289490","0.0-6.0-0.0-8.0-0.33","3","3","3","3","2","3","3","3","3","3","4","3","2","3","4","4","4","2","4","4","4","4","4","4","3","4","2","4","1","1","0","1","1","0","0","1","1","0","1","1","0","1","0","1","4","4","4","2","2","4","4","4","4","2","742006860881858562","刘","","","","","","","","","","","","","","","","","","","","","","","","","","","","","","","","","","","","","","","",""
"618","<p style=""color:white; font-size: 35px;"">能干</p>","i","categorize-html","175","290109","0.0-6.0-0.0-8.0-1.33","3","3","3","3","2","3","3","3","3","3","4","3","2","3","4","4","4","2","4","4","4","4","4","4","3","4","2","4","1","1","0","1","1","0","0","1","1","0","1","1","0","1","0","1","4","4","4","2","2","4","4","4","4","2","742006860881858562","刘","","","","","","","","","","","","","","","","","","","true","4","4","ability","618","positive","能干","","","","","","","","","","","","","","",""
"null","","null","html-keyboard-response","176","290362","0.0-6.0-0.0-8.0-0.34","3","3","3","3","2","3","3","3","3","3","4","3","2","3","4","4","4","2","4","4","4","4","4","4","3","4","2","4","1","1","0","1","1","0","0","1","1","0","1","1","0","1","0","1","4","4","4","2","2","4","4","4","4","2","742006860881858562","刘","","","","","","","","","","","","","","","","","","","","","","","","","","","","","","","","","","","","","","","",""
"671","<p style=""color:rgb(150, 250, 100); font-size: 35px;"">自己</p>","i","categorize-html","177","291033","0.0-6.0-0.0-8.0-1.34","3","3","3","3","2","3","3","3","3","3","4","3","2","3","4","4","4","2","4","4","4","4","4","4","3","4","2","4","1","1","0","1","1","0","0","1","1","0","1","1","0","1","0","1","4","4","4","2","2","4","4","4","4","2","742006860881858562","刘","","","","","","","","","","","","","","","","","","","true","4","4","ability","671","self","自己","","","","","","","","","","","","","","",""
"null","","null","html-keyboard-response","178","291285","0.0-6.0-0.0-8.0-0.35","3","3","3","3","2","3","3","3","3","3","4","3","2","3","4","4","4","2","4","4","4","4","4","4","3","4","2","4","1","1","0","1","1","0","0","1","1","0","1","1","0","1","0","1","4","4","4","2","2","4","4","4","4","2","742006860881858562","刘","","","","","","","","","","","","","","","","","","","","","","","","","","","","","","","","","","","","","","","",""
"502","<p style=""color:white; font-size: 35px;"">拙笨</p>","e","categorize-html","179","291789","0.0-6.0-0.0-8.0-1.35","3","3","3","3","2","3","3","3","3","3","4","3","2","3","4","4","4","2","4","4","4","4","4","4","3","4","2","4","1","1","0","1","1","0","0","1","1","0","1","1","0","1","0","1","4","4","4","2","2","4","4","4","4","2","742006860881858562","刘","","","","","","","","","","","","","","","","","","","true","4","4","ability","502","negative","拙笨","","","","","","","","","","","","","","",""
"null","","null","html-keyboard-response","180","292040","0.0-6.0-0.0-8.0-0.36","3","3","3","3","2","3","3","3","3","3","4","3","2","3","4","4","4","2","4","4","4","4","4","4","3","4","2","4","1","1","0","1","1","0","0","1","1","0","1","1","0","1","0","1","4","4","4","2","2","4","4","4","4","2","742006860881858562","刘","","","","","","","","","","","","","","","","","","","","","","","","","","","","","","","","","","","","","","","",""
"778","<p style=""color:rgb(150, 250, 100); font-size: 35px;"">他人</p>","e","categorize-html","181","292820","0.0-6.0-0.0-8.0-1.36","3","3","3","3","2","3","3","3","3","3","4","3","2","3","4","4","4","2","4","4","4","4","4","4","3","4","2","4","1","1","0","1","1","0","0","1","1","0","1","1","0","1","0","1","4","4","4","2","2","4","4","4","4","2","742006860881858562","刘","","","","","","","","","","","","","","","","","","","true","4","4","ability","778","other","他人","","","","","","","","","","","","","","",""
"null","","null","html-keyboard-response","182","293071","0.0-6.0-0.0-8.0-0.37","3","3","3","3","2","3","3","3","3","3","4","3","2","3","4","4","4","2","4","4","4","4","4","4","3","4","2","4","1","1","0","1","1","0","0","1","1","0","1","1","0","1","0","1","4","4","4","2","2","4","4","4","4","2","742006860881858562","刘","","","","","","","","","","","","","","","","","","","","","","","","","","","","","","","","","","","","","","","",""
"1048","<p style=""color:white; font-size: 35px;"">全能</p>","i","categorize-html","183","294122","0.0-6.0-0.0-8.0-1.37","3","3","3","3","2","3","3","3","3","3","4","3","2","3","4","4","4","2","4","4","4","4","4","4","3","4","2","4","1","1","0","1","1","0","0","1","1","0","1","1","0","1","0","1","4","4","4","2","2","4","4","4","4","2","742006860881858562","刘","","","","","","","","","","","","","","","","","","","true","4","4","ability","1048","positive","全能","","","","","","","","","","","","","","",""
"null","","null","html-keyboard-response","184","294373","0.0-6.0-0.0-8.0-0.38","3","3","3","3","2","3","3","3","3","3","4","3","2","3","4","4","4","2","4","4","4","4","4","4","3","4","2","4","1","1","0","1","1","0","0","1","1","0","1","1","0","1","0","1","4","4","4","2","2","4","4","4","4","2","742006860881858562","刘","","","","","","","","","","","","","","","","","","","","","","","","","","","","","","","","","","","","","","","",""
"627","<p style=""color:rgb(150, 250, 100); font-size: 35px;"">本人</p>","i","categorize-html","185","295001","0.0-6.0-0.0-8.0-1.38","3","3","3","3","2","3","3","3","3","3","4","3","2","3","4","4","4","2","4","4","4","4","4","4","3","4","2","4","1","1","0","1","1","0","0","1","1","0","1","1","0","1","0","1","4","4","4","2","2","4","4","4","4","2","742006860881858562","刘","","","","","","","","","","","","","","","","","","","true","4","4","ability","627","self","本人","","","","","","","","","","","","","","",""
"null","","null","html-keyboard-response","186","295252","0.0-6.0-0.0-8.0-0.39","3","3","3","3","2","3","3","3","3","3","4","3","2","3","4","4","4","2","4","4","4","4","4","4","3","4","2","4","1","1","0","1","1","0","0","1","1","0","1","1","0","1","0","1","4","4","4","2","2","4","4","4","4","2","742006860881858562","刘","","","","","","","","","","","","","","","","","","","","","","","","","","","","","","","","","","","","","","","",""
"1355","<p style=""color:white; font-size: 35px;"">低能</p>","e","categorize-html","187","296609","0.0-6.0-0.0-8.0-1.39","3","3","3","3","2","3","3","3","3","3","4","3","2","3","4","4","4","2","4","4","4","4","4","4","3","4","2","4","1","1","0","1","1","0","0","1","1","0","1","1","0","1","0","1","4","4","4","2","2","4","4","4","4","2","742006860881858562","刘","","","","","","","","","","","","","","","","","","","true","4","4","ability","1355","negative","低能","","","","","","","","","","","","","","",""
"null","","null","html-keyboard-response","188","296860","0.0-6.0-0.0-8.0-0.40","3","3","3","3","2","3","3","3","3","3","4","3","2","3","4","4","4","2","4","4","4","4","4","4","3","4","2","4","1","1","0","1","1","0","0","1","1","0","1","1","0","1","0","1","4","4","4","2","2","4","4","4","4","2","742006860881858562","刘","","","","","","","","","","","","","","","","","","","","","","","","","","","","","","","","","","","","","","","",""
"633","<p style=""color:rgb(150, 250, 100); font-size: 35px;"">他</p>","e","categorize-html","189","297497","0.0-6.0-0.0-8.0-1.40","3","3","3","3","2","3","3","3","3","3","4","3","2","3","4","4","4","2","4","4","4","4","4","4","3","4","2","4","1","1","0","1","1","0","0","1","1","0","1","1","0","1","0","1","4","4","4","2","2","4","4","4","4","2","742006860881858562","刘","","","","","","","","","","","","","","","","","","","true","4","4","ability","633","other","他","","","","","","","","","","","","","","",""
"null","","null","html-keyboard-response","190","297751","0.0-6.0-0.0-8.0-0.41","3","3","3","3","2","3","3","3","3","3","4","3","2","3","4","4","4","2","4","4","4","4","4","4","3","4","2","4","1","1","0","1","1","0","0","1","1","0","1","1","0","1","0","1","4","4","4","2","2","4","4","4","4","2","742006860881858562","刘","","","","","","","","","","","","","","","","","","","","","","","","","","","","","","","","","","","","","","","",""
"553","<p style=""color:white; font-size: 35px;"">全才</p>","i","categorize-html","191","298305","0.0-6.0-0.0-8.0-1.41","3","3","3","3","2","3","3","3","3","3","4","3","2","3","4","4","4","2","4","4","4","4","4","4","3","4","2","4","1","1","0","1","1","0","0","1","1","0","1","1","0","1","0","1","4","4","4","2","2","4","4","4","4","2","742006860881858562","刘","","","","","","","","","","","","","","","","","","","true","4","4","ability","553","positive","全才","","","","","","","","","","","","","","",""
"null","","null","html-keyboard-response","192","298558","0.0-6.0-0.0-8.0-0.42","3","3","3","3","2","3","3","3","3","3","4","3","2","3","4","4","4","2","4","4","4","4","4","4","3","4","2","4","1","1","0","1","1","0","0","1","1","0","1","1","0","1","0","1","4","4","4","2","2","4","4","4","4","2","742006860881858562","刘","","","","","","","","","","","","","","","","","","","","","","","","","","","","","","","","","","","","","","","",""
"594","<p style=""color:rgb(150, 250, 100); font-size: 35px;"">本人的</p>","i","categorize-html","193","299153","0.0-6.0-0.0-8.0-1.42","3","3","3","3","2","3","3","3","3","3","4","3","2","3","4","4","4","2","4","4","4","4","4","4","3","4","2","4","1","1","0","1","1","0","0","1","1","0","1","1","0","1","0","1","4","4","4","2","2","4","4","4","4","2","742006860881858562","刘","","","","","","","","","","","","","","","","","","","true","4","4","ability","594","self","本人的","","","","","","","","","","","","","","",""
"null","","null","html-keyboard-response","194","299404","0.0-6.0-0.0-8.0-0.43","3","3","3","3","2","3","3","3","3","3","4","3","2","3","4","4","4","2","4","4","4","4","4","4","3","4","2","4","1","1","0","1","1","0","0","1","1","0","1","1","0","1","0","1","4","4","4","2","2","4","4","4","4","2","742006860881858562","刘","","","","","","","","","","","","","","","","","","","","","","","","","","","","","","","","","","","","","","","",""
"773","<p style=""color:white; font-size: 35px;"">废物</p>","e","categorize-html","195","300181","0.0-6.0-0.0-8.0-1.43","3","3","3","3","2","3","3","3","3","3","4","3","2","3","4","4","4","2","4","4","4","4","4","4","3","4","2","4","1","1","0","1","1","0","0","1","1","0","1","1","0","1","0","1","4","4","4","2","2","4","4","4","4","2","742006860881858562","刘","","","","","","","","","","","","","","","","","","","true","4","4","ability","773","negative","废物","","","","","","","","","","","","","","",""
"null","","null","html-keyboard-response","196","300433","0.0-6.0-0.0-8.0-0.44","3","3","3","3","2","3","3","3","3","3","4","3","2","3","4","4","4","2","4","4","4","4","4","4","3","4","2","4","1","1","0","1","1","0","0","1","1","0","1","1","0","1","0","1","4","4","4","2","2","4","4","4","4","2","742006860881858562","刘","","","","","","","","","","","","","","","","","","","","","","","","","","","","","","","","","","","","","","","",""
"724","<p style=""color:rgb(150, 250, 100); font-size: 35px;"">本人</p>","i","categorize-html","197","301159","0.0-6.0-0.0-8.0-1.44","3","3","3","3","2","3","3","3","3","3","4","3","2","3","4","4","4","2","4","4","4","4","4","4","3","4","2","4","1","1","0","1","1","0","0","1","1","0","1","1","0","1","0","1","4","4","4","2","2","4","4","4","4","2","742006860881858562","刘","","","","","","","","","","","","","","","","","","","true","4","4","ability","724","self","本人","","","","","","","","","","","","","","",""
"null","","null","html-keyboard-response","198","301410","0.0-6.0-0.0-8.0-0.45","3","3","3","3","2","3","3","3","3","3","4","3","2","3","4","4","4","2","4","4","4","4","4","4","3","4","2","4","1","1","0","1","1","0","0","1","1","0","1","1","0","1","0","1","4","4","4","2","2","4","4","4","4","2","742006860881858562","刘","","","","","","","","","","","","","","","","","","","","","","","","","","","","","","","","","","","","","","","",""
"544","<p style=""color:white; font-size: 35px;"">蠢笨</p>","e","categorize-html","199","301956","0.0-6.0-0.0-8.0-1.45","3","3","3","3","2","3","3","3","3","3","4","3","2","3","4","4","4","2","4","4","4","4","4","4","3","4","2","4","1","1","0","1","1","0","0","1","1","0","1","1","0","1","0","1","4","4","4","2","2","4","4","4","4","2","742006860881858562","刘","","","","","","","","","","","","","","","","","","","true","4","4","ability","544","negative","蠢笨","","","","","","","","","","","","","","",""
"null","","null","html-keyboard-response","200","302208","0.0-6.0-0.0-8.0-0.46","3","3","3","3","2","3","3","3","3","3","4","3","2","3","4","4","4","2","4","4","4","4","4","4","3","4","2","4","1","1","0","1","1","0","0","1","1","0","1","1","0","1","0","1","4","4","4","2","2","4","4","4","4","2","742006860881858562","刘","","","","","","","","","","","","","","","","","","","","","","","","","","","","","","","","","","","","","","","",""
