"rt","stimulus","response","trial_type","trial_index","time_elapsed","internal_node_id","ses_1","ses_2","ses_3","ses_4","ses_5","ses_6","ses_7","ses_8","ses_9","ses_10","coreself_1","coreself_2","coreself_3","coreself_4","coreself_5","coreself_6","coreself_7","coreself_8","coreself_9","coreself_10","SGPS_1","SGPS_2","SGPS_3","SGPS_4","SGPS_5","SGPS_6","SGPS_7","SGPS_8","SGPS_9","NPI1","NPI2","NPI3","NPI4","NPI5","NPI6","NPI7","NPI8","NPI9","NPI10","NPI11","NPI12","NPI13","NPI14","NPI15","hsns_1","hsns_2","hsns_3","hsns_4","hsns_5","trap1","hsns_6","hsns_7","hsns_8","hsns_9","hsns_10","subj_idx","friend_name","ParticipantID","value","success","user_agent","responses","item_order","radio_event_ids","radio_event_times","key_event_times","mouse_event_times","straightlining","zigzagging","honeypot","timeout","failed_images","failed_audio","failed_video","version_attrib2","version_target2","correct","IAT","screen_id","task_id","RT","condition","word","varname","summary","version_attrib","version_target","time_stamp","view_history","response_type","key_press","avg_frame_time","center_x","center_y","correct_response","identity","Image","question_order","correct_answer","trap1_item"
"5520","
   <p><div style = ""color: white;font-size:25px;"">您好，欢迎参加本次实验。</div> </p>
   <p><div style = ""color: white;font-size:25px;"">为充分保障您的权利，请确保您已经知晓并同意《参与实验同意书》以及《数据公开知情同意书》。</div></p>
   <p><div style = ""color: white;font-size:25px;"">如果您未见过上述内容，请咨询实验员。</div></p>
   <p><div style = ""color: white;font-size:25px;"">如果您选择继续实验，则表示您已经清楚两份知情同意书的内容并同意。</div></p>
   <p><div style = ""color: pink;font-size:30px;"">请确保您记得day0的实验编号，您将在本次实验输入该编号，若您忘记，请咨询实验员后作答。</div></p>
   <p><div style = ""color: lightblue;font-size:25px;"">请您尽可能认真地作答，我们将依据您在各问卷和按键任务中的作答质量发放报酬。</div></p>
   <p> <div style = ""color: green;font-size:25px;""><按空格键至下页></div> </p>
   "," ","html-keyboard-response","0","5528","0.0-0.0","4","3","4","3","3","3","3","3","4","4","4","4","3","4","4","4","4","4","5","4","1","2","2","2","2","2","2","2","1","1","0","1","1","0","0","0","1","0","1","1","0","1","0","1","4","2","2","3","2","5","3","3","1","2","2","784820344564486145","王","267","","","","","","","","","","","","","","","","","","","","","","","","","","","","","","","","","","","","","","","","","",""
"","","","call-function","1","5535","0.0-1.0-0.0","4","3","4","3","3","3","3","3","4","4","4","4","3","4","4","4","4","4","5","4","1","2","2","2","2","2","2","2","1","1","0","1","1","0","0","0","1","0","1","1","0","1","0","1","4","2","2","3","2","5","3","3","1","2","2","784820344564486145","王","267","","","","","","","","","","","","","","","","","","","","","","","","","","","","","","","","","","","","","","","","","",""
"27027","","{""friend_name"":""王"",""ParticipantID"":""267""}","survey-html-form","2","32393","0.0-1.0-1.0","4","3","4","3","3","3","3","3","4","4","4","4","3","4","4","4","4","4","5","4","1","2","2","2","2","2","2","2","1","1","0","1","1","0","0","0","1","0","1","1","0","1","0","1","4","2","2","3","2","5","3","3","1","2","2","784820344564486145","王","267","","","","","","","","","","","","","","","","","","","","","","","","","","","","","","","","","","","","","","","","","",""
"","","","fullscreen","3","54493","0.0-2.0","4","3","4","3","3","3","3","3","4","4","4","4","3","4","4","4","4","4","5","4","1","2","2","2","2","2","2","2","1","1","0","1","1","0","0","0","1","0","1","1","0","1","0","1","4","2","2","3","2","5","3","3","1","2","2","784820344564486145","王","267","","true","","","","","","","","","","","","","","","","","","","","","","","","","","","","","","","","","","","","","","","",""
"39236.59499999996","","{""Q01"":""4"",""Q02"":""3"",""Q03"":""4"",""Q04"":""3"",""Q05"":""3"",""Q06"":""3"",""Q07"":""3"",""Q08"":""3"",""Q09"":""4"",""Q10"":""4""}","survey-template","4","93592","0.0-3.0","4","3","4","3","3","3","3","3","4","4","4","4","3","4","4","4","4","4","5","4","1","2","2","2","2","2","2","2","1","1","0","1","1","0","0","0","1","0","1","1","0","1","0","1","4","2","2","3","2","5","3","3","1","2","2","784820344564486145","王","267","","","","{""Q01"":""4"",""Q02"":""3"",""Q03"":""4"",""Q04"":""3"",""Q05"":""3"",""Q06"":""3"",""Q07"":""3"",""Q08"":""3"",""Q09"":""4"",""Q10"":""4""}","[0,1,2,3,4,5,6,7,8,9]","[""Q02"",""Q01"",""Q03"",""Q04"",""Q05"",""Q06"",""Q07"",""Q09"",""Q10"",""Q08""]","[22378.654999999984,23194.320000000007,25522.15999999999,26867.234999999986,28514.630000000005,29730.14,31289.649999999994,34594.240000000005,35906.12499999997,37418.545]","[]","[21866.474999999977,22378.654999999984,23194.320000000007,25522.15999999999,26867.234999999986,28514.630000000005,29730.14,31289.649999999994,33186.13499999998,34594.240000000005,35906.12499999997,37418.545,39234.08999999998]","0.4","0.5555555555555556","0","","","","","","","","","","","","","","","","","","","","","","","","","","","","","",""
"17703.17499999999","","{""Q01"":""4"",""Q02"":""4"",""Q03"":""3"",""Q04"":""4"",""Q05"":""4"",""Q06"":""4"",""Q07"":""4"",""Q08"":""4"",""Q09"":""5"",""Q10"":""4""}","survey-template","5","111311","0.0-4.0","4","3","4","3","3","3","3","3","4","4","4","4","3","4","4","4","4","4","5","4","1","2","2","2","2","2","2","2","1","1","0","1","1","0","0","0","1","0","1","1","0","1","0","1","4","2","2","3","2","5","3","3","1","2","2","784820344564486145","王","267","","","","{""Q01"":""4"",""Q02"":""4"",""Q03"":""3"",""Q04"":""4"",""Q05"":""4"",""Q06"":""4"",""Q07"":""4"",""Q08"":""4"",""Q09"":""5"",""Q10"":""4""}","[0,1,2,3,4,5,6,7,8,9]","[""Q01"",""Q02"",""Q03"",""Q04"",""Q05"",""Q06"",""Q07"",""Q08"",""Q09"",""Q10""]","[2254.874999999971,3501.4850000000006,5150.069999999963,6669.274999999965,8285.469999999972,9589.35500000001,10725.39499999999,12981.220000000001,15302.039999999979,16677.089999999953]","[]","[2254.874999999971,3501.4850000000006,5150.069999999963,6669.274999999965,8285.469999999972,9589.35500000001,10725.39499999999,12981.220000000001,15302.039999999979,16677.089999999953,17701.02499999995]","0.5","0.2222222222222222","0","","","","","","","","","","","","","","","","","","","","","","","","","","","","","",""
"","","","preload","6","111516","0.0-5.0","4","3","4","3","3","3","3","3","4","4","4","4","3","4","4","4","4","4","5","4","1","2","2","2","2","2","2","2","1","1","0","1","1","0","0","0","1","0","1","1","0","1","0","1","4","2","2","3","2","5","3","3","1","2","2","784820344564486145","王","267","","true","","","","","","","","","","","false","[]","[]","[]","","","","","","","","","","","","","","","","","","","","","","","","","",""
"23813","
    <h3>词语分类任务</h3>
    <p>在接下来的任务中，你需要对一系列词语进行分类。<p/>
    请先熟悉这些词语，这有利于你完成接下来的任务。</p>
    <table align=""center"" border=1 cellpadding=3 cellspacing=0>
    <tr> <th>类别</th> <th>词语</th> </tr>
    <tr> <td>&emsp;积极&emsp;</td> <td>&emsp;高尚、诚信、善良、君子、廉正、正直&emsp;</td> </tr>
    <tr> <td>&emsp;消极&emsp;</td> <td>&emsp;缺德、卑鄙、不孝、不仁、小人、黑心&emsp;</td> </tr>
    <tr> <td>&emsp;自我&emsp;</td> <td>&emsp;我、我的、自己、自己的、本人、本人的&emsp;</td> </tr>
    <tr> <td>&emsp;他人&emsp;</td> <td>&emsp;他、他的、别人、别人的、他人、他人的&emsp;</td> </tr>
    </table><br/>","0","html-button-response","7","135199","0.0-6.0-1.0-0.0","4","3","4","3","3","3","3","3","4","4","4","4","3","4","4","4","4","4","5","4","1","2","2","2","2","2","2","2","1","1","0","1","1","0","0","0","1","0","1","1","0","1","0","1","4","2","2","3","2","5","3","3","1","2","2","784820344564486145","王","267","","","","","","","","","","","","","","","","","2","2","","","","","","","","","","","","","","","","","","","","","","","",""
"40245","
    <div class=""tag-bottom""><p>
    —— 任务1：对“他人”词和“自我”词分类 ——<p/>
    不同词语会出现在屏幕中央，类别标签将始终显示在屏幕上方<p/>   
    <span style=""color:#FFD866""><b>请根据上方标签的提示，尽可能正确并且快速地做出按键反应</b></span><p/>
    当按键错误时屏幕中会出现<span style=""color:red""> X </span>，需要按另一个键纠正才能继续<br/><p/>
    请把双手食指分别放在键盘的“E”键和“I”键上<p/>
    按<空格键>开始
    </p></div>"," ","html-keyboard-response","8","175452","0.0-6.0-1.0-1.0","4","3","4","3","3","3","3","3","4","4","4","4","3","4","4","4","4","4","5","4","1","2","2","2","2","2","2","2","1","1","0","1","1","0","0","0","1","0","1","1","0","1","0","1","4","2","2","3","2","5","3","3","1","2","2","784820344564486145","王","267","","","","","","","","","","","","","","","","","","","","","","","","","","","","","","","","","","","","","","","","","",""
"null","","null","html-keyboard-response","9","175706","0.0-6.0-1.0-2.0-0.0","4","3","4","3","3","3","3","3","4","4","4","4","3","4","4","4","4","4","5","4","1","2","2","2","2","2","2","2","1","1","0","1","1","0","0","0","1","0","1","1","0","1","0","1","4","2","2","3","2","5","3","3","1","2","2","784820344564486145","王","267","","","","","","","","","","","","","","","","","","","","","","","","","","","","","","","","","","","","","","","","","",""
"1171","<p style=""color:rgb(150, 250, 100); font-size: 35px;"">本人</p>","i","categorize-html","10","176894","0.0-6.0-1.0-2.0-1.0","4","3","4","3","3","3","3","3","4","4","4","4","3","4","4","4","4","4","5","4","1","2","2","2","2","2","2","2","1","1","0","1","1","0","0","0","1","0","1","1","0","1","0","1","4","2","2","3","2","5","3","3","1","2","2","784820344564486145","王","267","","","","","","","","","","","","","","","","","","","true","11","1","moral","1171","self","本人","","","","","","","","","","","","","","","","",""
"null","","null","html-keyboard-response","11","177147","0.0-6.0-1.0-2.0-0.1","4","3","4","3","3","3","3","3","4","4","4","4","3","4","4","4","4","4","5","4","1","2","2","2","2","2","2","2","1","1","0","1","1","0","0","0","1","0","1","1","0","1","0","1","4","2","2","3","2","5","3","3","1","2","2","784820344564486145","王","267","","","","","","","","","","","","","","","","","","","","","","","","","","","","","","","","","","","","","","","","","",""
"910","<p style=""color:rgb(150, 250, 100); font-size: 35px;"">我的</p>","i","categorize-html","12","178064","0.0-6.0-1.0-2.0-1.1","4","3","4","3","3","3","3","3","4","4","4","4","3","4","4","4","4","4","5","4","1","2","2","2","2","2","2","2","1","1","0","1","1","0","0","0","1","0","1","1","0","1","0","1","4","2","2","3","2","5","3","3","1","2","2","784820344564486145","王","267","","","","","","","","","","","","","","","","","","","true","11","1","moral","910","self","我的","","","","","","","","","","","","","","","","",""
"null","","null","html-keyboard-response","13","178315","0.0-6.0-1.0-2.0-0.2","4","3","4","3","3","3","3","3","4","4","4","4","3","4","4","4","4","4","5","4","1","2","2","2","2","2","2","2","1","1","0","1","1","0","0","0","1","0","1","1","0","1","0","1","4","2","2","3","2","5","3","3","1","2","2","784820344564486145","王","267","","","","","","","","","","","","","","","","","","","","","","","","","","","","","","","","","","","","","","","","","",""
"787","<p style=""color:rgb(150, 250, 100); font-size: 35px;"">别人</p>","e","categorize-html","14","179107","0.0-6.0-1.0-2.0-1.2","4","3","4","3","3","3","3","3","4","4","4","4","3","4","4","4","4","4","5","4","1","2","2","2","2","2","2","2","1","1","0","1","1","0","0","0","1","0","1","1","0","1","0","1","4","2","2","3","2","5","3","3","1","2","2","784820344564486145","王","267","","","","","","","","","","","","","","","","","","","true","11","1","moral","787","other","别人","","","","","","","","","","","","","","","","",""
"null","","null","html-keyboard-response","15","179362","0.0-6.0-1.0-2.0-0.3","4","3","4","3","3","3","3","3","4","4","4","4","3","4","4","4","4","4","5","4","1","2","2","2","2","2","2","2","1","1","0","1","1","0","0","0","1","0","1","1","0","1","0","1","4","2","2","3","2","5","3","3","1","2","2","784820344564486145","王","267","","","","","","","","","","","","","","","","","","","","","","","","","","","","","","","","","","","","","","","","","",""
"659","<p style=""color:rgb(150, 250, 100); font-size: 35px;"">我</p>","i","categorize-html","16","180031","0.0-6.0-1.0-2.0-1.3","4","3","4","3","3","3","3","3","4","4","4","4","3","4","4","4","4","4","5","4","1","2","2","2","2","2","2","2","1","1","0","1","1","0","0","0","1","0","1","1","0","1","0","1","4","2","2","3","2","5","3","3","1","2","2","784820344564486145","王","267","","","","","","","","","","","","","","","","","","","true","11","1","moral","659","self","我","","","","","","","","","","","","","","","","",""
"null","","null","html-keyboard-response","17","180284","0.0-6.0-1.0-2.0-0.4","4","3","4","3","3","3","3","3","4","4","4","4","3","4","4","4","4","4","5","4","1","2","2","2","2","2","2","2","1","1","0","1","1","0","0","0","1","0","1","1","0","1","0","1","4","2","2","3","2","5","3","3","1","2","2","784820344564486145","王","267","","","","","","","","","","","","","","","","","","","","","","","","","","","","","","","","","","","","","","","","","",""
"834","<p style=""color:rgb(150, 250, 100); font-size: 35px;"">他人的</p>","e","categorize-html","18","181123","0.0-6.0-1.0-2.0-1.4","4","3","4","3","3","3","3","3","4","4","4","4","3","4","4","4","4","4","5","4","1","2","2","2","2","2","2","2","1","1","0","1","1","0","0","0","1","0","1","1","0","1","0","1","4","2","2","3","2","5","3","3","1","2","2","784820344564486145","王","267","","","","","","","","","","","","","","","","","","","true","11","1","moral","834","other","他人的","","","","","","","","","","","","","","","","",""
"null","","null","html-keyboard-response","19","181378","0.0-6.0-1.0-2.0-0.5","4","3","4","3","3","3","3","3","4","4","4","4","3","4","4","4","4","4","5","4","1","2","2","2","2","2","2","2","1","1","0","1","1","0","0","0","1","0","1","1","0","1","0","1","4","2","2","3","2","5","3","3","1","2","2","784820344564486145","王","267","","","","","","","","","","","","","","","","","","","","","","","","","","","","","","","","","","","","","","","","","",""
"804","<p style=""color:rgb(150, 250, 100); font-size: 35px;"">自己的</p>","i","categorize-html","20","182187","0.0-6.0-1.0-2.0-1.5","4","3","4","3","3","3","3","3","4","4","4","4","3","4","4","4","4","4","5","4","1","2","2","2","2","2","2","2","1","1","0","1","1","0","0","0","1","0","1","1","0","1","0","1","4","2","2","3","2","5","3","3","1","2","2","784820344564486145","王","267","","","","","","","","","","","","","","","","","","","true","11","1","moral","804","self","自己的","","","","","","","","","","","","","","","","",""
"null","","null","html-keyboard-response","21","182445","0.0-6.0-1.0-2.0-0.6","4","3","4","3","3","3","3","3","4","4","4","4","3","4","4","4","4","4","5","4","1","2","2","2","2","2","2","2","1","1","0","1","1","0","0","0","1","0","1","1","0","1","0","1","4","2","2","3","2","5","3","3","1","2","2","784820344564486145","王","267","","","","","","","","","","","","","","","","","","","","","","","","","","","","","","","","","","","","","","","","","",""
"729","<p style=""color:rgb(150, 250, 100); font-size: 35px;"">自己</p>","i","categorize-html","22","183178","0.0-6.0-1.0-2.0-1.6","4","3","4","3","3","3","3","3","4","4","4","4","3","4","4","4","4","4","5","4","1","2","2","2","2","2","2","2","1","1","0","1","1","0","0","0","1","0","1","1","0","1","0","1","4","2","2","3","2","5","3","3","1","2","2","784820344564486145","王","267","","","","","","","","","","","","","","","","","","","true","11","1","moral","729","self","自己","","","","","","","","","","","","","","","","",""
"null","","null","html-keyboard-response","23","183430","0.0-6.0-1.0-2.0-0.7","4","3","4","3","3","3","3","3","4","4","4","4","3","4","4","4","4","4","5","4","1","2","2","2","2","2","2","2","1","1","0","1","1","0","0","0","1","0","1","1","0","1","0","1","4","2","2","3","2","5","3","3","1","2","2","784820344564486145","王","267","","","","","","","","","","","","","","","","","","","","","","","","","","","","","","","","","","","","","","","","","",""
"728","<p style=""color:rgb(150, 250, 100); font-size: 35px;"">他人</p>","e","categorize-html","24","184164","0.0-6.0-1.0-2.0-1.7","4","3","4","3","3","3","3","3","4","4","4","4","3","4","4","4","4","4","5","4","1","2","2","2","2","2","2","2","1","1","0","1","1","0","0","0","1","0","1","1","0","1","0","1","4","2","2","3","2","5","3","3","1","2","2","784820344564486145","王","267","","","","","","","","","","","","","","","","","","","true","11","1","moral","728","other","他人","","","","","","","","","","","","","","","","",""
"null","","null","html-keyboard-response","25","184416","0.0-6.0-1.0-2.0-0.8","4","3","4","3","3","3","3","3","4","4","4","4","3","4","4","4","4","4","5","4","1","2","2","2","2","2","2","2","1","1","0","1","1","0","0","0","1","0","1","1","0","1","0","1","4","2","2","3","2","5","3","3","1","2","2","784820344564486145","王","267","","","","","","","","","","","","","","","","","","","","","","","","","","","","","","","","","","","","","","","","","",""
"918","<p style=""color:rgb(150, 250, 100); font-size: 35px;"">别人的</p>","e","categorize-html","26","185339","0.0-6.0-1.0-2.0-1.8","4","3","4","3","3","3","3","3","4","4","4","4","3","4","4","4","4","4","5","4","1","2","2","2","2","2","2","2","1","1","0","1","1","0","0","0","1","0","1","1","0","1","0","1","4","2","2","3","2","5","3","3","1","2","2","784820344564486145","王","267","","","","","","","","","","","","","","","","","","","true","11","1","moral","918","other","别人的","","","","","","","","","","","","","","","","",""
"null","","null","html-keyboard-response","27","185591","0.0-6.0-1.0-2.0-0.9","4","3","4","3","3","3","3","3","4","4","4","4","3","4","4","4","4","4","5","4","1","2","2","2","2","2","2","2","1","1","0","1","1","0","0","0","1","0","1","1","0","1","0","1","4","2","2","3","2","5","3","3","1","2","2","784820344564486145","王","267","","","","","","","","","","","","","","","","","","","","","","","","","","","","","","","","","","","","","","","","","",""
"656","<p style=""color:rgb(150, 250, 100); font-size: 35px;"">本人的</p>","i","categorize-html","28","186252","0.0-6.0-1.0-2.0-1.9","4","3","4","3","3","3","3","3","4","4","4","4","3","4","4","4","4","4","5","4","1","2","2","2","2","2","2","2","1","1","0","1","1","0","0","0","1","0","1","1","0","1","0","1","4","2","2","3","2","5","3","3","1","2","2","784820344564486145","王","267","","","","","","","","","","","","","","","","","","","true","11","1","moral","656","self","本人的","","","","","","","","","","","","","","","","",""
"null","","null","html-keyboard-response","29","186504","0.0-6.0-1.0-2.0-0.10","4","3","4","3","3","3","3","3","4","4","4","4","3","4","4","4","4","4","5","4","1","2","2","2","2","2","2","2","1","1","0","1","1","0","0","0","1","0","1","1","0","1","0","1","4","2","2","3","2","5","3","3","1","2","2","784820344564486145","王","267","","","","","","","","","","","","","","","","","","","","","","","","","","","","","","","","","","","","","","","","","",""
"677","<p style=""color:rgb(150, 250, 100); font-size: 35px;"">他</p>","e","categorize-html","30","187188","0.0-6.0-1.0-2.0-1.10","4","3","4","3","3","3","3","3","4","4","4","4","3","4","4","4","4","4","5","4","1","2","2","2","2","2","2","2","1","1","0","1","1","0","0","0","1","0","1","1","0","1","0","1","4","2","2","3","2","5","3","3","1","2","2","784820344564486145","王","267","","","","","","","","","","","","","","","","","","","true","11","1","moral","677","other","他","","","","","","","","","","","","","","","","",""
"null","","null","html-keyboard-response","31","187441","0.0-6.0-1.0-2.0-0.11","4","3","4","3","3","3","3","3","4","4","4","4","3","4","4","4","4","4","5","4","1","2","2","2","2","2","2","2","1","1","0","1","1","0","0","0","1","0","1","1","0","1","0","1","4","2","2","3","2","5","3","3","1","2","2","784820344564486145","王","267","","","","","","","","","","","","","","","","","","","","","","","","","","","","","","","","","","","","","","","","","",""
"636","<p style=""color:rgb(150, 250, 100); font-size: 35px;"">他的</p>","e","categorize-html","32","188082","0.0-6.0-1.0-2.0-1.11","4","3","4","3","3","3","3","3","4","4","4","4","3","4","4","4","4","4","5","4","1","2","2","2","2","2","2","2","1","1","0","1","1","0","0","0","1","0","1","1","0","1","0","1","4","2","2","3","2","5","3","3","1","2","2","784820344564486145","王","267","","","","","","","","","","","","","","","","","","","true","11","1","moral","636","other","他的","","","","","","","","","","","","","","","","",""
"26120","
    <div class=""tag-bottom""><p>
    —— 任务2：对“消极”词和“积极”词分类 ——<p/>   
    <span style=""color:#78DCE8""><b>注意上方，类别标签和需要分类的词语都已经改变</b></span><p/>
    <span style=""color:#FFD866""><b>请根据上方标签的提示，尽可能正确并且快速地做出按键反应</b></span><p/>
    当按键错误时屏幕中会出现<span style=""color:red""> X </span>，需要按另一个键纠正才能继续<br/><p/>
    请把双手食指分别放在键盘的“E”键和“I”键上<p/>
    按<空格键>开始
    </p></div>"," ","html-keyboard-response","33","213992","0.0-6.0-1.0-3.0","4","3","4","3","3","3","3","3","4","4","4","4","3","4","4","4","4","4","5","4","1","2","2","2","2","2","2","2","1","1","0","1","1","0","0","0","1","0","1","1","0","1","0","1","4","2","2","3","2","5","3","3","1","2","2","784820344564486145","王","267","","","","","","","","","","","","","","","","","","","","","","","","","","","","","","","","","","","","","","","","","",""
"null","","null","html-keyboard-response","34","214245","0.0-6.0-1.0-4.0-0.0","4","3","4","3","3","3","3","3","4","4","4","4","3","4","4","4","4","4","5","4","1","2","2","2","2","2","2","2","1","1","0","1","1","0","0","0","1","0","1","1","0","1","0","1","4","2","2","3","2","5","3","3","1","2","2","784820344564486145","王","267","","","","","","","","","","","","","","","","","","","","","","","","","","","","","","","","","","","","","","","","","",""
"1282","<p style=""color:white; font-size: 35px;"">不仁</p>","e","categorize-html","35","215534","0.0-6.0-1.0-4.0-1.0","4","3","4","3","3","3","3","3","4","4","4","4","3","4","4","4","4","4","5","4","1","2","2","2","2","2","2","2","1","1","0","1","1","0","0","0","1","0","1","1","0","1","0","1","4","2","2","3","2","5","3","3","1","2","2","784820344564486145","王","267","","","","","","","","","","","","","","","","","","","true","12","2","moral","1282","negative","不仁","","","","","","","","","","","","","","","","",""
"null","","null","html-keyboard-response","36","215786","0.0-6.0-1.0-4.0-0.1","4","3","4","3","3","3","3","3","4","4","4","4","3","4","4","4","4","4","5","4","1","2","2","2","2","2","2","2","1","1","0","1","1","0","0","0","1","0","1","1","0","1","0","1","4","2","2","3","2","5","3","3","1","2","2","784820344564486145","王","267","","","","","","","","","","","","","","","","","","","","","","","","","","","","","","","","","","","","","","","","","",""
"790","<p style=""color:white; font-size: 35px;"">卑鄙</p>","e","categorize-html","37","216583","0.0-6.0-1.0-4.0-1.1","4","3","4","3","3","3","3","3","4","4","4","4","3","4","4","4","4","4","5","4","1","2","2","2","2","2","2","2","1","1","0","1","1","0","0","0","1","0","1","1","0","1","0","1","4","2","2","3","2","5","3","3","1","2","2","784820344564486145","王","267","","","","","","","","","","","","","","","","","","","true","12","2","moral","790","negative","卑鄙","","","","","","","","","","","","","","","","",""
"null","","null","html-keyboard-response","38","216835","0.0-6.0-1.0-4.0-0.2","4","3","4","3","3","3","3","3","4","4","4","4","3","4","4","4","4","4","5","4","1","2","2","2","2","2","2","2","1","1","0","1","1","0","0","0","1","0","1","1","0","1","0","1","4","2","2","3","2","5","3","3","1","2","2","784820344564486145","王","267","","","","","","","","","","","","","","","","","","","","","","","","","","","","","","","","","","","","","","","","","",""
"708","<p style=""color:white; font-size: 35px;"">缺德</p>","e","categorize-html","39","217548","0.0-6.0-1.0-4.0-1.2","4","3","4","3","3","3","3","3","4","4","4","4","3","4","4","4","4","4","5","4","1","2","2","2","2","2","2","2","1","1","0","1","1","0","0","0","1","0","1","1","0","1","0","1","4","2","2","3","2","5","3","3","1","2","2","784820344564486145","王","267","","","","","","","","","","","","","","","","","","","true","12","2","moral","708","negative","缺德","","","","","","","","","","","","","","","","",""
"null","","null","html-keyboard-response","40","217800","0.0-6.0-1.0-4.0-0.3","4","3","4","3","3","3","3","3","4","4","4","4","3","4","4","4","4","4","5","4","1","2","2","2","2","2","2","2","1","1","0","1","1","0","0","0","1","0","1","1","0","1","0","1","4","2","2","3","2","5","3","3","1","2","2","784820344564486145","王","267","","","","","","","","","","","","","","","","","","","","","","","","","","","","","","","","","","","","","","","","","",""
"711","<p style=""color:white; font-size: 35px;"">不孝</p>","e","categorize-html","41","218516","0.0-6.0-1.0-4.0-1.3","4","3","4","3","3","3","3","3","4","4","4","4","3","4","4","4","4","4","5","4","1","2","2","2","2","2","2","2","1","1","0","1","1","0","0","0","1","0","1","1","0","1","0","1","4","2","2","3","2","5","3","3","1","2","2","784820344564486145","王","267","","","","","","","","","","","","","","","","","","","true","12","2","moral","711","negative","不孝","","","","","","","","","","","","","","","","",""
"null","","null","html-keyboard-response","42","218768","0.0-6.0-1.0-4.0-0.4","4","3","4","3","3","3","3","3","4","4","4","4","3","4","4","4","4","4","5","4","1","2","2","2","2","2","2","2","1","1","0","1","1","0","0","0","1","0","1","1","0","1","0","1","4","2","2","3","2","5","3","3","1","2","2","784820344564486145","王","267","","","","","","","","","","","","","","","","","","","","","","","","","","","","","","","","","","","","","","","","","",""
"664","<p style=""color:white; font-size: 35px;"">善良</p>","i","categorize-html","43","219436","0.0-6.0-1.0-4.0-1.4","4","3","4","3","3","3","3","3","4","4","4","4","3","4","4","4","4","4","5","4","1","2","2","2","2","2","2","2","1","1","0","1","1","0","0","0","1","0","1","1","0","1","0","1","4","2","2","3","2","5","3","3","1","2","2","784820344564486145","王","267","","","","","","","","","","","","","","","","","","","true","12","2","moral","664","positive","善良","","","","","","","","","","","","","","","","",""
"null","","null","html-keyboard-response","44","219694","0.0-6.0-1.0-4.0-0.5","4","3","4","3","3","3","3","3","4","4","4","4","3","4","4","4","4","4","5","4","1","2","2","2","2","2","2","2","1","1","0","1","1","0","0","0","1","0","1","1","0","1","0","1","4","2","2","3","2","5","3","3","1","2","2","784820344564486145","王","267","","","","","","","","","","","","","","","","","","","","","","","","","","","","","","","","","","","","","","","","","",""
"1385","<p style=""color:white; font-size: 35px;"">廉正</p>","i","categorize-html","45","221085","0.0-6.0-1.0-4.0-1.5","4","3","4","3","3","3","3","3","4","4","4","4","3","4","4","4","4","4","5","4","1","2","2","2","2","2","2","2","1","1","0","1","1","0","0","0","1","0","1","1","0","1","0","1","4","2","2","3","2","5","3","3","1","2","2","784820344564486145","王","267","","","","","","","","","","","","","","","","","","","true","12","2","moral","1385","positive","廉正","","","","","","","","","","","","","","","","",""
"null","","null","html-keyboard-response","46","221342","0.0-6.0-1.0-4.0-0.6","4","3","4","3","3","3","3","3","4","4","4","4","3","4","4","4","4","4","5","4","1","2","2","2","2","2","2","2","1","1","0","1","1","0","0","0","1","0","1","1","0","1","0","1","4","2","2","3","2","5","3","3","1","2","2","784820344564486145","王","267","","","","","","","","","","","","","","","","","","","","","","","","","","","","","","","","","","","","","","","","","",""
"1031","<p style=""color:white; font-size: 35px;"">正直</p>","i","categorize-html","47","222382","0.0-6.0-1.0-4.0-1.6","4","3","4","3","3","3","3","3","4","4","4","4","3","4","4","4","4","4","5","4","1","2","2","2","2","2","2","2","1","1","0","1","1","0","0","0","1","0","1","1","0","1","0","1","4","2","2","3","2","5","3","3","1","2","2","784820344564486145","王","267","","","","","","","","","","","","","","","","","","","true","12","2","moral","1031","positive","正直","","","","","","","","","","","","","","","","",""
"null","","null","html-keyboard-response","48","222635","0.0-6.0-1.0-4.0-0.7","4","3","4","3","3","3","3","3","4","4","4","4","3","4","4","4","4","4","5","4","1","2","2","2","2","2","2","2","1","1","0","1","1","0","0","0","1","0","1","1","0","1","0","1","4","2","2","3","2","5","3","3","1","2","2","784820344564486145","王","267","","","","","","","","","","","","","","","","","","","","","","","","","","","","","","","","","","","","","","","","","",""
"845","<p style=""color:white; font-size: 35px;"">小人</p>","e","categorize-html","49","223486","0.0-6.0-1.0-4.0-1.7","4","3","4","3","3","3","3","3","4","4","4","4","3","4","4","4","4","4","5","4","1","2","2","2","2","2","2","2","1","1","0","1","1","0","0","0","1","0","1","1","0","1","0","1","4","2","2","3","2","5","3","3","1","2","2","784820344564486145","王","267","","","","","","","","","","","","","","","","","","","true","12","2","moral","845","negative","小人","","","","","","","","","","","","","","","","",""
"null","","null","html-keyboard-response","50","223738","0.0-6.0-1.0-4.0-0.8","4","3","4","3","3","3","3","3","4","4","4","4","3","4","4","4","4","4","5","4","1","2","2","2","2","2","2","2","1","1","0","1","1","0","0","0","1","0","1","1","0","1","0","1","4","2","2","3","2","5","3","3","1","2","2","784820344564486145","王","267","","","","","","","","","","","","","","","","","","","","","","","","","","","","","","","","","","","","","","","","","",""
"830","<p style=""color:white; font-size: 35px;"">君子</p>","i","categorize-html","51","224574","0.0-6.0-1.0-4.0-1.8","4","3","4","3","3","3","3","3","4","4","4","4","3","4","4","4","4","4","5","4","1","2","2","2","2","2","2","2","1","1","0","1","1","0","0","0","1","0","1","1","0","1","0","1","4","2","2","3","2","5","3","3","1","2","2","784820344564486145","王","267","","","","","","","","","","","","","","","","","","","true","12","2","moral","830","positive","君子","","","","","","","","","","","","","","","","",""
"null","","null","html-keyboard-response","52","224825","0.0-6.0-1.0-4.0-0.9","4","3","4","3","3","3","3","3","4","4","4","4","3","4","4","4","4","4","5","4","1","2","2","2","2","2","2","2","1","1","0","1","1","0","0","0","1","0","1","1","0","1","0","1","4","2","2","3","2","5","3","3","1","2","2","784820344564486145","王","267","","","","","","","","","","","","","","","","","","","","","","","","","","","","","","","","","","","","","","","","","",""
"830","<p style=""color:white; font-size: 35px;"">诚信</p>","i","categorize-html","53","225661","0.0-6.0-1.0-4.0-1.9","4","3","4","3","3","3","3","3","4","4","4","4","3","4","4","4","4","4","5","4","1","2","2","2","2","2","2","2","1","1","0","1","1","0","0","0","1","0","1","1","0","1","0","1","4","2","2","3","2","5","3","3","1","2","2","784820344564486145","王","267","","","","","","","","","","","","","","","","","","","true","12","2","moral","830","positive","诚信","","","","","","","","","","","","","","","","",""
"null","","null","html-keyboard-response","54","225912","0.0-6.0-1.0-4.0-0.10","4","3","4","3","3","3","3","3","4","4","4","4","3","4","4","4","4","4","5","4","1","2","2","2","2","2","2","2","1","1","0","1","1","0","0","0","1","0","1","1","0","1","0","1","4","2","2","3","2","5","3","3","1","2","2","784820344564486145","王","267","","","","","","","","","","","","","","","","","","","","","","","","","","","","","","","","","","","","","","","","","",""
"728","<p style=""color:white; font-size: 35px;"">高尚</p>","i","categorize-html","55","226644","0.0-6.0-1.0-4.0-1.10","4","3","4","3","3","3","3","3","4","4","4","4","3","4","4","4","4","4","5","4","1","2","2","2","2","2","2","2","1","1","0","1","1","0","0","0","1","0","1","1","0","1","0","1","4","2","2","3","2","5","3","3","1","2","2","784820344564486145","王","267","","","","","","","","","","","","","","","","","","","true","12","2","moral","728","positive","高尚","","","","","","","","","","","","","","","","",""
"null","","null","html-keyboard-response","56","226896","0.0-6.0-1.0-4.0-0.11","4","3","4","3","3","3","3","3","4","4","4","4","3","4","4","4","4","4","5","4","1","2","2","2","2","2","2","2","1","1","0","1","1","0","0","0","1","0","1","1","0","1","0","1","4","2","2","3","2","5","3","3","1","2","2","784820344564486145","王","267","","","","","","","","","","","","","","","","","","","","","","","","","","","","","","","","","","","","","","","","","",""
"1112","<p style=""color:white; font-size: 35px;"">黑心</p>","e","categorize-html","57","228012","0.0-6.0-1.0-4.0-1.11","4","3","4","3","3","3","3","3","4","4","4","4","3","4","4","4","4","4","5","4","1","2","2","2","2","2","2","2","1","1","0","1","1","0","0","0","1","0","1","1","0","1","0","1","4","2","2","3","2","5","3","3","1","2","2","784820344564486145","王","267","","","","","","","","","","","","","","","","","","","true","12","2","moral","1112","negative","黑心","","","","","","","","","","","","","","","","",""
"10873","
    <div class=""tag-bottom""><p>
    —— 任务3：对“他人/消极”词和“自我/积极”词分类 ——<p/>
    <span style=""color:#78DCE8""><b>注意上方，之前的四类词语将混合在一起交替呈现</b></span><p/>
    <span style=""color:#FFD866""><b>请根据上方标签的提示，尽可能正确并且快速地做出按键反应</b></span><p/>
    当按键错误时屏幕中会出现<span style=""color:red""> X </span>，需要按另一个键纠正才能继续<br/><p/>
    请把双手食指分别放在键盘的“E”键和“I”键上<p/>
    按<空格键>开始
    </p></div>"," ","html-keyboard-response","58","238891","0.0-6.0-1.0-5.0","4","3","4","3","3","3","3","3","4","4","4","4","3","4","4","4","4","4","5","4","1","2","2","2","2","2","2","2","1","1","0","1","1","0","0","0","1","0","1","1","0","1","0","1","4","2","2","3","2","5","3","3","1","2","2","784820344564486145","王","267","","","","","","","","","","","","","","","","","","","","","","","","","","","","","","","","","","","","","","","","","",""
"null","","null","html-keyboard-response","59","239143","0.0-6.0-1.0-6.0-0.0","4","3","4","3","3","3","3","3","4","4","4","4","3","4","4","4","4","4","5","4","1","2","2","2","2","2","2","2","1","1","0","1","1","0","0","0","1","0","1","1","0","1","0","1","4","2","2","3","2","5","3","3","1","2","2","784820344564486145","王","267","","","","","","","","","","","","","","","","","","","","","","","","","","","","","","","","","","","","","","","","","",""
"1413","<p style=""color:rgb(150, 250, 100); font-size: 35px;"">我</p>","i","categorize-html","60","240568","0.0-6.0-1.0-6.0-1.0","4","3","4","3","3","3","3","3","4","4","4","4","3","4","4","4","4","4","5","4","1","2","2","2","2","2","2","2","1","1","0","1","1","0","0","0","1","0","1","1","0","1","0","1","4","2","2","3","2","5","3","3","1","2","2","784820344564486145","王","267","","","","","","","","","","","","","","","","","","","true","13","3","moral","1413","self","我","","","","","","","","","","","","","","","","",""
"null","","null","html-keyboard-response","61","240820","0.0-6.0-1.0-6.0-0.1","4","3","4","3","3","3","3","3","4","4","4","4","3","4","4","4","4","4","5","4","1","2","2","2","2","2","2","2","1","1","0","1","1","0","0","0","1","0","1","1","0","1","0","1","4","2","2","3","2","5","3","3","1","2","2","784820344564486145","王","267","","","","","","","","","","","","","","","","","","","","","","","","","","","","","","","","","","","","","","","","","",""
"1124","<p style=""color:white; font-size: 35px;"">不仁</p>","e","categorize-html","62","241949","0.0-6.0-1.0-6.0-1.1","4","3","4","3","3","3","3","3","4","4","4","4","3","4","4","4","4","4","5","4","1","2","2","2","2","2","2","2","1","1","0","1","1","0","0","0","1","0","1","1","0","1","0","1","4","2","2","3","2","5","3","3","1","2","2","784820344564486145","王","267","","","","","","","","","","","","","","","","","","","true","13","3","moral","1124","negative","不仁","","","","","","","","","","","","","","","","",""
"null","","null","html-keyboard-response","63","242201","0.0-6.0-1.0-6.0-0.2","4","3","4","3","3","3","3","3","4","4","4","4","3","4","4","4","4","4","5","4","1","2","2","2","2","2","2","2","1","1","0","1","1","0","0","0","1","0","1","1","0","1","0","1","4","2","2","3","2","5","3","3","1","2","2","784820344564486145","王","267","","","","","","","","","","","","","","","","","","","","","","","","","","","","","","","","","","","","","","","","","",""
"798","<p style=""color:rgb(150, 250, 100); font-size: 35px;"">他</p>","e","categorize-html","64","243005","0.0-6.0-1.0-6.0-1.2","4","3","4","3","3","3","3","3","4","4","4","4","3","4","4","4","4","4","5","4","1","2","2","2","2","2","2","2","1","1","0","1","1","0","0","0","1","0","1","1","0","1","0","1","4","2","2","3","2","5","3","3","1","2","2","784820344564486145","王","267","","","","","","","","","","","","","","","","","","","true","13","3","moral","798","other","他","","","","","","","","","","","","","","","","",""
"null","","null","html-keyboard-response","65","243257","0.0-6.0-1.0-6.0-0.3","4","3","4","3","3","3","3","3","4","4","4","4","3","4","4","4","4","4","5","4","1","2","2","2","2","2","2","2","1","1","0","1","1","0","0","0","1","0","1","1","0","1","0","1","4","2","2","3","2","5","3","3","1","2","2","784820344564486145","王","267","","","","","","","","","","","","","","","","","","","","","","","","","","","","","","","","","","","","","","","","","",""
"751","<p style=""color:white; font-size: 35px;"">高尚</p>","i","categorize-html","66","244015","0.0-6.0-1.0-6.0-1.3","4","3","4","3","3","3","3","3","4","4","4","4","3","4","4","4","4","4","5","4","1","2","2","2","2","2","2","2","1","1","0","1","1","0","0","0","1","0","1","1","0","1","0","1","4","2","2","3","2","5","3","3","1","2","2","784820344564486145","王","267","","","","","","","","","","","","","","","","","","","true","13","3","moral","751","positive","高尚","","","","","","","","","","","","","","","","",""
"null","","null","html-keyboard-response","67","244267","0.0-6.0-1.0-6.0-0.4","4","3","4","3","3","3","3","3","4","4","4","4","3","4","4","4","4","4","5","4","1","2","2","2","2","2","2","2","1","1","0","1","1","0","0","0","1","0","1","1","0","1","0","1","4","2","2","3","2","5","3","3","1","2","2","784820344564486145","王","267","","","","","","","","","","","","","","","","","","","","","","","","","","","","","","","","","","","","","","","","","",""
"838","<p style=""color:rgb(150, 250, 100); font-size: 35px;"">别人的</p>","e","categorize-html","68","245113","0.0-6.0-1.0-6.0-1.4","4","3","4","3","3","3","3","3","4","4","4","4","3","4","4","4","4","4","5","4","1","2","2","2","2","2","2","2","1","1","0","1","1","0","0","0","1","0","1","1","0","1","0","1","4","2","2","3","2","5","3","3","1","2","2","784820344564486145","王","267","","","","","","","","","","","","","","","","","","","true","13","3","moral","838","other","别人的","","","","","","","","","","","","","","","","",""
"null","","null","html-keyboard-response","69","245366","0.0-6.0-1.0-6.0-0.5","4","3","4","3","3","3","3","3","4","4","4","4","3","4","4","4","4","4","5","4","1","2","2","2","2","2","2","2","1","1","0","1","1","0","0","0","1","0","1","1","0","1","0","1","4","2","2","3","2","5","3","3","1","2","2","784820344564486145","王","267","","","","","","","","","","","","","","","","","","","","","","","","","","","","","","","","","","","","","","","","","",""
"730","<p style=""color:white; font-size: 35px;"">不孝</p>","e","categorize-html","70","246101","0.0-6.0-1.0-6.0-1.5","4","3","4","3","3","3","3","3","4","4","4","4","3","4","4","4","4","4","5","4","1","2","2","2","2","2","2","2","1","1","0","1","1","0","0","0","1","0","1","1","0","1","0","1","4","2","2","3","2","5","3","3","1","2","2","784820344564486145","王","267","","","","","","","","","","","","","","","","","","","true","13","3","moral","730","negative","不孝","","","","","","","","","","","","","","","","",""
"null","","null","html-keyboard-response","71","246353","0.0-6.0-1.0-6.0-0.6","4","3","4","3","3","3","3","3","4","4","4","4","3","4","4","4","4","4","5","4","1","2","2","2","2","2","2","2","1","1","0","1","1","0","0","0","1","0","1","1","0","1","0","1","4","2","2","3","2","5","3","3","1","2","2","784820344564486145","王","267","","","","","","","","","","","","","","","","","","","","","","","","","","","","","","","","","","","","","","","","","",""
"911","<p style=""color:rgb(150, 250, 100); font-size: 35px;"">本人</p>","i","categorize-html","72","247268","0.0-6.0-1.0-6.0-1.6","4","3","4","3","3","3","3","3","4","4","4","4","3","4","4","4","4","4","5","4","1","2","2","2","2","2","2","2","1","1","0","1","1","0","0","0","1","0","1","1","0","1","0","1","4","2","2","3","2","5","3","3","1","2","2","784820344564486145","王","267","","","","","","","","","","","","","","","","","","","true","13","3","moral","911","self","本人","","","","","","","","","","","","","","","","",""
"null","","null","html-keyboard-response","73","247520","0.0-6.0-1.0-6.0-0.7","4","3","4","3","3","3","3","3","4","4","4","4","3","4","4","4","4","4","5","4","1","2","2","2","2","2","2","2","1","1","0","1","1","0","0","0","1","0","1","1","0","1","0","1","4","2","2","3","2","5","3","3","1","2","2","784820344564486145","王","267","","","","","","","","","","","","","","","","","","","","","","","","","","","","","","","","","","","","","","","","","",""
"1032","<p style=""color:white; font-size: 35px;"">诚信</p>","i","categorize-html","74","248559","0.0-6.0-1.0-6.0-1.7","4","3","4","3","3","3","3","3","4","4","4","4","3","4","4","4","4","4","5","4","1","2","2","2","2","2","2","2","1","1","0","1","1","0","0","0","1","0","1","1","0","1","0","1","4","2","2","3","2","5","3","3","1","2","2","784820344564486145","王","267","","","","","","","","","","","","","","","","","","","true","13","3","moral","1032","positive","诚信","","","","","","","","","","","","","","","","",""
"null","","null","html-keyboard-response","75","248811","0.0-6.0-1.0-6.0-0.8","4","3","4","3","3","3","3","3","4","4","4","4","3","4","4","4","4","4","5","4","1","2","2","2","2","2","2","2","1","1","0","1","1","0","0","0","1","0","1","1","0","1","0","1","4","2","2","3","2","5","3","3","1","2","2","784820344564486145","王","267","","","","","","","","","","","","","","","","","","","","","","","","","","","","","","","","","","","","","","","","","",""
"708","<p style=""color:rgb(150, 250, 100); font-size: 35px;"">自己的</p>","i","categorize-html","76","249525","0.0-6.0-1.0-6.0-1.8","4","3","4","3","3","3","3","3","4","4","4","4","3","4","4","4","4","4","5","4","1","2","2","2","2","2","2","2","1","1","0","1","1","0","0","0","1","0","1","1","0","1","0","1","4","2","2","3","2","5","3","3","1","2","2","784820344564486145","王","267","","","","","","","","","","","","","","","","","","","true","13","3","moral","708","self","自己的","","","","","","","","","","","","","","","","",""
"null","","null","html-keyboard-response","77","249777","0.0-6.0-1.0-6.0-0.9","4","3","4","3","3","3","3","3","4","4","4","4","3","4","4","4","4","4","5","4","1","2","2","2","2","2","2","2","1","1","0","1","1","0","0","0","1","0","1","1","0","1","0","1","4","2","2","3","2","5","3","3","1","2","2","784820344564486145","王","267","","","","","","","","","","","","","","","","","","","","","","","","","","","","","","","","","","","","","","","","","",""
"725","<p style=""color:white; font-size: 35px;"">缺德</p>","e","categorize-html","78","250512","0.0-6.0-1.0-6.0-1.9","4","3","4","3","3","3","3","3","4","4","4","4","3","4","4","4","4","4","5","4","1","2","2","2","2","2","2","2","1","1","0","1","1","0","0","0","1","0","1","1","0","1","0","1","4","2","2","3","2","5","3","3","1","2","2","784820344564486145","王","267","","","","","","","","","","","","","","","","","","","true","13","3","moral","725","negative","缺德","","","","","","","","","","","","","","","","",""
"null","","null","html-keyboard-response","79","250764","0.0-6.0-1.0-6.0-0.10","4","3","4","3","3","3","3","3","4","4","4","4","3","4","4","4","4","4","5","4","1","2","2","2","2","2","2","2","1","1","0","1","1","0","0","0","1","0","1","1","0","1","0","1","4","2","2","3","2","5","3","3","1","2","2","784820344564486145","王","267","","","","","","","","","","","","","","","","","","","","","","","","","","","","","","","","","","","","","","","","","",""
"1047","<p style=""color:rgb(150, 250, 100); font-size: 35px;"">他的</p>","e","categorize-html","80","251819","0.0-6.0-1.0-6.0-1.10","4","3","4","3","3","3","3","3","4","4","4","4","3","4","4","4","4","4","5","4","1","2","2","2","2","2","2","2","1","1","0","1","1","0","0","0","1","0","1","1","0","1","0","1","4","2","2","3","2","5","3","3","1","2","2","784820344564486145","王","267","","","","","","","","","","","","","","","","","","","true","13","3","moral","1047","other","他的","","","","","","","","","","","","","","","","",""
"null","","null","html-keyboard-response","81","252071","0.0-6.0-1.0-6.0-0.11","4","3","4","3","3","3","3","3","4","4","4","4","3","4","4","4","4","4","5","4","1","2","2","2","2","2","2","2","1","1","0","1","1","0","0","0","1","0","1","1","0","1","0","1","4","2","2","3","2","5","3","3","1","2","2","784820344564486145","王","267","","","","","","","","","","","","","","","","","","","","","","","","","","","","","","","","","","","","","","","","","",""
"729","<p style=""color:white; font-size: 35px;"">君子</p>","i","categorize-html","82","252804","0.0-6.0-1.0-6.0-1.11","4","3","4","3","3","3","3","3","4","4","4","4","3","4","4","4","4","4","5","4","1","2","2","2","2","2","2","2","1","1","0","1","1","0","0","0","1","0","1","1","0","1","0","1","4","2","2","3","2","5","3","3","1","2","2","784820344564486145","王","267","","","","","","","","","","","","","","","","","","","true","13","3","moral","729","positive","君子","","","","","","","","","","","","","","","","",""
"null","","null","html-keyboard-response","83","253057","0.0-6.0-1.0-6.0-0.12","4","3","4","3","3","3","3","3","4","4","4","4","3","4","4","4","4","4","5","4","1","2","2","2","2","2","2","2","1","1","0","1","1","0","0","0","1","0","1","1","0","1","0","1","4","2","2","3","2","5","3","3","1","2","2","784820344564486145","王","267","","","","","","","","","","","","","","","","","","","","","","","","","","","","","","","","","","","","","","","","","",""
"617","<p style=""color:rgb(150, 250, 100); font-size: 35px;"">自己</p>","i","categorize-html","84","253683","0.0-6.0-1.0-6.0-1.12","4","3","4","3","3","3","3","3","4","4","4","4","3","4","4","4","4","4","5","4","1","2","2","2","2","2","2","2","1","1","0","1","1","0","0","0","1","0","1","1","0","1","0","1","4","2","2","3","2","5","3","3","1","2","2","784820344564486145","王","267","","","","","","","","","","","","","","","","","","","true","13","3","moral","617","self","自己","","","","","","","","","","","","","","","","",""
"null","","null","html-keyboard-response","85","253935","0.0-6.0-1.0-6.0-0.13","4","3","4","3","3","3","3","3","4","4","4","4","3","4","4","4","4","4","5","4","1","2","2","2","2","2","2","2","1","1","0","1","1","0","0","0","1","0","1","1","0","1","0","1","4","2","2","3","2","5","3","3","1","2","2","784820344564486145","王","267","","","","","","","","","","","","","","","","","","","","","","","","","","","","","","","","","","","","","","","","","",""
"760","<p style=""color:white; font-size: 35px;"">廉正</p>","i","categorize-html","86","254701","0.0-6.0-1.0-6.0-1.13","4","3","4","3","3","3","3","3","4","4","4","4","3","4","4","4","4","4","5","4","1","2","2","2","2","2","2","2","1","1","0","1","1","0","0","0","1","0","1","1","0","1","0","1","4","2","2","3","2","5","3","3","1","2","2","784820344564486145","王","267","","","","","","","","","","","","","","","","","","","true","13","3","moral","760","positive","廉正","","","","","","","","","","","","","","","","",""
"null","","null","html-keyboard-response","87","254957","0.0-6.0-1.0-6.0-0.14","4","3","4","3","3","3","3","3","4","4","4","4","3","4","4","4","4","4","5","4","1","2","2","2","2","2","2","2","1","1","0","1","1","0","0","0","1","0","1","1","0","1","0","1","4","2","2","3","2","5","3","3","1","2","2","784820344564486145","王","267","","","","","","","","","","","","","","","","","","","","","","","","","","","","","","","","","","","","","","","","","",""
"842","<p style=""color:rgb(150, 250, 100); font-size: 35px;"">他人</p>","e","categorize-html","88","255805","0.0-6.0-1.0-6.0-1.14","4","3","4","3","3","3","3","3","4","4","4","4","3","4","4","4","4","4","5","4","1","2","2","2","2","2","2","2","1","1","0","1","1","0","0","0","1","0","1","1","0","1","0","1","4","2","2","3","2","5","3","3","1","2","2","784820344564486145","王","267","","","","","","","","","","","","","","","","","","","true","13","3","moral","842","other","他人","","","","","","","","","","","","","","","","",""
"null","","null","html-keyboard-response","89","256059","0.0-6.0-1.0-6.0-0.15","4","3","4","3","3","3","3","3","4","4","4","4","3","4","4","4","4","4","5","4","1","2","2","2","2","2","2","2","1","1","0","1","1","0","0","0","1","0","1","1","0","1","0","1","4","2","2","3","2","5","3","3","1","2","2","784820344564486145","王","267","","","","","","","","","","","","","","","","","","","","","","","","","","","","","","","","","","","","","","","","","",""
"740","<p style=""color:white; font-size: 35px;"">卑鄙</p>","e","categorize-html","90","256804","0.0-6.0-1.0-6.0-1.15","4","3","4","3","3","3","3","3","4","4","4","4","3","4","4","4","4","4","5","4","1","2","2","2","2","2","2","2","1","1","0","1","1","0","0","0","1","0","1","1","0","1","0","1","4","2","2","3","2","5","3","3","1","2","2","784820344564486145","王","267","","","","","","","","","","","","","","","","","","","true","13","3","moral","740","negative","卑鄙","","","","","","","","","","","","","","","","",""
"null","","null","html-keyboard-response","91","257057","0.0-6.0-1.0-6.0-0.16","4","3","4","3","3","3","3","3","4","4","4","4","3","4","4","4","4","4","5","4","1","2","2","2","2","2","2","2","1","1","0","1","1","0","0","0","1","0","1","1","0","1","0","1","4","2","2","3","2","5","3","3","1","2","2","784820344564486145","王","267","","","","","","","","","","","","","","","","","","","","","","","","","","","","","","","","","","","","","","","","","",""
"814","<p style=""color:rgb(150, 250, 100); font-size: 35px;"">别人</p>","e","categorize-html","92","257879","0.0-6.0-1.0-6.0-1.16","4","3","4","3","3","3","3","3","4","4","4","4","3","4","4","4","4","4","5","4","1","2","2","2","2","2","2","2","1","1","0","1","1","0","0","0","1","0","1","1","0","1","0","1","4","2","2","3","2","5","3","3","1","2","2","784820344564486145","王","267","","","","","","","","","","","","","","","","","","","true","13","3","moral","814","other","别人","","","","","","","","","","","","","","","","",""
"null","","null","html-keyboard-response","93","258131","0.0-6.0-1.0-6.0-0.17","4","3","4","3","3","3","3","3","4","4","4","4","3","4","4","4","4","4","5","4","1","2","2","2","2","2","2","2","1","1","0","1","1","0","0","0","1","0","1","1","0","1","0","1","4","2","2","3","2","5","3","3","1","2","2","784820344564486145","王","267","","","","","","","","","","","","","","","","","","","","","","","","","","","","","","","","","","","","","","","","","",""
"675","<p style=""color:white; font-size: 35px;"">善良</p>","i","categorize-html","94","258813","0.0-6.0-1.0-6.0-1.17","4","3","4","3","3","3","3","3","4","4","4","4","3","4","4","4","4","4","5","4","1","2","2","2","2","2","2","2","1","1","0","1","1","0","0","0","1","0","1","1","0","1","0","1","4","2","2","3","2","5","3","3","1","2","2","784820344564486145","王","267","","","","","","","","","","","","","","","","","","","true","13","3","moral","675","positive","善良","","","","","","","","","","","","","","","","",""
"null","","null","html-keyboard-response","95","259065","0.0-6.0-1.0-6.0-0.18","4","3","4","3","3","3","3","3","4","4","4","4","3","4","4","4","4","4","5","4","1","2","2","2","2","2","2","2","1","1","0","1","1","0","0","0","1","0","1","1","0","1","0","1","4","2","2","3","2","5","3","3","1","2","2","784820344564486145","王","267","","","","","","","","","","","","","","","","","","","","","","","","","","","","","","","","","","","","","","","","","",""
"559","<p style=""color:rgb(150, 250, 100); font-size: 35px;"">我的</p>","i","categorize-html","96","259628","0.0-6.0-1.0-6.0-1.18","4","3","4","3","3","3","3","3","4","4","4","4","3","4","4","4","4","4","5","4","1","2","2","2","2","2","2","2","1","1","0","1","1","0","0","0","1","0","1","1","0","1","0","1","4","2","2","3","2","5","3","3","1","2","2","784820344564486145","王","267","","","","","","","","","","","","","","","","","","","true","13","3","moral","559","self","我的","","","","","","","","","","","","","","","","",""
"null","","null","html-keyboard-response","97","259721","0.0-6.0-1.0-6.0-0.19","4","3","4","3","3","3","3","3","4","4","4","4","3","4","4","4","4","4","5","4","1","2","2","2","2","2","2","2","1","1","0","1","1","0","0","0","1","0","1","1","0","1","0","1","4","2","2","3","2","5","3","3","1","2","2","784820344564486145","王","267","","","","","","","","","","","","","","","","","","","","","","","","","","","","","","","","","","","","","","","","","",""
"696","<p style=""color:white; font-size: 35px;"">黑心</p>","e","categorize-html","98","260425","0.0-6.0-1.0-6.0-1.19","4","3","4","3","3","3","3","3","4","4","4","4","3","4","4","4","4","4","5","4","1","2","2","2","2","2","2","2","1","1","0","1","1","0","0","0","1","0","1","1","0","1","0","1","4","2","2","3","2","5","3","3","1","2","2","784820344564486145","王","267","","","","","","","","","","","","","","","","","","","true","13","3","moral","696","negative","黑心","","","","","","","","","","","","","","","","",""
"null","","null","html-keyboard-response","99","260678","0.0-6.0-1.0-6.0-0.20","4","3","4","3","3","3","3","3","4","4","4","4","3","4","4","4","4","4","5","4","1","2","2","2","2","2","2","2","1","1","0","1","1","0","0","0","1","0","1","1","0","1","0","1","4","2","2","3","2","5","3","3","1","2","2","784820344564486145","王","267","","","","","","","","","","","","","","","","","","","","","","","","","","","","","","","","","","","","","","","","","",""
"722","<p style=""color:rgb(150, 250, 100); font-size: 35px;"">本人的</p>","i","categorize-html","100","261406","0.0-6.0-1.0-6.0-1.20","4","3","4","3","3","3","3","3","4","4","4","4","3","4","4","4","4","4","5","4","1","2","2","2","2","2","2","2","1","1","0","1","1","0","0","0","1","0","1","1","0","1","0","1","4","2","2","3","2","5","3","3","1","2","2","784820344564486145","王","267","","","","","","","","","","","","","","","","","","","true","13","3","moral","722","self","本人的","","","","","","","","","","","","","","","","",""
"null","","null","html-keyboard-response","101","261658","0.0-6.0-1.0-6.0-0.21","4","3","4","3","3","3","3","3","4","4","4","4","3","4","4","4","4","4","5","4","1","2","2","2","2","2","2","2","1","1","0","1","1","0","0","0","1","0","1","1","0","1","0","1","4","2","2","3","2","5","3","3","1","2","2","784820344564486145","王","267","","","","","","","","","","","","","","","","","","","","","","","","","","","","","","","","","","","","","","","","","",""
"1063","<p style=""color:white; font-size: 35px;"">小人</p>","e","categorize-html","102","262727","0.0-6.0-1.0-6.0-1.21","4","3","4","3","3","3","3","3","4","4","4","4","3","4","4","4","4","4","5","4","1","2","2","2","2","2","2","2","1","1","0","1","1","0","0","0","1","0","1","1","0","1","0","1","4","2","2","3","2","5","3","3","1","2","2","784820344564486145","王","267","","","","","","","","","","","","","","","","","","","true","13","3","moral","1063","negative","小人","","","","","","","","","","","","","","","","",""
"null","","null","html-keyboard-response","103","262979","0.0-6.0-1.0-6.0-0.22","4","3","4","3","3","3","3","3","4","4","4","4","3","4","4","4","4","4","5","4","1","2","2","2","2","2","2","2","1","1","0","1","1","0","0","0","1","0","1","1","0","1","0","1","4","2","2","3","2","5","3","3","1","2","2","784820344564486145","王","267","","","","","","","","","","","","","","","","","","","","","","","","","","","","","","","","","","","","","","","","","",""
"726","<p style=""color:rgb(150, 250, 100); font-size: 35px;"">他人的</p>","e","categorize-html","104","263709","0.0-6.0-1.0-6.0-1.22","4","3","4","3","3","3","3","3","4","4","4","4","3","4","4","4","4","4","5","4","1","2","2","2","2","2","2","2","1","1","0","1","1","0","0","0","1","0","1","1","0","1","0","1","4","2","2","3","2","5","3","3","1","2","2","784820344564486145","王","267","","","","","","","","","","","","","","","","","","","true","13","3","moral","726","other","他人的","","","","","","","","","","","","","","","","",""
"null","","null","html-keyboard-response","105","263961","0.0-6.0-1.0-6.0-0.23","4","3","4","3","3","3","3","3","4","4","4","4","3","4","4","4","4","4","5","4","1","2","2","2","2","2","2","2","1","1","0","1","1","0","0","0","1","0","1","1","0","1","0","1","4","2","2","3","2","5","3","3","1","2","2","784820344564486145","王","267","","","","","","","","","","","","","","","","","","","","","","","","","","","","","","","","","","","","","","","","","",""
"1141","<p style=""color:white; font-size: 35px;"">正直</p>","i","categorize-html","106","265113","0.0-6.0-1.0-6.0-1.23","4","3","4","3","3","3","3","3","4","4","4","4","3","4","4","4","4","4","5","4","1","2","2","2","2","2","2","2","1","1","0","1","1","0","0","0","1","0","1","1","0","1","0","1","4","2","2","3","2","5","3","3","1","2","2","784820344564486145","王","267","","","","","","","","","","","","","","","","","","","true","13","3","moral","1141","positive","正直","","","","","","","","","","","","","","","","",""
"15667","
    <div class=""tag-bottom""><p>
    —— 任务4：对“他人/消极”词和“自我/积极”词分类 ——<p/>
    <span style=""color:#78DCE8""><b>与刚才的任务完全相同，请再次对这四类词语分类</b></span><p/>
    <span style=""color:#FFD866""><b>请根据上方标签的提示，尽可能正确并且快速地做出按键反应</b></span><p/>
    当按键错误时屏幕中会出现<span style=""color:red""> X </span>，需要按另一个键纠正才能继续<br/><p/>
    请把双手食指分别放在键盘的“E”键和“I”键上<p/>
    按<空格键>开始
    </p></div>"," ","html-keyboard-response","107","280785","0.0-6.0-1.0-7.0","4","3","4","3","3","3","3","3","4","4","4","4","3","4","4","4","4","4","5","4","1","2","2","2","2","2","2","2","1","1","0","1","1","0","0","0","1","0","1","1","0","1","0","1","4","2","2","3","2","5","3","3","1","2","2","784820344564486145","王","267","","","","","","","","","","","","","","","","","","","","","","","","","","","","","","","","","","","","","","","","","",""
"null","","null","html-keyboard-response","108","281038","0.0-6.0-1.0-8.0-0.0","4","3","4","3","3","3","3","3","4","4","4","4","3","4","4","4","4","4","5","4","1","2","2","2","2","2","2","2","1","1","0","1","1","0","0","0","1","0","1","1","0","1","0","1","4","2","2","3","2","5","3","3","1","2","2","784820344564486145","王","267","","","","","","","","","","","","","","","","","","","","","","","","","","","","","","","","","","","","","","","","","",""
"911","<p style=""color:rgb(150, 250, 100); font-size: 35px;"">他人的</p>","e","categorize-html","109","281962","0.0-6.0-1.0-8.0-1.0","4","3","4","3","3","3","3","3","4","4","4","4","3","4","4","4","4","4","5","4","1","2","2","2","2","2","2","2","1","1","0","1","1","0","0","0","1","0","1","1","0","1","0","1","4","2","2","3","2","5","3","3","1","2","2","784820344564486145","王","267","","","","","","","","","","","","","","","","","","","true","14","4","moral","911","other","他人的","","","","","","","","","","","","","","","","",""
"null","","null","html-keyboard-response","110","282215","0.0-6.0-1.0-8.0-0.1","4","3","4","3","3","3","3","3","4","4","4","4","3","4","4","4","4","4","5","4","1","2","2","2","2","2","2","2","1","1","0","1","1","0","0","0","1","0","1","1","0","1","0","1","4","2","2","3","2","5","3","3","1","2","2","784820344564486145","王","267","","","","","","","","","","","","","","","","","","","","","","","","","","","","","","","","","","","","","","","","","",""
"810","<p style=""color:white; font-size: 35px;"">小人</p>","e","categorize-html","111","283030","0.0-6.0-1.0-8.0-1.1","4","3","4","3","3","3","3","3","4","4","4","4","3","4","4","4","4","4","5","4","1","2","2","2","2","2","2","2","1","1","0","1","1","0","0","0","1","0","1","1","0","1","0","1","4","2","2","3","2","5","3","3","1","2","2","784820344564486145","王","267","","","","","","","","","","","","","","","","","","","true","14","4","moral","810","negative","小人","","","","","","","","","","","","","","","","",""
"null","","null","html-keyboard-response","112","283282","0.0-6.0-1.0-8.0-0.2","4","3","4","3","3","3","3","3","4","4","4","4","3","4","4","4","4","4","5","4","1","2","2","2","2","2","2","2","1","1","0","1","1","0","0","0","1","0","1","1","0","1","0","1","4","2","2","3","2","5","3","3","1","2","2","784820344564486145","王","267","","","","","","","","","","","","","","","","","","","","","","","","","","","","","","","","","","","","","","","","","",""
"844","<p style=""color:rgb(150, 250, 100); font-size: 35px;"">我</p>","i","categorize-html","113","284135","0.0-6.0-1.0-8.0-1.2","4","3","4","3","3","3","3","3","4","4","4","4","3","4","4","4","4","4","5","4","1","2","2","2","2","2","2","2","1","1","0","1","1","0","0","0","1","0","1","1","0","1","0","1","4","2","2","3","2","5","3","3","1","2","2","784820344564486145","王","267","","","","","","","","","","","","","","","","","","","true","14","4","moral","844","self","我","","","","","","","","","","","","","","","","",""
"null","","null","html-keyboard-response","114","284388","0.0-6.0-1.0-8.0-0.3","4","3","4","3","3","3","3","3","4","4","4","4","3","4","4","4","4","4","5","4","1","2","2","2","2","2","2","2","1","1","0","1","1","0","0","0","1","0","1","1","0","1","0","1","4","2","2","3","2","5","3","3","1","2","2","784820344564486145","王","267","","","","","","","","","","","","","","","","","","","","","","","","","","","","","","","","","","","","","","","","","",""
"869","<p style=""color:white; font-size: 35px;"">廉正</p>","i","categorize-html","115","285262","0.0-6.0-1.0-8.0-1.3","4","3","4","3","3","3","3","3","4","4","4","4","3","4","4","4","4","4","5","4","1","2","2","2","2","2","2","2","1","1","0","1","1","0","0","0","1","0","1","1","0","1","0","1","4","2","2","3","2","5","3","3","1","2","2","784820344564486145","王","267","","","","","","","","","","","","","","","","","","","true","14","4","moral","869","positive","廉正","","","","","","","","","","","","","","","","",""
"null","","null","html-keyboard-response","116","285515","0.0-6.0-1.0-8.0-0.4","4","3","4","3","3","3","3","3","4","4","4","4","3","4","4","4","4","4","5","4","1","2","2","2","2","2","2","2","1","1","0","1","1","0","0","0","1","0","1","1","0","1","0","1","4","2","2","3","2","5","3","3","1","2","2","784820344564486145","王","267","","","","","","","","","","","","","","","","","","","","","","","","","","","","","","","","","","","","","","","","","",""
"662","<p style=""color:rgb(150, 250, 100); font-size: 35px;"">别人</p>","e","categorize-html","117","286182","0.0-6.0-1.0-8.0-1.4","4","3","4","3","3","3","3","3","4","4","4","4","3","4","4","4","4","4","5","4","1","2","2","2","2","2","2","2","1","1","0","1","1","0","0","0","1","0","1","1","0","1","0","1","4","2","2","3","2","5","3","3","1","2","2","784820344564486145","王","267","","","","","","","","","","","","","","","","","","","true","14","4","moral","662","other","别人","","","","","","","","","","","","","","","","",""
"null","","null","html-keyboard-response","118","286435","0.0-6.0-1.0-8.0-0.5","4","3","4","3","3","3","3","3","4","4","4","4","3","4","4","4","4","4","5","4","1","2","2","2","2","2","2","2","1","1","0","1","1","0","0","0","1","0","1","1","0","1","0","1","4","2","2","3","2","5","3","3","1","2","2","784820344564486145","王","267","","","","","","","","","","","","","","","","","","","","","","","","","","","","","","","","","","","","","","","","","",""
"662","<p style=""color:white; font-size: 35px;"">缺德</p>","e","categorize-html","119","287103","0.0-6.0-1.0-8.0-1.5","4","3","4","3","3","3","3","3","4","4","4","4","3","4","4","4","4","4","5","4","1","2","2","2","2","2","2","2","1","1","0","1","1","0","0","0","1","0","1","1","0","1","0","1","4","2","2","3","2","5","3","3","1","2","2","784820344564486145","王","267","","","","","","","","","","","","","","","","","","","true","14","4","moral","662","negative","缺德","","","","","","","","","","","","","","","","",""
"null","","null","html-keyboard-response","120","287355","0.0-6.0-1.0-8.0-0.6","4","3","4","3","3","3","3","3","4","4","4","4","3","4","4","4","4","4","5","4","1","2","2","2","2","2","2","2","1","1","0","1","1","0","0","0","1","0","1","1","0","1","0","1","4","2","2","3","2","5","3","3","1","2","2","784820344564486145","王","267","","","","","","","","","","","","","","","","","","","","","","","","","","","","","","","","","","","","","","","","","",""
"644","<p style=""color:rgb(150, 250, 100); font-size: 35px;"">我</p>","i","categorize-html","121","288005","0.0-6.0-1.0-8.0-1.6","4","3","4","3","3","3","3","3","4","4","4","4","3","4","4","4","4","4","5","4","1","2","2","2","2","2","2","2","1","1","0","1","1","0","0","0","1","0","1","1","0","1","0","1","4","2","2","3","2","5","3","3","1","2","2","784820344564486145","王","267","","","","","","","","","","","","","","","","","","","true","14","4","moral","644","self","我","","","","","","","","","","","","","","","","",""
"null","","null","html-keyboard-response","122","288257","0.0-6.0-1.0-8.0-0.7","4","3","4","3","3","3","3","3","4","4","4","4","3","4","4","4","4","4","5","4","1","2","2","2","2","2","2","2","1","1","0","1","1","0","0","0","1","0","1","1","0","1","0","1","4","2","2","3","2","5","3","3","1","2","2","784820344564486145","王","267","","","","","","","","","","","","","","","","","","","","","","","","","","","","","","","","","","","","","","","","","",""
"648","<p style=""color:white; font-size: 35px;"">高尚</p>","i","categorize-html","123","288910","0.0-6.0-1.0-8.0-1.7","4","3","4","3","3","3","3","3","4","4","4","4","3","4","4","4","4","4","5","4","1","2","2","2","2","2","2","2","1","1","0","1","1","0","0","0","1","0","1","1","0","1","0","1","4","2","2","3","2","5","3","3","1","2","2","784820344564486145","王","267","","","","","","","","","","","","","","","","","","","true","14","4","moral","648","positive","高尚","","","","","","","","","","","","","","","","",""
"null","","null","html-keyboard-response","124","289162","0.0-6.0-1.0-8.0-0.8","4","3","4","3","3","3","3","3","4","4","4","4","3","4","4","4","4","4","5","4","1","2","2","2","2","2","2","2","1","1","0","1","1","0","0","0","1","0","1","1","0","1","0","1","4","2","2","3","2","5","3","3","1","2","2","784820344564486145","王","267","","","","","","","","","","","","","","","","","","","","","","","","","","","","","","","","","","","","","","","","","",""
"742","<p style=""color:rgb(150, 250, 100); font-size: 35px;"">他的</p>","e","categorize-html","125","289911","0.0-6.0-1.0-8.0-1.8","4","3","4","3","3","3","3","3","4","4","4","4","3","4","4","4","4","4","5","4","1","2","2","2","2","2","2","2","1","1","0","1","1","0","0","0","1","0","1","1","0","1","0","1","4","2","2","3","2","5","3","3","1","2","2","784820344564486145","王","267","","","","","","","","","","","","","","","","","","","true","14","4","moral","742","other","他的","","","","","","","","","","","","","","","","",""
"null","","null","html-keyboard-response","126","290164","0.0-6.0-1.0-8.0-0.9","4","3","4","3","3","3","3","3","4","4","4","4","3","4","4","4","4","4","5","4","1","2","2","2","2","2","2","2","1","1","0","1","1","0","0","0","1","0","1","1","0","1","0","1","4","2","2","3","2","5","3","3","1","2","2","784820344564486145","王","267","","","","","","","","","","","","","","","","","","","","","","","","","","","","","","","","","","","","","","","","","",""
"701","<p style=""color:white; font-size: 35px;"">正直</p>","i","categorize-html","127","290870","0.0-6.0-1.0-8.0-1.9","4","3","4","3","3","3","3","3","4","4","4","4","3","4","4","4","4","4","5","4","1","2","2","2","2","2","2","2","1","1","0","1","1","0","0","0","1","0","1","1","0","1","0","1","4","2","2","3","2","5","3","3","1","2","2","784820344564486145","王","267","","","","","","","","","","","","","","","","","","","true","14","4","moral","701","positive","正直","","","","","","","","","","","","","","","","",""
"null","","null","html-keyboard-response","128","291123","0.0-6.0-1.0-8.0-0.10","4","3","4","3","3","3","3","3","4","4","4","4","3","4","4","4","4","4","5","4","1","2","2","2","2","2","2","2","1","1","0","1","1","0","0","0","1","0","1","1","0","1","0","1","4","2","2","3","2","5","3","3","1","2","2","784820344564486145","王","267","","","","","","","","","","","","","","","","","","","","","","","","","","","","","","","","","","","","","","","","","",""
"765","<p style=""color:rgb(150, 250, 100); font-size: 35px;"">自己</p>","i","categorize-html","129","291893","0.0-6.0-1.0-8.0-1.10","4","3","4","3","3","3","3","3","4","4","4","4","3","4","4","4","4","4","5","4","1","2","2","2","2","2","2","2","1","1","0","1","1","0","0","0","1","0","1","1","0","1","0","1","4","2","2","3","2","5","3","3","1","2","2","784820344564486145","王","267","","","","","","","","","","","","","","","","","","","true","14","4","moral","765","self","自己","","","","","","","","","","","","","","","","",""
"null","","null","html-keyboard-response","130","292145","0.0-6.0-1.0-8.0-0.11","4","3","4","3","3","3","3","3","4","4","4","4","3","4","4","4","4","4","5","4","1","2","2","2","2","2","2","2","1","1","0","1","1","0","0","0","1","0","1","1","0","1","0","1","4","2","2","3","2","5","3","3","1","2","2","784820344564486145","王","267","","","","","","","","","","","","","","","","","","","","","","","","","","","","","","","","","","","","","","","","","",""
"735","<p style=""color:white; font-size: 35px;"">不孝</p>","e","categorize-html","131","292888","0.0-6.0-1.0-8.0-1.11","4","3","4","3","3","3","3","3","4","4","4","4","3","4","4","4","4","4","5","4","1","2","2","2","2","2","2","2","1","1","0","1","1","0","0","0","1","0","1","1","0","1","0","1","4","2","2","3","2","5","3","3","1","2","2","784820344564486145","王","267","","","","","","","","","","","","","","","","","","","true","14","4","moral","735","negative","不孝","","","","","","","","","","","","","","","","",""
"null","","null","html-keyboard-response","132","293141","0.0-6.0-1.0-8.0-0.12","4","3","4","3","3","3","3","3","4","4","4","4","3","4","4","4","4","4","5","4","1","2","2","2","2","2","2","2","1","1","0","1","1","0","0","0","1","0","1","1","0","1","0","1","4","2","2","3","2","5","3","3","1","2","2","784820344564486145","王","267","","","","","","","","","","","","","","","","","","","","","","","","","","","","","","","","","","","","","","","","","",""
"834","<p style=""color:rgb(150, 250, 100); font-size: 35px;"">别人的</p>","e","categorize-html","133","293981","0.0-6.0-1.0-8.0-1.12","4","3","4","3","3","3","3","3","4","4","4","4","3","4","4","4","4","4","5","4","1","2","2","2","2","2","2","2","1","1","0","1","1","0","0","0","1","0","1","1","0","1","0","1","4","2","2","3","2","5","3","3","1","2","2","784820344564486145","王","267","","","","","","","","","","","","","","","","","","","true","14","4","moral","834","other","别人的","","","","","","","","","","","","","","","","",""
"null","","null","html-keyboard-response","134","294233","0.0-6.0-1.0-8.0-0.13","4","3","4","3","3","3","3","3","4","4","4","4","3","4","4","4","4","4","5","4","1","2","2","2","2","2","2","2","1","1","0","1","1","0","0","0","1","0","1","1","0","1","0","1","4","2","2","3","2","5","3","3","1","2","2","784820344564486145","王","267","","","","","","","","","","","","","","","","","","","","","","","","","","","","","","","","","","","","","","","","","",""
"623","<p style=""color:white; font-size: 35px;"">卑鄙</p>","e","categorize-html","135","294862","0.0-6.0-1.0-8.0-1.13","4","3","4","3","3","3","3","3","4","4","4","4","3","4","4","4","4","4","5","4","1","2","2","2","2","2","2","2","1","1","0","1","1","0","0","0","1","0","1","1","0","1","0","1","4","2","2","3","2","5","3","3","1","2","2","784820344564486145","王","267","","","","","","","","","","","","","","","","","","","true","14","4","moral","623","negative","卑鄙","","","","","","","","","","","","","","","","",""
"null","","null","html-keyboard-response","136","295114","0.0-6.0-1.0-8.0-0.14","4","3","4","3","3","3","3","3","4","4","4","4","3","4","4","4","4","4","5","4","1","2","2","2","2","2","2","2","1","1","0","1","1","0","0","0","1","0","1","1","0","1","0","1","4","2","2","3","2","5","3","3","1","2","2","784820344564486145","王","267","","","","","","","","","","","","","","","","","","","","","","","","","","","","","","","","","","","","","","","","","",""
"726","<p style=""color:rgb(150, 250, 100); font-size: 35px;"">自己的</p>","i","categorize-html","137","295845","0.0-6.0-1.0-8.0-1.14","4","3","4","3","3","3","3","3","4","4","4","4","3","4","4","4","4","4","5","4","1","2","2","2","2","2","2","2","1","1","0","1","1","0","0","0","1","0","1","1","0","1","0","1","4","2","2","3","2","5","3","3","1","2","2","784820344564486145","王","267","","","","","","","","","","","","","","","","","","","true","14","4","moral","726","self","自己的","","","","","","","","","","","","","","","","",""
"null","","null","html-keyboard-response","138","296097","0.0-6.0-1.0-8.0-0.15","4","3","4","3","3","3","3","3","4","4","4","4","3","4","4","4","4","4","5","4","1","2","2","2","2","2","2","2","1","1","0","1","1","0","0","0","1","0","1","1","0","1","0","1","4","2","2","3","2","5","3","3","1","2","2","784820344564486145","王","267","","","","","","","","","","","","","","","","","","","","","","","","","","","","","","","","","","","","","","","","","",""
"767","<p style=""color:white; font-size: 35px;"">正直</p>","i","categorize-html","139","296869","0.0-6.0-1.0-8.0-1.15","4","3","4","3","3","3","3","3","4","4","4","4","3","4","4","4","4","4","5","4","1","2","2","2","2","2","2","2","1","1","0","1","1","0","0","0","1","0","1","1","0","1","0","1","4","2","2","3","2","5","3","3","1","2","2","784820344564486145","王","267","","","","","","","","","","","","","","","","","","","true","14","4","moral","767","positive","正直","","","","","","","","","","","","","","","","",""
"null","","null","html-keyboard-response","140","297120","0.0-6.0-1.0-8.0-0.16","4","3","4","3","3","3","3","3","4","4","4","4","3","4","4","4","4","4","5","4","1","2","2","2","2","2","2","2","1","1","0","1","1","0","0","0","1","0","1","1","0","1","0","1","4","2","2","3","2","5","3","3","1","2","2","784820344564486145","王","267","","","","","","","","","","","","","","","","","","","","","","","","","","","","","","","","","","","","","","","","","",""
"712","<p style=""color:rgb(150, 250, 100); font-size: 35px;"">他人的</p>","e","categorize-html","141","297837","0.0-6.0-1.0-8.0-1.16","4","3","4","3","3","3","3","3","4","4","4","4","3","4","4","4","4","4","5","4","1","2","2","2","2","2","2","2","1","1","0","1","1","0","0","0","1","0","1","1","0","1","0","1","4","2","2","3","2","5","3","3","1","2","2","784820344564486145","王","267","","","","","","","","","","","","","","","","","","","true","14","4","moral","712","other","他人的","","","","","","","","","","","","","","","","",""
"null","","null","html-keyboard-response","142","298090","0.0-6.0-1.0-8.0-0.17","4","3","4","3","3","3","3","3","4","4","4","4","3","4","4","4","4","4","5","4","1","2","2","2","2","2","2","2","1","1","0","1","1","0","0","0","1","0","1","1","0","1","0","1","4","2","2","3","2","5","3","3","1","2","2","784820344564486145","王","267","","","","","","","","","","","","","","","","","","","","","","","","","","","","","","","","","","","","","","","","","",""
"863","<p style=""color:white; font-size: 35px;"">不仁</p>","e","categorize-html","143","298958","0.0-6.0-1.0-8.0-1.17","4","3","4","3","3","3","3","3","4","4","4","4","3","4","4","4","4","4","5","4","1","2","2","2","2","2","2","2","1","1","0","1","1","0","0","0","1","0","1","1","0","1","0","1","4","2","2","3","2","5","3","3","1","2","2","784820344564486145","王","267","","","","","","","","","","","","","","","","","","","true","14","4","moral","863","negative","不仁","","","","","","","","","","","","","","","","",""
"null","","null","html-keyboard-response","144","299210","0.0-6.0-1.0-8.0-0.18","4","3","4","3","3","3","3","3","4","4","4","4","3","4","4","4","4","4","5","4","1","2","2","2","2","2","2","2","1","1","0","1","1","0","0","0","1","0","1","1","0","1","0","1","4","2","2","3","2","5","3","3","1","2","2","784820344564486145","王","267","","","","","","","","","","","","","","","","","","","","","","","","","","","","","","","","","","","","","","","","","",""
"679","<p style=""color:rgb(150, 250, 100); font-size: 35px;"">本人的</p>","i","categorize-html","145","299899","0.0-6.0-1.0-8.0-1.18","4","3","4","3","3","3","3","3","4","4","4","4","3","4","4","4","4","4","5","4","1","2","2","2","2","2","2","2","1","1","0","1","1","0","0","0","1","0","1","1","0","1","0","1","4","2","2","3","2","5","3","3","1","2","2","784820344564486145","王","267","","","","","","","","","","","","","","","","","","","true","14","4","moral","679","self","本人的","","","","","","","","","","","","","","","","",""
"null","","null","html-keyboard-response","146","300151","0.0-6.0-1.0-8.0-0.19","4","3","4","3","3","3","3","3","4","4","4","4","3","4","4","4","4","4","5","4","1","2","2","2","2","2","2","2","1","1","0","1","1","0","0","0","1","0","1","1","0","1","0","1","4","2","2","3","2","5","3","3","1","2","2","784820344564486145","王","267","","","","","","","","","","","","","","","","","","","","","","","","","","","","","","","","","","","","","","","","","",""
"722","<p style=""color:white; font-size: 35px;"">诚信</p>","i","categorize-html","147","300879","0.0-6.0-1.0-8.0-1.19","4","3","4","3","3","3","3","3","4","4","4","4","3","4","4","4","4","4","5","4","1","2","2","2","2","2","2","2","1","1","0","1","1","0","0","0","1","0","1","1","0","1","0","1","4","2","2","3","2","5","3","3","1","2","2","784820344564486145","王","267","","","","","","","","","","","","","","","","","","","true","14","4","moral","722","positive","诚信","","","","","","","","","","","","","","","","",""
"null","","null","html-keyboard-response","148","301131","0.0-6.0-1.0-8.0-0.20","4","3","4","3","3","3","3","3","4","4","4","4","3","4","4","4","4","4","5","4","1","2","2","2","2","2","2","2","1","1","0","1","1","0","0","0","1","0","1","1","0","1","0","1","4","2","2","3","2","5","3","3","1","2","2","784820344564486145","王","267","","","","","","","","","","","","","","","","","","","","","","","","","","","","","","","","","","","","","","","","","",""
"701","<p style=""color:rgb(150, 250, 100); font-size: 35px;"">他人</p>","e","categorize-html","149","301840","0.0-6.0-1.0-8.0-1.20","4","3","4","3","3","3","3","3","4","4","4","4","3","4","4","4","4","4","5","4","1","2","2","2","2","2","2","2","1","1","0","1","1","0","0","0","1","0","1","1","0","1","0","1","4","2","2","3","2","5","3","3","1","2","2","784820344564486145","王","267","","","","","","","","","","","","","","","","","","","true","14","4","moral","701","other","他人","","","","","","","","","","","","","","","","",""
"null","","null","html-keyboard-response","150","302093","0.0-6.0-1.0-8.0-0.21","4","3","4","3","3","3","3","3","4","4","4","4","3","4","4","4","4","4","5","4","1","2","2","2","2","2","2","2","1","1","0","1","1","0","0","0","1","0","1","1","0","1","0","1","4","2","2","3","2","5","3","3","1","2","2","784820344564486145","王","267","","","","","","","","","","","","","","","","","","","","","","","","","","","","","","","","","","","","","","","","","",""
"659","<p style=""color:white; font-size: 35px;"">高尚</p>","i","categorize-html","151","302756","0.0-6.0-1.0-8.0-1.21","4","3","4","3","3","3","3","3","4","4","4","4","3","4","4","4","4","4","5","4","1","2","2","2","2","2","2","2","1","1","0","1","1","0","0","0","1","0","1","1","0","1","0","1","4","2","2","3","2","5","3","3","1","2","2","784820344564486145","王","267","","","","","","","","","","","","","","","","","","","true","14","4","moral","659","positive","高尚","","","","","","","","","","","","","","","","",""
"null","","null","html-keyboard-response","152","303015","0.0-6.0-1.0-8.0-0.22","4","3","4","3","3","3","3","3","4","4","4","4","3","4","4","4","4","4","5","4","1","2","2","2","2","2","2","2","1","1","0","1","1","0","0","0","1","0","1","1","0","1","0","1","4","2","2","3","2","5","3","3","1","2","2","784820344564486145","王","267","","","","","","","","","","","","","","","","","","","","","","","","","","","","","","","","","","","","","","","","","",""
"697","<p style=""color:rgb(150, 250, 100); font-size: 35px;"">自己的</p>","i","categorize-html","153","303718","0.0-6.0-1.0-8.0-1.22","4","3","4","3","3","3","3","3","4","4","4","4","3","4","4","4","4","4","5","4","1","2","2","2","2","2","2","2","1","1","0","1","1","0","0","0","1","0","1","1","0","1","0","1","4","2","2","3","2","5","3","3","1","2","2","784820344564486145","王","267","","","","","","","","","","","","","","","","","","","true","14","4","moral","697","self","自己的","","","","","","","","","","","","","","","","",""
"null","","null","html-keyboard-response","154","303970","0.0-6.0-1.0-8.0-0.23","4","3","4","3","3","3","3","3","4","4","4","4","3","4","4","4","4","4","5","4","1","2","2","2","2","2","2","2","1","1","0","1","1","0","0","0","1","0","1","1","0","1","0","1","4","2","2","3","2","5","3","3","1","2","2","784820344564486145","王","267","","","","","","","","","","","","","","","","","","","","","","","","","","","","","","","","","","","","","","","","","",""
"675","<p style=""color:white; font-size: 35px;"">黑心</p>","e","categorize-html","155","304649","0.0-6.0-1.0-8.0-1.23","4","3","4","3","3","3","3","3","4","4","4","4","3","4","4","4","4","4","5","4","1","2","2","2","2","2","2","2","1","1","0","1","1","0","0","0","1","0","1","1","0","1","0","1","4","2","2","3","2","5","3","3","1","2","2","784820344564486145","王","267","","","","","","","","","","","","","","","","","","","true","14","4","moral","675","negative","黑心","","","","","","","","","","","","","","","","",""
"null","","null","html-keyboard-response","156","304901","0.0-6.0-1.0-8.0-0.24","4","3","4","3","3","3","3","3","4","4","4","4","3","4","4","4","4","4","5","4","1","2","2","2","2","2","2","2","1","1","0","1","1","0","0","0","1","0","1","1","0","1","0","1","4","2","2","3","2","5","3","3","1","2","2","784820344564486145","王","267","","","","","","","","","","","","","","","","","","","","","","","","","","","","","","","","","","","","","","","","","",""
"682","<p style=""color:rgb(150, 250, 100); font-size: 35px;"">自己</p>","i","categorize-html","157","305591","0.0-6.0-1.0-8.0-1.24","4","3","4","3","3","3","3","3","4","4","4","4","3","4","4","4","4","4","5","4","1","2","2","2","2","2","2","2","1","1","0","1","1","0","0","0","1","0","1","1","0","1","0","1","4","2","2","3","2","5","3","3","1","2","2","784820344564486145","王","267","","","","","","","","","","","","","","","","","","","true","14","4","moral","682","self","自己","","","","","","","","","","","","","","","","",""
"null","","null","html-keyboard-response","158","305844","0.0-6.0-1.0-8.0-0.25","4","3","4","3","3","3","3","3","4","4","4","4","3","4","4","4","4","4","5","4","1","2","2","2","2","2","2","2","1","1","0","1","1","0","0","0","1","0","1","1","0","1","0","1","4","2","2","3","2","5","3","3","1","2","2","784820344564486145","王","267","","","","","","","","","","","","","","","","","","","","","","","","","","","","","","","","","","","","","","","","","",""
"845","<p style=""color:white; font-size: 35px;"">君子</p>","i","categorize-html","159","306693","0.0-6.0-1.0-8.0-1.25","4","3","4","3","3","3","3","3","4","4","4","4","3","4","4","4","4","4","5","4","1","2","2","2","2","2","2","2","1","1","0","1","1","0","0","0","1","0","1","1","0","1","0","1","4","2","2","3","2","5","3","3","1","2","2","784820344564486145","王","267","","","","","","","","","","","","","","","","","","","true","14","4","moral","845","positive","君子","","","","","","","","","","","","","","","","",""
"null","","null","html-keyboard-response","160","306944","0.0-6.0-1.0-8.0-0.26","4","3","4","3","3","3","3","3","4","4","4","4","3","4","4","4","4","4","5","4","1","2","2","2","2","2","2","2","1","1","0","1","1","0","0","0","1","0","1","1","0","1","0","1","4","2","2","3","2","5","3","3","1","2","2","784820344564486145","王","267","","","","","","","","","","","","","","","","","","","","","","","","","","","","","","","","","","","","","","","","","",""
"728","<p style=""color:rgb(150, 250, 100); font-size: 35px;"">别人的</p>","e","categorize-html","161","307676","0.0-6.0-1.0-8.0-1.26","4","3","4","3","3","3","3","3","4","4","4","4","3","4","4","4","4","4","5","4","1","2","2","2","2","2","2","2","1","1","0","1","1","0","0","0","1","0","1","1","0","1","0","1","4","2","2","3","2","5","3","3","1","2","2","784820344564486145","王","267","","","","","","","","","","","","","","","","","","","true","14","4","moral","728","other","别人的","","","","","","","","","","","","","","","","",""
"null","","null","html-keyboard-response","162","307932","0.0-6.0-1.0-8.0-0.27","4","3","4","3","3","3","3","3","4","4","4","4","3","4","4","4","4","4","5","4","1","2","2","2","2","2","2","2","1","1","0","1","1","0","0","0","1","0","1","1","0","1","0","1","4","2","2","3","2","5","3","3","1","2","2","784820344564486145","王","267","","","","","","","","","","","","","","","","","","","","","","","","","","","","","","","","","","","","","","","","","",""
"685","<p style=""color:white; font-size: 35px;"">不孝</p>","e","categorize-html","163","308622","0.0-6.0-1.0-8.0-1.27","4","3","4","3","3","3","3","3","4","4","4","4","3","4","4","4","4","4","5","4","1","2","2","2","2","2","2","2","1","1","0","1","1","0","0","0","1","0","1","1","0","1","0","1","4","2","2","3","2","5","3","3","1","2","2","784820344564486145","王","267","","","","","","","","","","","","","","","","","","","true","14","4","moral","685","negative","不孝","","","","","","","","","","","","","","","","",""
"null","","null","html-keyboard-response","164","308875","0.0-6.0-1.0-8.0-0.28","4","3","4","3","3","3","3","3","4","4","4","4","3","4","4","4","4","4","5","4","1","2","2","2","2","2","2","2","1","1","0","1","1","0","0","0","1","0","1","1","0","1","0","1","4","2","2","3","2","5","3","3","1","2","2","784820344564486145","王","267","","","","","","","","","","","","","","","","","","","","","","","","","","","","","","","","","","","","","","","","","",""
"693","<p style=""color:rgb(150, 250, 100); font-size: 35px;"">他人</p>","e","categorize-html","165","309573","0.0-6.0-1.0-8.0-1.28","4","3","4","3","3","3","3","3","4","4","4","4","3","4","4","4","4","4","5","4","1","2","2","2","2","2","2","2","1","1","0","1","1","0","0","0","1","0","1","1","0","1","0","1","4","2","2","3","2","5","3","3","1","2","2","784820344564486145","王","267","","","","","","","","","","","","","","","","","","","true","14","4","moral","693","other","他人","","","","","","","","","","","","","","","","",""
"null","","null","html-keyboard-response","166","309824","0.0-6.0-1.0-8.0-0.29","4","3","4","3","3","3","3","3","4","4","4","4","3","4","4","4","4","4","5","4","1","2","2","2","2","2","2","2","1","1","0","1","1","0","0","0","1","0","1","1","0","1","0","1","4","2","2","3","2","5","3","3","1","2","2","784820344564486145","王","267","","","","","","","","","","","","","","","","","","","","","","","","","","","","","","","","","","","","","","","","","",""
"682","<p style=""color:white; font-size: 35px;"">诚信</p>","i","categorize-html","167","310512","0.0-6.0-1.0-8.0-1.29","4","3","4","3","3","3","3","3","4","4","4","4","3","4","4","4","4","4","5","4","1","2","2","2","2","2","2","2","1","1","0","1","1","0","0","0","1","0","1","1","0","1","0","1","4","2","2","3","2","5","3","3","1","2","2","784820344564486145","王","267","","","","","","","","","","","","","","","","","","","true","14","4","moral","682","positive","诚信","","","","","","","","","","","","","","","","",""
"null","","null","html-keyboard-response","168","310772","0.0-6.0-1.0-8.0-0.30","4","3","4","3","3","3","3","3","4","4","4","4","3","4","4","4","4","4","5","4","1","2","2","2","2","2","2","2","1","1","0","1","1","0","0","0","1","0","1","1","0","1","0","1","4","2","2","3","2","5","3","3","1","2","2","784820344564486145","王","267","","","","","","","","","","","","","","","","","","","","","","","","","","","","","","","","","","","","","","","","","",""
"765","<p style=""color:rgb(150, 250, 100); font-size: 35px;"">本人</p>","i","categorize-html","169","311542","0.0-6.0-1.0-8.0-1.30","4","3","4","3","3","3","3","3","4","4","4","4","3","4","4","4","4","4","5","4","1","2","2","2","2","2","2","2","1","1","0","1","1","0","0","0","1","0","1","1","0","1","0","1","4","2","2","3","2","5","3","3","1","2","2","784820344564486145","王","267","","","","","","","","","","","","","","","","","","","true","14","4","moral","765","self","本人","","","","","","","","","","","","","","","","",""
"null","","null","html-keyboard-response","170","311795","0.0-6.0-1.0-8.0-0.31","4","3","4","3","3","3","3","3","4","4","4","4","3","4","4","4","4","4","5","4","1","2","2","2","2","2","2","2","1","1","0","1","1","0","0","0","1","0","1","1","0","1","0","1","4","2","2","3","2","5","3","3","1","2","2","784820344564486145","王","267","","","","","","","","","","","","","","","","","","","","","","","","","","","","","","","","","","","","","","","","","",""
"701","<p style=""color:white; font-size: 35px;"">不仁</p>","e","categorize-html","171","312503","0.0-6.0-1.0-8.0-1.31","4","3","4","3","3","3","3","3","4","4","4","4","3","4","4","4","4","4","5","4","1","2","2","2","2","2","2","2","1","1","0","1","1","0","0","0","1","0","1","1","0","1","0","1","4","2","2","3","2","5","3","3","1","2","2","784820344564486145","王","267","","","","","","","","","","","","","","","","","","","true","14","4","moral","701","negative","不仁","","","","","","","","","","","","","","","","",""
"null","","null","html-keyboard-response","172","312760","0.0-6.0-1.0-8.0-0.32","4","3","4","3","3","3","3","3","4","4","4","4","3","4","4","4","4","4","5","4","1","2","2","2","2","2","2","2","1","1","0","1","1","0","0","0","1","0","1","1","0","1","0","1","4","2","2","3","2","5","3","3","1","2","2","784820344564486145","王","267","","","","","","","","","","","","","","","","","","","","","","","","","","","","","","","","","","","","","","","","","",""
"687","<p style=""color:rgb(150, 250, 100); font-size: 35px;"">他</p>","e","categorize-html","173","313453","0.0-6.0-1.0-8.0-1.32","4","3","4","3","3","3","3","3","4","4","4","4","3","4","4","4","4","4","5","4","1","2","2","2","2","2","2","2","1","1","0","1","1","0","0","0","1","0","1","1","0","1","0","1","4","2","2","3","2","5","3","3","1","2","2","784820344564486145","王","267","","","","","","","","","","","","","","","","","","","true","14","4","moral","687","other","他","","","","","","","","","","","","","","","","",""
"null","","null","html-keyboard-response","174","313705","0.0-6.0-1.0-8.0-0.33","4","3","4","3","3","3","3","3","4","4","4","4","3","4","4","4","4","4","5","4","1","2","2","2","2","2","2","2","1","1","0","1","1","0","0","0","1","0","1","1","0","1","0","1","4","2","2","3","2","5","3","3","1","2","2","784820344564486145","王","267","","","","","","","","","","","","","","","","","","","","","","","","","","","","","","","","","","","","","","","","","",""
"696","<p style=""color:white; font-size: 35px;"">缺德</p>","e","categorize-html","175","314408","0.0-6.0-1.0-8.0-1.33","4","3","4","3","3","3","3","3","4","4","4","4","3","4","4","4","4","4","5","4","1","2","2","2","2","2","2","2","1","1","0","1","1","0","0","0","1","0","1","1","0","1","0","1","4","2","2","3","2","5","3","3","1","2","2","784820344564486145","王","267","","","","","","","","","","","","","","","","","","","true","14","4","moral","696","negative","缺德","","","","","","","","","","","","","","","","",""
"null","","null","html-keyboard-response","176","314661","0.0-6.0-1.0-8.0-0.34","4","3","4","3","3","3","3","3","4","4","4","4","3","4","4","4","4","4","5","4","1","2","2","2","2","2","2","2","1","1","0","1","1","0","0","0","1","0","1","1","0","1","0","1","4","2","2","3","2","5","3","3","1","2","2","784820344564486145","王","267","","","","","","","","","","","","","","","","","","","","","","","","","","","","","","","","","","","","","","","","","",""
"654","<p style=""color:rgb(150, 250, 100); font-size: 35px;"">我的</p>","i","categorize-html","177","315324","0.0-6.0-1.0-8.0-1.34","4","3","4","3","3","3","3","3","4","4","4","4","3","4","4","4","4","4","5","4","1","2","2","2","2","2","2","2","1","1","0","1","1","0","0","0","1","0","1","1","0","1","0","1","4","2","2","3","2","5","3","3","1","2","2","784820344564486145","王","267","","","","","","","","","","","","","","","","","","","true","14","4","moral","654","self","我的","","","","","","","","","","","","","","","","",""
"null","","null","html-keyboard-response","178","315577","0.0-6.0-1.0-8.0-0.35","4","3","4","3","3","3","3","3","4","4","4","4","3","4","4","4","4","4","5","4","1","2","2","2","2","2","2","2","1","1","0","1","1","0","0","0","1","0","1","1","0","1","0","1","4","2","2","3","2","5","3","3","1","2","2","784820344564486145","王","267","","","","","","","","","","","","","","","","","","","","","","","","","","","","","","","","","","","","","","","","","",""
"894","<p style=""color:white; font-size: 35px;"">善良</p>","i","categorize-html","179","316479","0.0-6.0-1.0-8.0-1.35","4","3","4","3","3","3","3","3","4","4","4","4","3","4","4","4","4","4","5","4","1","2","2","2","2","2","2","2","1","1","0","1","1","0","0","0","1","0","1","1","0","1","0","1","4","2","2","3","2","5","3","3","1","2","2","784820344564486145","王","267","","","","","","","","","","","","","","","","","","","true","14","4","moral","894","positive","善良","","","","","","","","","","","","","","","","",""
"null","","null","html-keyboard-response","180","316731","0.0-6.0-1.0-8.0-0.36","4","3","4","3","3","3","3","3","4","4","4","4","3","4","4","4","4","4","5","4","1","2","2","2","2","2","2","2","1","1","0","1","1","0","0","0","1","0","1","1","0","1","0","1","4","2","2","3","2","5","3","3","1","2","2","784820344564486145","王","267","","","","","","","","","","","","","","","","","","","","","","","","","","","","","","","","","","","","","","","","","",""
"788","<p style=""color:rgb(150, 250, 100); font-size: 35px;"">他的</p>","e","categorize-html","181","317525","0.0-6.0-1.0-8.0-1.36","4","3","4","3","3","3","3","3","4","4","4","4","3","4","4","4","4","4","5","4","1","2","2","2","2","2","2","2","1","1","0","1","1","0","0","0","1","0","1","1","0","1","0","1","4","2","2","3","2","5","3","3","1","2","2","784820344564486145","王","267","","","","","","","","","","","","","","","","","","","true","14","4","moral","788","other","他的","","","","","","","","","","","","","","","","",""
"null","","null","html-keyboard-response","182","317779","0.0-6.0-1.0-8.0-0.37","4","3","4","3","3","3","3","3","4","4","4","4","3","4","4","4","4","4","5","4","1","2","2","2","2","2","2","2","1","1","0","1","1","0","0","0","1","0","1","1","0","1","0","1","4","2","2","3","2","5","3","3","1","2","2","784820344564486145","王","267","","","","","","","","","","","","","","","","","","","","","","","","","","","","","","","","","","","","","","","","","",""
"701","<p style=""color:white; font-size: 35px;"">黑心</p>","e","categorize-html","183","318484","0.0-6.0-1.0-8.0-1.37","4","3","4","3","3","3","3","3","4","4","4","4","3","4","4","4","4","4","5","4","1","2","2","2","2","2","2","2","1","1","0","1","1","0","0","0","1","0","1","1","0","1","0","1","4","2","2","3","2","5","3","3","1","2","2","784820344564486145","王","267","","","","","","","","","","","","","","","","","","","true","14","4","moral","701","negative","黑心","","","","","","","","","","","","","","","","",""
"null","","null","html-keyboard-response","184","318736","0.0-6.0-1.0-8.0-0.38","4","3","4","3","3","3","3","3","4","4","4","4","3","4","4","4","4","4","5","4","1","2","2","2","2","2","2","2","1","1","0","1","1","0","0","0","1","0","1","1","0","1","0","1","4","2","2","3","2","5","3","3","1","2","2","784820344564486145","王","267","","","","","","","","","","","","","","","","","","","","","","","","","","","","","","","","","","","","","","","","","",""
"704","<p style=""color:rgb(150, 250, 100); font-size: 35px;"">我的</p>","i","categorize-html","185","319446","0.0-6.0-1.0-8.0-1.38","4","3","4","3","3","3","3","3","4","4","4","4","3","4","4","4","4","4","5","4","1","2","2","2","2","2","2","2","1","1","0","1","1","0","0","0","1","0","1","1","0","1","0","1","4","2","2","3","2","5","3","3","1","2","2","784820344564486145","王","267","","","","","","","","","","","","","","","","","","","true","14","4","moral","704","self","我的","","","","","","","","","","","","","","","","",""
"null","","null","html-keyboard-response","186","319699","0.0-6.0-1.0-8.0-0.39","4","3","4","3","3","3","3","3","4","4","4","4","3","4","4","4","4","4","5","4","1","2","2","2","2","2","2","2","1","1","0","1","1","0","0","0","1","0","1","1","0","1","0","1","4","2","2","3","2","5","3","3","1","2","2","784820344564486145","王","267","","","","","","","","","","","","","","","","","","","","","","","","","","","","","","","","","","","","","","","","","",""
"1116","<p style=""color:white; font-size: 35px;"">君子</p>","i","categorize-html","187","323311","0.0-6.0-1.0-8.0-1.39","4","3","4","3","3","3","3","3","4","4","4","4","3","4","4","4","4","4","5","4","1","2","2","2","2","2","2","2","1","1","0","1","1","0","0","0","1","0","1","1","0","1","0","1","4","2","2","3","2","5","3","3","1","2","2","784820344564486145","王","267","","","","","","","","","","","","","","","","","","","true","14","4","moral","1116","positive","君子","","","","","","","","","","","","","","","","",""
"null","","null","html-keyboard-response","188","323564","0.0-6.0-1.0-8.0-0.40","4","3","4","3","3","3","3","3","4","4","4","4","3","4","4","4","4","4","5","4","1","2","2","2","2","2","2","2","1","1","0","1","1","0","0","0","1","0","1","1","0","1","0","1","4","2","2","3","2","5","3","3","1","2","2","784820344564486145","王","267","","","","","","","","","","","","","","","","","","","","","","","","","","","","","","","","","","","","","","","","","",""
"813","<p style=""color:rgb(150, 250, 100); font-size: 35px;"">别人</p>","e","categorize-html","189","324383","0.0-6.0-1.0-8.0-1.40","4","3","4","3","3","3","3","3","4","4","4","4","3","4","4","4","4","4","5","4","1","2","2","2","2","2","2","2","1","1","0","1","1","0","0","0","1","0","1","1","0","1","0","1","4","2","2","3","2","5","3","3","1","2","2","784820344564486145","王","267","","","","","","","","","","","","","","","","","","","true","14","4","moral","813","other","别人","","","","","","","","","","","","","","","","",""
"null","","null","html-keyboard-response","190","324635","0.0-6.0-1.0-8.0-0.41","4","3","4","3","3","3","3","3","4","4","4","4","3","4","4","4","4","4","5","4","1","2","2","2","2","2","2","2","1","1","0","1","1","0","0","0","1","0","1","1","0","1","0","1","4","2","2","3","2","5","3","3","1","2","2","784820344564486145","王","267","","","","","","","","","","","","","","","","","","","","","","","","","","","","","","","","","","","","","","","","","",""
"877","<p style=""color:white; font-size: 35px;"">廉正</p>","i","categorize-html","191","325516","0.0-6.0-1.0-8.0-1.41","4","3","4","3","3","3","3","3","4","4","4","4","3","4","4","4","4","4","5","4","1","2","2","2","2","2","2","2","1","1","0","1","1","0","0","0","1","0","1","1","0","1","0","1","4","2","2","3","2","5","3","3","1","2","2","784820344564486145","王","267","","","","","","","","","","","","","","","","","","","true","14","4","moral","877","positive","廉正","","","","","","","","","","","","","","","","",""
"null","","null","html-keyboard-response","192","325768","0.0-6.0-1.0-8.0-0.42","4","3","4","3","3","3","3","3","4","4","4","4","3","4","4","4","4","4","5","4","1","2","2","2","2","2","2","2","1","1","0","1","1","0","0","0","1","0","1","1","0","1","0","1","4","2","2","3","2","5","3","3","1","2","2","784820344564486145","王","267","","","","","","","","","","","","","","","","","","","","","","","","","","","","","","","","","","","","","","","","","",""
"880","<p style=""color:rgb(150, 250, 100); font-size: 35px;"">本人</p>","i","categorize-html","193","326653","0.0-6.0-1.0-8.0-1.42","4","3","4","3","3","3","3","3","4","4","4","4","3","4","4","4","4","4","5","4","1","2","2","2","2","2","2","2","1","1","0","1","1","0","0","0","1","0","1","1","0","1","0","1","4","2","2","3","2","5","3","3","1","2","2","784820344564486145","王","267","","","","","","","","","","","","","","","","","","","true","14","4","moral","880","self","本人","","","","","","","","","","","","","","","","",""
