"rt","stimulus","response","trial_type","trial_index","time_elapsed","internal_node_id","ses_1","ses_2","ses_3","ses_4","ses_5","ses_6","ses_7","ses_8","ses_9","ses_10","coreself_1","coreself_2","coreself_3","coreself_4","coreself_5","coreself_6","coreself_7","coreself_8","coreself_9","coreself_10","SGPS_1","SGPS_2","SGPS_3","SGPS_4","SGPS_5","SGPS_6","SGPS_7","SGPS_8","SGPS_9","NPI1","NPI2","NPI3","NPI4","NPI5","NPI6","NPI7","NPI8","NPI9","NPI10","NPI11","NPI12","NPI13","NPI14","NPI15","hsns_1","hsns_2","hsns_3","hsns_4","hsns_5","trap1","hsns_6","hsns_7","hsns_8","hsns_9","hsns_10","subj_idx","friend_name","ParticipantID","value","success","user_agent","responses","item_order","radio_event_ids","radio_event_times","key_event_times","mouse_event_times","straightlining","zigzagging","honeypot","timeout","failed_images","failed_audio","failed_video","version_attrib","version_target","correct","IAT","screen_id","task_id","RT","condition","word","varname","summary","version_attrib2","version_target2","time_stamp","view_history","response_type","key_press","avg_frame_time","center_x","center_y","correct_response","identity","Image","question_order","correct_answer","trap1_item"
"32734","
   <p><div style = ""color: white;font-size:25px;"">您好，欢迎参加本次实验。</div> </p>
   <p><div style = ""color: white;font-size:25px;"">为充分保障您的权利，请确保您已经知晓并同意《参与实验同意书》以及《数据公开知情同意书》。</div></p>
   <p><div style = ""color: white;font-size:25px;"">如果您未见过上述内容，请咨询实验员。</div></p>
   <p><div style = ""color: white;font-size:25px;"">如果您选择继续实验，则表示您已经清楚两份知情同意书的内容并同意。</div></p>
   <p><div style = ""color: pink;font-size:30px;"">请确保您记得day0的实验编号，您将在本次实验输入该编号，若您忘记，请咨询实验员后作答。</div></p>
   <p><div style = ""color: lightblue;font-size:25px;"">请您尽可能认真地作答，我们将依据您在各问卷和按键任务中的作答质量发放报酬。</div></p>
   <p> <div style = ""color: green;font-size:25px;""><按空格键至下页></div> </p>
   "," ","html-keyboard-response","0","32744","0.0-0.0","3","4","4","3","4","4","3","4","4","3","4","5","4","5","5","4","5","4","5","5","1","2","2","1","2","1","4","1","2","1","0","1","1","0","0","0","1","0","1","1","0","1","0","1","4","2","1","2","1","2","1","4","5","2","1","798167430248669185","王","76","","","","","","","","","","","","","","","","","","","","","","","","","","","","","","","","","","","","","","","","","",""
"","","","call-function","1","32747","0.0-1.0-0.0","3","4","4","3","4","4","3","4","4","3","4","5","4","5","5","4","5","4","5","5","1","2","2","1","2","1","4","1","2","1","0","1","1","0","0","0","1","0","1","1","0","1","0","1","4","2","1","2","1","2","1","4","5","2","1","798167430248669185","王","76","","","","","","","","","","","","","","","","","","","","","","","","","","","","","","","","","","","","","","","","","",""
"41330","","{""friend_name"":""王"",""ParticipantID"":""76""}","survey-html-form","2","74081","0.0-1.0-1.0","3","4","4","3","4","4","3","4","4","3","4","5","4","5","5","4","5","4","5","5","1","2","2","1","2","1","4","1","2","1","0","1","1","0","0","0","1","0","1","1","0","1","0","1","4","2","1","2","1","2","1","4","5","2","1","798167430248669185","王","76","","","","","","","","","","","","","","","","","","","","","","","","","","","","","","","","","","","","","","","","","",""
"","","","fullscreen","3","75472","0.0-2.0","3","4","4","3","4","4","3","4","4","3","4","5","4","5","5","4","5","4","5","5","1","2","2","1","2","1","4","1","2","1","0","1","1","0","0","0","1","0","1","1","0","1","0","1","4","2","1","2","1","2","1","4","5","2","1","798167430248669185","王","76","","true","{""brands"":[{""brand"":""Edge"",""version"":""107""},{""brand"":""Chromium"",""version"":""107""},{""brand"":""Not=A?Brand"",""version"":""24""}],""mobile"":false,""platform"":""macOS""}","","","","","","","","","","","","","","","","","","","","","","","","","","","","","","","","","","","","","","",""
"21484.400000095367","","{""Q01"":""3"",""Q02"":""4"",""Q03"":""4"",""Q04"":""3"",""Q05"":""4"",""Q06"":""4"",""Q07"":""3"",""Q08"":""4"",""Q09"":""4"",""Q10"":""3""}","survey-template","4","96969","0.0-3.0","3","4","4","3","4","4","3","4","4","3","4","5","4","5","5","4","5","4","5","5","1","2","2","1","2","1","4","1","2","1","0","1","1","0","0","0","1","0","1","1","0","1","0","1","4","2","1","2","1","2","1","4","5","2","1","798167430248669185","王","76","","","","{""Q01"":""3"",""Q02"":""4"",""Q03"":""4"",""Q04"":""3"",""Q05"":""4"",""Q06"":""4"",""Q07"":""3"",""Q08"":""4"",""Q09"":""4"",""Q10"":""3""}","[0,1,2,3,4,5,6,7,8,9]","[""Q01"",""Q02"",""Q03"",""Q04"",""Q05"",""Q06"",""Q07"",""Q08"",""Q09"",""Q10""]","[3605.5,5421,7089.299999952316,8176.900000095367,9929.799999952316,11149,12376.900000095367,14711.700000047684,16614.900000095367,17378.700000047684]","[]","[3605.5,5421,7089.299999952316,8176.900000095367,9929.799999952316,11149,12376.900000095367,13550.400000095367,14711.700000047684,16614.900000095367,17378.700000047684,21482.799999952316]","0.4","0.5555555555555556","0","","","","","","","","","","","","","","","","","","","","","","","","","","","","","",""
"27584.099999904633","","{""Q01"":""4"",""Q02"":""5"",""Q03"":""4"",""Q04"":""5"",""Q05"":""5"",""Q06"":""4"",""Q07"":""5"",""Q08"":""4"",""Q09"":""5"",""Q10"":""5""}","survey-template","5","124565","0.0-4.0","3","4","4","3","4","4","3","4","4","3","4","5","4","5","5","4","5","4","5","5","1","2","2","1","2","1","4","1","2","1","0","1","1","0","0","0","1","0","1","1","0","1","0","1","4","2","1","2","1","2","1","4","5","2","1","798167430248669185","王","76","","","","{""Q01"":""4"",""Q02"":""5"",""Q03"":""4"",""Q04"":""5"",""Q05"":""5"",""Q06"":""4"",""Q07"":""5"",""Q08"":""4"",""Q09"":""5"",""Q10"":""5""}","[0,1,2,3,4,5,6,7,8,9]","[""Q01"",""Q02"",""Q03"",""Q04"",""Q05"",""Q06"",""Q07"",""Q08"",""Q09"",""Q10""]","[2216.7999999523163,3623.2000000476837,5880.700000047684,7542.599999904633,9434.799999952316,11056.399999856949,12464.899999856949,13876.700000047684,15444.399999856949,16522.599999904633]","[]","[2216.7999999523163,3623.2000000476837,5880.700000047684,7542.599999904633,9434.799999952316,11056.399999856949,12464.899999856949,13876.700000047684,15444.399999856949,16522.599999904633,27582.700000047684]","0.4","0.4444444444444444","0","","","","","","","","","","","","","","","","","","","","","","","","","","","","","",""
"","","","preload","6","124750","0.0-5.0","3","4","4","3","4","4","3","4","4","3","4","5","4","5","5","4","5","4","5","5","1","2","2","1","2","1","4","1","2","1","0","1","1","0","0","0","1","0","1","1","0","1","0","1","4","2","1","2","1","2","1","4","5","2","1","798167430248669185","王","76","","true","","","","","","","","","","","false","[]","[]","[]","","","","","","","","","","","","","","","","","","","","","","","","","",""
"17892","
    <h3>词语分类任务</h3>
    <p>在接下来的任务中，你需要对一系列词语进行分类。</p>
    <p>请先熟悉这些词语，这有利于你完成接下来的任务。</p>
    <table align=""center"" border=1 cellpadding=3 cellspacing=0>
    <tr> <th>类别</th> <th>词语</th> </tr>
    <tr> <td>&emsp;积极&emsp;</td> <td>&emsp;能干、全能、全才、高效、精干、天才&emsp;</td> </tr>
    <tr> <td>&emsp;消极&emsp;</td> <td>&emsp;无能、低能、废物、拙笨、愚钝、蠢笨&emsp;</td> </tr>
    <tr> <td>&emsp;自我&emsp;</td> <td>&emsp;我、我的、自己、自己的、本人、本人的&emsp;</td> </tr>
    <tr> <td>&emsp;他人&emsp;</td> <td>&emsp;他、他的、别人、别人的、他人、他人的&emsp;</td> </tr>
    </table><br/>","0","html-button-response","7","142644","0.0-6.0-0.0-0.0","3","4","4","3","4","4","3","4","4","3","4","5","4","5","5","4","5","4","5","5","1","2","2","1","2","1","4","1","2","1","0","1","1","0","0","0","1","0","1","1","0","1","0","1","4","2","1","2","1","2","1","4","5","2","1","798167430248669185","王","76","","","","","","","","","","","","","","","","","2","1","","","","","","","","","","","","","","","","","","","","","","","",""
"3136","
    <div class=""tag-bottom"">
    <p> —— 任务1：对“自我”词和“他人”词分类 ——<p/>
    不同词语会出现在屏幕中央，类别标签将始终显示在屏幕上方<p/>   
    <span style=""color:#FFD866""><b>请根据上方标签的提示，尽可能正确并且快速地做出按键反应</b></span><p/>
    当按键错误时屏幕中会出现<span style=""color:red""> X </span>，需要按另一个键纠正才能继续<br/><p/>
    请把双手食指分别放在键盘的“E”键和“I”键上<p/>
    按<空格键>开始
    </p></div>"," ","html-keyboard-response","8","145784","0.0-6.0-0.0-1.0","3","4","4","3","4","4","3","4","4","3","4","5","4","5","5","4","5","4","5","5","1","2","2","1","2","1","4","1","2","1","0","1","1","0","0","0","1","0","1","1","0","1","0","1","4","2","1","2","1","2","1","4","5","2","1","798167430248669185","王","76","","","","","","","","","","","","","","","","","","","","","","","","","","","","","","","","","","","","","","","","","",""
"null","","null","html-keyboard-response","9","146035","0.0-6.0-0.0-2.0-0.0","3","4","4","3","4","4","3","4","4","3","4","5","4","5","5","4","5","4","5","5","1","2","2","1","2","1","4","1","2","1","0","1","1","0","0","0","1","0","1","1","0","1","0","1","4","2","1","2","1","2","1","4","5","2","1","798167430248669185","王","76","","","","","","","","","","","","","","","","","","","","","","","","","","","","","","","","","","","","","","","","","",""
"665","<p style=""color:rgb(150, 250, 100); font-size: 35px;"">他人</p>","i","categorize-html","10","146703","0.0-6.0-0.0-2.0-1.0","3","4","4","3","4","4","3","4","4","3","4","5","4","5","5","4","5","4","5","5","1","2","2","1","2","1","4","1","2","1","0","1","1","0","0","0","1","0","1","1","0","1","0","1","4","2","1","2","1","2","1","4","5","2","1","798167430248669185","王","76","","","","","","","","","","","","","","","","","","","true","1","1","ability","665","other","他人","","","","","","","","","","","","","","","","",""
"null","","null","html-keyboard-response","11","146954","0.0-6.0-0.0-2.0-0.1","3","4","4","3","4","4","3","4","4","3","4","5","4","5","5","4","5","4","5","5","1","2","2","1","2","1","4","1","2","1","0","1","1","0","0","0","1","0","1","1","0","1","0","1","4","2","1","2","1","2","1","4","5","2","1","798167430248669185","王","76","","","","","","","","","","","","","","","","","","","","","","","","","","","","","","","","","","","","","","","","","",""
"561","<p style=""color:rgb(150, 250, 100); font-size: 35px;"">自己</p>","e","categorize-html","12","147517","0.0-6.0-0.0-2.0-1.1","3","4","4","3","4","4","3","4","4","3","4","5","4","5","5","4","5","4","5","5","1","2","2","1","2","1","4","1","2","1","0","1","1","0","0","0","1","0","1","1","0","1","0","1","4","2","1","2","1","2","1","4","5","2","1","798167430248669185","王","76","","","","","","","","","","","","","","","","","","","true","1","1","ability","561","self","自己","","","","","","","","","","","","","","","","",""
"null","","null","html-keyboard-response","13","147768","0.0-6.0-0.0-2.0-0.2","3","4","4","3","4","4","3","4","4","3","4","5","4","5","5","4","5","4","5","5","1","2","2","1","2","1","4","1","2","1","0","1","1","0","0","0","1","0","1","1","0","1","0","1","4","2","1","2","1","2","1","4","5","2","1","798167430248669185","王","76","","","","","","","","","","","","","","","","","","","","","","","","","","","","","","","","","","","","","","","","","",""
"488","<p style=""color:rgb(150, 250, 100); font-size: 35px;"">自己的</p>","e","categorize-html","14","148259","0.0-6.0-0.0-2.0-1.2","3","4","4","3","4","4","3","4","4","3","4","5","4","5","5","4","5","4","5","5","1","2","2","1","2","1","4","1","2","1","0","1","1","0","0","0","1","0","1","1","0","1","0","1","4","2","1","2","1","2","1","4","5","2","1","798167430248669185","王","76","","","","","","","","","","","","","","","","","","","true","1","1","ability","488","self","自己的","","","","","","","","","","","","","","","","",""
"null","","null","html-keyboard-response","15","148510","0.0-6.0-0.0-2.0-0.3","3","4","4","3","4","4","3","4","4","3","4","5","4","5","5","4","5","4","5","5","1","2","2","1","2","1","4","1","2","1","0","1","1","0","0","0","1","0","1","1","0","1","0","1","4","2","1","2","1","2","1","4","5","2","1","798167430248669185","王","76","","","","","","","","","","","","","","","","","","","","","","","","","","","","","","","","","","","","","","","","","",""
"587","<p style=""color:rgb(150, 250, 100); font-size: 35px;"">本人</p>","e","categorize-html","16","149098","0.0-6.0-0.0-2.0-1.3","3","4","4","3","4","4","3","4","4","3","4","5","4","5","5","4","5","4","5","5","1","2","2","1","2","1","4","1","2","1","0","1","1","0","0","0","1","0","1","1","0","1","0","1","4","2","1","2","1","2","1","4","5","2","1","798167430248669185","王","76","","","","","","","","","","","","","","","","","","","true","1","1","ability","587","self","本人","","","","","","","","","","","","","","","","",""
"null","","null","html-keyboard-response","17","149349","0.0-6.0-0.0-2.0-0.4","3","4","4","3","4","4","3","4","4","3","4","5","4","5","5","4","5","4","5","5","1","2","2","1","2","1","4","1","2","1","0","1","1","0","0","0","1","0","1","1","0","1","0","1","4","2","1","2","1","2","1","4","5","2","1","798167430248669185","王","76","","","","","","","","","","","","","","","","","","","","","","","","","","","","","","","","","","","","","","","","","",""
"553","<p style=""color:rgb(150, 250, 100); font-size: 35px;"">我</p>","e","categorize-html","18","149904","0.0-6.0-0.0-2.0-1.4","3","4","4","3","4","4","3","4","4","3","4","5","4","5","5","4","5","4","5","5","1","2","2","1","2","1","4","1","2","1","0","1","1","0","0","0","1","0","1","1","0","1","0","1","4","2","1","2","1","2","1","4","5","2","1","798167430248669185","王","76","","","","","","","","","","","","","","","","","","","true","1","1","ability","553","self","我","","","","","","","","","","","","","","","","",""
"null","","null","html-keyboard-response","19","150155","0.0-6.0-0.0-2.0-0.5","3","4","4","3","4","4","3","4","4","3","4","5","4","5","5","4","5","4","5","5","1","2","2","1","2","1","4","1","2","1","0","1","1","0","0","0","1","0","1","1","0","1","0","1","4","2","1","2","1","2","1","4","5","2","1","798167430248669185","王","76","","","","","","","","","","","","","","","","","","","","","","","","","","","","","","","","","","","","","","","","","",""
"699","<p style=""color:rgb(150, 250, 100); font-size: 35px;"">别人的</p>","i","categorize-html","20","150856","0.0-6.0-0.0-2.0-1.5","3","4","4","3","4","4","3","4","4","3","4","5","4","5","5","4","5","4","5","5","1","2","2","1","2","1","4","1","2","1","0","1","1","0","0","0","1","0","1","1","0","1","0","1","4","2","1","2","1","2","1","4","5","2","1","798167430248669185","王","76","","","","","","","","","","","","","","","","","","","true","1","1","ability","699","other","别人的","","","","","","","","","","","","","","","","",""
"null","","null","html-keyboard-response","21","151107","0.0-6.0-0.0-2.0-0.6","3","4","4","3","4","4","3","4","4","3","4","5","4","5","5","4","5","4","5","5","1","2","2","1","2","1","4","1","2","1","0","1","1","0","0","0","1","0","1","1","0","1","0","1","4","2","1","2","1","2","1","4","5","2","1","798167430248669185","王","76","","","","","","","","","","","","","","","","","","","","","","","","","","","","","","","","","","","","","","","","","",""
"842","<p style=""color:rgb(150, 250, 100); font-size: 35px;"">他</p>","i","categorize-html","22","151951","0.0-6.0-0.0-2.0-1.6","3","4","4","3","4","4","3","4","4","3","4","5","4","5","5","4","5","4","5","5","1","2","2","1","2","1","4","1","2","1","0","1","1","0","0","0","1","0","1","1","0","1","0","1","4","2","1","2","1","2","1","4","5","2","1","798167430248669185","王","76","","","","","","","","","","","","","","","","","","","true","1","1","ability","842","other","他","","","","","","","","","","","","","","","","",""
"null","","null","html-keyboard-response","23","152202","0.0-6.0-0.0-2.0-0.7","3","4","4","3","4","4","3","4","4","3","4","5","4","5","5","4","5","4","5","5","1","2","2","1","2","1","4","1","2","1","0","1","1","0","0","0","1","0","1","1","0","1","0","1","4","2","1","2","1","2","1","4","5","2","1","798167430248669185","王","76","","","","","","","","","","","","","","","","","","","","","","","","","","","","","","","","","","","","","","","","","",""
"545","<p style=""color:rgb(150, 250, 100); font-size: 35px;"">我的</p>","e","categorize-html","24","152749","0.0-6.0-0.0-2.0-1.7","3","4","4","3","4","4","3","4","4","3","4","5","4","5","5","4","5","4","5","5","1","2","2","1","2","1","4","1","2","1","0","1","1","0","0","0","1","0","1","1","0","1","0","1","4","2","1","2","1","2","1","4","5","2","1","798167430248669185","王","76","","","","","","","","","","","","","","","","","","","true","1","1","ability","545","self","我的","","","","","","","","","","","","","","","","",""
"null","","null","html-keyboard-response","25","153001","0.0-6.0-0.0-2.0-0.8","3","4","4","3","4","4","3","4","4","3","4","5","4","5","5","4","5","4","5","5","1","2","2","1","2","1","4","1","2","1","0","1","1","0","0","0","1","0","1","1","0","1","0","1","4","2","1","2","1","2","1","4","5","2","1","798167430248669185","王","76","","","","","","","","","","","","","","","","","","","","","","","","","","","","","","","","","","","","","","","","","",""
"705","<p style=""color:rgb(150, 250, 100); font-size: 35px;"">他人的</p>","i","categorize-html","26","153708","0.0-6.0-0.0-2.0-1.8","3","4","4","3","4","4","3","4","4","3","4","5","4","5","5","4","5","4","5","5","1","2","2","1","2","1","4","1","2","1","0","1","1","0","0","0","1","0","1","1","0","1","0","1","4","2","1","2","1","2","1","4","5","2","1","798167430248669185","王","76","","","","","","","","","","","","","","","","","","","true","1","1","ability","705","other","他人的","","","","","","","","","","","","","","","","",""
"null","","null","html-keyboard-response","27","153960","0.0-6.0-0.0-2.0-0.9","3","4","4","3","4","4","3","4","4","3","4","5","4","5","5","4","5","4","5","5","1","2","2","1","2","1","4","1","2","1","0","1","1","0","0","0","1","0","1","1","0","1","0","1","4","2","1","2","1","2","1","4","5","2","1","798167430248669185","王","76","","","","","","","","","","","","","","","","","","","","","","","","","","","","","","","","","","","","","","","","","",""
"771","<p style=""color:rgb(150, 250, 100); font-size: 35px;"">本人的</p>","e","categorize-html","28","154733","0.0-6.0-0.0-2.0-1.9","3","4","4","3","4","4","3","4","4","3","4","5","4","5","5","4","5","4","5","5","1","2","2","1","2","1","4","1","2","1","0","1","1","0","0","0","1","0","1","1","0","1","0","1","4","2","1","2","1","2","1","4","5","2","1","798167430248669185","王","76","","","","","","","","","","","","","","","","","","","true","1","1","ability","771","self","本人的","","","","","","","","","","","","","","","","",""
"null","","null","html-keyboard-response","29","154985","0.0-6.0-0.0-2.0-0.10","3","4","4","3","4","4","3","4","4","3","4","5","4","5","5","4","5","4","5","5","1","2","2","1","2","1","4","1","2","1","0","1","1","0","0","0","1","0","1","1","0","1","0","1","4","2","1","2","1","2","1","4","5","2","1","798167430248669185","王","76","","","","","","","","","","","","","","","","","","","","","","","","","","","","","","","","","","","","","","","","","",""
"613","<p style=""color:rgb(150, 250, 100); font-size: 35px;"">他的</p>","i","categorize-html","30","155600","0.0-6.0-0.0-2.0-1.10","3","4","4","3","4","4","3","4","4","3","4","5","4","5","5","4","5","4","5","5","1","2","2","1","2","1","4","1","2","1","0","1","1","0","0","0","1","0","1","1","0","1","0","1","4","2","1","2","1","2","1","4","5","2","1","798167430248669185","王","76","","","","","","","","","","","","","","","","","","","true","1","1","ability","613","other","他的","","","","","","","","","","","","","","","","",""
"null","","null","html-keyboard-response","31","155851","0.0-6.0-0.0-2.0-0.11","3","4","4","3","4","4","3","4","4","3","4","5","4","5","5","4","5","4","5","5","1","2","2","1","2","1","4","1","2","1","0","1","1","0","0","0","1","0","1","1","0","1","0","1","4","2","1","2","1","2","1","4","5","2","1","798167430248669185","王","76","","","","","","","","","","","","","","","","","","","","","","","","","","","","","","","","","","","","","","","","","",""
"776","<p style=""color:rgb(150, 250, 100); font-size: 35px;"">别人</p>","i","categorize-html","32","156629","0.0-6.0-0.0-2.0-1.11","3","4","4","3","4","4","3","4","4","3","4","5","4","5","5","4","5","4","5","5","1","2","2","1","2","1","4","1","2","1","0","1","1","0","0","0","1","0","1","1","0","1","0","1","4","2","1","2","1","2","1","4","5","2","1","798167430248669185","王","76","","","","","","","","","","","","","","","","","","","true","1","1","ability","776","other","别人","","","","","","","","","","","","","","","","",""
"1499","
    <div class=""tag-bottom""><p>
    —— 任务2：对“消极”词和“积极”词分类 ——<p/>   
    <span style=""color:#78DCE8""><b>注意上方，类别标签和需要分类的词语都已经改变</b></span><p/>
    <span style=""color:#FFD866""><b>请根据上方标签的提示，尽可能正确并且快速地做出按键反应</b></span><p/>
    当按键错误时屏幕中会出现<span style=""color:red""> X </span>，需要按另一个键纠正才能继续<br/><p/>
    请把双手食指分别放在键盘的“E”键和“I”键上<p/>
    按<空格键>开始
    </p></div>"," ","html-keyboard-response","33","158128","0.0-6.0-0.0-3.0","3","4","4","3","4","4","3","4","4","3","4","5","4","5","5","4","5","4","5","5","1","2","2","1","2","1","4","1","2","1","0","1","1","0","0","0","1","0","1","1","0","1","0","1","4","2","1","2","1","2","1","4","5","2","1","798167430248669185","王","76","","","","","","","","","","","","","","","","","","","","","","","","","","","","","","","","","","","","","","","","","",""
"null","","null","html-keyboard-response","34","158380","0.0-6.0-0.0-4.0-0.0","3","4","4","3","4","4","3","4","4","3","4","5","4","5","5","4","5","4","5","5","1","2","2","1","2","1","4","1","2","1","0","1","1","0","0","0","1","0","1","1","0","1","0","1","4","2","1","2","1","2","1","4","5","2","1","798167430248669185","王","76","","","","","","","","","","","","","","","","","","","","","","","","","","","","","","","","","","","","","","","","","",""
"853","<p style=""color:white; font-size: 35px;"">全才</p>","i","categorize-html","35","159235","0.0-6.0-0.0-4.0-1.0","3","4","4","3","4","4","3","4","4","3","4","5","4","5","5","4","5","4","5","5","1","2","2","1","2","1","4","1","2","1","0","1","1","0","0","0","1","0","1","1","0","1","0","1","4","2","1","2","1","2","1","4","5","2","1","798167430248669185","王","76","","","","","","","","","","","","","","","","","","","true","2","2","ability","853","positive","全才","","","","","","","","","","","","","","","","",""
"null","","null","html-keyboard-response","36","159488","0.0-6.0-0.0-4.0-0.1","3","4","4","3","4","4","3","4","4","3","4","5","4","5","5","4","5","4","5","5","1","2","2","1","2","1","4","1","2","1","0","1","1","0","0","0","1","0","1","1","0","1","0","1","4","2","1","2","1","2","1","4","5","2","1","798167430248669185","王","76","","","","","","","","","","","","","","","","","","","","","","","","","","","","","","","","","","","","","","","","","",""
"726","<p style=""color:white; font-size: 35px;"">废物</p>","e","categorize-html","37","160216","0.0-6.0-0.0-4.0-1.1","3","4","4","3","4","4","3","4","4","3","4","5","4","5","5","4","5","4","5","5","1","2","2","1","2","1","4","1","2","1","0","1","1","0","0","0","1","0","1","1","0","1","0","1","4","2","1","2","1","2","1","4","5","2","1","798167430248669185","王","76","","","","","","","","","","","","","","","","","","","true","2","2","ability","726","negative","废物","","","","","","","","","","","","","","","","",""
"null","","null","html-keyboard-response","38","160467","0.0-6.0-0.0-4.0-0.2","3","4","4","3","4","4","3","4","4","3","4","5","4","5","5","4","5","4","5","5","1","2","2","1","2","1","4","1","2","1","0","1","1","0","0","0","1","0","1","1","0","1","0","1","4","2","1","2","1","2","1","4","5","2","1","798167430248669185","王","76","","","","","","","","","","","","","","","","","","","","","","","","","","","","","","","","","","","","","","","","","",""
"1132","<p style=""color:white; font-size: 35px;"">能干</p>","i","categorize-html","39","161602","0.0-6.0-0.0-4.0-1.2","3","4","4","3","4","4","3","4","4","3","4","5","4","5","5","4","5","4","5","5","1","2","2","1","2","1","4","1","2","1","0","1","1","0","0","0","1","0","1","1","0","1","0","1","4","2","1","2","1","2","1","4","5","2","1","798167430248669185","王","76","","","","","","","","","","","","","","","","","","","true","2","2","ability","1132","positive","能干","","","","","","","","","","","","","","","","",""
"null","","null","html-keyboard-response","40","161853","0.0-6.0-0.0-4.0-0.3","3","4","4","3","4","4","3","4","4","3","4","5","4","5","5","4","5","4","5","5","1","2","2","1","2","1","4","1","2","1","0","1","1","0","0","0","1","0","1","1","0","1","0","1","4","2","1","2","1","2","1","4","5","2","1","798167430248669185","王","76","","","","","","","","","","","","","","","","","","","","","","","","","","","","","","","","","","","","","","","","","",""
"733","<p style=""color:white; font-size: 35px;"">蠢笨</p>","e","categorize-html","41","162587","0.0-6.0-0.0-4.0-1.3","3","4","4","3","4","4","3","4","4","3","4","5","4","5","5","4","5","4","5","5","1","2","2","1","2","1","4","1","2","1","0","1","1","0","0","0","1","0","1","1","0","1","0","1","4","2","1","2","1","2","1","4","5","2","1","798167430248669185","王","76","","","","","","","","","","","","","","","","","","","true","2","2","ability","733","negative","蠢笨","","","","","","","","","","","","","","","","",""
"null","","null","html-keyboard-response","42","162838","0.0-6.0-0.0-4.0-0.4","3","4","4","3","4","4","3","4","4","3","4","5","4","5","5","4","5","4","5","5","1","2","2","1","2","1","4","1","2","1","0","1","1","0","0","0","1","0","1","1","0","1","0","1","4","2","1","2","1","2","1","4","5","2","1","798167430248669185","王","76","","","","","","","","","","","","","","","","","","","","","","","","","","","","","","","","","","","","","","","","","",""
"641","<p style=""color:white; font-size: 35px;"">拙笨</p>","e","categorize-html","43","163481","0.0-6.0-0.0-4.0-1.4","3","4","4","3","4","4","3","4","4","3","4","5","4","5","5","4","5","4","5","5","1","2","2","1","2","1","4","1","2","1","0","1","1","0","0","0","1","0","1","1","0","1","0","1","4","2","1","2","1","2","1","4","5","2","1","798167430248669185","王","76","","","","","","","","","","","","","","","","","","","true","2","2","ability","641","negative","拙笨","","","","","","","","","","","","","","","","",""
"null","","null","html-keyboard-response","44","163732","0.0-6.0-0.0-4.0-0.5","3","4","4","3","4","4","3","4","4","3","4","5","4","5","5","4","5","4","5","5","1","2","2","1","2","1","4","1","2","1","0","1","1","0","0","0","1","0","1","1","0","1","0","1","4","2","1","2","1","2","1","4","5","2","1","798167430248669185","王","76","","","","","","","","","","","","","","","","","","","","","","","","","","","","","","","","","","","","","","","","","",""
"622","<p style=""color:white; font-size: 35px;"">天才</p>","i","categorize-html","45","164356","0.0-6.0-0.0-4.0-1.5","3","4","4","3","4","4","3","4","4","3","4","5","4","5","5","4","5","4","5","5","1","2","2","1","2","1","4","1","2","1","0","1","1","0","0","0","1","0","1","1","0","1","0","1","4","2","1","2","1","2","1","4","5","2","1","798167430248669185","王","76","","","","","","","","","","","","","","","","","","","true","2","2","ability","622","positive","天才","","","","","","","","","","","","","","","","",""
"null","","null","html-keyboard-response","46","164607","0.0-6.0-0.0-4.0-0.6","3","4","4","3","4","4","3","4","4","3","4","5","4","5","5","4","5","4","5","5","1","2","2","1","2","1","4","1","2","1","0","1","1","0","0","0","1","0","1","1","0","1","0","1","4","2","1","2","1","2","1","4","5","2","1","798167430248669185","王","76","","","","","","","","","","","","","","","","","","","","","","","","","","","","","","","","","","","","","","","","","",""
"556","<p style=""color:white; font-size: 35px;"">高效</p>","i","categorize-html","47","165164","0.0-6.0-0.0-4.0-1.6","3","4","4","3","4","4","3","4","4","3","4","5","4","5","5","4","5","4","5","5","1","2","2","1","2","1","4","1","2","1","0","1","1","0","0","0","1","0","1","1","0","1","0","1","4","2","1","2","1","2","1","4","5","2","1","798167430248669185","王","76","","","","","","","","","","","","","","","","","","","true","2","2","ability","556","positive","高效","","","","","","","","","","","","","","","","",""
"null","","null","html-keyboard-response","48","165415","0.0-6.0-0.0-4.0-0.7","3","4","4","3","4","4","3","4","4","3","4","5","4","5","5","4","5","4","5","5","1","2","2","1","2","1","4","1","2","1","0","1","1","0","0","0","1","0","1","1","0","1","0","1","4","2","1","2","1","2","1","4","5","2","1","798167430248669185","王","76","","","","","","","","","","","","","","","","","","","","","","","","","","","","","","","","","","","","","","","","","",""
"561","<p style=""color:white; font-size: 35px;"">精干</p>","i","categorize-html","49","165979","0.0-6.0-0.0-4.0-1.7","3","4","4","3","4","4","3","4","4","3","4","5","4","5","5","4","5","4","5","5","1","2","2","1","2","1","4","1","2","1","0","1","1","0","0","0","1","0","1","1","0","1","0","1","4","2","1","2","1","2","1","4","5","2","1","798167430248669185","王","76","","","","","","","","","","","","","","","","","","","true","2","2","ability","561","positive","精干","","","","","","","","","","","","","","","","",""
"null","","null","html-keyboard-response","50","166242","0.0-6.0-0.0-4.0-0.8","3","4","4","3","4","4","3","4","4","3","4","5","4","5","5","4","5","4","5","5","1","2","2","1","2","1","4","1","2","1","0","1","1","0","0","0","1","0","1","1","0","1","0","1","4","2","1","2","1","2","1","4","5","2","1","798167430248669185","王","76","","","","","","","","","","","","","","","","","","","","","","","","","","","","","","","","","","","","","","","","","",""
"562","<p style=""color:white; font-size: 35px;"">无能</p>","e","categorize-html","51","166807","0.0-6.0-0.0-4.0-1.8","3","4","4","3","4","4","3","4","4","3","4","5","4","5","5","4","5","4","5","5","1","2","2","1","2","1","4","1","2","1","0","1","1","0","0","0","1","0","1","1","0","1","0","1","4","2","1","2","1","2","1","4","5","2","1","798167430248669185","王","76","","","","","","","","","","","","","","","","","","","true","2","2","ability","562","negative","无能","","","","","","","","","","","","","","","","",""
"null","","null","html-keyboard-response","52","167058","0.0-6.0-0.0-4.0-0.9","3","4","4","3","4","4","3","4","4","3","4","5","4","5","5","4","5","4","5","5","1","2","2","1","2","1","4","1","2","1","0","1","1","0","0","0","1","0","1","1","0","1","0","1","4","2","1","2","1","2","1","4","5","2","1","798167430248669185","王","76","","","","","","","","","","","","","","","","","","","","","","","","","","","","","","","","","","","","","","","","","",""
"678","<p style=""color:white; font-size: 35px;"">全能</p>","i","categorize-html","53","167738","0.0-6.0-0.0-4.0-1.9","3","4","4","3","4","4","3","4","4","3","4","5","4","5","5","4","5","4","5","5","1","2","2","1","2","1","4","1","2","1","0","1","1","0","0","0","1","0","1","1","0","1","0","1","4","2","1","2","1","2","1","4","5","2","1","798167430248669185","王","76","","","","","","","","","","","","","","","","","","","true","2","2","ability","678","positive","全能","","","","","","","","","","","","","","","","",""
"null","","null","html-keyboard-response","54","167989","0.0-6.0-0.0-4.0-0.10","3","4","4","3","4","4","3","4","4","3","4","5","4","5","5","4","5","4","5","5","1","2","2","1","2","1","4","1","2","1","0","1","1","0","0","0","1","0","1","1","0","1","0","1","4","2","1","2","1","2","1","4","5","2","1","798167430248669185","王","76","","","","","","","","","","","","","","","","","","","","","","","","","","","","","","","","","","","","","","","","","",""
"657","<p style=""color:white; font-size: 35px;"">低能</p>","e","categorize-html","55","168648","0.0-6.0-0.0-4.0-1.10","3","4","4","3","4","4","3","4","4","3","4","5","4","5","5","4","5","4","5","5","1","2","2","1","2","1","4","1","2","1","0","1","1","0","0","0","1","0","1","1","0","1","0","1","4","2","1","2","1","2","1","4","5","2","1","798167430248669185","王","76","","","","","","","","","","","","","","","","","","","true","2","2","ability","657","negative","低能","","","","","","","","","","","","","","","","",""
"null","","null","html-keyboard-response","56","168899","0.0-6.0-0.0-4.0-0.11","3","4","4","3","4","4","3","4","4","3","4","5","4","5","5","4","5","4","5","5","1","2","2","1","2","1","4","1","2","1","0","1","1","0","0","0","1","0","1","1","0","1","0","1","4","2","1","2","1","2","1","4","5","2","1","798167430248669185","王","76","","","","","","","","","","","","","","","","","","","","","","","","","","","","","","","","","","","","","","","","","",""
"622","<p style=""color:white; font-size: 35px;"">愚钝</p>","e","categorize-html","57","169523","0.0-6.0-0.0-4.0-1.11","3","4","4","3","4","4","3","4","4","3","4","5","4","5","5","4","5","4","5","5","1","2","2","1","2","1","4","1","2","1","0","1","1","0","0","0","1","0","1","1","0","1","0","1","4","2","1","2","1","2","1","4","5","2","1","798167430248669185","王","76","","","","","","","","","","","","","","","","","","","true","2","2","ability","622","negative","愚钝","","","","","","","","","","","","","","","","",""
"2428","
    <div class=""tag-bottom""><p>
    —— 任务3：对“自我/消极”词和“他人/积极”词分类 ——<p/>
    <span style=""color:#78DCE8""><b>注意上方，之前的四类词语将混合在一起交替呈现</b></span><p/>
    <span style=""color:#FFD866""><b>请根据上方标签的提示，尽可能正确并且快速地做出按键反应</b></span><p/>
    当按键错误时屏幕中会出现<span style=""color:red""> X </span>，需要按另一个键纠正才能继续<br/><p/>
    请把双手食指分别放在键盘的“E”键和“I”键上<p/>
    按<空格键>开始
    </p></div>"," ","html-keyboard-response","58","171951","0.0-6.0-0.0-5.0","3","4","4","3","4","4","3","4","4","3","4","5","4","5","5","4","5","4","5","5","1","2","2","1","2","1","4","1","2","1","0","1","1","0","0","0","1","0","1","1","0","1","0","1","4","2","1","2","1","2","1","4","5","2","1","798167430248669185","王","76","","","","","","","","","","","","","","","","","","","","","","","","","","","","","","","","","","","","","","","","","",""
"null","","null","html-keyboard-response","59","172203","0.0-6.0-0.0-6.0-0.0","3","4","4","3","4","4","3","4","4","3","4","5","4","5","5","4","5","4","5","5","1","2","2","1","2","1","4","1","2","1","0","1","1","0","0","0","1","0","1","1","0","1","0","1","4","2","1","2","1","2","1","4","5","2","1","798167430248669185","王","76","","","","","","","","","","","","","","","","","","","","","","","","","","","","","","","","","","","","","","","","","",""
"1025","<p style=""color:rgb(150, 250, 100); font-size: 35px;"">自己的</p>","e","categorize-html","60","173231","0.0-6.0-0.0-6.0-1.0","3","4","4","3","4","4","3","4","4","3","4","5","4","5","5","4","5","4","5","5","1","2","2","1","2","1","4","1","2","1","0","1","1","0","0","0","1","0","1","1","0","1","0","1","4","2","1","2","1","2","1","4","5","2","1","798167430248669185","王","76","","","","","","","","","","","","","","","","","","","true","3","3","ability","1025","self","自己的","","","","","","","","","","","","","","","","",""
"null","","null","html-keyboard-response","61","173482","0.0-6.0-0.0-6.0-0.1","3","4","4","3","4","4","3","4","4","3","4","5","4","5","5","4","5","4","5","5","1","2","2","1","2","1","4","1","2","1","0","1","1","0","0","0","1","0","1","1","0","1","0","1","4","2","1","2","1","2","1","4","5","2","1","798167430248669185","王","76","","","","","","","","","","","","","","","","","","","","","","","","","","","","","","","","","","","","","","","","","",""
"1552","<p style=""color:white; font-size: 35px;"">精干</p>","i","categorize-html","62","175036","0.0-6.0-0.0-6.0-1.1","3","4","4","3","4","4","3","4","4","3","4","5","4","5","5","4","5","4","5","5","1","2","2","1","2","1","4","1","2","1","0","1","1","0","0","0","1","0","1","1","0","1","0","1","4","2","1","2","1","2","1","4","5","2","1","798167430248669185","王","76","","","","","","","","","","","","","","","","","","","true","3","3","ability","1552","positive","精干","","","","","","","","","","","","","","","","",""
"null","","null","html-keyboard-response","63","175287","0.0-6.0-0.0-6.0-0.2","3","4","4","3","4","4","3","4","4","3","4","5","4","5","5","4","5","4","5","5","1","2","2","1","2","1","4","1","2","1","0","1","1","0","0","0","1","0","1","1","0","1","0","1","4","2","1","2","1","2","1","4","5","2","1","798167430248669185","王","76","","","","","","","","","","","","","","","","","","","","","","","","","","","","","","","","","","","","","","","","","",""
"793","<p style=""color:rgb(150, 250, 100); font-size: 35px;"">他人的</p>","i","categorize-html","64","176082","0.0-6.0-0.0-6.0-1.2","3","4","4","3","4","4","3","4","4","3","4","5","4","5","5","4","5","4","5","5","1","2","2","1","2","1","4","1","2","1","0","1","1","0","0","0","1","0","1","1","0","1","0","1","4","2","1","2","1","2","1","4","5","2","1","798167430248669185","王","76","","","","","","","","","","","","","","","","","","","true","3","3","ability","793","other","他人的","","","","","","","","","","","","","","","","",""
"null","","null","html-keyboard-response","65","176334","0.0-6.0-0.0-6.0-0.3","3","4","4","3","4","4","3","4","4","3","4","5","4","5","5","4","5","4","5","5","1","2","2","1","2","1","4","1","2","1","0","1","1","0","0","0","1","0","1","1","0","1","0","1","4","2","1","2","1","2","1","4","5","2","1","798167430248669185","王","76","","","","","","","","","","","","","","","","","","","","","","","","","","","","","","","","","","","","","","","","","",""
"734","<p style=""color:white; font-size: 35px;"">废物</p>","e","categorize-html","66","177070","0.0-6.0-0.0-6.0-1.3","3","4","4","3","4","4","3","4","4","3","4","5","4","5","5","4","5","4","5","5","1","2","2","1","2","1","4","1","2","1","0","1","1","0","0","0","1","0","1","1","0","1","0","1","4","2","1","2","1","2","1","4","5","2","1","798167430248669185","王","76","","","","","","","","","","","","","","","","","","","true","3","3","ability","734","negative","废物","","","","","","","","","","","","","","","","",""
"null","","null","html-keyboard-response","67","177322","0.0-6.0-0.0-6.0-0.4","3","4","4","3","4","4","3","4","4","3","4","5","4","5","5","4","5","4","5","5","1","2","2","1","2","1","4","1","2","1","0","1","1","0","0","0","1","0","1","1","0","1","0","1","4","2","1","2","1","2","1","4","5","2","1","798167430248669185","王","76","","","","","","","","","","","","","","","","","","","","","","","","","","","","","","","","","","","","","","","","","",""
"800","<p style=""color:rgb(150, 250, 100); font-size: 35px;"">自己</p>","e","categorize-html","68","178123","0.0-6.0-0.0-6.0-1.4","3","4","4","3","4","4","3","4","4","3","4","5","4","5","5","4","5","4","5","5","1","2","2","1","2","1","4","1","2","1","0","1","1","0","0","0","1","0","1","1","0","1","0","1","4","2","1","2","1","2","1","4","5","2","1","798167430248669185","王","76","","","","","","","","","","","","","","","","","","","true","3","3","ability","800","self","自己","","","","","","","","","","","","","","","","",""
"null","","null","html-keyboard-response","69","178374","0.0-6.0-0.0-6.0-0.5","3","4","4","3","4","4","3","4","4","3","4","5","4","5","5","4","5","4","5","5","1","2","2","1","2","1","4","1","2","1","0","1","1","0","0","0","1","0","1","1","0","1","0","1","4","2","1","2","1","2","1","4","5","2","1","798167430248669185","王","76","","","","","","","","","","","","","","","","","","","","","","","","","","","","","","","","","","","","","","","","","",""
"835","<p style=""color:white; font-size: 35px;"">全能</p>","e","categorize-html","70","179749","0.0-6.0-0.0-6.0-1.5","3","4","4","3","4","4","3","4","4","3","4","5","4","5","5","4","5","4","5","5","1","2","2","1","2","1","4","1","2","1","0","1","1","0","0","0","1","0","1","1","0","1","0","1","4","2","1","2","1","2","1","4","5","2","1","798167430248669185","王","76","","","","","","","","","","","","","","","","","","","false","3","3","ability","1633.4782608695652","positive","全能","","","","","","","","","","","","","","","","",""
"null","","null","html-keyboard-response","71","180000","0.0-6.0-0.0-6.0-0.6","3","4","4","3","4","4","3","4","4","3","4","5","4","5","5","4","5","4","5","5","1","2","2","1","2","1","4","1","2","1","0","1","1","0","0","0","1","0","1","1","0","1","0","1","4","2","1","2","1","2","1","4","5","2","1","798167430248669185","王","76","","","","","","","","","","","","","","","","","","","","","","","","","","","","","","","","","","","","","","","","","",""
"713","<p style=""color:rgb(150, 250, 100); font-size: 35px;"">他人</p>","i","categorize-html","72","180715","0.0-6.0-0.0-6.0-1.6","3","4","4","3","4","4","3","4","4","3","4","5","4","5","5","4","5","4","5","5","1","2","2","1","2","1","4","1","2","1","0","1","1","0","0","0","1","0","1","1","0","1","0","1","4","2","1","2","1","2","1","4","5","2","1","798167430248669185","王","76","","","","","","","","","","","","","","","","","","","true","3","3","ability","713","other","他人","","","","","","","","","","","","","","","","",""
"null","","null","html-keyboard-response","73","180967","0.0-6.0-0.0-6.0-0.7","3","4","4","3","4","4","3","4","4","3","4","5","4","5","5","4","5","4","5","5","1","2","2","1","2","1","4","1","2","1","0","1","1","0","0","0","1","0","1","1","0","1","0","1","4","2","1","2","1","2","1","4","5","2","1","798167430248669185","王","76","","","","","","","","","","","","","","","","","","","","","","","","","","","","","","","","","","","","","","","","","",""
"758","<p style=""color:white; font-size: 35px;"">愚钝</p>","e","categorize-html","74","181727","0.0-6.0-0.0-6.0-1.7","3","4","4","3","4","4","3","4","4","3","4","5","4","5","5","4","5","4","5","5","1","2","2","1","2","1","4","1","2","1","0","1","1","0","0","0","1","0","1","1","0","1","0","1","4","2","1","2","1","2","1","4","5","2","1","798167430248669185","王","76","","","","","","","","","","","","","","","","","","","true","3","3","ability","758","negative","愚钝","","","","","","","","","","","","","","","","",""
"null","","null","html-keyboard-response","75","181979","0.0-6.0-0.0-6.0-0.8","3","4","4","3","4","4","3","4","4","3","4","5","4","5","5","4","5","4","5","5","1","2","2","1","2","1","4","1","2","1","0","1","1","0","0","0","1","0","1","1","0","1","0","1","4","2","1","2","1","2","1","4","5","2","1","798167430248669185","王","76","","","","","","","","","","","","","","","","","","","","","","","","","","","","","","","","","","","","","","","","","",""
"2262","<p style=""color:rgb(150, 250, 100); font-size: 35px;"">本人的</p>","e","categorize-html","76","184243","0.0-6.0-0.0-6.0-1.8","3","4","4","3","4","4","3","4","4","3","4","5","4","5","5","4","5","4","5","5","1","2","2","1","2","1","4","1","2","1","0","1","1","0","0","0","1","0","1","1","0","1","0","1","4","2","1","2","1","2","1","4","5","2","1","798167430248669185","王","76","","","","","","","","","","","","","","","","","","","true","3","3","ability","2262","self","本人的","","","","","","","","","","","","","","","","",""
"null","","null","html-keyboard-response","77","184495","0.0-6.0-0.0-6.0-0.9","3","4","4","3","4","4","3","4","4","3","4","5","4","5","5","4","5","4","5","5","1","2","2","1","2","1","4","1","2","1","0","1","1","0","0","0","1","0","1","1","0","1","0","1","4","2","1","2","1","2","1","4","5","2","1","798167430248669185","王","76","","","","","","","","","","","","","","","","","","","","","","","","","","","","","","","","","","","","","","","","","",""
"835","<p style=""color:white; font-size: 35px;"">拙笨</p>","e","categorize-html","78","185331","0.0-6.0-0.0-6.0-1.9","3","4","4","3","4","4","3","4","4","3","4","5","4","5","5","4","5","4","5","5","1","2","2","1","2","1","4","1","2","1","0","1","1","0","0","0","1","0","1","1","0","1","0","1","4","2","1","2","1","2","1","4","5","2","1","798167430248669185","王","76","","","","","","","","","","","","","","","","","","","true","3","3","ability","835","negative","拙笨","","","","","","","","","","","","","","","","",""
"null","","null","html-keyboard-response","79","185582","0.0-6.0-0.0-6.0-0.10","3","4","4","3","4","4","3","4","4","3","4","5","4","5","5","4","5","4","5","5","1","2","2","1","2","1","4","1","2","1","0","1","1","0","0","0","1","0","1","1","0","1","0","1","4","2","1","2","1","2","1","4","5","2","1","798167430248669185","王","76","","","","","","","","","","","","","","","","","","","","","","","","","","","","","","","","","","","","","","","","","",""
"598","<p style=""color:rgb(150, 250, 100); font-size: 35px;"">他</p>","i","categorize-html","80","186182","0.0-6.0-0.0-6.0-1.10","3","4","4","3","4","4","3","4","4","3","4","5","4","5","5","4","5","4","5","5","1","2","2","1","2","1","4","1","2","1","0","1","1","0","0","0","1","0","1","1","0","1","0","1","4","2","1","2","1","2","1","4","5","2","1","798167430248669185","王","76","","","","","","","","","","","","","","","","","","","true","3","3","ability","598","other","他","","","","","","","","","","","","","","","","",""
"null","","null","html-keyboard-response","81","186434","0.0-6.0-0.0-6.0-0.11","3","4","4","3","4","4","3","4","4","3","4","5","4","5","5","4","5","4","5","5","1","2","2","1","2","1","4","1","2","1","0","1","1","0","0","0","1","0","1","1","0","1","0","1","4","2","1","2","1","2","1","4","5","2","1","798167430248669185","王","76","","","","","","","","","","","","","","","","","","","","","","","","","","","","","","","","","","","","","","","","","",""
"1771","<p style=""color:white; font-size: 35px;"">全才</p>","i","categorize-html","82","188207","0.0-6.0-0.0-6.0-1.11","3","4","4","3","4","4","3","4","4","3","4","5","4","5","5","4","5","4","5","5","1","2","2","1","2","1","4","1","2","1","0","1","1","0","0","0","1","0","1","1","0","1","0","1","4","2","1","2","1","2","1","4","5","2","1","798167430248669185","王","76","","","","","","","","","","","","","","","","","","","true","3","3","ability","1771","positive","全才","","","","","","","","","","","","","","","","",""
"null","","null","html-keyboard-response","83","188458","0.0-6.0-0.0-6.0-0.12","3","4","4","3","4","4","3","4","4","3","4","5","4","5","5","4","5","4","5","5","1","2","2","1","2","1","4","1","2","1","0","1","1","0","0","0","1","0","1","1","0","1","0","1","4","2","1","2","1","2","1","4","5","2","1","798167430248669185","王","76","","","","","","","","","","","","","","","","","","","","","","","","","","","","","","","","","","","","","","","","","",""
"625","<p style=""color:rgb(150, 250, 100); font-size: 35px;"">我的</p>","e","categorize-html","84","189085","0.0-6.0-0.0-6.0-1.12","3","4","4","3","4","4","3","4","4","3","4","5","4","5","5","4","5","4","5","5","1","2","2","1","2","1","4","1","2","1","0","1","1","0","0","0","1","0","1","1","0","1","0","1","4","2","1","2","1","2","1","4","5","2","1","798167430248669185","王","76","","","","","","","","","","","","","","","","","","","true","3","3","ability","625","self","我的","","","","","","","","","","","","","","","","",""
"null","","null","html-keyboard-response","85","189337","0.0-6.0-0.0-6.0-0.13","3","4","4","3","4","4","3","4","4","3","4","5","4","5","5","4","5","4","5","5","1","2","2","1","2","1","4","1","2","1","0","1","1","0","0","0","1","0","1","1","0","1","0","1","4","2","1","2","1","2","1","4","5","2","1","798167430248669185","王","76","","","","","","","","","","","","","","","","","","","","","","","","","","","","","","","","","","","","","","","","","",""
"839","<p style=""color:white; font-size: 35px;"">低能</p>","e","categorize-html","86","190179","0.0-6.0-0.0-6.0-1.13","3","4","4","3","4","4","3","4","4","3","4","5","4","5","5","4","5","4","5","5","1","2","2","1","2","1","4","1","2","1","0","1","1","0","0","0","1","0","1","1","0","1","0","1","4","2","1","2","1","2","1","4","5","2","1","798167430248669185","王","76","","","","","","","","","","","","","","","","","","","true","3","3","ability","839","negative","低能","","","","","","","","","","","","","","","","",""
"null","","null","html-keyboard-response","87","190430","0.0-6.0-0.0-6.0-0.14","3","4","4","3","4","4","3","4","4","3","4","5","4","5","5","4","5","4","5","5","1","2","2","1","2","1","4","1","2","1","0","1","1","0","0","0","1","0","1","1","0","1","0","1","4","2","1","2","1","2","1","4","5","2","1","798167430248669185","王","76","","","","","","","","","","","","","","","","","","","","","","","","","","","","","","","","","","","","","","","","","",""
"727","<p style=""color:rgb(150, 250, 100); font-size: 35px;"">别人的</p>","i","categorize-html","88","191159","0.0-6.0-0.0-6.0-1.14","3","4","4","3","4","4","3","4","4","3","4","5","4","5","5","4","5","4","5","5","1","2","2","1","2","1","4","1","2","1","0","1","1","0","0","0","1","0","1","1","0","1","0","1","4","2","1","2","1","2","1","4","5","2","1","798167430248669185","王","76","","","","","","","","","","","","","","","","","","","true","3","3","ability","727","other","别人的","","","","","","","","","","","","","","","","",""
"null","","null","html-keyboard-response","89","191411","0.0-6.0-0.0-6.0-0.15","3","4","4","3","4","4","3","4","4","3","4","5","4","5","5","4","5","4","5","5","1","2","2","1","2","1","4","1","2","1","0","1","1","0","0","0","1","0","1","1","0","1","0","1","4","2","1","2","1","2","1","4","5","2","1","798167430248669185","王","76","","","","","","","","","","","","","","","","","","","","","","","","","","","","","","","","","","","","","","","","","",""
"986","<p style=""color:white; font-size: 35px;"">高效</p>","i","categorize-html","90","192400","0.0-6.0-0.0-6.0-1.15","3","4","4","3","4","4","3","4","4","3","4","5","4","5","5","4","5","4","5","5","1","2","2","1","2","1","4","1","2","1","0","1","1","0","0","0","1","0","1","1","0","1","0","1","4","2","1","2","1","2","1","4","5","2","1","798167430248669185","王","76","","","","","","","","","","","","","","","","","","","true","3","3","ability","986","positive","高效","","","","","","","","","","","","","","","","",""
"null","","null","html-keyboard-response","91","192652","0.0-6.0-0.0-6.0-0.16","3","4","4","3","4","4","3","4","4","3","4","5","4","5","5","4","5","4","5","5","1","2","2","1","2","1","4","1","2","1","0","1","1","0","0","0","1","0","1","1","0","1","0","1","4","2","1","2","1","2","1","4","5","2","1","798167430248669185","王","76","","","","","","","","","","","","","","","","","","","","","","","","","","","","","","","","","","","","","","","","","",""
"641","<p style=""color:rgb(150, 250, 100); font-size: 35px;"">别人</p>","i","categorize-html","92","193295","0.0-6.0-0.0-6.0-1.16","3","4","4","3","4","4","3","4","4","3","4","5","4","5","5","4","5","4","5","5","1","2","2","1","2","1","4","1","2","1","0","1","1","0","0","0","1","0","1","1","0","1","0","1","4","2","1","2","1","2","1","4","5","2","1","798167430248669185","王","76","","","","","","","","","","","","","","","","","","","true","3","3","ability","641","other","别人","","","","","","","","","","","","","","","","",""
"null","","null","html-keyboard-response","93","193546","0.0-6.0-0.0-6.0-0.17","3","4","4","3","4","4","3","4","4","3","4","5","4","5","5","4","5","4","5","5","1","2","2","1","2","1","4","1","2","1","0","1","1","0","0","0","1","0","1","1","0","1","0","1","4","2","1","2","1","2","1","4","5","2","1","798167430248669185","王","76","","","","","","","","","","","","","","","","","","","","","","","","","","","","","","","","","","","","","","","","","",""
"786","<p style=""color:white; font-size: 35px;"">能干</p>","i","categorize-html","94","194334","0.0-6.0-0.0-6.0-1.17","3","4","4","3","4","4","3","4","4","3","4","5","4","5","5","4","5","4","5","5","1","2","2","1","2","1","4","1","2","1","0","1","1","0","0","0","1","0","1","1","0","1","0","1","4","2","1","2","1","2","1","4","5","2","1","798167430248669185","王","76","","","","","","","","","","","","","","","","","","","true","3","3","ability","786","positive","能干","","","","","","","","","","","","","","","","",""
"null","","null","html-keyboard-response","95","194585","0.0-6.0-0.0-6.0-0.18","3","4","4","3","4","4","3","4","4","3","4","5","4","5","5","4","5","4","5","5","1","2","2","1","2","1","4","1","2","1","0","1","1","0","0","0","1","0","1","1","0","1","0","1","4","2","1","2","1","2","1","4","5","2","1","798167430248669185","王","76","","","","","","","","","","","","","","","","","","","","","","","","","","","","","","","","","","","","","","","","","",""
"914","<p style=""color:rgb(150, 250, 100); font-size: 35px;"">我</p>","e","categorize-html","96","195502","0.0-6.0-0.0-6.0-1.18","3","4","4","3","4","4","3","4","4","3","4","5","4","5","5","4","5","4","5","5","1","2","2","1","2","1","4","1","2","1","0","1","1","0","0","0","1","0","1","1","0","1","0","1","4","2","1","2","1","2","1","4","5","2","1","798167430248669185","王","76","","","","","","","","","","","","","","","","","","","true","3","3","ability","914","self","我","","","","","","","","","","","","","","","","",""
"null","","null","html-keyboard-response","97","195754","0.0-6.0-0.0-6.0-0.19","3","4","4","3","4","4","3","4","4","3","4","5","4","5","5","4","5","4","5","5","1","2","2","1","2","1","4","1","2","1","0","1","1","0","0","0","1","0","1","1","0","1","0","1","4","2","1","2","1","2","1","4","5","2","1","798167430248669185","王","76","","","","","","","","","","","","","","","","","","","","","","","","","","","","","","","","","","","","","","","","","",""
"1250","<p style=""color:white; font-size: 35px;"">蠢笨</p>","e","categorize-html","98","197006","0.0-6.0-0.0-6.0-1.19","3","4","4","3","4","4","3","4","4","3","4","5","4","5","5","4","5","4","5","5","1","2","2","1","2","1","4","1","2","1","0","1","1","0","0","0","1","0","1","1","0","1","0","1","4","2","1","2","1","2","1","4","5","2","1","798167430248669185","王","76","","","","","","","","","","","","","","","","","","","true","3","3","ability","1250","negative","蠢笨","","","","","","","","","","","","","","","","",""
"null","","null","html-keyboard-response","99","197258","0.0-6.0-0.0-6.0-0.20","3","4","4","3","4","4","3","4","4","3","4","5","4","5","5","4","5","4","5","5","1","2","2","1","2","1","4","1","2","1","0","1","1","0","0","0","1","0","1","1","0","1","0","1","4","2","1","2","1","2","1","4","5","2","1","798167430248669185","王","76","","","","","","","","","","","","","","","","","","","","","","","","","","","","","","","","","","","","","","","","","",""
"1205","<p style=""color:rgb(150, 250, 100); font-size: 35px;"">他的</p>","i","categorize-html","100","198464","0.0-6.0-0.0-6.0-1.20","3","4","4","3","4","4","3","4","4","3","4","5","4","5","5","4","5","4","5","5","1","2","2","1","2","1","4","1","2","1","0","1","1","0","0","0","1","0","1","1","0","1","0","1","4","2","1","2","1","2","1","4","5","2","1","798167430248669185","王","76","","","","","","","","","","","","","","","","","","","true","3","3","ability","1205","other","他的","","","","","","","","","","","","","","","","",""
"null","","null","html-keyboard-response","101","198716","0.0-6.0-0.0-6.0-0.21","3","4","4","3","4","4","3","4","4","3","4","5","4","5","5","4","5","4","5","5","1","2","2","1","2","1","4","1","2","1","0","1","1","0","0","0","1","0","1","1","0","1","0","1","4","2","1","2","1","2","1","4","5","2","1","798167430248669185","王","76","","","","","","","","","","","","","","","","","","","","","","","","","","","","","","","","","","","","","","","","","",""
"1965","<p style=""color:white; font-size: 35px;"">无能</p>","e","categorize-html","102","200684","0.0-6.0-0.0-6.0-1.21","3","4","4","3","4","4","3","4","4","3","4","5","4","5","5","4","5","4","5","5","1","2","2","1","2","1","4","1","2","1","0","1","1","0","0","0","1","0","1","1","0","1","0","1","4","2","1","2","1","2","1","4","5","2","1","798167430248669185","王","76","","","","","","","","","","","","","","","","","","","true","3","3","ability","1965","negative","无能","","","","","","","","","","","","","","","","",""
"null","","null","html-keyboard-response","103","200935","0.0-6.0-0.0-6.0-0.22","3","4","4","3","4","4","3","4","4","3","4","5","4","5","5","4","5","4","5","5","1","2","2","1","2","1","4","1","2","1","0","1","1","0","0","0","1","0","1","1","0","1","0","1","4","2","1","2","1","2","1","4","5","2","1","798167430248669185","王","76","","","","","","","","","","","","","","","","","","","","","","","","","","","","","","","","","","","","","","","","","",""
"994","<p style=""color:rgb(150, 250, 100); font-size: 35px;"">本人</p>","e","categorize-html","104","201931","0.0-6.0-0.0-6.0-1.22","3","4","4","3","4","4","3","4","4","3","4","5","4","5","5","4","5","4","5","5","1","2","2","1","2","1","4","1","2","1","0","1","1","0","0","0","1","0","1","1","0","1","0","1","4","2","1","2","1","2","1","4","5","2","1","798167430248669185","王","76","","","","","","","","","","","","","","","","","","","true","3","3","ability","994","self","本人","","","","","","","","","","","","","","","","",""
"null","","null","html-keyboard-response","105","202183","0.0-6.0-0.0-6.0-0.23","3","4","4","3","4","4","3","4","4","3","4","5","4","5","5","4","5","4","5","5","1","2","2","1","2","1","4","1","2","1","0","1","1","0","0","0","1","0","1","1","0","1","0","1","4","2","1","2","1","2","1","4","5","2","1","798167430248669185","王","76","","","","","","","","","","","","","","","","","","","","","","","","","","","","","","","","","","","","","","","","","",""
"997","<p style=""color:white; font-size: 35px;"">天才</p>","i","categorize-html","106","203182","0.0-6.0-0.0-6.0-1.23","3","4","4","3","4","4","3","4","4","3","4","5","4","5","5","4","5","4","5","5","1","2","2","1","2","1","4","1","2","1","0","1","1","0","0","0","1","0","1","1","0","1","0","1","4","2","1","2","1","2","1","4","5","2","1","798167430248669185","王","76","","","","","","","","","","","","","","","","","","","true","3","3","ability","997","positive","天才","","","","","","","","","","","","","","","","",""
"2118","
    <div class=""tag-bottom""><p>
    —— 任务4：对“自我/消极”词和“他人/积极”词分类 ——<p/>
    <span style=""color:#78DCE8""><b>与刚才的任务完全相同，请再次对这四类词语分类</b></span><p/>
    <span style=""color:#FFD866""><b>请根据上方标签的提示，尽可能正确并且快速地做出按键反应</b></span><p/>
    当按键错误时屏幕中会出现<span style=""color:red""> X </span>，需要按另一个键纠正才能继续<br/><p/>
    请把双手食指分别放在键盘的“E”键和“I”键上<p/>
    按<空格键>开始
    </p></div>"," ","html-keyboard-response","107","205301","0.0-6.0-0.0-7.0","3","4","4","3","4","4","3","4","4","3","4","5","4","5","5","4","5","4","5","5","1","2","2","1","2","1","4","1","2","1","0","1","1","0","0","0","1","0","1","1","0","1","0","1","4","2","1","2","1","2","1","4","5","2","1","798167430248669185","王","76","","","","","","","","","","","","","","","","","","","","","","","","","","","","","","","","","","","","","","","","","",""
"null","","null","html-keyboard-response","108","205552","0.0-6.0-0.0-8.0-0.0","3","4","4","3","4","4","3","4","4","3","4","5","4","5","5","4","5","4","5","5","1","2","2","1","2","1","4","1","2","1","0","1","1","0","0","0","1","0","1","1","0","1","0","1","4","2","1","2","1","2","1","4","5","2","1","798167430248669185","王","76","","","","","","","","","","","","","","","","","","","","","","","","","","","","","","","","","","","","","","","","","",""
"630","<p style=""color:rgb(150, 250, 100); font-size: 35px;"">我</p>","e","categorize-html","109","206184","0.0-6.0-0.0-8.0-1.0","3","4","4","3","4","4","3","4","4","3","4","5","4","5","5","4","5","4","5","5","1","2","2","1","2","1","4","1","2","1","0","1","1","0","0","0","1","0","1","1","0","1","0","1","4","2","1","2","1","2","1","4","5","2","1","798167430248669185","王","76","","","","","","","","","","","","","","","","","","","true","4","4","ability","630","self","我","","","","","","","","","","","","","","","","",""
"null","","null","html-keyboard-response","110","206436","0.0-6.0-0.0-8.0-0.1","3","4","4","3","4","4","3","4","4","3","4","5","4","5","5","4","5","4","5","5","1","2","2","1","2","1","4","1","2","1","0","1","1","0","0","0","1","0","1","1","0","1","0","1","4","2","1","2","1","2","1","4","5","2","1","798167430248669185","王","76","","","","","","","","","","","","","","","","","","","","","","","","","","","","","","","","","","","","","","","","","",""
"712","<p style=""color:white; font-size: 35px;"">蠢笨</p>","e","categorize-html","111","207151","0.0-6.0-0.0-8.0-1.1","3","4","4","3","4","4","3","4","4","3","4","5","4","5","5","4","5","4","5","5","1","2","2","1","2","1","4","1","2","1","0","1","1","0","0","0","1","0","1","1","0","1","0","1","4","2","1","2","1","2","1","4","5","2","1","798167430248669185","王","76","","","","","","","","","","","","","","","","","","","true","4","4","ability","712","negative","蠢笨","","","","","","","","","","","","","","","","",""
"null","","null","html-keyboard-response","112","207402","0.0-6.0-0.0-8.0-0.2","3","4","4","3","4","4","3","4","4","3","4","5","4","5","5","4","5","4","5","5","1","2","2","1","2","1","4","1","2","1","0","1","1","0","0","0","1","0","1","1","0","1","0","1","4","2","1","2","1","2","1","4","5","2","1","798167430248669185","王","76","","","","","","","","","","","","","","","","","","","","","","","","","","","","","","","","","","","","","","","","","",""
"582","<p style=""color:rgb(150, 250, 100); font-size: 35px;"">他人的</p>","i","categorize-html","113","207986","0.0-6.0-0.0-8.0-1.2","3","4","4","3","4","4","3","4","4","3","4","5","4","5","5","4","5","4","5","5","1","2","2","1","2","1","4","1","2","1","0","1","1","0","0","0","1","0","1","1","0","1","0","1","4","2","1","2","1","2","1","4","5","2","1","798167430248669185","王","76","","","","","","","","","","","","","","","","","","","true","4","4","ability","582","other","他人的","","","","","","","","","","","","","","","","",""
"null","","null","html-keyboard-response","114","208237","0.0-6.0-0.0-8.0-0.3","3","4","4","3","4","4","3","4","4","3","4","5","4","5","5","4","5","4","5","5","1","2","2","1","2","1","4","1","2","1","0","1","1","0","0","0","1","0","1","1","0","1","0","1","4","2","1","2","1","2","1","4","5","2","1","798167430248669185","王","76","","","","","","","","","","","","","","","","","","","","","","","","","","","","","","","","","","","","","","","","","",""
"956","<p style=""color:white; font-size: 35px;"">能干</p>","i","categorize-html","115","209195","0.0-6.0-0.0-8.0-1.3","3","4","4","3","4","4","3","4","4","3","4","5","4","5","5","4","5","4","5","5","1","2","2","1","2","1","4","1","2","1","0","1","1","0","0","0","1","0","1","1","0","1","0","1","4","2","1","2","1","2","1","4","5","2","1","798167430248669185","王","76","","","","","","","","","","","","","","","","","","","true","4","4","ability","956","positive","能干","","","","","","","","","","","","","","","","",""
"null","","null","html-keyboard-response","116","209447","0.0-6.0-0.0-8.0-0.4","3","4","4","3","4","4","3","4","4","3","4","5","4","5","5","4","5","4","5","5","1","2","2","1","2","1","4","1","2","1","0","1","1","0","0","0","1","0","1","1","0","1","0","1","4","2","1","2","1","2","1","4","5","2","1","798167430248669185","王","76","","","","","","","","","","","","","","","","","","","","","","","","","","","","","","","","","","","","","","","","","",""
"1105","<p style=""color:rgb(150, 250, 100); font-size: 35px;"">自己</p>","e","categorize-html","117","210554","0.0-6.0-0.0-8.0-1.4","3","4","4","3","4","4","3","4","4","3","4","5","4","5","5","4","5","4","5","5","1","2","2","1","2","1","4","1","2","1","0","1","1","0","0","0","1","0","1","1","0","1","0","1","4","2","1","2","1","2","1","4","5","2","1","798167430248669185","王","76","","","","","","","","","","","","","","","","","","","true","4","4","ability","1105","self","自己","","","","","","","","","","","","","","","","",""
"null","","null","html-keyboard-response","118","210806","0.0-6.0-0.0-8.0-0.5","3","4","4","3","4","4","3","4","4","3","4","5","4","5","5","4","5","4","5","5","1","2","2","1","2","1","4","1","2","1","0","1","1","0","0","0","1","0","1","1","0","1","0","1","4","2","1","2","1","2","1","4","5","2","1","798167430248669185","王","76","","","","","","","","","","","","","","","","","","","","","","","","","","","","","","","","","","","","","","","","","",""
"685","<p style=""color:white; font-size: 35px;"">无能</p>","i","categorize-html","119","212090","0.0-6.0-0.0-8.0-1.5","3","4","4","3","4","4","3","4","4","3","4","5","4","5","5","4","5","4","5","5","1","2","2","1","2","1","4","1","2","1","0","1","1","0","0","0","1","0","1","1","0","1","0","1","4","2","1","2","1","2","1","4","5","2","1","798167430248669185","王","76","","","","","","","","","","","","","","","","","","","false","4","4","ability","1556.9555555555555","negative","无能","","","","","","","","","","","","","","","","",""
"null","","null","html-keyboard-response","120","212342","0.0-6.0-0.0-8.0-0.6","3","4","4","3","4","4","3","4","4","3","4","5","4","5","5","4","5","4","5","5","1","2","2","1","2","1","4","1","2","1","0","1","1","0","0","0","1","0","1","1","0","1","0","1","4","2","1","2","1","2","1","4","5","2","1","798167430248669185","王","76","","","","","","","","","","","","","","","","","","","","","","","","","","","","","","","","","","","","","","","","","",""
"1276","<p style=""color:rgb(150, 250, 100); font-size: 35px;"">他</p>","i","categorize-html","121","213620","0.0-6.0-0.0-8.0-1.6","3","4","4","3","4","4","3","4","4","3","4","5","4","5","5","4","5","4","5","5","1","2","2","1","2","1","4","1","2","1","0","1","1","0","0","0","1","0","1","1","0","1","0","1","4","2","1","2","1","2","1","4","5","2","1","798167430248669185","王","76","","","","","","","","","","","","","","","","","","","true","4","4","ability","1276","other","他","","","","","","","","","","","","","","","","",""
"null","","null","html-keyboard-response","122","213871","0.0-6.0-0.0-8.0-0.7","3","4","4","3","4","4","3","4","4","3","4","5","4","5","5","4","5","4","5","5","1","2","2","1","2","1","4","1","2","1","0","1","1","0","0","0","1","0","1","1","0","1","0","1","4","2","1","2","1","2","1","4","5","2","1","798167430248669185","王","76","","","","","","","","","","","","","","","","","","","","","","","","","","","","","","","","","","","","","","","","","",""
"3570","<p style=""color:white; font-size: 35px;"">高效</p>","i","categorize-html","123","217444","0.0-6.0-0.0-8.0-1.7","3","4","4","3","4","4","3","4","4","3","4","5","4","5","5","4","5","4","5","5","1","2","2","1","2","1","4","1","2","1","0","1","1","0","0","0","1","0","1","1","0","1","0","1","4","2","1","2","1","2","1","4","5","2","1","798167430248669185","王","76","","","","","","","","","","","","","","","","","","","true","4","4","ability","3570","positive","高效","","","","","","","","","","","","","","","","",""
"null","","null","html-keyboard-response","124","217695","0.0-6.0-0.0-8.0-0.8","3","4","4","3","4","4","3","4","4","3","4","5","4","5","5","4","5","4","5","5","1","2","2","1","2","1","4","1","2","1","0","1","1","0","0","0","1","0","1","1","0","1","0","1","4","2","1","2","1","2","1","4","5","2","1","798167430248669185","王","76","","","","","","","","","","","","","","","","","","","","","","","","","","","","","","","","","","","","","","","","","",""
"760","<p style=""color:rgb(150, 250, 100); font-size: 35px;"">本人</p>","e","categorize-html","125","218457","0.0-6.0-0.0-8.0-1.8","3","4","4","3","4","4","3","4","4","3","4","5","4","5","5","4","5","4","5","5","1","2","2","1","2","1","4","1","2","1","0","1","1","0","0","0","1","0","1","1","0","1","0","1","4","2","1","2","1","2","1","4","5","2","1","798167430248669185","王","76","","","","","","","","","","","","","","","","","","","true","4","4","ability","760","self","本人","","","","","","","","","","","","","","","","",""
"null","","null","html-keyboard-response","126","218708","0.0-6.0-0.0-8.0-0.9","3","4","4","3","4","4","3","4","4","3","4","5","4","5","5","4","5","4","5","5","1","2","2","1","2","1","4","1","2","1","0","1","1","0","0","0","1","0","1","1","0","1","0","1","4","2","1","2","1","2","1","4","5","2","1","798167430248669185","王","76","","","","","","","","","","","","","","","","","","","","","","","","","","","","","","","","","","","","","","","","","",""
"636","<p style=""color:white; font-size: 35px;"">天才</p>","e","categorize-html","127","219791","0.0-6.0-0.0-8.0-1.9","3","4","4","3","4","4","3","4","4","3","4","5","4","5","5","4","5","4","5","5","1","2","2","1","2","1","4","1","2","1","0","1","1","0","0","0","1","0","1","1","0","1","0","1","4","2","1","2","1","2","1","4","5","2","1","798167430248669185","王","76","","","","","","","","","","","","","","","","","","","false","4","4","ability","1556.9555555555555","positive","天才","","","","","","","","","","","","","","","","",""
"null","","null","html-keyboard-response","128","220043","0.0-6.0-0.0-8.0-0.10","3","4","4","3","4","4","3","4","4","3","4","5","4","5","5","4","5","4","5","5","1","2","2","1","2","1","4","1","2","1","0","1","1","0","0","0","1","0","1","1","0","1","0","1","4","2","1","2","1","2","1","4","5","2","1","798167430248669185","王","76","","","","","","","","","","","","","","","","","","","","","","","","","","","","","","","","","","","","","","","","","",""
"665","<p style=""color:rgb(150, 250, 100); font-size: 35px;"">他的</p>","i","categorize-html","129","220710","0.0-6.0-0.0-8.0-1.10","3","4","4","3","4","4","3","4","4","3","4","5","4","5","5","4","5","4","5","5","1","2","2","1","2","1","4","1","2","1","0","1","1","0","0","0","1","0","1","1","0","1","0","1","4","2","1","2","1","2","1","4","5","2","1","798167430248669185","王","76","","","","","","","","","","","","","","","","","","","true","4","4","ability","665","other","他的","","","","","","","","","","","","","","","","",""
"null","","null","html-keyboard-response","130","220962","0.0-6.0-0.0-8.0-0.11","3","4","4","3","4","4","3","4","4","3","4","5","4","5","5","4","5","4","5","5","1","2","2","1","2","1","4","1","2","1","0","1","1","0","0","0","1","0","1","1","0","1","0","1","4","2","1","2","1","2","1","4","5","2","1","798167430248669185","王","76","","","","","","","","","","","","","","","","","","","","","","","","","","","","","","","","","","","","","","","","","",""
"621","<p style=""color:white; font-size: 35px;"">愚钝</p>","e","categorize-html","131","221585","0.0-6.0-0.0-8.0-1.11","3","4","4","3","4","4","3","4","4","3","4","5","4","5","5","4","5","4","5","5","1","2","2","1","2","1","4","1","2","1","0","1","1","0","0","0","1","0","1","1","0","1","0","1","4","2","1","2","1","2","1","4","5","2","1","798167430248669185","王","76","","","","","","","","","","","","","","","","","","","true","4","4","ability","621","negative","愚钝","","","","","","","","","","","","","","","","",""
"null","","null","html-keyboard-response","132","221836","0.0-6.0-0.0-8.0-0.12","3","4","4","3","4","4","3","4","4","3","4","5","4","5","5","4","5","4","5","5","1","2","2","1","2","1","4","1","2","1","0","1","1","0","0","0","1","0","1","1","0","1","0","1","4","2","1","2","1","2","1","4","5","2","1","798167430248669185","王","76","","","","","","","","","","","","","","","","","","","","","","","","","","","","","","","","","","","","","","","","","",""
"684","<p style=""color:rgb(150, 250, 100); font-size: 35px;"">本人的</p>","e","categorize-html","133","222522","0.0-6.0-0.0-8.0-1.12","3","4","4","3","4","4","3","4","4","3","4","5","4","5","5","4","5","4","5","5","1","2","2","1","2","1","4","1","2","1","0","1","1","0","0","0","1","0","1","1","0","1","0","1","4","2","1","2","1","2","1","4","5","2","1","798167430248669185","王","76","","","","","","","","","","","","","","","","","","","true","4","4","ability","684","self","本人的","","","","","","","","","","","","","","","","",""
"null","","null","html-keyboard-response","134","222773","0.0-6.0-0.0-8.0-0.13","3","4","4","3","4","4","3","4","4","3","4","5","4","5","5","4","5","4","5","5","1","2","2","1","2","1","4","1","2","1","0","1","1","0","0","0","1","0","1","1","0","1","0","1","4","2","1","2","1","2","1","4","5","2","1","798167430248669185","王","76","","","","","","","","","","","","","","","","","","","","","","","","","","","","","","","","","","","","","","","","","",""
"629","<p style=""color:white; font-size: 35px;"">精干</p>","i","categorize-html","135","223404","0.0-6.0-0.0-8.0-1.13","3","4","4","3","4","4","3","4","4","3","4","5","4","5","5","4","5","4","5","5","1","2","2","1","2","1","4","1","2","1","0","1","1","0","0","0","1","0","1","1","0","1","0","1","4","2","1","2","1","2","1","4","5","2","1","798167430248669185","王","76","","","","","","","","","","","","","","","","","","","true","4","4","ability","629","positive","精干","","","","","","","","","","","","","","","","",""
"null","","null","html-keyboard-response","136","223655","0.0-6.0-0.0-8.0-0.14","3","4","4","3","4","4","3","4","4","3","4","5","4","5","5","4","5","4","5","5","1","2","2","1","2","1","4","1","2","1","0","1","1","0","0","0","1","0","1","1","0","1","0","1","4","2","1","2","1","2","1","4","5","2","1","798167430248669185","王","76","","","","","","","","","","","","","","","","","","","","","","","","","","","","","","","","","","","","","","","","","",""
"660","<p style=""color:rgb(150, 250, 100); font-size: 35px;"">别人的</p>","i","categorize-html","137","224318","0.0-6.0-0.0-8.0-1.14","3","4","4","3","4","4","3","4","4","3","4","5","4","5","5","4","5","4","5","5","1","2","2","1","2","1","4","1","2","1","0","1","1","0","0","0","1","0","1","1","0","1","0","1","4","2","1","2","1","2","1","4","5","2","1","798167430248669185","王","76","","","","","","","","","","","","","","","","","","","true","4","4","ability","660","other","别人的","","","","","","","","","","","","","","","","",""
"null","","null","html-keyboard-response","138","224569","0.0-6.0-0.0-8.0-0.15","3","4","4","3","4","4","3","4","4","3","4","5","4","5","5","4","5","4","5","5","1","2","2","1","2","1","4","1","2","1","0","1","1","0","0","0","1","0","1","1","0","1","0","1","4","2","1","2","1","2","1","4","5","2","1","798167430248669185","王","76","","","","","","","","","","","","","","","","","","","","","","","","","","","","","","","","","","","","","","","","","",""
"868","<p style=""color:white; font-size: 35px;"">低能</p>","e","categorize-html","139","225438","0.0-6.0-0.0-8.0-1.15","3","4","4","3","4","4","3","4","4","3","4","5","4","5","5","4","5","4","5","5","1","2","2","1","2","1","4","1","2","1","0","1","1","0","0","0","1","0","1","1","0","1","0","1","4","2","1","2","1","2","1","4","5","2","1","798167430248669185","王","76","","","","","","","","","","","","","","","","","","","true","4","4","ability","868","negative","低能","","","","","","","","","","","","","","","","",""
"null","","null","html-keyboard-response","140","225690","0.0-6.0-0.0-8.0-0.16","3","4","4","3","4","4","3","4","4","3","4","5","4","5","5","4","5","4","5","5","1","2","2","1","2","1","4","1","2","1","0","1","1","0","0","0","1","0","1","1","0","1","0","1","4","2","1","2","1","2","1","4","5","2","1","798167430248669185","王","76","","","","","","","","","","","","","","","","","","","","","","","","","","","","","","","","","","","","","","","","","",""
"976","<p style=""color:rgb(150, 250, 100); font-size: 35px;"">他人</p>","i","categorize-html","141","226668","0.0-6.0-0.0-8.0-1.16","3","4","4","3","4","4","3","4","4","3","4","5","4","5","5","4","5","4","5","5","1","2","2","1","2","1","4","1","2","1","0","1","1","0","0","0","1","0","1","1","0","1","0","1","4","2","1","2","1","2","1","4","5","2","1","798167430248669185","王","76","","","","","","","","","","","","","","","","","","","true","4","4","ability","976","other","他人","","","","","","","","","","","","","","","","",""
"null","","null","html-keyboard-response","142","226919","0.0-6.0-0.0-8.0-0.17","3","4","4","3","4","4","3","4","4","3","4","5","4","5","5","4","5","4","5","5","1","2","2","1","2","1","4","1","2","1","0","1","1","0","0","0","1","0","1","1","0","1","0","1","4","2","1","2","1","2","1","4","5","2","1","798167430248669185","王","76","","","","","","","","","","","","","","","","","","","","","","","","","","","","","","","","","","","","","","","","","",""
"855","<p style=""color:white; font-size: 35px;"">高效</p>","i","categorize-html","143","227776","0.0-6.0-0.0-8.0-1.17","3","4","4","3","4","4","3","4","4","3","4","5","4","5","5","4","5","4","5","5","1","2","2","1","2","1","4","1","2","1","0","1","1","0","0","0","1","0","1","1","0","1","0","1","4","2","1","2","1","2","1","4","5","2","1","798167430248669185","王","76","","","","","","","","","","","","","","","","","","","true","4","4","ability","855","positive","高效","","","","","","","","","","","","","","","","",""
"null","","null","html-keyboard-response","144","228027","0.0-6.0-0.0-8.0-0.18","3","4","4","3","4","4","3","4","4","3","4","5","4","5","5","4","5","4","5","5","1","2","2","1","2","1","4","1","2","1","0","1","1","0","0","0","1","0","1","1","0","1","0","1","4","2","1","2","1","2","1","4","5","2","1","798167430248669185","王","76","","","","","","","","","","","","","","","","","","","","","","","","","","","","","","","","","","","","","","","","","",""
"1876","<p style=""color:rgb(150, 250, 100); font-size: 35px;"">本人的</p>","e","categorize-html","145","229906","0.0-6.0-0.0-8.0-1.18","3","4","4","3","4","4","3","4","4","3","4","5","4","5","5","4","5","4","5","5","1","2","2","1","2","1","4","1","2","1","0","1","1","0","0","0","1","0","1","1","0","1","0","1","4","2","1","2","1","2","1","4","5","2","1","798167430248669185","王","76","","","","","","","","","","","","","","","","","","","true","4","4","ability","1876","self","本人的","","","","","","","","","","","","","","","","",""
"null","","null","html-keyboard-response","146","230157","0.0-6.0-0.0-8.0-0.19","3","4","4","3","4","4","3","4","4","3","4","5","4","5","5","4","5","4","5","5","1","2","2","1","2","1","4","1","2","1","0","1","1","0","0","0","1","0","1","1","0","1","0","1","4","2","1","2","1","2","1","4","5","2","1","798167430248669185","王","76","","","","","","","","","","","","","","","","","","","","","","","","","","","","","","","","","","","","","","","","","",""
"836","<p style=""color:white; font-size: 35px;"">拙笨</p>","e","categorize-html","147","230995","0.0-6.0-0.0-8.0-1.19","3","4","4","3","4","4","3","4","4","3","4","5","4","5","5","4","5","4","5","5","1","2","2","1","2","1","4","1","2","1","0","1","1","0","0","0","1","0","1","1","0","1","0","1","4","2","1","2","1","2","1","4","5","2","1","798167430248669185","王","76","","","","","","","","","","","","","","","","","","","true","4","4","ability","836","negative","拙笨","","","","","","","","","","","","","","","","",""
"null","","null","html-keyboard-response","148","231247","0.0-6.0-0.0-8.0-0.20","3","4","4","3","4","4","3","4","4","3","4","5","4","5","5","4","5","4","5","5","1","2","2","1","2","1","4","1","2","1","0","1","1","0","0","0","1","0","1","1","0","1","0","1","4","2","1","2","1","2","1","4","5","2","1","798167430248669185","王","76","","","","","","","","","","","","","","","","","","","","","","","","","","","","","","","","","","","","","","","","","",""
"607","<p style=""color:rgb(150, 250, 100); font-size: 35px;"">别人</p>","i","categorize-html","149","231856","0.0-6.0-0.0-8.0-1.20","3","4","4","3","4","4","3","4","4","3","4","5","4","5","5","4","5","4","5","5","1","2","2","1","2","1","4","1","2","1","0","1","1","0","0","0","1","0","1","1","0","1","0","1","4","2","1","2","1","2","1","4","5","2","1","798167430248669185","王","76","","","","","","","","","","","","","","","","","","","true","4","4","ability","607","other","别人","","","","","","","","","","","","","","","","",""
"null","","null","html-keyboard-response","150","232108","0.0-6.0-0.0-8.0-0.21","3","4","4","3","4","4","3","4","4","3","4","5","4","5","5","4","5","4","5","5","1","2","2","1","2","1","4","1","2","1","0","1","1","0","0","0","1","0","1","1","0","1","0","1","4","2","1","2","1","2","1","4","5","2","1","798167430248669185","王","76","","","","","","","","","","","","","","","","","","","","","","","","","","","","","","","","","","","","","","","","","",""
"1729","<p style=""color:white; font-size: 35px;"">全才</p>","i","categorize-html","151","233838","0.0-6.0-0.0-8.0-1.21","3","4","4","3","4","4","3","4","4","3","4","5","4","5","5","4","5","4","5","5","1","2","2","1","2","1","4","1","2","1","0","1","1","0","0","0","1","0","1","1","0","1","0","1","4","2","1","2","1","2","1","4","5","2","1","798167430248669185","王","76","","","","","","","","","","","","","","","","","","","true","4","4","ability","1729","positive","全才","","","","","","","","","","","","","","","","",""
"null","","null","html-keyboard-response","152","234090","0.0-6.0-0.0-8.0-0.22","3","4","4","3","4","4","3","4","4","3","4","5","4","5","5","4","5","4","5","5","1","2","2","1","2","1","4","1","2","1","0","1","1","0","0","0","1","0","1","1","0","1","0","1","4","2","1","2","1","2","1","4","5","2","1","798167430248669185","王","76","","","","","","","","","","","","","","","","","","","","","","","","","","","","","","","","","","","","","","","","","",""
"771","<p style=""color:rgb(150, 250, 100); font-size: 35px;"">自己的</p>","e","categorize-html","153","234865","0.0-6.0-0.0-8.0-1.22","3","4","4","3","4","4","3","4","4","3","4","5","4","5","5","4","5","4","5","5","1","2","2","1","2","1","4","1","2","1","0","1","1","0","0","0","1","0","1","1","0","1","0","1","4","2","1","2","1","2","1","4","5","2","1","798167430248669185","王","76","","","","","","","","","","","","","","","","","","","true","4","4","ability","771","self","自己的","","","","","","","","","","","","","","","","",""
"null","","null","html-keyboard-response","154","235115","0.0-6.0-0.0-8.0-0.23","3","4","4","3","4","4","3","4","4","3","4","5","4","5","5","4","5","4","5","5","1","2","2","1","2","1","4","1","2","1","0","1","1","0","0","0","1","0","1","1","0","1","0","1","4","2","1","2","1","2","1","4","5","2","1","798167430248669185","王","76","","","","","","","","","","","","","","","","","","","","","","","","","","","","","","","","","","","","","","","","","",""
"773","<p style=""color:white; font-size: 35px;"">废物</p>","e","categorize-html","155","235891","0.0-6.0-0.0-8.0-1.23","3","4","4","3","4","4","3","4","4","3","4","5","4","5","5","4","5","4","5","5","1","2","2","1","2","1","4","1","2","1","0","1","1","0","0","0","1","0","1","1","0","1","0","1","4","2","1","2","1","2","1","4","5","2","1","798167430248669185","王","76","","","","","","","","","","","","","","","","","","","true","4","4","ability","773","negative","废物","","","","","","","","","","","","","","","","",""
"null","","null","html-keyboard-response","156","236142","0.0-6.0-0.0-8.0-0.24","3","4","4","3","4","4","3","4","4","3","4","5","4","5","5","4","5","4","5","5","1","2","2","1","2","1","4","1","2","1","0","1","1","0","0","0","1","0","1","1","0","1","0","1","4","2","1","2","1","2","1","4","5","2","1","798167430248669185","王","76","","","","","","","","","","","","","","","","","","","","","","","","","","","","","","","","","","","","","","","","","",""
"763","<p style=""color:rgb(150, 250, 100); font-size: 35px;"">我的</p>","e","categorize-html","157","236907","0.0-6.0-0.0-8.0-1.24","3","4","4","3","4","4","3","4","4","3","4","5","4","5","5","4","5","4","5","5","1","2","2","1","2","1","4","1","2","1","0","1","1","0","0","0","1","0","1","1","0","1","0","1","4","2","1","2","1","2","1","4","5","2","1","798167430248669185","王","76","","","","","","","","","","","","","","","","","","","true","4","4","ability","763","self","我的","","","","","","","","","","","","","","","","",""
"null","","null","html-keyboard-response","158","237158","0.0-6.0-0.0-8.0-0.25","3","4","4","3","4","4","3","4","4","3","4","5","4","5","5","4","5","4","5","5","1","2","2","1","2","1","4","1","2","1","0","1","1","0","0","0","1","0","1","1","0","1","0","1","4","2","1","2","1","2","1","4","5","2","1","798167430248669185","王","76","","","","","","","","","","","","","","","","","","","","","","","","","","","","","","","","","","","","","","","","","",""
"1580","<p style=""color:white; font-size: 35px;"">低能</p>","e","categorize-html","159","238740","0.0-6.0-0.0-8.0-1.25","3","4","4","3","4","4","3","4","4","3","4","5","4","5","5","4","5","4","5","5","1","2","2","1","2","1","4","1","2","1","0","1","1","0","0","0","1","0","1","1","0","1","0","1","4","2","1","2","1","2","1","4","5","2","1","798167430248669185","王","76","","","","","","","","","","","","","","","","","","","true","4","4","ability","1580","negative","低能","","","","","","","","","","","","","","","","",""
"null","","null","html-keyboard-response","160","238992","0.0-6.0-0.0-8.0-0.26","3","4","4","3","4","4","3","4","4","3","4","5","4","5","5","4","5","4","5","5","1","2","2","1","2","1","4","1","2","1","0","1","1","0","0","0","1","0","1","1","0","1","0","1","4","2","1","2","1","2","1","4","5","2","1","798167430248669185","王","76","","","","","","","","","","","","","","","","","","","","","","","","","","","","","","","","","","","","","","","","","",""
"609","<p style=""color:rgb(150, 250, 100); font-size: 35px;"">他的</p>","i","categorize-html","161","239602","0.0-6.0-0.0-8.0-1.26","3","4","4","3","4","4","3","4","4","3","4","5","4","5","5","4","5","4","5","5","1","2","2","1","2","1","4","1","2","1","0","1","1","0","0","0","1","0","1","1","0","1","0","1","4","2","1","2","1","2","1","4","5","2","1","798167430248669185","王","76","","","","","","","","","","","","","","","","","","","true","4","4","ability","609","other","他的","","","","","","","","","","","","","","","","",""
"null","","null","html-keyboard-response","162","239855","0.0-6.0-0.0-8.0-0.27","3","4","4","3","4","4","3","4","4","3","4","5","4","5","5","4","5","4","5","5","1","2","2","1","2","1","4","1","2","1","0","1","1","0","0","0","1","0","1","1","0","1","0","1","4","2","1","2","1","2","1","4","5","2","1","798167430248669185","王","76","","","","","","","","","","","","","","","","","","","","","","","","","","","","","","","","","","","","","","","","","",""
"880","<p style=""color:white; font-size: 35px;"">精干</p>","i","categorize-html","163","240736","0.0-6.0-0.0-8.0-1.27","3","4","4","3","4","4","3","4","4","3","4","5","4","5","5","4","5","4","5","5","1","2","2","1","2","1","4","1","2","1","0","1","1","0","0","0","1","0","1","1","0","1","0","1","4","2","1","2","1","2","1","4","5","2","1","798167430248669185","王","76","","","","","","","","","","","","","","","","","","","true","4","4","ability","880","positive","精干","","","","","","","","","","","","","","","","",""
"null","","null","html-keyboard-response","164","240988","0.0-6.0-0.0-8.0-0.28","3","4","4","3","4","4","3","4","4","3","4","5","4","5","5","4","5","4","5","5","1","2","2","1","2","1","4","1","2","1","0","1","1","0","0","0","1","0","1","1","0","1","0","1","4","2","1","2","1","2","1","4","5","2","1","798167430248669185","王","76","","","","","","","","","","","","","","","","","","","","","","","","","","","","","","","","","","","","","","","","","",""
"558","<p style=""color:rgb(150, 250, 100); font-size: 35px;"">他</p>","i","categorize-html","165","241548","0.0-6.0-0.0-8.0-1.28","3","4","4","3","4","4","3","4","4","3","4","5","4","5","5","4","5","4","5","5","1","2","2","1","2","1","4","1","2","1","0","1","1","0","0","0","1","0","1","1","0","1","0","1","4","2","1","2","1","2","1","4","5","2","1","798167430248669185","王","76","","","","","","","","","","","","","","","","","","","true","4","4","ability","558","other","他","","","","","","","","","","","","","","","","",""
"null","","null","html-keyboard-response","166","241799","0.0-6.0-0.0-8.0-0.29","3","4","4","3","4","4","3","4","4","3","4","5","4","5","5","4","5","4","5","5","1","2","2","1","2","1","4","1","2","1","0","1","1","0","0","0","1","0","1","1","0","1","0","1","4","2","1","2","1","2","1","4","5","2","1","798167430248669185","王","76","","","","","","","","","","","","","","","","","","","","","","","","","","","","","","","","","","","","","","","","","",""
"780","<p style=""color:white; font-size: 35px;"">拙笨</p>","e","categorize-html","167","242582","0.0-6.0-0.0-8.0-1.29","3","4","4","3","4","4","3","4","4","3","4","5","4","5","5","4","5","4","5","5","1","2","2","1","2","1","4","1","2","1","0","1","1","0","0","0","1","0","1","1","0","1","0","1","4","2","1","2","1","2","1","4","5","2","1","798167430248669185","王","76","","","","","","","","","","","","","","","","","","","true","4","4","ability","780","negative","拙笨","","","","","","","","","","","","","","","","",""
"null","","null","html-keyboard-response","168","242833","0.0-6.0-0.0-8.0-0.30","3","4","4","3","4","4","3","4","4","3","4","5","4","5","5","4","5","4","5","5","1","2","2","1","2","1","4","1","2","1","0","1","1","0","0","0","1","0","1","1","0","1","0","1","4","2","1","2","1","2","1","4","5","2","1","798167430248669185","王","76","","","","","","","","","","","","","","","","","","","","","","","","","","","","","","","","","","","","","","","","","",""
"1214","<p style=""color:rgb(150, 250, 100); font-size: 35px;"">本人</p>","e","categorize-html","169","244049","0.0-6.0-0.0-8.0-1.30","3","4","4","3","4","4","3","4","4","3","4","5","4","5","5","4","5","4","5","5","1","2","2","1","2","1","4","1","2","1","0","1","1","0","0","0","1","0","1","1","0","1","0","1","4","2","1","2","1","2","1","4","5","2","1","798167430248669185","王","76","","","","","","","","","","","","","","","","","","","true","4","4","ability","1214","self","本人","","","","","","","","","","","","","","","","",""
"null","","null","html-keyboard-response","170","244301","0.0-6.0-0.0-8.0-0.31","3","4","4","3","4","4","3","4","4","3","4","5","4","5","5","4","5","4","5","5","1","2","2","1","2","1","4","1","2","1","0","1","1","0","0","0","1","0","1","1","0","1","0","1","4","2","1","2","1","2","1","4","5","2","1","798167430248669185","王","76","","","","","","","","","","","","","","","","","","","","","","","","","","","","","","","","","","","","","","","","","",""
"1002","<p style=""color:white; font-size: 35px;"">全才</p>","i","categorize-html","171","245305","0.0-6.0-0.0-8.0-1.31","3","4","4","3","4","4","3","4","4","3","4","5","4","5","5","4","5","4","5","5","1","2","2","1","2","1","4","1","2","1","0","1","1","0","0","0","1","0","1","1","0","1","0","1","4","2","1","2","1","2","1","4","5","2","1","798167430248669185","王","76","","","","","","","","","","","","","","","","","","","true","4","4","ability","1002","positive","全才","","","","","","","","","","","","","","","","",""
"null","","null","html-keyboard-response","172","245556","0.0-6.0-0.0-8.0-0.32","3","4","4","3","4","4","3","4","4","3","4","5","4","5","5","4","5","4","5","5","1","2","2","1","2","1","4","1","2","1","0","1","1","0","0","0","1","0","1","1","0","1","0","1","4","2","1","2","1","2","1","4","5","2","1","798167430248669185","王","76","","","","","","","","","","","","","","","","","","","","","","","","","","","","","","","","","","","","","","","","","",""
"695","<p style=""color:rgb(150, 250, 100); font-size: 35px;"">我的</p>","e","categorize-html","173","246253","0.0-6.0-0.0-8.0-1.32","3","4","4","3","4","4","3","4","4","3","4","5","4","5","5","4","5","4","5","5","1","2","2","1","2","1","4","1","2","1","0","1","1","0","0","0","1","0","1","1","0","1","0","1","4","2","1","2","1","2","1","4","5","2","1","798167430248669185","王","76","","","","","","","","","","","","","","","","","","","true","4","4","ability","695","self","我的","","","","","","","","","","","","","","","","",""
"null","","null","html-keyboard-response","174","246504","0.0-6.0-0.0-8.0-0.33","3","4","4","3","4","4","3","4","4","3","4","5","4","5","5","4","5","4","5","5","1","2","2","1","2","1","4","1","2","1","0","1","1","0","0","0","1","0","1","1","0","1","0","1","4","2","1","2","1","2","1","4","5","2","1","798167430248669185","王","76","","","","","","","","","","","","","","","","","","","","","","","","","","","","","","","","","","","","","","","","","",""
"968","<p style=""color:white; font-size: 35px;"">无能</p>","e","categorize-html","175","247474","0.0-6.0-0.0-8.0-1.33","3","4","4","3","4","4","3","4","4","3","4","5","4","5","5","4","5","4","5","5","1","2","2","1","2","1","4","1","2","1","0","1","1","0","0","0","1","0","1","1","0","1","0","1","4","2","1","2","1","2","1","4","5","2","1","798167430248669185","王","76","","","","","","","","","","","","","","","","","","","true","4","4","ability","968","negative","无能","","","","","","","","","","","","","","","","",""
"null","","null","html-keyboard-response","176","247726","0.0-6.0-0.0-8.0-0.34","3","4","4","3","4","4","3","4","4","3","4","5","4","5","5","4","5","4","5","5","1","2","2","1","2","1","4","1","2","1","0","1","1","0","0","0","1","0","1","1","0","1","0","1","4","2","1","2","1","2","1","4","5","2","1","798167430248669185","王","76","","","","","","","","","","","","","","","","","","","","","","","","","","","","","","","","","","","","","","","","","",""
"731","<p style=""color:rgb(150, 250, 100); font-size: 35px;"">别人</p>","i","categorize-html","177","248460","0.0-6.0-0.0-8.0-1.34","3","4","4","3","4","4","3","4","4","3","4","5","4","5","5","4","5","4","5","5","1","2","2","1","2","1","4","1","2","1","0","1","1","0","0","0","1","0","1","1","0","1","0","1","4","2","1","2","1","2","1","4","5","2","1","798167430248669185","王","76","","","","","","","","","","","","","","","","","","","true","4","4","ability","731","other","别人","","","","","","","","","","","","","","","","",""
"null","","null","html-keyboard-response","178","248712","0.0-6.0-0.0-8.0-0.35","3","4","4","3","4","4","3","4","4","3","4","5","4","5","5","4","5","4","5","5","1","2","2","1","2","1","4","1","2","1","0","1","1","0","0","0","1","0","1","1","0","1","0","1","4","2","1","2","1","2","1","4","5","2","1","798167430248669185","王","76","","","","","","","","","","","","","","","","","","","","","","","","","","","","","","","","","","","","","","","","","",""
"1123","<p style=""color:white; font-size: 35px;"">全能</p>","i","categorize-html","179","249838","0.0-6.0-0.0-8.0-1.35","3","4","4","3","4","4","3","4","4","3","4","5","4","5","5","4","5","4","5","5","1","2","2","1","2","1","4","1","2","1","0","1","1","0","0","0","1","0","1","1","0","1","0","1","4","2","1","2","1","2","1","4","5","2","1","798167430248669185","王","76","","","","","","","","","","","","","","","","","","","true","4","4","ability","1123","positive","全能","","","","","","","","","","","","","","","","",""
"null","","null","html-keyboard-response","180","250090","0.0-6.0-0.0-8.0-0.36","3","4","4","3","4","4","3","4","4","3","4","5","4","5","5","4","5","4","5","5","1","2","2","1","2","1","4","1","2","1","0","1","1","0","0","0","1","0","1","1","0","1","0","1","4","2","1","2","1","2","1","4","5","2","1","798167430248669185","王","76","","","","","","","","","","","","","","","","","","","","","","","","","","","","","","","","","","","","","","","","","",""
"627","<p style=""color:rgb(150, 250, 100); font-size: 35px;"">他人</p>","i","categorize-html","181","250719","0.0-6.0-0.0-8.0-1.36","3","4","4","3","4","4","3","4","4","3","4","5","4","5","5","4","5","4","5","5","1","2","2","1","2","1","4","1","2","1","0","1","1","0","0","0","1","0","1","1","0","1","0","1","4","2","1","2","1","2","1","4","5","2","1","798167430248669185","王","76","","","","","","","","","","","","","","","","","","","true","4","4","ability","627","other","他人","","","","","","","","","","","","","","","","",""
"null","","null","html-keyboard-response","182","250971","0.0-6.0-0.0-8.0-0.37","3","4","4","3","4","4","3","4","4","3","4","5","4","5","5","4","5","4","5","5","1","2","2","1","2","1","4","1","2","1","0","1","1","0","0","0","1","0","1","1","0","1","0","1","4","2","1","2","1","2","1","4","5","2","1","798167430248669185","王","76","","","","","","","","","","","","","","","","","","","","","","","","","","","","","","","","","","","","","","","","","",""
"626","<p style=""color:white; font-size: 35px;"">愚钝</p>","e","categorize-html","183","251599","0.0-6.0-0.0-8.0-1.37","3","4","4","3","4","4","3","4","4","3","4","5","4","5","5","4","5","4","5","5","1","2","2","1","2","1","4","1","2","1","0","1","1","0","0","0","1","0","1","1","0","1","0","1","4","2","1","2","1","2","1","4","5","2","1","798167430248669185","王","76","","","","","","","","","","","","","","","","","","","true","4","4","ability","626","negative","愚钝","","","","","","","","","","","","","","","","",""
"null","","null","html-keyboard-response","184","251850","0.0-6.0-0.0-8.0-0.38","3","4","4","3","4","4","3","4","4","3","4","5","4","5","5","4","5","4","5","5","1","2","2","1","2","1","4","1","2","1","0","1","1","0","0","0","1","0","1","1","0","1","0","1","4","2","1","2","1","2","1","4","5","2","1","798167430248669185","王","76","","","","","","","","","","","","","","","","","","","","","","","","","","","","","","","","","","","","","","","","","",""
"869","<p style=""color:rgb(150, 250, 100); font-size: 35px;"">自己的</p>","e","categorize-html","185","252721","0.0-6.0-0.0-8.0-1.38","3","4","4","3","4","4","3","4","4","3","4","5","4","5","5","4","5","4","5","5","1","2","2","1","2","1","4","1","2","1","0","1","1","0","0","0","1","0","1","1","0","1","0","1","4","2","1","2","1","2","1","4","5","2","1","798167430248669185","王","76","","","","","","","","","","","","","","","","","","","true","4","4","ability","869","self","自己的","","","","","","","","","","","","","","","","",""
"null","","null","html-keyboard-response","186","252972","0.0-6.0-0.0-8.0-0.39","3","4","4","3","4","4","3","4","4","3","4","5","4","5","5","4","5","4","5","5","1","2","2","1","2","1","4","1","2","1","0","1","1","0","0","0","1","0","1","1","0","1","0","1","4","2","1","2","1","2","1","4","5","2","1","798167430248669185","王","76","","","","","","","","","","","","","","","","","","","","","","","","","","","","","","","","","","","","","","","","","",""
"1053","<p style=""color:white; font-size: 35px;"">全能</p>","i","categorize-html","187","254029","0.0-6.0-0.0-8.0-1.39","3","4","4","3","4","4","3","4","4","3","4","5","4","5","5","4","5","4","5","5","1","2","2","1","2","1","4","1","2","1","0","1","1","0","0","0","1","0","1","1","0","1","0","1","4","2","1","2","1","2","1","4","5","2","1","798167430248669185","王","76","","","","","","","","","","","","","","","","","","","true","4","4","ability","1053","positive","全能","","","","","","","","","","","","","","","","",""
"null","","null","html-keyboard-response","188","254281","0.0-6.0-0.0-8.0-0.40","3","4","4","3","4","4","3","4","4","3","4","5","4","5","5","4","5","4","5","5","1","2","2","1","2","1","4","1","2","1","0","1","1","0","0","0","1","0","1","1","0","1","0","1","4","2","1","2","1","2","1","4","5","2","1","798167430248669185","王","76","","","","","","","","","","","","","","","","","","","","","","","","","","","","","","","","","","","","","","","","","",""
"819","<p style=""color:rgb(150, 250, 100); font-size: 35px;"">他人的</p>","i","categorize-html","189","255102","0.0-6.0-0.0-8.0-1.40","3","4","4","3","4","4","3","4","4","3","4","5","4","5","5","4","5","4","5","5","1","2","2","1","2","1","4","1","2","1","0","1","1","0","0","0","1","0","1","1","0","1","0","1","4","2","1","2","1","2","1","4","5","2","1","798167430248669185","王","76","","","","","","","","","","","","","","","","","","","true","4","4","ability","819","other","他人的","","","","","","","","","","","","","","","","",""
"null","","null","html-keyboard-response","190","255354","0.0-6.0-0.0-8.0-0.41","3","4","4","3","4","4","3","4","4","3","4","5","4","5","5","4","5","4","5","5","1","2","2","1","2","1","4","1","2","1","0","1","1","0","0","0","1","0","1","1","0","1","0","1","4","2","1","2","1","2","1","4","5","2","1","798167430248669185","王","76","","","","","","","","","","","","","","","","","","","","","","","","","","","","","","","","","","","","","","","","","",""
"1145","<p style=""color:white; font-size: 35px;"">能干</p>","i","categorize-html","191","256501","0.0-6.0-0.0-8.0-1.41","3","4","4","3","4","4","3","4","4","3","4","5","4","5","5","4","5","4","5","5","1","2","2","1","2","1","4","1","2","1","0","1","1","0","0","0","1","0","1","1","0","1","0","1","4","2","1","2","1","2","1","4","5","2","1","798167430248669185","王","76","","","","","","","","","","","","","","","","","","","true","4","4","ability","1145","positive","能干","","","","","","","","","","","","","","","","",""
"null","","null","html-keyboard-response","192","256752","0.0-6.0-0.0-8.0-0.42","3","4","4","3","4","4","3","4","4","3","4","5","4","5","5","4","5","4","5","5","1","2","2","1","2","1","4","1","2","1","0","1","1","0","0","0","1","0","1","1","0","1","0","1","4","2","1","2","1","2","1","4","5","2","1","798167430248669185","王","76","","","","","","","","","","","","","","","","","","","","","","","","","","","","","","","","","","","","","","","","","",""
