"rt","stimulus","response","trial_type","trial_index","time_elapsed","internal_node_id","ses_1","ses_2","ses_3","ses_4","ses_5","ses_6","ses_7","ses_8","ses_9","ses_10","coreself_1","coreself_2","coreself_3","coreself_4","coreself_5","coreself_6","coreself_7","coreself_8","coreself_9","coreself_10","SGPS_1","SGPS_2","SGPS_3","SGPS_4","SGPS_5","SGPS_6","SGPS_7","SGPS_8","SGPS_9","NPI1","NPI2","NPI3","NPI4","NPI5","NPI6","NPI7","NPI8","NPI9","NPI10","NPI11","NPI12","NPI13","NPI14","NPI15","hsns_1","hsns_2","hsns_3","hsns_4","hsns_5","trap1","hsns_6","hsns_7","hsns_8","hsns_9","hsns_10","subj_idx","friend_name","ParticipantID","value","success","user_agent","responses","item_order","radio_event_ids","radio_event_times","key_event_times","mouse_event_times","straightlining","zigzagging","honeypot","timeout","failed_images","failed_audio","failed_video","view_history","response_type","key_press","avg_frame_time","center_x","center_y","correct_response","correct","identity","Image","word","condition","task_id","screen_id","time_stamp","version_attrib2","version_target2","IAT","RT","varname","summary","version_attrib","version_target","question_order","correct_answer","trap1_item"
"3237","
   <p><div style = ""color: white;font-size:25px;"">您好，欢迎参加本次实验。</div> </p>
   <p><div style = ""color: white;font-size:25px;"">为充分保障您的权利，请确保您已经知晓并同意《参与实验同意书》以及《数据公开知情同意书》。</div></p>
   <p><div style = ""color: white;font-size:25px;"">如果您未见过上述内容，请咨询实验员。</div></p>
   <p><div style = ""color: white;font-size:25px;"">如果您选择继续实验，则表示您已经清楚两份知情同意书的内容并同意。</div></p>
   <p><div style = ""color: pink;font-size:30px;"">请确保您记得day0的实验编号，您将在本次实验输入该编号，若您忘记，请咨询实验员后作答。</div></p>
   <p><div style = ""color: lightblue;font-size:25px;"">请您尽可能认真地作答，我们将依据您在各问卷和按键任务中的作答质量发放报酬。</div></p>
   <p> <div style = ""color: green;font-size:25px;""><按空格键至下页></div> </p>
   "," ","html-keyboard-response","0","3239","0.0-0.0","4","4","3","4","4","4","4","3","4","4","5","4","4","4","4","5","4","4","5","5","2","1","2","2","1","2","2","1","1","1","0","1","1","0","0","0","1","0","1","1","0","1","0","1","5","2","5","2","2","1","2","3","1","2","2","753363460917825537","杨","660","","","","","","","","","","","","","","","","","","","","","","","","","","","","","","","","","","","","","","","","","",""
"","","","call-function","1","3240","0.0-1.0-0.0","4","4","3","4","4","4","4","3","4","4","5","4","4","4","4","5","4","4","5","5","2","1","2","2","1","2","2","1","1","1","0","1","1","0","0","0","1","0","1","1","0","1","0","1","5","2","5","2","2","1","2","3","1","2","2","753363460917825537","杨","660","","","","","","","","","","","","","","","","","","","","","","","","","","","","","","","","","","","","","","","","","",""
"33174","","{""friend_name"":""杨"",""ParticipantID"":""660""}","survey-html-form","2","36414","0.0-1.0-1.0","4","4","3","4","4","4","4","3","4","4","5","4","4","4","4","5","4","4","5","5","2","1","2","2","1","2","2","1","1","1","0","1","1","0","0","0","1","0","1","1","0","1","0","1","5","2","5","2","2","1","2","3","1","2","2","753363460917825537","杨","660","","","","","","","","","","","","","","","","","","","","","","","","","","","","","","","","","","","","","","","","","",""
"","","","fullscreen","3","38119","0.0-2.0","4","4","3","4","4","4","4","3","4","4","5","4","4","4","4","5","4","4","5","5","2","1","2","2","1","2","2","1","1","1","0","1","1","0","0","0","1","0","1","1","0","1","0","1","5","2","5","2","2","1","2","3","1","2","2","753363460917825537","杨","660","","true","{}","","","","","","","","","","","","","","","","","","","","","","","","","","","","","","","","","","","","","","",""
"25078.80000001192","","{""Q01"":""4"",""Q02"":""4"",""Q03"":""3"",""Q04"":""4"",""Q05"":""4"",""Q06"":""4"",""Q07"":""4"",""Q08"":""3"",""Q09"":""4"",""Q10"":""4""}","survey-template","4","63200","0.0-3.0","4","4","3","4","4","4","4","3","4","4","5","4","4","4","4","5","4","4","5","5","2","1","2","2","1","2","2","1","1","1","0","1","1","0","0","0","1","0","1","1","0","1","0","1","5","2","5","2","2","1","2","3","1","2","2","753363460917825537","杨","660","","","","{""Q01"":""4"",""Q02"":""4"",""Q03"":""3"",""Q04"":""4"",""Q05"":""4"",""Q06"":""4"",""Q07"":""4"",""Q08"":""3"",""Q09"":""4"",""Q10"":""4""}","[0,1,2,3,4,5,6,7,8,9]","[""Q01"",""Q02"",""Q03"",""Q04"",""Q05"",""Q06"",""Q07"",""Q07"",""Q08"",""Q09"",""Q10""]","[2541.800000011921,4237.900000035763,6221.600000023842,8662,11589.900000035763,12942,14957.700000047684,16061.600000023842,19917.900000035763,20765.600000023842,21117.600000023842]","[]","[2541.800000011921,4237.900000035763,6221.600000023842,8662,11589.900000035763,12942,14957.700000047684,15389.5,16061.600000023842,19461.900000035763,19917.900000035763,20765.600000023842,21117.600000023842,25077.900000035763]","0.5","0.3333333333333333","0","","","","","","","","","","","","","","","","","","","","","","","","","","","","","",""
"48764.19999998808","","{""Q01"":""5"",""Q02"":""4"",""Q03"":""4"",""Q04"":""4"",""Q05"":""4"",""Q06"":""5"",""Q07"":""4"",""Q08"":""4"",""Q09"":""5"",""Q10"":""5""}","survey-template","5","111968","0.0-4.0","4","4","3","4","4","4","4","3","4","4","5","4","4","4","4","5","4","4","5","5","2","1","2","2","1","2","2","1","1","1","0","1","1","0","0","0","1","0","1","1","0","1","0","1","5","2","5","2","2","1","2","3","1","2","2","753363460917825537","杨","660","","","","{""Q01"":""5"",""Q02"":""4"",""Q03"":""4"",""Q04"":""4"",""Q05"":""4"",""Q06"":""5"",""Q07"":""4"",""Q08"":""4"",""Q09"":""5"",""Q10"":""5""}","[0,1,2,3,4,5,6,7,8,9]","[""Q01"",""Q02"",""Q04"",""Q03"",""Q05"",""Q06"",""Q07"",""Q08"",""Q09"",""Q10"",""Q10""]","[3323.199999988079,5458.800000011921,9187.399999976158,10042.699999988079,12915.099999964237,15052.800000011921,16482.599999964237,23618.69999998808,27436.30000001192,30706.69999998808,33285.39999997616]","[]","[3323.199999988079,5458.800000011921,7770.599999964237,9187.399999976158,10042.699999988079,12915.099999964237,15052.800000011921,16482.599999964237,23618.69999998808,27436.30000001192,30706.69999998808,31867.19999998808,33285.39999997616,48763.30000001192]","0.5","0.1111111111111111","0","","","","","","","","","","","","","","","","","","","","","","","","","","","","","",""
"","","","preload","6","112886","0.0-5.0","4","4","3","4","4","4","4","3","4","4","5","4","4","4","4","5","4","4","5","5","2","1","2","2","1","2","2","1","1","1","0","1","1","0","0","0","1","0","1","1","0","1","0","1","5","2","5","2","2","1","2","3","1","2","2","753363460917825537","杨","660","","true","","","","","","","","","","","false","[]","[]","[]","","","","","","","","","","","","","","","","","","","","","","","","","",""
"4199","","","instructions","7","117086","0.0-6.0","4","4","3","4","4","4","4","3","4","4","5","4","4","4","4","5","4","4","5","5","2","1","2","2","1","2","2","1","1","1","0","1","1","0","0","0","1","0","1","1","0","1","0","1","5","2","5","2","2","1","2","3","1","2","2","753363460917825537","杨","660","","","","","","","","","","","","","","","","","[{""page_index"":0,""viewing_time"":4199}]","","","","","","","","","","","","","","","","","","","","","","","","",""
"15494","","","instructions","8","132582","0.0-7.0-1.0-0.0","4","4","3","4","4","4","4","3","4","4","5","4","4","4","4","5","4","4","5","5","2","1","2","2","1","2","2","1","1","1","0","1","1","0","0","0","1","0","1","1","0","1","0","1","5","2","5","2","2","1","2","3","1","2","2","753363460917825537","杨","660","","","","","","","","","","","","","","","","","[{""page_index"":0,""viewing_time"":7102},{""page_index"":1,""viewing_time"":6024},{""page_index"":2,""viewing_time"":2369}]","","","","","","","","","","","","","","","","","","","","","","","","",""
"877","","j","psychophysics","9","134471","0.0-7.0-1.0-1.0-0.0-0.0","4","4","3","4","4","4","4","3","4","4","5","4","4","4","4","5","4","4","5","5","2","1","2","2","1","2","2","1","1","1","0","1","1","0","0","0","1","0","1","1","0","1","0","1","5","2","5","2","2","1","2","3","1","2","2","753363460917825537","杨","660","","","","nonmatch","","","","","","","","","","","","","","key","j","16.667857142857038","768","428","j","true","nonmatch","img/circle.png","方形","圆形","ALT1_2","prac_ALT1_2","","","","","","","","","","","",""
"null","<span style='color:GreenYellow; font-size: 70px;'>正确! </span>","null","html-keyboard-response","10","134972","0.0-7.0-1.0-1.0-0.0-1.0","4","4","3","4","4","4","4","3","4","4","5","4","4","4","4","5","4","4","5","5","2","1","2","2","1","2","2","1","1","1","0","1","1","0","0","0","1","0","1","1","0","1","0","1","5","2","5","2","2","1","2","3","1","2","2","753363460917825537","杨","660","","","","","","","","","","","","","","","","","","","","","","","","","","","","","","feedback_test","","","","","","","","","","","",""
"802","","f","psychophysics","11","136774","0.0-7.0-1.0-1.0-0.0-0.1","4","4","3","4","4","4","4","3","4","4","5","4","4","4","4","5","4","4","5","5","2","1","2","2","1","2","2","1","1","1","0","1","1","0","0","0","1","0","1","1","0","1","0","1","5","2","5","2","2","1","2","3","1","2","2","753363460917825537","杨","660","","","","match","","","","","","","","","","","","","","key","f","16.669158878504728","768","428","f","true","match","img/triangle.png","三角","三角","ALT1_2","prac_ALT1_2","","","","","","","","","","","",""
"null","<span style='color:GreenYellow; font-size: 70px;'>正确! </span>","null","html-keyboard-response","12","137276","0.0-7.0-1.0-1.0-0.0-1.1","4","4","3","4","4","4","4","3","4","4","5","4","4","4","4","5","4","4","5","5","2","1","2","2","1","2","2","1","1","1","0","1","1","0","0","0","1","0","1","1","0","1","0","1","5","2","5","2","2","1","2","3","1","2","2","753363460917825537","杨","660","","","","","","","","","","","","","","","","","","","","","","","","","","","","","","feedback_test","","","","","","","","","","","",""
"800","","j","psychophysics","13","139077","0.0-7.0-1.0-1.0-0.0-0.2","4","4","3","4","4","4","4","3","4","4","5","4","4","4","4","5","4","4","5","5","2","1","2","2","1","2","2","1","1","1","0","1","1","0","0","0","1","0","1","1","0","1","0","1","5","2","5","2","2","1","2","3","1","2","2","753363460917825537","杨","660","","","","nonmatch","","","","","","","","","","","","","","key","j","16.6654205607475","768","428","j","true","nonmatch","img/triangle.png","方形","三角","ALT1_2","prac_ALT1_2","","","","","","","","","","","",""
"null","<span style='color:GreenYellow; font-size: 70px;'>正确! </span>","null","html-keyboard-response","14","139578","0.0-7.0-1.0-1.0-0.0-1.2","4","4","3","4","4","4","4","3","4","4","5","4","4","4","4","5","4","4","5","5","2","1","2","2","1","2","2","1","1","1","0","1","1","0","0","0","1","0","1","1","0","1","0","1","5","2","5","2","2","1","2","3","1","2","2","753363460917825537","杨","660","","","","","","","","","","","","","","","","","","","","","","","","","","","","","","feedback_test","","","","","","","","","","","",""
"667","","f","psychophysics","15","141246","0.0-7.0-1.0-1.0-0.0-0.3","4","4","3","4","4","4","4","3","4","4","5","4","4","4","4","5","4","4","5","5","2","1","2","2","1","2","2","1","1","1","0","1","1","0","0","0","1","0","1","1","0","1","0","1","5","2","5","2","2","1","2","3","1","2","2","753363460917825537","杨","660","","","","match","","","","","","","","","","","","","","key","f","16.666666666666668","768","428","f","true","match","img/hexagon.png","六边","六边","ALT1_2","prac_ALT1_2","","","","","","","","","","","",""
"null","<span style='color:GreenYellow; font-size: 70px;'>正确! </span>","null","html-keyboard-response","16","141747","0.0-7.0-1.0-1.0-0.0-1.3","4","4","3","4","4","4","4","3","4","4","5","4","4","4","4","5","4","4","5","5","2","1","2","2","1","2","2","1","1","1","0","1","1","0","0","0","1","0","1","1","0","1","0","1","5","2","5","2","2","1","2","3","1","2","2","753363460917825537","杨","660","","","","","","","","","","","","","","","","","","","","","","","","","","","","","","feedback_test","","","","","","","","","","","",""
"665","","f","psychophysics","17","143414","0.0-7.0-1.0-1.0-0.0-0.4","4","4","3","4","4","4","4","3","4","4","5","4","4","4","4","5","4","4","5","5","2","1","2","2","1","2","2","1","1","1","0","1","1","0","0","0","1","0","1","1","0","1","0","1","5","2","5","2","2","1","2","3","1","2","2","753363460917825537","杨","660","","","","match","","","","","","","","","","","","","","key","f","16.66868686868669","768","428","f","true","match","img/circle.png","圆形","圆形","ALT1_2","prac_ALT1_2","","","","","","","","","","","",""
"null","<span style='color:GreenYellow; font-size: 70px;'>正确! </span>","null","html-keyboard-response","18","143915","0.0-7.0-1.0-1.0-0.0-1.4","4","4","3","4","4","4","4","3","4","4","5","4","4","4","4","5","4","4","5","5","2","1","2","2","1","2","2","1","1","1","0","1","1","0","0","0","1","0","1","1","0","1","0","1","5","2","5","2","2","1","2","3","1","2","2","753363460917825537","杨","660","","","","","","","","","","","","","","","","","","","","","","","","","","","","","","feedback_test","","","","","","","","","","","",""
"865","","j","psychophysics","19","145782","0.0-7.0-1.0-1.0-0.0-0.5","4","4","3","4","4","4","4","3","4","4","5","4","4","4","4","5","4","4","5","5","2","1","2","2","1","2","2","1","1","1","0","1","1","0","0","0","1","0","1","1","0","1","0","1","5","2","5","2","2","1","2","3","1","2","2","753363460917825537","杨","660","","","","nonmatch","","","","","","","","","","","","","","key","j","16.665765765765713","768","428","j","true","nonmatch","img/hexagon.png","圆形","六边","ALT1_2","prac_ALT1_2","","","","","","","","","","","",""
"null","<span style='color:GreenYellow; font-size: 70px;'>正确! </span>","null","html-keyboard-response","20","146282","0.0-7.0-1.0-1.0-0.0-1.5","4","4","3","4","4","4","4","3","4","4","5","4","4","4","4","5","4","4","5","5","2","1","2","2","1","2","2","1","1","1","0","1","1","0","0","0","1","0","1","1","0","1","0","1","5","2","5","2","2","1","2","3","1","2","2","753363460917825537","杨","660","","","","","","","","","","","","","","","","","","","","","","","","","","","","","","feedback_test","","","","","","","","","","","",""
"786","","j","psychophysics","21","148070","0.0-7.0-1.0-1.0-0.0-0.6","4","4","3","4","4","4","4","3","4","4","5","4","4","4","4","5","4","4","5","5","2","1","2","2","1","2","2","1","1","1","0","1","1","0","0","0","1","0","1","1","0","1","0","1","5","2","5","2","2","1","2","3","1","2","2","753363460917825537","杨","660","","","","nonmatch","","","","","","","","","","","","","","key","j","16.66792452830178","768","428","j","true","nonmatch","img/square.png","圆形","方形","ALT1_2","prac_ALT1_2","","","","","","","","","","","",""
"null","<span style='color:GreenYellow; font-size: 70px;'>正确! </span>","null","html-keyboard-response","22","148572","0.0-7.0-1.0-1.0-0.0-1.6","4","4","3","4","4","4","4","3","4","4","5","4","4","4","4","5","4","4","5","5","2","1","2","2","1","2","2","1","1","1","0","1","1","0","0","0","1","0","1","1","0","1","0","1","5","2","5","2","2","1","2","3","1","2","2","753363460917825537","杨","660","","","","","","","","","","","","","","","","","","","","","","","","","","","","","","feedback_test","","","","","","","","","","","",""
"849","","f","psychophysics","23","150422","0.0-7.0-1.0-1.0-0.0-0.7","4","4","3","4","4","4","4","3","4","4","5","4","4","4","4","5","4","4","5","5","2","1","2","2","1","2","2","1","1","1","0","1","1","0","0","0","1","0","1","1","0","1","0","1","5","2","5","2","2","1","2","3","1","2","2","753363460917825537","杨","660","","","","match","","","","","","","","","","","","","","key","f","16.668181818181818","768","428","f","true","match","img/circle.png","圆形","圆形","ALT1_2","prac_ALT1_2","","","","","","","","","","","",""
"null","<span style='color:GreenYellow; font-size: 70px;'>正确! </span>","null","html-keyboard-response","24","150923","0.0-7.0-1.0-1.0-0.0-1.7","4","4","3","4","4","4","4","3","4","4","5","4","4","4","4","5","4","4","5","5","2","1","2","2","1","2","2","1","1","1","0","1","1","0","0","0","1","0","1","1","0","1","0","1","5","2","5","2","2","1","2","3","1","2","2","753363460917825537","杨","660","","","","","","","","","","","","","","","","","","","","","","","","","","","","","","feedback_test","","","","","","","","","","","",""
"1065","","f","psychophysics","25","152989","0.0-7.0-1.0-1.0-0.0-0.8","4","4","3","4","4","4","4","3","4","4","5","4","4","4","4","5","4","4","5","5","2","1","2","2","1","2","2","1","1","1","0","1","1","0","0","0","1","0","1","1","0","1","0","1","5","2","5","2","2","1","2","3","1","2","2","753363460917825537","杨","660","","","","match","","","","","","","","","","","","","","key","f","16.665853658536776","768","428","f","true","match","img/square.png","方形","方形","ALT1_2","prac_ALT1_2","","","","","","","","","","","",""
"null","<span style='color:GreenYellow; font-size: 70px;'>正确! </span>","null","html-keyboard-response","26","153490","0.0-7.0-1.0-1.0-0.0-1.8","4","4","3","4","4","4","4","3","4","4","5","4","4","4","4","5","4","4","5","5","2","1","2","2","1","2","2","1","1","1","0","1","1","0","0","0","1","0","1","1","0","1","0","1","5","2","5","2","2","1","2","3","1","2","2","753363460917825537","杨","660","","","","","","","","","","","","","","","","","","","","","","","","","","","","","","feedback_test","","","","","","","","","","","",""
"756","","j","psychophysics","27","155246","0.0-7.0-1.0-1.0-0.0-0.9","4","4","3","4","4","4","4","3","4","4","5","4","4","4","4","5","4","4","5","5","2","1","2","2","1","2","2","1","1","1","0","1","1","0","0","0","1","0","1","1","0","1","0","1","5","2","5","2","2","1","2","3","1","2","2","753363460917825537","杨","660","","","","nonmatch","","","","","","","","","","","","","","key","j","16.6676190476191","768","428","j","true","nonmatch","img/square.png","三角","方形","ALT1_2","prac_ALT1_2","","","","","","","","","","","",""
"null","<span style='color:GreenYellow; font-size: 70px;'>正确! </span>","null","html-keyboard-response","28","155748","0.0-7.0-1.0-1.0-0.0-1.9","4","4","3","4","4","4","4","3","4","4","5","4","4","4","4","5","4","4","5","5","2","1","2","2","1","2","2","1","1","1","0","1","1","0","0","0","1","0","1","1","0","1","0","1","5","2","5","2","2","1","2","3","1","2","2","753363460917825537","杨","660","","","","","","","","","","","","","","","","","","","","","","","","","","","","","","feedback_test","","","","","","","","","","","",""
"593","","f","psychophysics","29","157342","0.0-7.0-1.0-1.0-0.0-0.10","4","4","3","4","4","4","4","3","4","4","5","4","4","4","4","5","4","4","5","5","2","1","2","2","1","2","2","1","1","1","0","1","1","0","0","0","1","0","1","1","0","1","0","1","5","2","5","2","2","1","2","3","1","2","2","753363460917825537","杨","660","","","","match","","","","","","","","","","","","","","key","f","16.668085106382854","768","428","f","true","match","img/circle.png","圆形","圆形","ALT1_2","prac_ALT1_2","","","","","","","","","","","",""
"null","<span style='color:GreenYellow; font-size: 70px;'>正确! </span>","null","html-keyboard-response","30","157843","0.0-7.0-1.0-1.0-0.0-1.10","4","4","3","4","4","4","4","3","4","4","5","4","4","4","4","5","4","4","5","5","2","1","2","2","1","2","2","1","1","1","0","1","1","0","0","0","1","0","1","1","0","1","0","1","5","2","5","2","2","1","2","3","1","2","2","753363460917825537","杨","660","","","","","","","","","","","","","","","","","","","","","","","","","","","","","","feedback_test","","","","","","","","","","","",""
"722","","f","psychophysics","31","159567","0.0-7.0-1.0-1.0-0.0-0.11","4","4","3","4","4","4","4","3","4","4","5","4","4","4","4","5","4","4","5","5","2","1","2","2","1","2","2","1","1","1","0","1","1","0","0","0","1","0","1","1","0","1","0","1","5","2","5","2","2","1","2","3","1","2","2","753363460917825537","杨","660","","","","match","","","","","","","","","","","","","","key","f","16.665686274509746","768","428","f","true","match","img/hexagon.png","六边","六边","ALT1_2","prac_ALT1_2","","","","","","","","","","","",""
"null","<span style='color:GreenYellow; font-size: 70px;'>正确! </span>","null","html-keyboard-response","32","160067","0.0-7.0-1.0-1.0-0.0-1.11","4","4","3","4","4","4","4","3","4","4","5","4","4","4","4","5","4","4","5","5","2","1","2","2","1","2","2","1","1","1","0","1","1","0","0","0","1","0","1","1","0","1","0","1","5","2","5","2","2","1","2","3","1","2","2","753363460917825537","杨","660","","","","","","","","","","","","","","","","","","","","","","","","","","","","","","feedback_test","","","","","","","","","","","",""
"729","","j","psychophysics","33","161798","0.0-7.0-1.0-1.0-0.0-0.12","4","4","3","4","4","4","4","3","4","4","5","4","4","4","4","5","4","4","5","5","2","1","2","2","1","2","2","1","1","1","0","1","1","0","0","0","1","0","1","1","0","1","0","1","5","2","5","2","2","1","2","3","1","2","2","753363460917825537","杨","660","","","","nonmatch","","","","","","","","","","","","","","key","j","16.664077669902856","768","428","j","true","nonmatch","img/square.png","六边","方形","ALT1_2","prac_ALT1_2","","","","","","","","","","","",""
"null","<span style='color:GreenYellow; font-size: 70px;'>正确! </span>","null","html-keyboard-response","34","162299","0.0-7.0-1.0-1.0-0.0-1.12","4","4","3","4","4","4","4","3","4","4","5","4","4","4","4","5","4","4","5","5","2","1","2","2","1","2","2","1","1","1","0","1","1","0","0","0","1","0","1","1","0","1","0","1","5","2","5","2","2","1","2","3","1","2","2","753363460917825537","杨","660","","","","","","","","","","","","","","","","","","","","","","","","","","","","","","feedback_test","","","","","","","","","","","",""
"754","","f","psychophysics","35","164054","0.0-7.0-1.0-1.0-0.0-0.13","4","4","3","4","4","4","4","3","4","4","5","4","4","4","4","5","4","4","5","5","2","1","2","2","1","2","2","1","1","1","0","1","1","0","0","0","1","0","1","1","0","1","0","1","5","2","5","2","2","1","2","3","1","2","2","753363460917825537","杨","660","","","","match","","","","","","","","","","","","","","key","f","16.667307692307638","768","428","f","true","match","img/square.png","方形","方形","ALT1_2","prac_ALT1_2","","","","","","","","","","","",""
"null","<span style='color:GreenYellow; font-size: 70px;'>正确! </span>","null","html-keyboard-response","36","164555","0.0-7.0-1.0-1.0-0.0-1.13","4","4","3","4","4","4","4","3","4","4","5","4","4","4","4","5","4","4","5","5","2","1","2","2","1","2","2","1","1","1","0","1","1","0","0","0","1","0","1","1","0","1","0","1","5","2","5","2","2","1","2","3","1","2","2","753363460917825537","杨","660","","","","","","","","","","","","","","","","","","","","","","","","","","","","","","feedback_test","","","","","","","","","","","",""
"721","","j","psychophysics","37","166278","0.0-7.0-1.0-1.0-0.0-0.14","4","4","3","4","4","4","4","3","4","4","5","4","4","4","4","5","4","4","5","5","2","1","2","2","1","2","2","1","1","1","0","1","1","0","0","0","1","0","1","1","0","1","0","1","5","2","5","2","2","1","2","3","1","2","2","753363460917825537","杨","660","","","","nonmatch","","","","","","","","","","","","","","key","j","16.667961165048432","768","428","j","true","nonmatch","img/triangle.png","六边","三角","ALT1_2","prac_ALT1_2","","","","","","","","","","","",""
"null","<span style='color:GreenYellow; font-size: 70px;'>正确! </span>","null","html-keyboard-response","38","166779","0.0-7.0-1.0-1.0-0.0-1.14","4","4","3","4","4","4","4","3","4","4","5","4","4","4","4","5","4","4","5","5","2","1","2","2","1","2","2","1","1","1","0","1","1","0","0","0","1","0","1","1","0","1","0","1","5","2","5","2","2","1","2","3","1","2","2","753363460917825537","杨","660","","","","","","","","","","","","","","","","","","","","","","","","","","","","","","feedback_test","","","","","","","","","","","",""
"634","","f","psychophysics","39","168414","0.0-7.0-1.0-1.0-0.0-0.15","4","4","3","4","4","4","4","3","4","4","5","4","4","4","4","5","4","4","5","5","2","1","2","2","1","2","2","1","1","1","0","1","1","0","0","0","1","0","1","1","0","1","0","1","5","2","5","2","2","1","2","3","1","2","2","753363460917825537","杨","660","","","","match","","","","","","","","","","","","","","key","f","16.664948453608247","768","428","f","true","match","img/triangle.png","三角","三角","ALT1_2","prac_ALT1_2","","","","","","","","","","","",""
"null","<span style='color:GreenYellow; font-size: 70px;'>正确! </span>","null","html-keyboard-response","40","168915","0.0-7.0-1.0-1.0-0.0-1.15","4","4","3","4","4","4","4","3","4","4","5","4","4","4","4","5","4","4","5","5","2","1","2","2","1","2","2","1","1","1","0","1","1","0","0","0","1","0","1","1","0","1","0","1","5","2","5","2","2","1","2","3","1","2","2","753363460917825537","杨","660","","","","","","","","","","","","","","","","","","","","","","","","","","","","","","feedback_test","","","","","","","","","","","",""
"636","","f","psychophysics","41","170551","0.0-7.0-1.0-1.0-0.0-0.16","4","4","3","4","4","4","4","3","4","4","5","4","4","4","4","5","4","4","5","5","2","1","2","2","1","2","2","1","1","1","0","1","1","0","0","0","1","0","1","1","0","1","0","1","5","2","5","2","2","1","2","3","1","2","2","753363460917825537","杨","660","","","","match","","","","","","","","","","","","","","key","f","16.663917525773435","768","428","f","true","match","img/triangle.png","三角","三角","ALT1_2","prac_ALT1_2","","","","","","","","","","","",""
"null","<span style='color:GreenYellow; font-size: 70px;'>正确! </span>","null","html-keyboard-response","42","171052","0.0-7.0-1.0-1.0-0.0-1.16","4","4","3","4","4","4","4","3","4","4","5","4","4","4","4","5","4","4","5","5","2","1","2","2","1","2","2","1","1","1","0","1","1","0","0","0","1","0","1","1","0","1","0","1","5","2","5","2","2","1","2","3","1","2","2","753363460917825537","杨","660","","","","","","","","","","","","","","","","","","","","","","","","","","","","","","feedback_test","","","","","","","","","","","",""
"803","","j","psychophysics","43","172856","0.0-7.0-1.0-1.0-0.0-0.17","4","4","3","4","4","4","4","3","4","4","5","4","4","4","4","5","4","4","5","5","2","1","2","2","1","2","2","1","1","1","0","1","1","0","0","0","1","0","1","1","0","1","0","1","5","2","5","2","2","1","2","3","1","2","2","753363460917825537","杨","660","","","","nonmatch","","","","","","","","","","","","","","key","j","16.66822429906542","768","428","j","true","nonmatch","img/hexagon.png","三角","六边","ALT1_2","prac_ALT1_2","","","","","","","","","","","",""
"null","<span style='color:GreenYellow; font-size: 70px;'>正确! </span>","null","html-keyboard-response","44","173358","0.0-7.0-1.0-1.0-0.0-1.17","4","4","3","4","4","4","4","3","4","4","5","4","4","4","4","5","4","4","5","5","2","1","2","2","1","2","2","1","1","1","0","1","1","0","0","0","1","0","1","1","0","1","0","1","5","2","5","2","2","1","2","3","1","2","2","753363460917825537","杨","660","","","","","","","","","","","","","","","","","","","","","","","","","","","","","","feedback_test","","","","","","","","","","","",""
"926","","j","psychophysics","45","175285","0.0-7.0-1.0-1.0-0.0-0.18","4","4","3","4","4","4","4","3","4","4","5","4","4","4","4","5","4","4","5","5","2","1","2","2","1","2","2","1","1","1","0","1","1","0","0","0","1","0","1","1","0","1","0","1","5","2","5","2","2","1","2","3","1","2","2","753363460917825537","杨","660","","","","nonmatch","","","","","","","","","","","","","","key","j","16.666666666666668","768","428","j","true","nonmatch","img/hexagon.png","方形","六边","ALT1_2","prac_ALT1_2","","","","","","","","","","","",""
"null","<span style='color:GreenYellow; font-size: 70px;'>正确! </span>","null","html-keyboard-response","46","175786","0.0-7.0-1.0-1.0-0.0-1.18","4","4","3","4","4","4","4","3","4","4","5","4","4","4","4","5","4","4","5","5","2","1","2","2","1","2","2","1","1","1","0","1","1","0","0","0","1","0","1","1","0","1","0","1","5","2","5","2","2","1","2","3","1","2","2","753363460917825537","杨","660","","","","","","","","","","","","","","","","","","","","","","","","","","","","","","feedback_test","","","","","","","","","","","",""
"641","","j","psychophysics","47","177430","0.0-7.0-1.0-1.0-0.0-0.19","4","4","3","4","4","4","4","3","4","4","5","4","4","4","4","5","4","4","5","5","2","1","2","2","1","2","2","1","1","1","0","1","1","0","0","0","1","0","1","1","0","1","0","1","5","2","5","2","2","1","2","3","1","2","2","753363460917825537","杨","660","","","","nonmatch","","","","","","","","","","","","","","key","j","16.668367346938776","768","428","j","true","nonmatch","img/circle.png","六边","圆形","ALT1_2","prac_ALT1_2","","","","","","","","","","","",""
"null","<span style='color:GreenYellow; font-size: 70px;'>正确! </span>","null","html-keyboard-response","48","177930","0.0-7.0-1.0-1.0-0.0-1.19","4","4","3","4","4","4","4","3","4","4","5","4","4","4","4","5","4","4","5","5","2","1","2","2","1","2","2","1","1","1","0","1","1","0","0","0","1","0","1","1","0","1","0","1","5","2","5","2","2","1","2","3","1","2","2","753363460917825537","杨","660","","","","","","","","","","","","","","","","","","","","","","","","","","","","","","feedback_test","","","","","","","","","","","",""
"1057","","j","psychophysics","49","179990","0.0-7.0-1.0-1.0-0.0-0.20","4","4","3","4","4","4","4","3","4","4","5","4","4","4","4","5","4","4","5","5","2","1","2","2","1","2","2","1","1","1","0","1","1","0","0","0","1","0","1","1","0","1","0","1","5","2","5","2","2","1","2","3","1","2","2","753363460917825537","杨","660","","","","nonmatch","","","","","","","","","","","","","","key","j","16.666393442622855","768","428","j","true","nonmatch","img/circle.png","三角","圆形","ALT1_2","prac_ALT1_2","","","","","","","","","","","",""
"null","<span style='color:GreenYellow; font-size: 70px;'>正确! </span>","null","html-keyboard-response","50","180490","0.0-7.0-1.0-1.0-0.0-1.20","4","4","3","4","4","4","4","3","4","4","5","4","4","4","4","5","4","4","5","5","2","1","2","2","1","2","2","1","1","1","0","1","1","0","0","0","1","0","1","1","0","1","0","1","5","2","5","2","2","1","2","3","1","2","2","753363460917825537","杨","660","","","","","","","","","","","","","","","","","","","","","","","","","","","","","","feedback_test","","","","","","","","","","","",""
"706","","j","psychophysics","51","182198","0.0-7.0-1.0-1.0-0.0-0.21","4","4","3","4","4","4","4","3","4","4","5","4","4","4","4","5","4","4","5","5","2","1","2","2","1","2","2","1","1","1","0","1","1","0","0","0","1","0","1","1","0","1","0","1","5","2","5","2","2","1","2","3","1","2","2","753363460917825537","杨","660","","","","nonmatch","","","","","","","","","","","","","","key","j","16.663366336633665","768","428","j","true","nonmatch","img/triangle.png","圆形","三角","ALT1_2","prac_ALT1_2","","","","","","","","","","","",""
"null","<span style='color:GreenYellow; font-size: 70px;'>正确! </span>","null","html-keyboard-response","52","182699","0.0-7.0-1.0-1.0-0.0-1.21","4","4","3","4","4","4","4","3","4","4","5","4","4","4","4","5","4","4","5","5","2","1","2","2","1","2","2","1","1","1","0","1","1","0","0","0","1","0","1","1","0","1","0","1","5","2","5","2","2","1","2","3","1","2","2","753363460917825537","杨","660","","","","","","","","","","","","","","","","","","","","","","","","","","","","","","feedback_test","","","","","","","","","","","",""
"868","","f","psychophysics","53","184568","0.0-7.0-1.0-1.0-0.0-0.22","4","4","3","4","4","4","4","3","4","4","5","4","4","4","4","5","4","4","5","5","2","1","2","2","1","2","2","1","1","1","0","1","1","0","0","0","1","0","1","1","0","1","0","1","5","2","5","2","2","1","2","3","1","2","2","753363460917825537","杨","660","","","","match","","","","","","","","","","","","","","key","f","16.664864864865024","768","428","f","true","match","img/square.png","方形","方形","ALT1_2","prac_ALT1_2","","","","","","","","","","","",""
"null","<span style='color:GreenYellow; font-size: 70px;'>正确! </span>","null","html-keyboard-response","54","185069","0.0-7.0-1.0-1.0-0.0-1.22","4","4","3","4","4","4","4","3","4","4","5","4","4","4","4","5","4","4","5","5","2","1","2","2","1","2","2","1","1","1","0","1","1","0","0","0","1","0","1","1","0","1","0","1","5","2","5","2","2","1","2","3","1","2","2","753363460917825537","杨","660","","","","","","","","","","","","","","","","","","","","","","","","","","","","","","feedback_test","","","","","","","","","","","",""
"null","","null","psychophysics","55","187271","0.0-7.0-1.0-1.0-0.0-0.23","4","4","3","4","4","4","4","3","4","4","5","4","4","4","4","5","4","4","5","5","2","1","2","2","1","2","2","1","1","1","0","1","1","0","0","0","1","0","1","1","0","1","0","1","5","2","5","2","2","1","2","3","1","2","2","753363460917825537","杨","660","","","","null","","","","","","","","","","","","","","key","null","16.66717557251904","768","428","f","false","match","img/hexagon.png","六边","六边","ALT1_2","prac_ALT1_2","","","","","","","","","","","",""
"null","<span class='add_' style='color:yellow; font-size: 70px;'> 太慢! </span>","null","html-keyboard-response","56","187772","0.0-7.0-1.0-1.0-0.0-1.23","4","4","3","4","4","4","4","3","4","4","5","4","4","4","4","5","4","4","5","5","2","1","2","2","1","2","2","1","1","1","0","1","1","0","0","0","1","0","1","1","0","1","0","1","5","2","5","2","2","1","2","3","1","2","2","753363460917825537","杨","660","","","","","","","","","","","","","","","","","","","","","","","","","","","","","","feedback_test","","","","","","","","","","","",""
"675","","j","psychophysics","57","189448","0.0-7.0-1.0-1.0-0.0-0.24","4","4","3","4","4","4","4","3","4","4","5","4","4","4","4","5","4","4","5","5","2","1","2","2","1","2","2","1","1","1","0","1","1","0","0","0","1","0","1","1","0","1","0","1","5","2","5","2","2","1","2","3","1","2","2","753363460917825537","杨","660","","","","nonmatch","","","","","","","","","","","","","","key","j","16.665","768","428","j","true","nonmatch","img/circle.png","六边","圆形","ALT1_2","prac_ALT1_2","","","","","","","","","","","",""
"null","<span style='color:GreenYellow; font-size: 70px;'>正确! </span>","null","html-keyboard-response","58","189949","0.0-7.0-1.0-1.0-0.0-1.24","4","4","3","4","4","4","4","3","4","4","5","4","4","4","4","5","4","4","5","5","2","1","2","2","1","2","2","1","1","1","0","1","1","0","0","0","1","0","1","1","0","1","0","1","5","2","5","2","2","1","2","3","1","2","2","753363460917825537","杨","660","","","","","","","","","","","","","","","","","","","","","","","","","","","","","","feedback_test","","","","","","","","","","","",""
"654","","f","psychophysics","59","191606","0.0-7.0-1.0-1.0-0.0-0.25","4","4","3","4","4","4","4","3","4","4","5","4","4","4","4","5","4","4","5","5","2","1","2","2","1","2","2","1","1","1","0","1","1","0","0","0","1","0","1","1","0","1","0","1","5","2","5","2","2","1","2","3","1","2","2","753363460917825537","杨","660","","","","match","","","","","","","","","","","","","","key","f","16.666326530612125","768","428","f","true","match","img/square.png","方形","方形","ALT1_2","prac_ALT1_2","","","","","","","","","","","",""
"null","<span style='color:GreenYellow; font-size: 70px;'>正确! </span>","null","html-keyboard-response","60","192107","0.0-7.0-1.0-1.0-0.0-1.25","4","4","3","4","4","4","4","3","4","4","5","4","4","4","4","5","4","4","5","5","2","1","2","2","1","2","2","1","1","1","0","1","1","0","0","0","1","0","1","1","0","1","0","1","5","2","5","2","2","1","2","3","1","2","2","753363460917825537","杨","660","","","","","","","","","","","","","","","","","","","","","","","","","","","","","","feedback_test","","","","","","","","","","","",""
"913","","j","psychophysics","61","194021","0.0-7.0-1.0-1.0-0.0-0.26","4","4","3","4","4","4","4","3","4","4","5","4","4","4","4","5","4","4","5","5","2","1","2","2","1","2","2","1","1","1","0","1","1","0","0","0","1","0","1","1","0","1","0","1","5","2","5","2","2","1","2","3","1","2","2","753363460917825537","杨","660","","","","nonmatch","","","","","","","","","","","","","","key","j","16.666666666666668","768","428","j","true","nonmatch","img/hexagon.png","方形","六边","ALT1_2","prac_ALT1_2","","","","","","","","","","","",""
"null","<span style='color:GreenYellow; font-size: 70px;'>正确! </span>","null","html-keyboard-response","62","194522","0.0-7.0-1.0-1.0-0.0-1.26","4","4","3","4","4","4","4","3","4","4","5","4","4","4","4","5","4","4","5","5","2","1","2","2","1","2","2","1","1","1","0","1","1","0","0","0","1","0","1","1","0","1","0","1","5","2","5","2","2","1","2","3","1","2","2","753363460917825537","杨","660","","","","","","","","","","","","","","","","","","","","","","","","","","","","","","feedback_test","","","","","","","","","","","",""
"null","","null","psychophysics","63","196725","0.0-7.0-1.0-1.0-0.0-0.27","4","4","3","4","4","4","4","3","4","4","5","4","4","4","4","5","4","4","5","5","2","1","2","2","1","2","2","1","1","1","0","1","1","0","0","0","1","0","1","1","0","1","0","1","5","2","5","2","2","1","2","3","1","2","2","753363460917825537","杨","660","","","","null","","","","","","","","","","","","","","key","null","16.666412213740593","768","428","j","false","nonmatch","img/hexagon.png","三角","六边","ALT1_2","prac_ALT1_2","","","","","","","","","","","",""
"null","<span class='add_' style='color:yellow; font-size: 70px;'> 太慢! </span>","null","html-keyboard-response","64","197225","0.0-7.0-1.0-1.0-0.0-1.27","4","4","3","4","4","4","4","3","4","4","5","4","4","4","4","5","4","4","5","5","2","1","2","2","1","2","2","1","1","1","0","1","1","0","0","0","1","0","1","1","0","1","0","1","5","2","5","2","2","1","2","3","1","2","2","753363460917825537","杨","660","","","","","","","","","","","","","","","","","","","","","","","","","","","","","","feedback_test","","","","","","","","","","","",""
"676","","j","psychophysics","65","198902","0.0-7.0-1.0-1.0-0.0-0.28","4","4","3","4","4","4","4","3","4","4","5","4","4","4","4","5","4","4","5","5","2","1","2","2","1","2","2","1","1","1","0","1","1","0","0","0","1","0","1","1","0","1","0","1","5","2","5","2","2","1","2","3","1","2","2","753363460917825537","杨","660","","","","nonmatch","","","","","","","","","","","","","","key","j","16.666666666666668","768","428","j","true","nonmatch","img/triangle.png","六边","三角","ALT1_2","prac_ALT1_2","","","","","","","","","","","",""
"null","<span style='color:GreenYellow; font-size: 70px;'>正确! </span>","null","html-keyboard-response","66","199403","0.0-7.0-1.0-1.0-0.0-1.28","4","4","3","4","4","4","4","3","4","4","5","4","4","4","4","5","4","4","5","5","2","1","2","2","1","2","2","1","1","1","0","1","1","0","0","0","1","0","1","1","0","1","0","1","5","2","5","2","2","1","2","3","1","2","2","753363460917825537","杨","660","","","","","","","","","","","","","","","","","","","","","","","","","","","","","","feedback_test","","","","","","","","","","","",""
"1161","","f","psychophysics","67","201566","0.0-7.0-1.0-1.0-0.0-0.29","4","4","3","4","4","4","4","3","4","4","5","4","4","4","4","5","4","4","5","5","2","1","2","2","1","2","2","1","1","1","0","1","1","0","0","0","1","0","1","1","0","1","0","1","5","2","5","2","2","1","2","3","1","2","2","753363460917825537","杨","660","","","","match","","","","","","","","","","","","","","key","f","16.666666666666668","768","428","f","true","match","img/circle.png","圆形","圆形","ALT1_2","prac_ALT1_2","","","","","","","","","","","",""
"null","<span style='color:GreenYellow; font-size: 70px;'>正确! </span>","null","html-keyboard-response","68","202066","0.0-7.0-1.0-1.0-0.0-1.29","4","4","3","4","4","4","4","3","4","4","5","4","4","4","4","5","4","4","5","5","2","1","2","2","1","2","2","1","1","1","0","1","1","0","0","0","1","0","1","1","0","1","0","1","5","2","5","2","2","1","2","3","1","2","2","753363460917825537","杨","660","","","","","","","","","","","","","","","","","","","","","","","","","","","","","","feedback_test","","","","","","","","","","","",""
"819","","j","psychophysics","69","203886","0.0-7.0-1.0-1.0-0.0-0.30","4","4","3","4","4","4","4","3","4","4","5","4","4","4","4","5","4","4","5","5","2","1","2","2","1","2","2","1","1","1","0","1","1","0","0","0","1","0","1","1","0","1","0","1","5","2","5","2","2","1","2","3","1","2","2","753363460917825537","杨","660","","","","nonmatch","","","","","","","","","","","","","","key","j","16.668518518518358","768","428","j","true","nonmatch","img/circle.png","方形","圆形","ALT1_2","prac_ALT1_2","","","","","","","","","","","",""
"null","<span style='color:GreenYellow; font-size: 70px;'>正确! </span>","null","html-keyboard-response","70","204388","0.0-7.0-1.0-1.0-0.0-1.30","4","4","3","4","4","4","4","3","4","4","5","4","4","4","4","5","4","4","5","5","2","1","2","2","1","2","2","1","1","1","0","1","1","0","0","0","1","0","1","1","0","1","0","1","5","2","5","2","2","1","2","3","1","2","2","753363460917825537","杨","660","","","","","","","","","","","","","","","","","","","","","","","","","","","","","","feedback_test","","","","","","","","","","","",""
"593","","f","psychophysics","71","205982","0.0-7.0-1.0-1.0-0.0-0.31","4","4","3","4","4","4","4","3","4","4","5","4","4","4","4","5","4","4","5","5","2","1","2","2","1","2","2","1","1","1","0","1","1","0","0","0","1","0","1","1","0","1","0","1","5","2","5","2","2","1","2","3","1","2","2","753363460917825537","杨","660","","","","match","","","","","","","","","","","","","","key","f","16.667368421052878","768","428","f","true","match","img/circle.png","圆形","圆形","ALT1_2","prac_ALT1_2","","","","","","","","","","","",""
"null","<span style='color:GreenYellow; font-size: 70px;'>正确! </span>","null","html-keyboard-response","72","206483","0.0-7.0-1.0-1.0-0.0-1.31","4","4","3","4","4","4","4","3","4","4","5","4","4","4","4","5","4","4","5","5","2","1","2","2","1","2","2","1","1","1","0","1","1","0","0","0","1","0","1","1","0","1","0","1","5","2","5","2","2","1","2","3","1","2","2","753363460917825537","杨","660","","","","","","","","","","","","","","","","","","","","","","","","","","","","","","feedback_test","","","","","","","","","","","",""
"1082","","f","psychophysics","73","208566","0.0-7.0-1.0-1.0-0.0-0.32","4","4","3","4","4","4","4","3","4","4","5","4","4","4","4","5","4","4","5","5","2","1","2","2","1","2","2","1","1","1","0","1","1","0","0","0","1","0","1","1","0","1","0","1","5","2","5","2","2","1","2","3","1","2","2","753363460917825537","杨","660","","","","match","","","","","","","","","","","","","","key","f","16.668548387096962","768","428","f","true","match","img/triangle.png","三角","三角","ALT1_2","prac_ALT1_2","","","","","","","","","","","",""
"null","<span style='color:GreenYellow; font-size: 70px;'>正确! </span>","null","html-keyboard-response","74","209067","0.0-7.0-1.0-1.0-0.0-1.32","4","4","3","4","4","4","4","3","4","4","5","4","4","4","4","5","4","4","5","5","2","1","2","2","1","2","2","1","1","1","0","1","1","0","0","0","1","0","1","1","0","1","0","1","5","2","5","2","2","1","2","3","1","2","2","753363460917825537","杨","660","","","","","","","","","","","","","","","","","","","","","","","","","","","","","","feedback_test","","","","","","","","","","","",""
"769","","j","psychophysics","75","210838","0.0-7.0-1.0-1.0-0.0-0.33","4","4","3","4","4","4","4","3","4","4","5","4","4","4","4","5","4","4","5","5","2","1","2","2","1","2","2","1","1","1","0","1","1","0","0","0","1","0","1","1","0","1","0","1","5","2","5","2","2","1","2","3","1","2","2","753363460917825537","杨","660","","","","nonmatch","","","","","","","","","","","","","","key","j","16.666666666666668","768","428","j","true","nonmatch","img/triangle.png","圆形","三角","ALT1_2","prac_ALT1_2","","","","","","","","","","","",""
"null","<span style='color:GreenYellow; font-size: 70px;'>正确! </span>","null","html-keyboard-response","76","211339","0.0-7.0-1.0-1.0-0.0-1.33","4","4","3","4","4","4","4","3","4","4","5","4","4","4","4","5","4","4","5","5","2","1","2","2","1","2","2","1","1","1","0","1","1","0","0","0","1","0","1","1","0","1","0","1","5","2","5","2","2","1","2","3","1","2","2","753363460917825537","杨","660","","","","","","","","","","","","","","","","","","","","","","","","","","","","","","feedback_test","","","","","","","","","","","",""
"778","","j","psychophysics","77","213119","0.0-7.0-1.0-1.0-0.0-0.34","4","4","3","4","4","4","4","3","4","4","5","4","4","4","4","5","4","4","5","5","2","1","2","2","1","2","2","1","1","1","0","1","1","0","0","0","1","0","1","1","0","1","0","1","5","2","5","2","2","1","2","3","1","2","2","753363460917825537","杨","660","","","","nonmatch","","","","","","","","","","","","","","key","j","16.667924528302052","768","428","j","true","nonmatch","img/square.png","三角","方形","ALT1_2","prac_ALT1_2","","","","","","","","","","","",""
"null","<span style='color:GreenYellow; font-size: 70px;'>正确! </span>","null","html-keyboard-response","78","213619","0.0-7.0-1.0-1.0-0.0-1.34","4","4","3","4","4","4","4","3","4","4","5","4","4","4","4","5","4","4","5","5","2","1","2","2","1","2","2","1","1","1","0","1","1","0","0","0","1","0","1","1","0","1","0","1","5","2","5","2","2","1","2","3","1","2","2","753363460917825537","杨","660","","","","","","","","","","","","","","","","","","","","","","","","","","","","","","feedback_test","","","","","","","","","","","",""
"745","","f","psychophysics","79","215366","0.0-7.0-1.0-1.0-0.0-0.35","4","4","3","4","4","4","4","3","4","4","5","4","4","4","4","5","4","4","5","5","2","1","2","2","1","2","2","1","1","1","0","1","1","0","0","0","1","0","1","1","0","1","0","1","5","2","5","2","2","1","2","3","1","2","2","753363460917825537","杨","660","","","","match","","","","","","","","","","","","","","key","f","16.66826923076923","768","428","f","true","match","img/hexagon.png","六边","六边","ALT1_2","prac_ALT1_2","","","","","","","","","","","",""
"null","<span style='color:GreenYellow; font-size: 70px;'>正确! </span>","null","html-keyboard-response","80","215868","0.0-7.0-1.0-1.0-0.0-1.35","4","4","3","4","4","4","4","3","4","4","5","4","4","4","4","5","4","4","5","5","2","1","2","2","1","2","2","1","1","1","0","1","1","0","0","0","1","0","1","1","0","1","0","1","5","2","5","2","2","1","2","3","1","2","2","753363460917825537","杨","660","","","","","","","","","","","","","","","","","","","","","","","","","","","","","","feedback_test","","","","","","","","","","","",""
"801","","j","psychophysics","81","217670","0.0-7.0-1.0-1.0-0.0-0.36","4","4","3","4","4","4","4","3","4","4","5","4","4","4","4","5","4","4","5","5","2","1","2","2","1","2","2","1","1","1","0","1","1","0","0","0","1","0","1","1","0","1","0","1","5","2","5","2","2","1","2","3","1","2","2","753363460917825537","杨","660","","","","nonmatch","","","","","","","","","","","","","","key","j","16.66822429906542","768","428","j","true","nonmatch","img/triangle.png","方形","三角","ALT1_2","prac_ALT1_2","","","","","","","","","","","",""
"null","<span style='color:GreenYellow; font-size: 70px;'>正确! </span>","null","html-keyboard-response","82","218172","0.0-7.0-1.0-1.0-0.0-1.36","4","4","3","4","4","4","4","3","4","4","5","4","4","4","4","5","4","4","5","5","2","1","2","2","1","2","2","1","1","1","0","1","1","0","0","0","1","0","1","1","0","1","0","1","5","2","5","2","2","1","2","3","1","2","2","753363460917825537","杨","660","","","","","","","","","","","","","","","","","","","","","","","","","","","","","","feedback_test","","","","","","","","","","","",""
"576","","f","psychophysics","83","219750","0.0-7.0-1.0-1.0-0.0-0.37","4","4","3","4","4","4","4","3","4","4","5","4","4","4","4","5","4","4","5","5","2","1","2","2","1","2","2","1","1","1","0","1","1","0","0","0","1","0","1","1","0","1","0","1","5","2","5","2","2","1","2","3","1","2","2","753363460917825537","杨","660","","","","match","","","","","","","","","","","","","","key","f","16.66914893617015","768","428","f","true","match","img/circle.png","圆形","圆形","ALT1_2","prac_ALT1_2","","","","","","","","","","","",""
"null","<span style='color:GreenYellow; font-size: 70px;'>正确! </span>","null","html-keyboard-response","84","220265","0.0-7.0-1.0-1.0-0.0-1.37","4","4","3","4","4","4","4","3","4","4","5","4","4","4","4","5","4","4","5","5","2","1","2","2","1","2","2","1","1","1","0","1","1","0","0","0","1","0","1","1","0","1","0","1","5","2","5","2","2","1","2","3","1","2","2","753363460917825537","杨","660","","","","","","","","","","","","","","","","","","","","","","","","","","","","","","feedback_test","","","","","","","","","","","",""
"725","","j","psychophysics","85","221991","0.0-7.0-1.0-1.0-0.0-0.38","4","4","3","4","4","4","4","3","4","4","5","4","4","4","4","5","4","4","5","5","2","1","2","2","1","2","2","1","1","1","0","1","1","0","0","0","1","0","1","1","0","1","0","1","5","2","5","2","2","1","2","3","1","2","2","753363460917825537","杨","660","","","","nonmatch","","","","","","","","","","","","","","key","j","16.665686274509746","768","428","j","true","nonmatch","img/square.png","圆形","方形","ALT1_2","prac_ALT1_2","","","","","","","","","","","",""
"null","<span style='color:GreenYellow; font-size: 70px;'>正确! </span>","null","html-keyboard-response","86","222493","0.0-7.0-1.0-1.0-0.0-1.38","4","4","3","4","4","4","4","3","4","4","5","4","4","4","4","5","4","4","5","5","2","1","2","2","1","2","2","1","1","1","0","1","1","0","0","0","1","0","1","1","0","1","0","1","5","2","5","2","2","1","2","3","1","2","2","753363460917825537","杨","660","","","","","","","","","","","","","","","","","","","","","","","","","","","","","","feedback_test","","","","","","","","","","","",""
"745","","j","psychophysics","87","224238","0.0-7.0-1.0-1.0-0.0-0.39","4","4","3","4","4","4","4","3","4","4","5","4","4","4","4","5","4","4","5","5","2","1","2","2","1","2","2","1","1","1","0","1","1","0","0","0","1","0","1","1","0","1","0","1","5","2","5","2","2","1","2","3","1","2","2","753363460917825537","杨","660","","","","nonmatch","","","","","","","","","","","","","","key","j","16.666019417475784","768","428","j","true","nonmatch","img/circle.png","三角","圆形","ALT1_2","prac_ALT1_2","","","","","","","","","","","",""
"null","<span style='color:GreenYellow; font-size: 70px;'>正确! </span>","null","html-keyboard-response","88","224739","0.0-7.0-1.0-1.0-0.0-1.39","4","4","3","4","4","4","4","3","4","4","5","4","4","4","4","5","4","4","5","5","2","1","2","2","1","2","2","1","1","1","0","1","1","0","0","0","1","0","1","1","0","1","0","1","5","2","5","2","2","1","2","3","1","2","2","753363460917825537","杨","660","","","","","","","","","","","","","","","","","","","","","","","","","","","","","","feedback_test","","","","","","","","","","","",""
"1146","","f","psychophysics","89","226887","0.0-7.0-1.0-1.0-0.0-0.40","4","4","3","4","4","4","4","3","4","4","5","4","4","4","4","5","4","4","5","5","2","1","2","2","1","2","2","1","1","1","0","1","1","0","0","0","1","0","1","1","0","1","0","1","5","2","5","2","2","1","2","3","1","2","2","753363460917825537","杨","660","","","","match","","","","","","","","","","","","","","key","f","16.667187499999955","768","428","f","true","match","img/square.png","方形","方形","ALT1_2","prac_ALT1_2","","","","","","","","","","","",""
"null","<span style='color:GreenYellow; font-size: 70px;'>正确! </span>","null","html-keyboard-response","90","227388","0.0-7.0-1.0-1.0-0.0-1.40","4","4","3","4","4","4","4","3","4","4","5","4","4","4","4","5","4","4","5","5","2","1","2","2","1","2","2","1","1","1","0","1","1","0","0","0","1","0","1","1","0","1","0","1","5","2","5","2","2","1","2","3","1","2","2","753363460917825537","杨","660","","","","","","","","","","","","","","","","","","","","","","","","","","","","","","feedback_test","","","","","","","","","","","",""
"762","","f","psychophysics","91","229150","0.0-7.0-1.0-1.0-0.0-0.41","4","4","3","4","4","4","4","3","4","4","5","4","4","4","4","5","4","4","5","5","2","1","2","2","1","2","2","1","1","1","0","1","1","0","0","0","1","0","1","1","0","1","0","1","5","2","5","2","2","1","2","3","1","2","2","753363460917825537","杨","660","","","","match","","","","","","","","","","","","","","key","f","16.66857142857154","768","428","f","true","match","img/square.png","方形","方形","ALT1_2","prac_ALT1_2","","","","","","","","","","","",""
"null","<span style='color:GreenYellow; font-size: 70px;'>正确! </span>","null","html-keyboard-response","92","229652","0.0-7.0-1.0-1.0-0.0-1.41","4","4","3","4","4","4","4","3","4","4","5","4","4","4","4","5","4","4","5","5","2","1","2","2","1","2","2","1","1","1","0","1","1","0","0","0","1","0","1","1","0","1","0","1","5","2","5","2","2","1","2","3","1","2","2","753363460917825537","杨","660","","","","","","","","","","","","","","","","","","","","","","","","","","","","","","feedback_test","","","","","","","","","","","",""
"729","","f","psychophysics","93","231382","0.0-7.0-1.0-1.0-0.0-0.42","4","4","3","4","4","4","4","3","4","4","5","4","4","4","4","5","4","4","5","5","2","1","2","2","1","2","2","1","1","1","0","1","1","0","0","0","1","0","1","1","0","1","0","1","5","2","5","2","2","1","2","3","1","2","2","753363460917825537","杨","660","","","","match","","","","","","","","","","","","","","key","f","16.667961165048432","768","428","f","true","match","img/hexagon.png","六边","六边","ALT1_2","prac_ALT1_2","","","","","","","","","","","",""
"null","<span style='color:GreenYellow; font-size: 70px;'>正确! </span>","null","html-keyboard-response","94","231883","0.0-7.0-1.0-1.0-0.0-1.42","4","4","3","4","4","4","4","3","4","4","5","4","4","4","4","5","4","4","5","5","2","1","2","2","1","2","2","1","1","1","0","1","1","0","0","0","1","0","1","1","0","1","0","1","5","2","5","2","2","1","2","3","1","2","2","753363460917825537","杨","660","","","","","","","","","","","","","","","","","","","","","","","","","","","","","","feedback_test","","","","","","","","","","","",""
"732","","f","psychophysics","95","233616","0.0-7.0-1.0-1.0-0.0-0.43","4","4","3","4","4","4","4","3","4","4","5","4","4","4","4","5","4","4","5","5","2","1","2","2","1","2","2","1","1","1","0","1","1","0","0","0","1","0","1","1","0","1","0","1","5","2","5","2","2","1","2","3","1","2","2","753363460917825537","杨","660","","","","match","","","","","","","","","","","","","","key","f","16.668932038834896","768","428","f","true","match","img/hexagon.png","六边","六边","ALT1_2","prac_ALT1_2","","","","","","","","","","","",""
"null","<span style='color:GreenYellow; font-size: 70px;'>正确! </span>","null","html-keyboard-response","96","234117","0.0-7.0-1.0-1.0-0.0-1.43","4","4","3","4","4","4","4","3","4","4","5","4","4","4","4","5","4","4","5","5","2","1","2","2","1","2","2","1","1","1","0","1","1","0","0","0","1","0","1","1","0","1","0","1","5","2","5","2","2","1","2","3","1","2","2","753363460917825537","杨","660","","","","","","","","","","","","","","","","","","","","","","","","","","","","","","feedback_test","","","","","","","","","","","",""
"null","","null","psychophysics","97","236324","0.0-7.0-1.0-1.0-0.0-0.44","4","4","3","4","4","4","4","3","4","4","5","4","4","4","4","5","4","4","5","5","2","1","2","2","1","2","2","1","1","1","0","1","1","0","0","0","1","0","1","1","0","1","0","1","5","2","5","2","2","1","2","3","1","2","2","753363460917825537","杨","660","","","","null","","","","","","","","","","","","","","key","null","16.66793893129771","768","428","f","false","match","img/triangle.png","三角","三角","ALT1_2","prac_ALT1_2","","","","","","","","","","","",""
"null","<span class='add_' style='color:yellow; font-size: 70px;'> 太慢! </span>","null","html-keyboard-response","98","236825","0.0-7.0-1.0-1.0-0.0-1.44","4","4","3","4","4","4","4","3","4","4","5","4","4","4","4","5","4","4","5","5","2","1","2","2","1","2","2","1","1","1","0","1","1","0","0","0","1","0","1","1","0","1","0","1","5","2","5","2","2","1","2","3","1","2","2","753363460917825537","杨","660","","","","","","","","","","","","","","","","","","","","","","","","","","","","","","feedback_test","","","","","","","","","","","",""
"null","","null","psychophysics","99","239027","0.0-7.0-1.0-1.0-0.0-0.45","4","4","3","4","4","4","4","3","4","4","5","4","4","4","4","5","4","4","5","5","2","1","2","2","1","2","2","1","1","1","0","1","1","0","0","0","1","0","1","1","0","1","0","1","5","2","5","2","2","1","2","3","1","2","2","753363460917825537","杨","660","","","","null","","","","","","","","","","","","","","key","null","16.666412213740593","768","428","f","false","match","img/triangle.png","三角","三角","ALT1_2","prac_ALT1_2","","","","","","","","","","","",""
"null","<span class='add_' style='color:yellow; font-size: 70px;'> 太慢! </span>","null","html-keyboard-response","100","239528","0.0-7.0-1.0-1.0-0.0-1.45","4","4","3","4","4","4","4","3","4","4","5","4","4","4","4","5","4","4","5","5","2","1","2","2","1","2","2","1","1","1","0","1","1","0","0","0","1","0","1","1","0","1","0","1","5","2","5","2","2","1","2","3","1","2","2","753363460917825537","杨","660","","","","","","","","","","","","","","","","","","","","","","","","","","","","","","feedback_test","","","","","","","","","","","",""
"757","","j","psychophysics","101","241286","0.0-7.0-1.0-1.0-0.0-0.46","4","4","3","4","4","4","4","3","4","4","5","4","4","4","4","5","4","4","5","5","2","1","2","2","1","2","2","1","1","1","0","1","1","0","0","0","1","0","1","1","0","1","0","1","5","2","5","2","2","1","2","3","1","2","2","753363460917825537","杨","660","","","","nonmatch","","","","","","","","","","","","","","key","j","16.665384615384447","768","428","j","true","nonmatch","img/hexagon.png","圆形","六边","ALT1_2","prac_ALT1_2","","","","","","","","","","","",""
"null","<span style='color:GreenYellow; font-size: 70px;'>正确! </span>","null","html-keyboard-response","102","241787","0.0-7.0-1.0-1.0-0.0-1.46","4","4","3","4","4","4","4","3","4","4","5","4","4","4","4","5","4","4","5","5","2","1","2","2","1","2","2","1","1","1","0","1","1","0","0","0","1","0","1","1","0","1","0","1","5","2","5","2","2","1","2","3","1","2","2","753363460917825537","杨","660","","","","","","","","","","","","","","","","","","","","","","","","","","","","","","feedback_test","","","","","","","","","","","",""
"841","","j","psychophysics","103","243630","0.0-7.0-1.0-1.0-0.0-0.47","4","4","3","4","4","4","4","3","4","4","5","4","4","4","4","5","4","4","5","5","2","1","2","2","1","2","2","1","1","1","0","1","1","0","0","0","1","0","1","1","0","1","0","1","5","2","5","2","2","1","2","3","1","2","2","753363460917825537","杨","660","","","","nonmatch","","","","","","","","","","","","","","key","j","16.667272727272675","768","428","j","true","nonmatch","img/square.png","六边","方形","ALT1_2","prac_ALT1_2","","","","","","","","","","","",""
"null","<span style='color:GreenYellow; font-size: 70px;'>正确! </span>","null","html-keyboard-response","104","244131","0.0-7.0-1.0-1.0-0.0-1.47","4","4","3","4","4","4","4","3","4","4","5","4","4","4","4","5","4","4","5","5","2","1","2","2","1","2","2","1","1","1","0","1","1","0","0","0","1","0","1","1","0","1","0","1","5","2","5","2","2","1","2","3","1","2","2","753363460917825537","杨","660","","","","","","","","","","","","","","","","","","","","","","","","","","","","","","feedback_test","","","","","","","","","","","",""
"137486","<style>.context{color:white; font-size: 35px; line-height:40px}</style>                          <div><p class='context'>您正确回答了92% 的试次。</p><p class='context'>您的平均反应时为786毫秒。</p><p class='context'>恭喜您完成练习。按空格键进入正式实验。</p><p class='footer' style='font-size: 35px; line-height:40px;'>请在进入正式实验实验之前将您的<span style='color: lightgreen;'>食指</span>放在电脑键盘的相应键位上进行按键。</p>"," ","html-keyboard-response","105","381618","0.0-7.0-1.0-2.0","4","4","3","4","4","4","4","3","4","4","5","4","4","4","4","5","4","4","5","5","2","1","2","2","1","2","2","1","1","1","0","1","1","0","0","0","1","0","1","1","0","1","0","1","5","2","5","2","2","1","2","3","1","2","2","753363460917825537","杨","660","","","","","","","","","","","","","","","","","","","","","","","","","","","","","","","","","","","","","","","","","",""
"967","
  <p style='color: white; font-size: 22px'>请您将手指放在按键上，准备进入正式的匹配任务。</p>
  <p> <div style = ""color: green""><按空格键进入下一阶段的匹配任务></div></p>
  "," ","html-keyboard-response","106","382592","0.0-7.0-1.0-3.0","4","4","3","4","4","4","4","3","4","4","5","4","4","4","4","5","4","4","5","5","2","1","2","2","1","2","2","1","1","1","0","1","1","0","0","0","1","0","1","1","0","1","0","1","5","2","5","2","2","1","2","3","1","2","2","753363460917825537","杨","660","","","","","","","","","","","","","","","","","","","","","","","","","","","","","","","","","","","","","","","","","",""
"748","","j","psychophysics","107","384342","0.0-7.0-1.0-4.0-0.0-0.0","4","4","3","4","4","4","4","3","4","4","5","4","4","4","4","5","4","4","5","5","2","1","2","2","1","2","2","1","1","1","0","1","1","0","0","0","1","0","1","1","0","1","0","1","5","2","5","2","2","1","2","3","1","2","2","753363460917825537","杨","660","","","","nonmatch","","","","","","","","","","","","","","key","j","16.667307692307915","768","428","j","true","nonmatch","img/square.png","六边","方形","ALT1","formal_ALT1_2","","","","","","","","","","","",""
"null","<span style='color:GreenYellow; font-size: 70px;'>正确! </span>","null","html-keyboard-response","108","384844","0.0-7.0-1.0-4.0-0.0-1.0","4","4","3","4","4","4","4","3","4","4","5","4","4","4","4","5","4","4","5","5","2","1","2","2","1","2","2","1","1","1","0","1","1","0","0","0","1","0","1","1","0","1","0","1","5","2","5","2","2","1","2","3","1","2","2","753363460917825537","杨","660","","","","","","","","","","","","","","","","","","","","","","","","","","","","","","feedback_test","","","","","","","","","","","",""
"721","","f","psychophysics","109","386566","0.0-7.0-1.0-4.0-0.0-0.1","4","4","3","4","4","4","4","3","4","4","5","4","4","4","4","5","4","4","5","5","2","1","2","2","1","2","2","1","1","1","0","1","1","0","0","0","1","0","1","1","0","1","0","1","5","2","5","2","2","1","2","3","1","2","2","753363460917825537","杨","660","","","","match","","","","","","","","","","","","","","key","f","16.664705882352827","768","428","f","true","match","img/triangle.png","三角","三角","ALT1","formal_ALT1_2","","","","","","","","","","","",""
"null","<span style='color:GreenYellow; font-size: 70px;'>正确! </span>","null","html-keyboard-response","110","387067","0.0-7.0-1.0-4.0-0.0-1.1","4","4","3","4","4","4","4","3","4","4","5","4","4","4","4","5","4","4","5","5","2","1","2","2","1","2","2","1","1","1","0","1","1","0","0","0","1","0","1","1","0","1","0","1","5","2","5","2","2","1","2","3","1","2","2","753363460917825537","杨","660","","","","","","","","","","","","","","","","","","","","","","","","","","","","","","feedback_test","","","","","","","","","","","",""
"666","","f","psychophysics","111","388734","0.0-7.0-1.0-4.0-0.0-0.2","4","4","3","4","4","4","4","3","4","4","5","4","4","4","4","5","4","4","5","5","2","1","2","2","1","2","2","1","1","1","0","1","1","0","0","0","1","0","1","1","0","1","0","1","5","2","5","2","2","1","2","3","1","2","2","753363460917825537","杨","660","","","","match","","","","","","","","","","","","","","key","f","16.668686868686986","768","428","f","true","match","img/square.png","方形","方形","ALT1","formal_ALT1_2","","","","","","","","","","","",""
"null","<span style='color:GreenYellow; font-size: 70px;'>正确! </span>","null","html-keyboard-response","112","389236","0.0-7.0-1.0-4.0-0.0-1.2","4","4","3","4","4","4","4","3","4","4","5","4","4","4","4","5","4","4","5","5","2","1","2","2","1","2","2","1","1","1","0","1","1","0","0","0","1","0","1","1","0","1","0","1","5","2","5","2","2","1","2","3","1","2","2","753363460917825537","杨","660","","","","","","","","","","","","","","","","","","","","","","","","","","","","","","feedback_test","","","","","","","","","","","",""
"618","","f","psychophysics","113","390854","0.0-7.0-1.0-4.0-0.0-0.3","4","4","3","4","4","4","4","3","4","4","5","4","4","4","4","5","4","4","5","5","2","1","2","2","1","2","2","1","1","1","0","1","1","0","0","0","1","0","1","1","0","1","0","1","5","2","5","2","2","1","2","3","1","2","2","753363460917825537","杨","660","","","","match","","","","","","","","","","","","","","key","f","16.664583333333212","768","428","j","false","nonmatch","img/triangle.png","六边","三角","ALT1","formal_ALT1_2","","","","","","","","","","","",""
"null","<span style='color:red; font-size: 70px;'>错误! </span>","null","html-keyboard-response","114","391355","0.0-7.0-1.0-4.0-0.0-1.3","4","4","3","4","4","4","4","3","4","4","5","4","4","4","4","5","4","4","5","5","2","1","2","2","1","2","2","1","1","1","0","1","1","0","0","0","1","0","1","1","0","1","0","1","5","2","5","2","2","1","2","3","1","2","2","753363460917825537","杨","660","","","","","","","","","","","","","","","","","","","","","","","","","","","","","","feedback_test","","","","","","","","","","","",""
"811","","j","psychophysics","115","393166","0.0-7.0-1.0-4.0-0.0-0.4","4","4","3","4","4","4","4","3","4","4","5","4","4","4","4","5","4","4","5","5","2","1","2","2","1","2","2","1","1","1","0","1","1","0","0","0","1","0","1","1","0","1","0","1","5","2","5","2","2","1","2","3","1","2","2","753363460917825537","杨","660","","","","nonmatch","","","","","","","","","","","","","","key","j","16.660747663550968","768","428","j","true","nonmatch","img/hexagon.png","三角","六边","ALT1","formal_ALT1_2","","","","","","","","","","","",""
"null","<span style='color:GreenYellow; font-size: 70px;'>正确! </span>","null","html-keyboard-response","116","393667","0.0-7.0-1.0-4.0-0.0-1.4","4","4","3","4","4","4","4","3","4","4","5","4","4","4","4","5","4","4","5","5","2","1","2","2","1","2","2","1","1","1","0","1","1","0","0","0","1","0","1","1","0","1","0","1","5","2","5","2","2","1","2","3","1","2","2","753363460917825537","杨","660","","","","","","","","","","","","","","","","","","","","","","","","","","","","","","feedback_test","","","","","","","","","","","",""
"601","","f","psychophysics","117","395270","0.0-7.0-1.0-4.0-0.0-0.5","4","4","3","4","4","4","4","3","4","4","5","4","4","4","4","5","4","4","5","5","2","1","2","2","1","2","2","1","1","1","0","1","1","0","0","0","1","0","1","1","0","1","0","1","5","2","5","2","2","1","2","3","1","2","2","753363460917825537","杨","660","","","","match","","","","","","","","","","","","","","key","f","16.667368421052878","768","428","f","true","match","img/hexagon.png","六边","六边","ALT1","formal_ALT1_2","","","","","","","","","","","",""
"null","<span style='color:GreenYellow; font-size: 70px;'>正确! </span>","null","html-keyboard-response","118","395771","0.0-7.0-1.0-4.0-0.0-1.5","4","4","3","4","4","4","4","3","4","4","5","4","4","4","4","5","4","4","5","5","2","1","2","2","1","2","2","1","1","1","0","1","1","0","0","0","1","0","1","1","0","1","0","1","5","2","5","2","2","1","2","3","1","2","2","753363460917825537","杨","660","","","","","","","","","","","","","","","","","","","","","","","","","","","","","","feedback_test","","","","","","","","","","","",""
"738","","f","psychophysics","119","397510","0.0-7.0-1.0-4.0-0.0-0.6","4","4","3","4","4","4","4","3","4","4","5","4","4","4","4","5","4","4","5","5","2","1","2","2","1","2","2","1","1","1","0","1","1","0","0","0","1","0","1","1","0","1","0","1","5","2","5","2","2","1","2","3","1","2","2","753363460917825537","杨","660","","","","match","","","","","","","","","","","","","","key","f","16.655339805825243","768","428","f","true","match","img/circle.png","圆形","圆形","ALT1","formal_ALT1_2","","","","","","","","","","","",""
"null","<span style='color:GreenYellow; font-size: 70px;'>正确! </span>","null","html-keyboard-response","120","398011","0.0-7.0-1.0-4.0-0.0-1.6","4","4","3","4","4","4","4","3","4","4","5","4","4","4","4","5","4","4","5","5","2","1","2","2","1","2","2","1","1","1","0","1","1","0","0","0","1","0","1","1","0","1","0","1","5","2","5","2","2","1","2","3","1","2","2","753363460917825537","杨","660","","","","","","","","","","","","","","","","","","","","","","","","","","","","","","feedback_test","","","","","","","","","","","",""
"741","","j","psychophysics","121","399753","0.0-7.0-1.0-4.0-0.0-0.7","4","4","3","4","4","4","4","3","4","4","5","4","4","4","4","5","4","4","5","5","2","1","2","2","1","2","2","1","1","1","0","1","1","0","0","0","1","0","1","1","0","1","0","1","5","2","5","2","2","1","2","3","1","2","2","753363460917825537","杨","660","","","","nonmatch","","","","","","","","","","","","","","key","j","16.66699029126225","768","428","j","true","nonmatch","img/circle.png","三角","圆形","ALT1","formal_ALT1_2","","","","","","","","","","","",""
"null","<span style='color:GreenYellow; font-size: 70px;'>正确! </span>","null","html-keyboard-response","122","400254","0.0-7.0-1.0-4.0-0.0-1.7","4","4","3","4","4","4","4","3","4","4","5","4","4","4","4","5","4","4","5","5","2","1","2","2","1","2","2","1","1","1","0","1","1","0","0","0","1","0","1","1","0","1","0","1","5","2","5","2","2","1","2","3","1","2","2","753363460917825537","杨","660","","","","","","","","","","","","","","","","","","","","","","","","","","","","","","feedback_test","","","","","","","","","","","",""
"1142","","f","psychophysics","123","402398","0.0-7.0-1.0-4.0-0.0-0.8","4","4","3","4","4","4","4","3","4","4","5","4","4","4","4","5","4","4","5","5","2","1","2","2","1","2","2","1","1","1","0","1","1","0","0","0","1","0","1","1","0","1","0","1","5","2","5","2","2","1","2","3","1","2","2","753363460917825537","杨","660","","","","match","","","","","","","","","","","","","","key","f","16.662204724409722","768","428","f","true","match","img/circle.png","圆形","圆形","ALT1","formal_ALT1_2","","","","","","","","","","","",""
"null","<span style='color:GreenYellow; font-size: 70px;'>正确! </span>","null","html-keyboard-response","124","402912","0.0-7.0-1.0-4.0-0.0-1.8","4","4","3","4","4","4","4","3","4","4","5","4","4","4","4","5","4","4","5","5","2","1","2","2","1","2","2","1","1","1","0","1","1","0","0","0","1","0","1","1","0","1","0","1","5","2","5","2","2","1","2","3","1","2","2","753363460917825537","杨","660","","","","","","","","","","","","","","","","","","","","","","","","","","","","","","feedback_test","","","","","","","","","","","",""
"630","","j","psychophysics","125","404542","0.0-7.0-1.0-4.0-0.0-0.9","4","4","3","4","4","4","4","3","4","4","5","4","4","4","4","5","4","4","5","5","2","1","2","2","1","2","2","1","1","1","0","1","1","0","0","0","1","0","1","1","0","1","0","1","5","2","5","2","2","1","2","3","1","2","2","753363460917825537","杨","660","","","","nonmatch","","","","","","","","","","","","","","key","j","16.66701030927847","768","428","j","true","nonmatch","img/circle.png","六边","圆形","ALT1","formal_ALT1_2","","","","","","","","","","","",""
"null","<span style='color:GreenYellow; font-size: 70px;'>正确! </span>","null","html-keyboard-response","126","405043","0.0-7.0-1.0-4.0-0.0-1.9","4","4","3","4","4","4","4","3","4","4","5","4","4","4","4","5","4","4","5","5","2","1","2","2","1","2","2","1","1","1","0","1","1","0","0","0","1","0","1","1","0","1","0","1","5","2","5","2","2","1","2","3","1","2","2","753363460917825537","杨","660","","","","","","","","","","","","","","","","","","","","","","","","","","","","","","feedback_test","","","","","","","","","","","",""
"745","","j","psychophysics","127","406790","0.0-7.0-1.0-4.0-0.0-0.10","4","4","3","4","4","4","4","3","4","4","5","4","4","4","4","5","4","4","5","5","2","1","2","2","1","2","2","1","1","1","0","1","1","0","0","0","1","0","1","1","0","1","0","1","5","2","5","2","2","1","2","3","1","2","2","753363460917825537","杨","660","","","","nonmatch","","","","","","","","","","","","","","key","j","16.669230769230545","768","428","j","true","nonmatch","img/triangle.png","方形","三角","ALT1","formal_ALT1_2","","","","","","","","","","","",""
"null","<span style='color:GreenYellow; font-size: 70px;'>正确! </span>","null","html-keyboard-response","128","407291","0.0-7.0-1.0-4.0-0.0-1.10","4","4","3","4","4","4","4","3","4","4","5","4","4","4","4","5","4","4","5","5","2","1","2","2","1","2","2","1","1","1","0","1","1","0","0","0","1","0","1","1","0","1","0","1","5","2","5","2","2","1","2","3","1","2","2","753363460917825537","杨","660","","","","","","","","","","","","","","","","","","","","","","","","","","","","","","feedback_test","","","","","","","","","","","",""
"761","","f","psychophysics","129","409054","0.0-7.0-1.0-4.0-0.0-0.11","4","4","3","4","4","4","4","3","4","4","5","4","4","4","4","5","4","4","5","5","2","1","2","2","1","2","2","1","1","1","0","1","1","0","0","0","1","0","1","1","0","1","0","1","5","2","5","2","2","1","2","3","1","2","2","753363460917825537","杨","660","","","","match","","","","","","","","","","","","","","key","f","16.667307692307915","768","428","f","true","match","img/square.png","方形","方形","ALT1","formal_ALT1_2","","","","","","","","","","","",""
"null","<span style='color:GreenYellow; font-size: 70px;'>正确! </span>","null","html-keyboard-response","130","409555","0.0-7.0-1.0-4.0-0.0-1.11","4","4","3","4","4","4","4","3","4","4","5","4","4","4","4","5","4","4","5","5","2","1","2","2","1","2","2","1","1","1","0","1","1","0","0","0","1","0","1","1","0","1","0","1","5","2","5","2","2","1","2","3","1","2","2","753363460917825537","杨","660","","","","","","","","","","","","","","","","","","","","","","","","","","","","","","feedback_test","","","","","","","","","","","",""
"762","","j","psychophysics","131","411318","0.0-7.0-1.0-4.0-0.0-0.12","4","4","3","4","4","4","4","3","4","4","5","4","4","4","4","5","4","4","5","5","2","1","2","2","1","2","2","1","1","1","0","1","1","0","0","0","1","0","1","1","0","1","0","1","5","2","5","2","2","1","2","3","1","2","2","753363460917825537","杨","660","","","","nonmatch","","","","","","","","","","","","","","key","j","16.66346153846154","768","428","j","true","nonmatch","img/square.png","三角","方形","ALT1","formal_ALT1_2","","","","","","","","","","","",""
"null","<span style='color:GreenYellow; font-size: 70px;'>正确! </span>","null","html-keyboard-response","132","411819","0.0-7.0-1.0-4.0-0.0-1.12","4","4","3","4","4","4","4","3","4","4","5","4","4","4","4","5","4","4","5","5","2","1","2","2","1","2","2","1","1","1","0","1","1","0","0","0","1","0","1","1","0","1","0","1","5","2","5","2","2","1","2","3","1","2","2","753363460917825537","杨","660","","","","","","","","","","","","","","","","","","","","","","","","","","","","","","feedback_test","","","","","","","","","","","",""
"753","","f","psychophysics","133","413574","0.0-7.0-1.0-4.0-0.0-0.13","4","4","3","4","4","4","4","3","4","4","5","4","4","4","4","5","4","4","5","5","2","1","2","2","1","2","2","1","1","1","0","1","1","0","0","0","1","0","1","1","0","1","0","1","5","2","5","2","2","1","2","3","1","2","2","753363460917825537","杨","660","","","","match","","","","","","","","","","","","","","key","f","16.666666666666668","768","428","f","true","match","img/triangle.png","三角","三角","ALT1","formal_ALT1_2","","","","","","","","","","","",""
"null","<span style='color:GreenYellow; font-size: 70px;'>正确! </span>","null","html-keyboard-response","134","414074","0.0-7.0-1.0-4.0-0.0-1.13","4","4","3","4","4","4","4","3","4","4","5","4","4","4","4","5","4","4","5","5","2","1","2","2","1","2","2","1","1","1","0","1","1","0","0","0","1","0","1","1","0","1","0","1","5","2","5","2","2","1","2","3","1","2","2","753363460917825537","杨","660","","","","","","","","","","","","","","","","","","","","","","","","","","","","","","feedback_test","","","","","","","","","","","",""
"721","","f","psychophysics","135","415798","0.0-7.0-1.0-4.0-0.0-0.14","4","4","3","4","4","4","4","3","4","4","5","4","4","4","4","5","4","4","5","5","2","1","2","2","1","2","2","1","1","1","0","1","1","0","0","0","1","0","1","1","0","1","0","1","5","2","5","2","2","1","2","3","1","2","2","753363460917825537","杨","660","","","","match","","","","","","","","","","","","","","key","f","16.666666666666668","768","428","f","true","match","img/hexagon.png","六边","六边","ALT1","formal_ALT1_2","","","","","","","","","","","",""
"null","<span style='color:GreenYellow; font-size: 70px;'>正确! </span>","null","html-keyboard-response","136","416299","0.0-7.0-1.0-4.0-0.0-1.14","4","4","3","4","4","4","4","3","4","4","5","4","4","4","4","5","4","4","5","5","2","1","2","2","1","2","2","1","1","1","0","1","1","0","0","0","1","0","1","1","0","1","0","1","5","2","5","2","2","1","2","3","1","2","2","753363460917825537","杨","660","","","","","","","","","","","","","","","","","","","","","","","","","","","","","","feedback_test","","","","","","","","","","","",""
"739","","f","psychophysics","137","418038","0.0-7.0-1.0-4.0-0.0-0.15","4","4","3","4","4","4","4","3","4","4","5","4","4","4","4","5","4","4","5","5","2","1","2","2","1","2","2","1","1","1","0","1","1","0","0","0","1","0","1","1","0","1","0","1","5","2","5","2","2","1","2","3","1","2","2","753363460917825537","杨","660","","","","match","","","","","","","","","","","","","","key","f","16.666990291261683","768","428","j","false","nonmatch","img/triangle.png","圆形","三角","ALT1","formal_ALT1_2","","","","","","","","","","","",""
"null","<span style='color:red; font-size: 70px;'>错误! </span>","null","html-keyboard-response","138","418539","0.0-7.0-1.0-4.0-0.0-1.15","4","4","3","4","4","4","4","3","4","4","5","4","4","4","4","5","4","4","5","5","2","1","2","2","1","2","2","1","1","1","0","1","1","0","0","0","1","0","1","1","0","1","0","1","5","2","5","2","2","1","2","3","1","2","2","753363460917825537","杨","660","","","","","","","","","","","","","","","","","","","","","","","","","","","","","","feedback_test","","","","","","","","","","","",""
"645","","f","psychophysics","139","420185","0.0-7.0-1.0-4.0-0.0-0.16","4","4","3","4","4","4","4","3","4","4","5","4","4","4","4","5","4","4","5","5","2","1","2","2","1","2","2","1","1","1","0","1","1","0","0","0","1","0","1","1","0","1","0","1","5","2","5","2","2","1","2","3","1","2","2","753363460917825537","杨","660","","","","match","","","","","","","","","","","","","","key","f","16.66597938144306","768","428","f","true","match","img/circle.png","圆形","圆形","ALT1","formal_ALT1_2","","","","","","","","","","","",""
"null","<span style='color:GreenYellow; font-size: 70px;'>正确! </span>","null","html-keyboard-response","140","420687","0.0-7.0-1.0-4.0-0.0-1.16","4","4","3","4","4","4","4","3","4","4","5","4","4","4","4","5","4","4","5","5","2","1","2","2","1","2","2","1","1","1","0","1","1","0","0","0","1","0","1","1","0","1","0","1","5","2","5","2","2","1","2","3","1","2","2","753363460917825537","杨","660","","","","","","","","","","","","","","","","","","","","","","","","","","","","","","feedback_test","","","","","","","","","","","",""
"998","","j","psychophysics","141","422686","0.0-7.0-1.0-4.0-0.0-0.17","4","4","3","4","4","4","4","3","4","4","5","4","4","4","4","5","4","4","5","5","2","1","2","2","1","2","2","1","1","1","0","1","1","0","0","0","1","0","1","1","0","1","0","1","5","2","5","2","2","1","2","3","1","2","2","753363460917825537","杨","660","","","","nonmatch","","","","","","","","","","","","","","key","j","16.666386554621752","768","428","f","false","match","img/square.png","方形","方形","ALT1","formal_ALT1_2","","","","","","","","","","","",""
"null","<span style='color:red; font-size: 70px;'>错误! </span>","null","html-keyboard-response","142","423187","0.0-7.0-1.0-4.0-0.0-1.17","4","4","3","4","4","4","4","3","4","4","5","4","4","4","4","5","4","4","5","5","2","1","2","2","1","2","2","1","1","1","0","1","1","0","0","0","1","0","1","1","0","1","0","1","5","2","5","2","2","1","2","3","1","2","2","753363460917825537","杨","660","","","","","","","","","","","","","","","","","","","","","","","","","","","","","","feedback_test","","","","","","","","","","","",""
"898","","j","psychophysics","143","425086","0.0-7.0-1.0-4.0-0.0-0.18","4","4","3","4","4","4","4","3","4","4","5","4","4","4","4","5","4","4","5","5","2","1","2","2","1","2","2","1","1","1","0","1","1","0","0","0","1","0","1","1","0","1","0","1","5","2","5","2","2","1","2","3","1","2","2","753363460917825537","杨","660","","","","nonmatch","","","","","","","","","","","","","","key","j","16.667256637168347","768","428","j","true","nonmatch","img/circle.png","方形","圆形","ALT1","formal_ALT1_2","","","","","","","","","","","",""
"null","<span style='color:GreenYellow; font-size: 70px;'>正确! </span>","null","html-keyboard-response","144","425587","0.0-7.0-1.0-4.0-0.0-1.18","4","4","3","4","4","4","4","3","4","4","5","4","4","4","4","5","4","4","5","5","2","1","2","2","1","2","2","1","1","1","0","1","1","0","0","0","1","0","1","1","0","1","0","1","5","2","5","2","2","1","2","3","1","2","2","753363460917825537","杨","660","","","","","","","","","","","","","","","","","","","","","","","","","","","","","","feedback_test","","","","","","","","","","","",""
"826","","j","psychophysics","145","427415","0.0-7.0-1.0-4.0-0.0-0.19","4","4","3","4","4","4","4","3","4","4","5","4","4","4","4","5","4","4","5","5","2","1","2","2","1","2","2","1","1","1","0","1","1","0","0","0","1","0","1","1","0","1","0","1","5","2","5","2","2","1","2","3","1","2","2","753363460917825537","杨","660","","","","nonmatch","","","","","","","","","","","","","","key","j","16.6697247706422","768","428","j","true","nonmatch","img/hexagon.png","圆形","六边","ALT1","formal_ALT1_2","","","","","","","","","","","",""
"null","<span style='color:GreenYellow; font-size: 70px;'>正确! </span>","null","html-keyboard-response","146","427915","0.0-7.0-1.0-4.0-0.0-1.19","4","4","3","4","4","4","4","3","4","4","5","4","4","4","4","5","4","4","5","5","2","1","2","2","1","2","2","1","1","1","0","1","1","0","0","0","1","0","1","1","0","1","0","1","5","2","5","2","2","1","2","3","1","2","2","753363460917825537","杨","660","","","","","","","","","","","","","","","","","","","","","","","","","","","","","","feedback_test","","","","","","","","","","","",""
"866","","j","psychophysics","147","429782","0.0-7.0-1.0-4.0-0.0-0.20","4","4","3","4","4","4","4","3","4","4","5","4","4","4","4","5","4","4","5","5","2","1","2","2","1","2","2","1","1","1","0","1","1","0","0","0","1","0","1","1","0","1","0","1","5","2","5","2","2","1","2","3","1","2","2","753363460917825537","杨","660","","","","nonmatch","","","","","","","","","","","","","","key","j","16.666666666666668","768","428","j","true","nonmatch","img/square.png","圆形","方形","ALT1","formal_ALT1_2","","","","","","","","","","","",""
"null","<span style='color:GreenYellow; font-size: 70px;'>正确! </span>","null","html-keyboard-response","148","430283","0.0-7.0-1.0-4.0-0.0-1.20","4","4","3","4","4","4","4","3","4","4","5","4","4","4","4","5","4","4","5","5","2","1","2","2","1","2","2","1","1","1","0","1","1","0","0","0","1","0","1","1","0","1","0","1","5","2","5","2","2","1","2","3","1","2","2","753363460917825537","杨","660","","","","","","","","","","","","","","","","","","","","","","","","","","","","","","feedback_test","","","","","","","","","","","",""
"629","","f","psychophysics","149","431913","0.0-7.0-1.0-4.0-0.0-0.21","4","4","3","4","4","4","4","3","4","4","5","4","4","4","4","5","4","4","5","5","2","1","2","2","1","2","2","1","1","1","0","1","1","0","0","0","1","0","1","1","0","1","0","1","5","2","5","2","2","1","2","3","1","2","2","753363460917825537","杨","660","","","","match","","","","","","","","","","","","","","key","f","16.668041237113883","768","428","f","true","match","img/hexagon.png","六边","六边","ALT1","formal_ALT1_2","","","","","","","","","","","",""
"null","<span style='color:GreenYellow; font-size: 70px;'>正确! </span>","null","html-keyboard-response","150","432413","0.0-7.0-1.0-4.0-0.0-1.21","4","4","3","4","4","4","4","3","4","4","5","4","4","4","4","5","4","4","5","5","2","1","2","2","1","2","2","1","1","1","0","1","1","0","0","0","1","0","1","1","0","1","0","1","5","2","5","2","2","1","2","3","1","2","2","753363460917825537","杨","660","","","","","","","","","","","","","","","","","","","","","","","","","","","","","","feedback_test","","","","","","","","","","","",""
"967","","j","psychophysics","151","434382","0.0-7.0-1.0-4.0-0.0-0.22","4","4","3","4","4","4","4","3","4","4","5","4","4","4","4","5","4","4","5","5","2","1","2","2","1","2","2","1","1","1","0","1","1","0","0","0","1","0","1","1","0","1","0","1","5","2","5","2","2","1","2","3","1","2","2","753363460917825537","杨","660","","","","nonmatch","","","","","","","","","","","","","","key","j","16.666666666666668","768","428","j","true","nonmatch","img/hexagon.png","方形","六边","ALT1","formal_ALT1_2","","","","","","","","","","","",""
"null","<span style='color:GreenYellow; font-size: 70px;'>正确! </span>","null","html-keyboard-response","152","434884","0.0-7.0-1.0-4.0-0.0-1.22","4","4","3","4","4","4","4","3","4","4","5","4","4","4","4","5","4","4","5","5","2","1","2","2","1","2","2","1","1","1","0","1","1","0","0","0","1","0","1","1","0","1","0","1","5","2","5","2","2","1","2","3","1","2","2","753363460917825537","杨","660","","","","","","","","","","","","","","","","","","","","","","","","","","","","","","feedback_test","","","","","","","","","","","",""
"642","","f","psychophysics","153","436526","0.0-7.0-1.0-4.0-0.0-0.23","4","4","3","4","4","4","4","3","4","4","5","4","4","4","4","5","4","4","5","5","2","1","2","2","1","2","2","1","1","1","0","1","1","0","0","0","1","0","1","1","0","1","0","1","5","2","5","2","2","1","2","3","1","2","2","753363460917825537","杨","660","","","","match","","","","","","","","","","","","","","key","f","16.666326530612125","768","428","f","true","match","img/triangle.png","三角","三角","ALT1","formal_ALT1_2","","","","","","","","","","","",""
"null","<span style='color:GreenYellow; font-size: 70px;'>正确! </span>","null","html-keyboard-response","154","437028","0.0-7.0-1.0-4.0-0.0-1.23","4","4","3","4","4","4","4","3","4","4","5","4","4","4","4","5","4","4","5","5","2","1","2","2","1","2","2","1","1","1","0","1","1","0","0","0","1","0","1","1","0","1","0","1","5","2","5","2","2","1","2","3","1","2","2","753363460917825537","杨","660","","","","","","","","","","","","","","","","","","","","","","","","","","","","","","feedback_test","","","","","","","","","","","",""
"731","","f","psychophysics","155","438760","0.0-7.0-1.0-4.0-0.0-0.24","4","4","3","4","4","4","4","3","4","4","5","4","4","4","4","5","4","4","5","5","2","1","2","2","1","2","2","1","1","1","0","1","1","0","0","0","1","0","1","1","0","1","0","1","5","2","5","2","2","1","2","3","1","2","2","753363460917825537","杨","660","","","","match","","","","","","","","","","","","","","key","f","16.667961165048432","768","428","f","true","match","img/triangle.png","三角","三角","ALT1","formal_ALT1_2","","","","","","","","","","","",""
"null","<span style='color:GreenYellow; font-size: 70px;'>正确! </span>","null","html-keyboard-response","156","439260","0.0-7.0-1.0-4.0-0.0-1.24","4","4","3","4","4","4","4","3","4","4","5","4","4","4","4","5","4","4","5","5","2","1","2","2","1","2","2","1","1","1","0","1","1","0","0","0","1","0","1","1","0","1","0","1","5","2","5","2","2","1","2","3","1","2","2","753363460917825537","杨","660","","","","","","","","","","","","","","","","","","","","","","","","","","","","","","feedback_test","","","","","","","","","","","",""
"572","","f","psychophysics","157","440833","0.0-7.0-1.0-4.0-0.0-0.25","4","4","3","4","4","4","4","3","4","4","5","4","4","4","4","5","4","4","5","5","2","1","2","2","1","2","2","1","1","1","0","1","1","0","0","0","1","0","1","1","0","1","0","1","5","2","5","2","2","1","2","3","1","2","2","753363460917825537","杨","660","","","","match","","","","","","","","","","","","","","key","f","16.666666666666668","768","428","f","true","match","img/triangle.png","三角","三角","ALT1","formal_ALT1_2","","","","","","","","","","","",""
"null","<span style='color:GreenYellow; font-size: 70px;'>正确! </span>","null","html-keyboard-response","158","441334","0.0-7.0-1.0-4.0-0.0-1.25","4","4","3","4","4","4","4","3","4","4","5","4","4","4","4","5","4","4","5","5","2","1","2","2","1","2","2","1","1","1","0","1","1","0","0","0","1","0","1","1","0","1","0","1","5","2","5","2","2","1","2","3","1","2","2","753363460917825537","杨","660","","","","","","","","","","","","","","","","","","","","","","","","","","","","","","feedback_test","","","","","","","","","","","",""
"1072","","j","psychophysics","159","443408","0.0-7.0-1.0-4.0-0.0-0.26","4","4","3","4","4","4","4","3","4","4","5","4","4","4","4","5","4","4","5","5","2","1","2","2","1","2","2","1","1","1","0","1","1","0","0","0","1","0","1","1","0","1","0","1","5","2","5","2","2","1","2","3","1","2","2","753363460917825537","杨","660","","","","nonmatch","","","","","","","","","","","","","","key","j","16.66532258064516","768","428","j","true","nonmatch","img/hexagon.png","方形","六边","ALT1","formal_ALT1_2","","","","","","","","","","","",""
"null","<span style='color:GreenYellow; font-size: 70px;'>正确! </span>","null","html-keyboard-response","160","443910","0.0-7.0-1.0-4.0-0.0-1.26","4","4","3","4","4","4","4","3","4","4","5","4","4","4","4","5","4","4","5","5","2","1","2","2","1","2","2","1","1","1","0","1","1","0","0","0","1","0","1","1","0","1","0","1","5","2","5","2","2","1","2","3","1","2","2","753363460917825537","杨","660","","","","","","","","","","","","","","","","","","","","","","","","","","","","","","feedback_test","","","","","","","","","","","",""
"1007","","f","psychophysics","161","445919","0.0-7.0-1.0-4.0-0.0-0.27","4","4","3","4","4","4","4","3","4","4","5","4","4","4","4","5","4","4","5","5","2","1","2","2","1","2","2","1","1","1","0","1","1","0","0","0","1","0","1","1","0","1","0","1","5","2","5","2","2","1","2","3","1","2","2","753363460917825537","杨","660","","","","match","","","","","","","","","","","","","","key","f","16.666386554621752","768","428","j","false","nonmatch","img/triangle.png","圆形","三角","ALT1","formal_ALT1_2","","","","","","","","","","","",""
"null","<span style='color:red; font-size: 70px;'>错误! </span>","null","html-keyboard-response","162","446420","0.0-7.0-1.0-4.0-0.0-1.27","4","4","3","4","4","4","4","3","4","4","5","4","4","4","4","5","4","4","5","5","2","1","2","2","1","2","2","1","1","1","0","1","1","0","0","0","1","0","1","1","0","1","0","1","5","2","5","2","2","1","2","3","1","2","2","753363460917825537","杨","660","","","","","","","","","","","","","","","","","","","","","","","","","","","","","","feedback_test","","","","","","","","","","","",""
"764","","f","psychophysics","163","448185","0.0-7.0-1.0-4.0-0.0-0.28","4","4","3","4","4","4","4","3","4","4","5","4","4","4","4","5","4","4","5","5","2","1","2","2","1","2","2","1","1","1","0","1","1","0","0","0","1","0","1","1","0","1","0","1","5","2","5","2","2","1","2","3","1","2","2","753363460917825537","杨","660","","","","match","","","","","","","","","","","","","","key","f","16.667619047618825","768","428","f","true","match","img/circle.png","圆形","圆形","ALT1","formal_ALT1_2","","","","","","","","","","","",""
"null","<span style='color:GreenYellow; font-size: 70px;'>正确! </span>","null","html-keyboard-response","164","448685","0.0-7.0-1.0-4.0-0.0-1.28","4","4","3","4","4","4","4","3","4","4","5","4","4","4","4","5","4","4","5","5","2","1","2","2","1","2","2","1","1","1","0","1","1","0","0","0","1","0","1","1","0","1","0","1","5","2","5","2","2","1","2","3","1","2","2","753363460917825537","杨","660","","","","","","","","","","","","","","","","","","","","","","","","","","","","","","feedback_test","","","","","","","","","","","",""
"1180","","f","psychophysics","165","450866","0.0-7.0-1.0-4.0-0.0-0.29","4","4","3","4","4","4","4","3","4","4","5","4","4","4","4","5","4","4","5","5","2","1","2","2","1","2","2","1","1","1","0","1","1","0","0","0","1","0","1","1","0","1","0","1","5","2","5","2","2","1","2","3","1","2","2","753363460917825537","杨","660","","","","match","","","","","","","","","","","","","","key","f","16.667692307692217","768","428","f","true","match","img/hexagon.png","六边","六边","ALT1","formal_ALT1_2","","","","","","","","","","","",""
"null","<span style='color:GreenYellow; font-size: 70px;'>正确! </span>","null","html-keyboard-response","166","451367","0.0-7.0-1.0-4.0-0.0-1.29","4","4","3","4","4","4","4","3","4","4","5","4","4","4","4","5","4","4","5","5","2","1","2","2","1","2","2","1","1","1","0","1","1","0","0","0","1","0","1","1","0","1","0","1","5","2","5","2","2","1","2","3","1","2","2","753363460917825537","杨","660","","","","","","","","","","","","","","","","","","","","","","","","","","","","","","feedback_test","","","","","","","","","","","",""
"623","","f","psychophysics","167","452991","0.0-7.0-1.0-4.0-0.0-0.30","4","4","3","4","4","4","4","3","4","4","5","4","4","4","4","5","4","4","5","5","2","1","2","2","1","2","2","1","1","1","0","1","1","0","0","0","1","0","1","1","0","1","0","1","5","2","5","2","2","1","2","3","1","2","2","753363460917825537","杨","660","","","","match","","","","","","","","","","","","","","key","f","16.66701030927847","768","428","f","true","match","img/circle.png","圆形","圆形","ALT1","formal_ALT1_2","","","","","","","","","","","",""
"null","<span style='color:GreenYellow; font-size: 70px;'>正确! </span>","null","html-keyboard-response","168","453492","0.0-7.0-1.0-4.0-0.0-1.30","4","4","3","4","4","4","4","3","4","4","5","4","4","4","4","5","4","4","5","5","2","1","2","2","1","2","2","1","1","1","0","1","1","0","0","0","1","0","1","1","0","1","0","1","5","2","5","2","2","1","2","3","1","2","2","753363460917825537","杨","660","","","","","","","","","","","","","","","","","","","","","","","","","","","","","","feedback_test","","","","","","","","","","","",""
"769","","j","psychophysics","169","455263","0.0-7.0-1.0-4.0-0.0-0.31","4","4","3","4","4","4","4","3","4","4","5","4","4","4","4","5","4","4","5","5","2","1","2","2","1","2","2","1","1","1","0","1","1","0","0","0","1","0","1","1","0","1","0","1","5","2","5","2","2","1","2","3","1","2","2","753363460917825537","杨","660","","","","nonmatch","","","","","","","","","","","","","","key","j","16.666666666666668","768","428","j","true","nonmatch","img/hexagon.png","三角","六边","ALT1","formal_ALT1_2","","","","","","","","","","","",""
"null","<span style='color:GreenYellow; font-size: 70px;'>正确! </span>","null","html-keyboard-response","170","455764","0.0-7.0-1.0-4.0-0.0-1.31","4","4","3","4","4","4","4","3","4","4","5","4","4","4","4","5","4","4","5","5","2","1","2","2","1","2","2","1","1","1","0","1","1","0","0","0","1","0","1","1","0","1","0","1","5","2","5","2","2","1","2","3","1","2","2","753363460917825537","杨","660","","","","","","","","","","","","","","","","","","","","","","","","","","","","","","feedback_test","","","","","","","","","","","",""
"785","","j","psychophysics","171","457551","0.0-7.0-1.0-4.0-0.0-0.32","4","4","3","4","4","4","4","3","4","4","5","4","4","4","4","5","4","4","5","5","2","1","2","2","1","2","2","1","1","1","0","1","1","0","0","0","1","0","1","1","0","1","0","1","5","2","5","2","2","1","2","3","1","2","2","753363460917825537","杨","660","","","","nonmatch","","","","","","","","","","","","","","key","j","16.666037735849386","768","428","j","true","nonmatch","img/square.png","圆形","方形","ALT1","formal_ALT1_2","","","","","","","","","","","",""
"null","<span style='color:GreenYellow; font-size: 70px;'>正确! </span>","null","html-keyboard-response","172","458052","0.0-7.0-1.0-4.0-0.0-1.32","4","4","3","4","4","4","4","3","4","4","5","4","4","4","4","5","4","4","5","5","2","1","2","2","1","2","2","1","1","1","0","1","1","0","0","0","1","0","1","1","0","1","0","1","5","2","5","2","2","1","2","3","1","2","2","753363460917825537","杨","660","","","","","","","","","","","","","","","","","","","","","","","","","","","","","","feedback_test","","","","","","","","","","","",""
"714","","j","psychophysics","173","459767","0.0-7.0-1.0-4.0-0.0-0.33","4","4","3","4","4","4","4","3","4","4","5","4","4","4","4","5","4","4","5","5","2","1","2","2","1","2","2","1","1","1","0","1","1","0","0","0","1","0","1","1","0","1","0","1","5","2","5","2","2","1","2","3","1","2","2","753363460917825537","杨","660","","","","nonmatch","","","","","","","","","","","","","","key","j","16.666666666666668","768","428","j","true","nonmatch","img/square.png","三角","方形","ALT1","formal_ALT1_2","","","","","","","","","","","",""
"null","<span style='color:GreenYellow; font-size: 70px;'>正确! </span>","null","html-keyboard-response","174","460268","0.0-7.0-1.0-4.0-0.0-1.33","4","4","3","4","4","4","4","3","4","4","5","4","4","4","4","5","4","4","5","5","2","1","2","2","1","2","2","1","1","1","0","1","1","0","0","0","1","0","1","1","0","1","0","1","5","2","5","2","2","1","2","3","1","2","2","753363460917825537","杨","660","","","","","","","","","","","","","","","","","","","","","","","","","","","","","","feedback_test","","","","","","","","","","","",""
"1105","","j","psychophysics","175","462375","0.0-7.0-1.0-4.0-0.0-0.34","4","4","3","4","4","4","4","3","4","4","5","4","4","4","4","5","4","4","5","5","2","1","2","2","1","2","2","1","1","1","0","1","1","0","0","0","1","0","1","1","0","1","0","1","5","2","5","2","2","1","2","3","1","2","2","753363460917825537","杨","660","","","","nonmatch","","","","","","","","","","","","","","key","j","16.667460317460133","768","428","j","true","nonmatch","img/square.png","六边","方形","ALT1","formal_ALT1_2","","","","","","","","","","","",""
"null","<span style='color:GreenYellow; font-size: 70px;'>正确! </span>","null","html-keyboard-response","176","462876","0.0-7.0-1.0-4.0-0.0-1.34","4","4","3","4","4","4","4","3","4","4","5","4","4","4","4","5","4","4","5","5","2","1","2","2","1","2","2","1","1","1","0","1","1","0","0","0","1","0","1","1","0","1","0","1","5","2","5","2","2","1","2","3","1","2","2","753363460917825537","杨","660","","","","","","","","","","","","","","","","","","","","","","","","","","","","","","feedback_test","","","","","","","","","","","",""
"913","","f","psychophysics","177","464791","0.0-7.0-1.0-4.0-0.0-0.35","4","4","3","4","4","4","4","3","4","4","5","4","4","4","4","5","4","4","5","5","2","1","2","2","1","2","2","1","1","1","0","1","1","0","0","0","1","0","1","1","0","1","0","1","5","2","5","2","2","1","2","3","1","2","2","753363460917825537","杨","660","","","","match","","","","","","","","","","","","","","key","f","16.66403508771889","768","428","f","true","match","img/hexagon.png","六边","六边","ALT1","formal_ALT1_2","","","","","","","","","","","",""
"null","<span style='color:GreenYellow; font-size: 70px;'>正确! </span>","null","html-keyboard-response","178","465291","0.0-7.0-1.0-4.0-0.0-1.35","4","4","3","4","4","4","4","3","4","4","5","4","4","4","4","5","4","4","5","5","2","1","2","2","1","2","2","1","1","1","0","1","1","0","0","0","1","0","1","1","0","1","0","1","5","2","5","2","2","1","2","3","1","2","2","753363460917825537","杨","660","","","","","","","","","","","","","","","","","","","","","","","","","","","","","","feedback_test","","","","","","","","","","","",""
"684","","j","psychophysics","179","466976","0.0-7.0-1.0-4.0-0.0-0.36","4","4","3","4","4","4","4","3","4","4","5","4","4","4","4","5","4","4","5","5","2","1","2","2","1","2","2","1","1","1","0","1","1","0","0","0","1","0","1","1","0","1","0","1","5","2","5","2","2","1","2","3","1","2","2","753363460917825537","杨","660","","","","nonmatch","","","","","","","","","","","","","","key","j","16.665999999999766","768","428","j","true","nonmatch","img/triangle.png","六边","三角","ALT1","formal_ALT1_2","","","","","","","","","","","",""
"null","<span style='color:GreenYellow; font-size: 70px;'>正确! </span>","null","html-keyboard-response","180","467476","0.0-7.0-1.0-4.0-0.0-1.36","4","4","3","4","4","4","4","3","4","4","5","4","4","4","4","5","4","4","5","5","2","1","2","2","1","2","2","1","1","1","0","1","1","0","0","0","1","0","1","1","0","1","0","1","5","2","5","2","2","1","2","3","1","2","2","753363460917825537","杨","660","","","","","","","","","","","","","","","","","","","","","","","","","","","","","","feedback_test","","","","","","","","","","","",""
"779","","j","psychophysics","181","469257","0.0-7.0-1.0-4.0-0.0-0.37","4","4","3","4","4","4","4","3","4","4","5","4","4","4","4","5","4","4","5","5","2","1","2","2","1","2","2","1","1","1","0","1","1","0","0","0","1","0","1","1","0","1","0","1","5","2","5","2","2","1","2","3","1","2","2","753363460917825537","杨","660","","","","nonmatch","","","","","","","","","","","","","","key","j","16.66509433962264","768","428","j","true","nonmatch","img/circle.png","六边","圆形","ALT1","formal_ALT1_2","","","","","","","","","","","",""
