"rt","stimulus","response","trial_type","trial_index","time_elapsed","internal_node_id","ses_1","ses_2","ses_3","ses_4","ses_5","ses_6","ses_7","ses_8","ses_9","ses_10","coreself_1","coreself_2","coreself_3","coreself_4","coreself_5","coreself_6","coreself_7","coreself_8","coreself_9","coreself_10","SGPS_1","SGPS_2","SGPS_3","SGPS_4","SGPS_5","SGPS_6","SGPS_7","SGPS_8","SGPS_9","NPI1","NPI2","NPI3","NPI4","NPI5","NPI6","NPI7","NPI8","NPI9","NPI10","NPI11","NPI12","NPI13","NPI14","NPI15","hsns_1","hsns_2","hsns_3","hsns_4","hsns_5","trap1","hsns_6","hsns_7","hsns_8","hsns_9","hsns_10","subj_idx","friend_name","ParticipantID","value","success","user_agent","responses","item_order","radio_event_ids","radio_event_times","key_event_times","mouse_event_times","straightlining","zigzagging","honeypot","timeout","failed_images","failed_audio","failed_video","view_history","response_type","key_press","avg_frame_time","center_x","center_y","correct_response","correct","identity","Image","word","condition","task_id","screen_id","time_stamp","version_attrib2","version_target2","IAT","RT","varname","summary","version_attrib","version_target","question_order","correct_answer","trap1_item"
"10655","
   <p><div style = ""color: white;font-size:25px;"">您好，欢迎参加本次实验。</div> </p>
   <p><div style = ""color: white;font-size:25px;"">为充分保障您的权利，请确保您已经知晓并同意《参与实验同意书》以及《数据公开知情同意书》。</div></p>
   <p><div style = ""color: white;font-size:25px;"">如果您未见过上述内容，请咨询实验员。</div></p>
   <p><div style = ""color: white;font-size:25px;"">如果您选择继续实验，则表示您已经清楚两份知情同意书的内容并同意。</div></p>
   <p><div style = ""color: pink;font-size:30px;"">请确保您记得day0的实验编号，您将在本次实验输入该编号，若您忘记，请咨询实验员后作答。</div></p>
   <p><div style = ""color: lightblue;font-size:25px;"">请您尽可能认真地作答，我们将依据您在各问卷和按键任务中的作答质量发放报酬。</div></p>
   <p> <div style = ""color: green;font-size:25px;""><按空格键至下页></div> </p>
   "," ","html-keyboard-response","0","10661","0.0-0.0","4","3","3","4","3","3","4","3","4","4","5","3","3","4","4","4","4","3","4","5","1","2","3","2","2","2","2","2","2","1","0","1","0","0","0","0","0","0","1","1","0","0","0","1","4","2","2","3","3","5","2","3","4","1","3","566315942938673152","张","398","","","","","","","","","","","","","","","","","","","","","","","","","","","","","","","","","","","","","","","","","",""
"","","","call-function","1","10664","0.0-1.0-0.0","4","3","3","4","3","3","4","3","4","4","5","3","3","4","4","4","4","3","4","5","1","2","3","2","2","2","2","2","2","1","0","1","0","0","0","0","0","0","1","1","0","0","0","1","4","2","2","3","3","5","2","3","4","1","3","566315942938673152","张","398","","","","","","","","","","","","","","","","","","","","","","","","","","","","","","","","","","","","","","","","","",""
"16196","","{""friend_name"":""张"",""ParticipantID"":""398""}","survey-html-form","2","26862","0.0-1.0-1.0","4","3","3","4","3","3","4","3","4","4","5","3","3","4","4","4","4","3","4","5","1","2","3","2","2","2","2","2","2","1","0","1","0","0","0","0","0","0","1","1","0","0","0","1","4","2","2","3","3","5","2","3","4","1","3","566315942938673152","张","398","","","","","","","","","","","","","","","","","","","","","","","","","","","","","","","","","","","","","","","","","",""
"","","","fullscreen","3","145840","0.0-2.0","4","3","3","4","3","3","4","3","4","4","5","3","3","4","4","4","4","3","4","5","1","2","3","2","2","2","2","2","2","1","0","1","0","0","0","0","0","0","1","1","0","0","0","1","4","2","2","3","3","5","2","3","4","1","3","566315942938673152","张","398","","true","{}","","","","","","","","","","","","","","","","","","","","","","","","","","","","","","","","","","","","","","",""
"34116.20000000298","","{""Q01"":""4"",""Q02"":""3"",""Q03"":""3"",""Q04"":""4"",""Q05"":""3"",""Q06"":""3"",""Q07"":""4"",""Q08"":""3"",""Q09"":""4"",""Q10"":""4""}","survey-template","4","179960","0.0-3.0","4","3","3","4","3","3","4","3","4","4","5","3","3","4","4","4","4","3","4","5","1","2","3","2","2","2","2","2","2","1","0","1","0","0","0","0","0","0","1","1","0","0","0","1","4","2","2","3","3","5","2","3","4","1","3","566315942938673152","张","398","","","","{""Q01"":""4"",""Q02"":""3"",""Q03"":""3"",""Q04"":""4"",""Q05"":""3"",""Q06"":""3"",""Q07"":""4"",""Q08"":""3"",""Q09"":""4"",""Q10"":""4""}","[0,1,2,3,4,5,6,7,8,9]","[""Q01"",""Q02"",""Q03"",""Q04"",""Q05"",""Q06"",""Q07"",""Q08"",""Q09"",""Q10""]","[7020.70000000298,8792.70000000298,11162.20000000298,15880.10000000149,20101.300000000745,22070.400000002235,24917,27965.10000000149,29764,32820.400000002235]","[]","[7020.70000000298,8792.70000000298,11162.20000000298,15880.10000000149,20101.300000000745,22070.400000002235,24917,27965.10000000149,29764,32820.400000002235,34109.20000000298]","0.3","0.5555555555555556","0","","","","","","","","","","","","","","","","","","","","","","","","","","","","","",""
"147482.30000000075","","{""Q01"":""5"",""Q02"":""3"",""Q03"":""3"",""Q04"":""4"",""Q05"":""4"",""Q06"":""4"",""Q07"":""4"",""Q08"":""3"",""Q09"":""4"",""Q10"":""5""}","survey-template","5","327449","0.0-4.0","4","3","3","4","3","3","4","3","4","4","5","3","3","4","4","4","4","3","4","5","1","2","3","2","2","2","2","2","2","1","0","1","0","0","0","0","0","0","1","1","0","0","0","1","4","2","2","3","3","5","2","3","4","1","3","566315942938673152","张","398","","","","{""Q01"":""5"",""Q02"":""3"",""Q03"":""3"",""Q04"":""4"",""Q05"":""4"",""Q06"":""4"",""Q07"":""4"",""Q08"":""3"",""Q09"":""4"",""Q10"":""5""}","[0,1,2,3,4,5,6,7,8,9]","[""Q01"",""Q02"",""Q03"",""Q04"",""Q05"",""Q06"",""Q07"",""Q08"",""Q09"",""Q10""]","[108969,117471.40000000224,125065.20000000298,129568.5,131863.6000000015,134172.1000000015,136954.6000000015,139544.5,142485.20000000298,144759.30000000075]","[]","[108969,117471.40000000224,125065.20000000298,129568.5,131863.6000000015,134172.1000000015,136954.6000000015,139544.5,142485.20000000298,144759.30000000075,147479.30000000075]","0.3","0.3333333333333333","0","","","","","","","","","","","","","","","","","","","","","","","","","","","","","",""
"","","","preload","6","327833","0.0-5.0","4","3","3","4","3","3","4","3","4","4","5","3","3","4","4","4","4","3","4","5","1","2","3","2","2","2","2","2","2","1","0","1","0","0","0","0","0","0","1","1","0","0","0","1","4","2","2","3","3","5","2","3","4","1","3","566315942938673152","张","398","","true","","","","","","","","","","","false","[]","[]","[]","","","","","","","","","","","","","","","","","","","","","","","","","",""
"20127","","","instructions","7","347961","0.0-6.0","4","3","3","4","3","3","4","3","4","4","5","3","3","4","4","4","4","3","4","5","1","2","3","2","2","2","2","2","2","1","0","1","0","0","0","0","0","0","1","1","0","0","0","1","4","2","2","3","3","5","2","3","4","1","3","566315942938673152","张","398","","","","","","","","","","","","","","","","","[{""page_index"":0,""viewing_time"":20126}]","","","","","","","","","","","","","","","","","","","","","","","","",""
"21931","","","instructions","8","369895","0.0-7.0-0.0-0.0","4","3","3","4","3","3","4","3","4","4","5","3","3","4","4","4","4","3","4","5","1","2","3","2","2","2","2","2","2","1","0","1","0","0","0","0","0","0","1","1","0","0","0","1","4","2","2","3","3","5","2","3","4","1","3","566315942938673152","张","398","","","","","","","","","","","","","","","","","[{""page_index"":0,""viewing_time"":12555},{""page_index"":1,""viewing_time"":6950},{""page_index"":2,""viewing_time"":2426}]","","","","","","","","","","","","","","","","","","","","","","","","",""
"null","","null","psychophysics","9","372113","0.0-7.0-0.0-1.0-0.0-0.0","4","3","3","4","3","3","4","3","4","4","5","3","3","4","4","4","4","3","4","5","1","2","3","2","2","2","2","2","2","1","0","1","0","0","0","0","0","0","1","1","0","0","0","1","4","2","2","3","3","5","2","3","4","1","3","566315942938673152","张","398","","","","null","","","","","","","","","","","","","","key","null","16.65999999999991","640","356","f","false","match","img/square.png","方形","方形","ALT1_1","prac_ALT1_1","","","","","","","","","","","",""
"null","<span class='add_' style='color:yellow; font-size: 70px;'> 太慢! </span>","null","html-keyboard-response","10","372629","0.0-7.0-0.0-1.0-0.0-1.0","4","3","3","4","3","3","4","3","4","4","5","3","3","4","4","4","4","3","4","5","1","2","3","2","2","2","2","2","2","1","0","1","0","0","0","0","0","0","1","1","0","0","0","1","4","2","2","3","3","5","2","3","4","1","3","566315942938673152","张","398","","","","","","","","","","","","","","","","","","","","","","","","","","","","","","feedback_test","","","","","","","","","","","",""
"745","","f","psychophysics","11","374389","0.0-7.0-0.0-1.0-0.0-0.1","4","3","3","4","3","3","4","3","4","4","5","3","3","4","4","4","4","3","4","5","1","2","3","2","2","2","2","2","2","1","0","1","0","0","0","0","0","0","1","1","0","0","0","1","4","2","2","3","3","5","2","3","4","1","3","566315942938673152","张","398","","","","match","","","","","","","","","","","","","","key","f","16.65096153846165","640","356","j","false","nonmatch","img/hexagon.png","圆形","六边","ALT1_1","prac_ALT1_1","","","","","","","","","","","",""
"null","<span style='color:red; font-size: 70px;'>错误! </span>","null","html-keyboard-response","12","374894","0.0-7.0-0.0-1.0-0.0-1.1","4","3","3","4","3","3","4","3","4","4","5","3","3","4","4","4","4","3","4","5","1","2","3","2","2","2","2","2","2","1","0","1","0","0","0","0","0","0","1","1","0","0","0","1","4","2","2","3","3","5","2","3","4","1","3","566315942938673152","张","398","","","","","","","","","","","","","","","","","","","","","","","","","","","","","","feedback_test","","","","","","","","","","","",""
"712","","j","psychophysics","13","376613","0.0-7.0-0.0-1.0-0.0-0.2","4","3","3","4","3","3","4","3","4","4","5","3","3","4","4","4","4","3","4","5","1","2","3","2","2","2","2","2","2","1","0","1","0","0","0","0","0","0","1","1","0","0","0","1","4","2","2","3","3","5","2","3","4","1","3","566315942938673152","张","398","","","","nonmatch","","","","","","","","","","","","","","key","j","16.657425742573913","640","356","j","true","nonmatch","img/square.png","圆形","方形","ALT1_1","prac_ALT1_1","","","","","","","","","","","",""
"null","<span style='color:GreenYellow; font-size: 70px;'>正确! </span>","null","html-keyboard-response","14","377127","0.0-7.0-0.0-1.0-0.0-1.2","4","3","3","4","3","3","4","3","4","4","5","3","3","4","4","4","4","3","4","5","1","2","3","2","2","2","2","2","2","1","0","1","0","0","0","0","0","0","1","1","0","0","0","1","4","2","2","3","3","5","2","3","4","1","3","566315942938673152","张","398","","","","","","","","","","","","","","","","","","","","","","","","","","","","","","feedback_test","","","","","","","","","","","",""
"781","","j","psychophysics","15","378914","0.0-7.0-0.0-1.0-0.0-0.3","4","3","3","4","3","3","4","3","4","4","5","3","3","4","4","4","4","3","4","5","1","2","3","2","2","2","2","2","2","1","0","1","0","0","0","0","0","0","1","1","0","0","0","1","4","2","2","3","3","5","2","3","4","1","3","566315942938673152","张","398","","","","nonmatch","","","","","","","","","","","","","","key","j","16.65714285714286","640","356","j","true","nonmatch","img/diamond.png","六边","菱形","ALT1_1","prac_ALT1_1","","","","","","","","","","","",""
"null","<span style='color:GreenYellow; font-size: 70px;'>正确! </span>","null","html-keyboard-response","16","379448","0.0-7.0-0.0-1.0-0.0-1.3","4","3","3","4","3","3","4","3","4","4","5","3","3","4","4","4","4","3","4","5","1","2","3","2","2","2","2","2","2","1","0","1","0","0","0","0","0","0","1","1","0","0","0","1","4","2","2","3","3","5","2","3","4","1","3","566315942938673152","张","398","","","","","","","","","","","","","","","","","","","","","","","","","","","","","","feedback_test","","","","","","","","","","","",""
"804","","f","psychophysics","17","381260","0.0-7.0-0.0-1.0-0.0-0.4","4","3","3","4","3","3","4","3","4","4","5","3","3","4","4","4","4","3","4","5","1","2","3","2","2","2","2","2","2","1","0","1","0","0","0","0","0","0","1","1","0","0","0","1","4","2","2","3","3","5","2","3","4","1","3","566315942938673152","张","398","","","","match","","","","","","","","","","","","","","key","f","16.65794392523332","640","356","j","false","nonmatch","img/circle.png","方形","圆形","ALT1_1","prac_ALT1_1","","","","","","","","","","","",""
"null","<span style='color:red; font-size: 70px;'>错误! </span>","null","html-keyboard-response","18","381765","0.0-7.0-0.0-1.0-0.0-1.4","4","3","3","4","3","3","4","3","4","4","5","3","3","4","4","4","4","3","4","5","1","2","3","2","2","2","2","2","2","1","0","1","0","0","0","0","0","0","1","1","0","0","0","1","4","2","2","3","3","5","2","3","4","1","3","566315942938673152","张","398","","","","","","","","","","","","","","","","","","","","","","","","","","","","","","feedback_test","","","","","","","","","","","",""
"787","","j","psychophysics","19","383558","0.0-7.0-0.0-1.0-0.0-0.5","4","3","3","4","3","3","4","3","4","4","5","3","3","4","4","4","4","3","4","5","1","2","3","2","2","2","2","2","2","1","0","1","0","0","0","0","0","0","1","1","0","0","0","1","4","2","2","3","3","5","2","3","4","1","3","566315942938673152","张","398","","","","nonmatch","","","","","","","","","","","","","","key","j","16.654716981131745","640","356","f","false","match","img/diamond.png","菱形","菱形","ALT1_1","prac_ALT1_1","","","","","","","","","","","",""
"null","<span style='color:red; font-size: 70px;'>错误! </span>","null","html-keyboard-response","20","384069","0.0-7.0-0.0-1.0-0.0-1.5","4","3","3","4","3","3","4","3","4","4","5","3","3","4","4","4","4","3","4","5","1","2","3","2","2","2","2","2","2","1","0","1","0","0","0","0","0","0","1","1","0","0","0","1","4","2","2","3","3","5","2","3","4","1","3","566315942938673152","张","398","","","","","","","","","","","","","","","","","","","","","","","","","","","","","","feedback_test","","","","","","","","","","","",""
"758","","f","psychophysics","21","385835","0.0-7.0-0.0-1.0-0.0-0.6","4","3","3","4","3","3","4","3","4","4","5","3","3","4","4","4","4","3","4","5","1","2","3","2","2","2","2","2","2","1","0","1","0","0","0","0","0","0","1","1","0","0","0","1","4","2","2","3","3","5","2","3","4","1","3","566315942938673152","张","398","","","","match","","","","","","","","","","","","","","key","f","16.655769230769344","640","356","f","true","match","img/hexagon.png","六边","六边","ALT1_1","prac_ALT1_1","","","","","","","","","","","",""
"null","<span style='color:GreenYellow; font-size: 70px;'>正确! </span>","null","html-keyboard-response","22","386370","0.0-7.0-0.0-1.0-0.0-1.6","4","3","3","4","3","3","4","3","4","4","5","3","3","4","4","4","4","3","4","5","1","2","3","2","2","2","2","2","2","1","0","1","0","0","0","0","0","0","1","1","0","0","0","1","4","2","2","3","3","5","2","3","4","1","3","566315942938673152","张","398","","","","","","","","","","","","","","","","","","","","","","","","","","","","","","feedback_test","","","","","","","","","","","",""
"690","","j","psychophysics","23","388080","0.0-7.0-0.0-1.0-0.0-0.7","4","3","3","4","3","3","4","3","4","4","5","3","3","4","4","4","4","3","4","5","1","2","3","2","2","2","2","2","2","1","0","1","0","0","0","0","0","0","1","1","0","0","0","1","4","2","2","3","3","5","2","3","4","1","3","566315942938673152","张","398","","","","nonmatch","","","","","","","","","","","","","","key","j","16.651485148515313","640","356","f","false","match","img/circle.png","圆形","圆形","ALT1_1","prac_ALT1_1","","","","","","","","","","","",""
"null","<span style='color:red; font-size: 70px;'>错误! </span>","null","html-keyboard-response","24","388588","0.0-7.0-0.0-1.0-0.0-1.7","4","3","3","4","3","3","4","3","4","4","5","3","3","4","4","4","4","3","4","5","1","2","3","2","2","2","2","2","2","1","0","1","0","0","0","0","0","0","1","1","0","0","0","1","4","2","2","3","3","5","2","3","4","1","3","566315942938673152","张","398","","","","","","","","","","","","","","","","","","","","","","","","","","","","","","feedback_test","","","","","","","","","","","",""
"603","","f","psychophysics","25","390195","0.0-7.0-0.0-1.0-0.0-0.8","4","3","3","4","3","3","4","3","4","4","5","3","3","4","4","4","4","3","4","5","1","2","3","2","2","2","2","2","2","1","0","1","0","0","0","0","0","0","1","1","0","0","0","1","4","2","2","3","3","5","2","3","4","1","3","566315942938673152","张","398","","","","match","","","","","","","","","","","","","","key","f","16.652127659574344","640","356","f","true","match","img/square.png","方形","方形","ALT1_1","prac_ALT1_1","","","","","","","","","","","",""
"null","<span style='color:GreenYellow; font-size: 70px;'>正确! </span>","null","html-keyboard-response","26","390708","0.0-7.0-0.0-1.0-0.0-1.8","4","3","3","4","3","3","4","3","4","4","5","3","3","4","4","4","4","3","4","5","1","2","3","2","2","2","2","2","2","1","0","1","0","0","0","0","0","0","1","1","0","0","0","1","4","2","2","3","3","5","2","3","4","1","3","566315942938673152","张","398","","","","","","","","","","","","","","","","","","","","","","","","","","","","","","feedback_test","","","","","","","","","","","",""
"731","","f","psychophysics","27","392446","0.0-7.0-0.0-1.0-0.0-0.9","4","3","3","4","3","3","4","3","4","4","5","3","3","4","4","4","4","3","4","5","1","2","3","2","2","2","2","2","2","1","0","1","0","0","0","0","0","0","1","1","0","0","0","1","4","2","2","3","3","5","2","3","4","1","3","566315942938673152","张","398","","","","match","","","","","","","","","","","","","","key","f","16.651960784313726","640","356","f","true","match","img/circle.png","圆形","圆形","ALT1_1","prac_ALT1_1","","","","","","","","","","","",""
"null","<span style='color:GreenYellow; font-size: 70px;'>正确! </span>","null","html-keyboard-response","28","392953","0.0-7.0-0.0-1.0-0.0-1.9","4","3","3","4","3","3","4","3","4","4","5","3","3","4","4","4","4","3","4","5","1","2","3","2","2","2","2","2","2","1","0","1","0","0","0","0","0","0","1","1","0","0","0","1","4","2","2","3","3","5","2","3","4","1","3","566315942938673152","张","398","","","","","","","","","","","","","","","","","","","","","","","","","","","","","","feedback_test","","","","","","","","","","","",""
"968","","f","psychophysics","29","394951","0.0-7.0-0.0-1.0-0.0-0.10","4","3","3","4","3","3","4","3","4","4","5","3","3","4","4","4","4","3","4","5","1","2","3","2","2","2","2","2","2","1","0","1","0","0","0","0","0","0","1","1","0","0","0","1","4","2","2","3","3","5","2","3","4","1","3","566315942938673152","张","398","","","","match","","","","","","","","","","","","","","key","f","16.651694915254435","640","356","j","false","nonmatch","img/hexagon.png","菱形","六边","ALT1_1","prac_ALT1_1","","","","","","","","","","","",""
"null","<span style='color:red; font-size: 70px;'>错误! </span>","null","html-keyboard-response","30","395460","0.0-7.0-0.0-1.0-0.0-1.10","4","3","3","4","3","3","4","3","4","4","5","3","3","4","4","4","4","3","4","5","1","2","3","2","2","2","2","2","2","1","0","1","0","0","0","0","0","0","1","1","0","0","0","1","4","2","2","3","3","5","2","3","4","1","3","566315942938673152","张","398","","","","","","","","","","","","","","","","","","","","","","","","","","","","","","feedback_test","","","","","","","","","","","",""
"780","","f","psychophysics","31","397244","0.0-7.0-0.0-1.0-0.0-0.11","4","3","3","4","3","3","4","3","4","4","5","3","3","4","4","4","4","3","4","5","1","2","3","2","2","2","2","2","2","1","0","1","0","0","0","0","0","0","1","1","0","0","0","1","4","2","2","3","3","5","2","3","4","1","3","566315942938673152","张","398","","","","match","","","","","","","","","","","","","","key","f","16.652380952380952","640","356","j","false","nonmatch","img/diamond.png","方形","菱形","ALT1_1","prac_ALT1_1","","","","","","","","","","","",""
"null","<span style='color:red; font-size: 70px;'>错误! </span>","null","html-keyboard-response","32","397749","0.0-7.0-0.0-1.0-0.0-1.11","4","3","3","4","3","3","4","3","4","4","5","3","3","4","4","4","4","3","4","5","1","2","3","2","2","2","2","2","2","1","0","1","0","0","0","0","0","0","1","1","0","0","0","1","4","2","2","3","3","5","2","3","4","1","3","566315942938673152","张","398","","","","","","","","","","","","","","","","","","","","","","","","","","","","","","feedback_test","","","","","","","","","","","",""
"768","","f","psychophysics","33","399521","0.0-7.0-0.0-1.0-0.0-0.12","4","3","3","4","3","3","4","3","4","4","5","3","3","4","4","4","4","3","4","5","1","2","3","2","2","2","2","2","2","1","0","1","0","0","0","0","0","0","1","1","0","0","0","1","4","2","2","3","3","5","2","3","4","1","3","566315942938673152","张","398","","","","match","","","","","","","","","","","","","","key","f","16.649999999999775","640","356","f","true","match","img/circle.png","圆形","圆形","ALT1_1","prac_ALT1_1","","","","","","","","","","","",""
"null","<span style='color:GreenYellow; font-size: 70px;'>正确! </span>","null","html-keyboard-response","34","400048","0.0-7.0-0.0-1.0-0.0-1.12","4","3","3","4","3","3","4","3","4","4","5","3","3","4","4","4","4","3","4","5","1","2","3","2","2","2","2","2","2","1","0","1","0","0","0","0","0","0","1","1","0","0","0","1","4","2","2","3","3","5","2","3","4","1","3","566315942938673152","张","398","","","","","","","","","","","","","","","","","","","","","","","","","","","","","","feedback_test","","","","","","","","","","","",""
"1025","","f","psychophysics","35","402097","0.0-7.0-0.0-1.0-0.0-0.13","4","3","3","4","3","3","4","3","4","4","5","3","3","4","4","4","4","3","4","5","1","2","3","2","2","2","2","2","2","1","0","1","0","0","0","0","0","0","1","1","0","0","0","1","4","2","2","3","3","5","2","3","4","1","3","566315942938673152","张","398","","","","match","","","","","","","","","","","","","","key","f","16.65702479338843","640","356","j","false","nonmatch","img/circle.png","菱形","圆形","ALT1_1","prac_ALT1_1","","","","","","","","","","","",""
"null","<span style='color:red; font-size: 70px;'>错误! </span>","null","html-keyboard-response","36","402601","0.0-7.0-0.0-1.0-0.0-1.13","4","3","3","4","3","3","4","3","4","4","5","3","3","4","4","4","4","3","4","5","1","2","3","2","2","2","2","2","2","1","0","1","0","0","0","0","0","0","1","1","0","0","0","1","4","2","2","3","3","5","2","3","4","1","3","566315942938673152","张","398","","","","","","","","","","","","","","","","","","","","","","","","","","","","","","feedback_test","","","","","","","","","","","",""
"640","","f","psychophysics","37","404247","0.0-7.0-0.0-1.0-0.0-0.14","4","3","3","4","3","3","4","3","4","4","5","3","3","4","4","4","4","3","4","5","1","2","3","2","2","2","2","2","2","1","0","1","0","0","0","0","0","0","1","1","0","0","0","1","4","2","2","3","3","5","2","3","4","1","3","566315942938673152","张","398","","","","match","","","","","","","","","","","","","","key","f","16.656701030927955","640","356","f","true","match","img/hexagon.png","六边","六边","ALT1_1","prac_ALT1_1","","","","","","","","","","","",""
"null","<span style='color:GreenYellow; font-size: 70px;'>正确! </span>","null","html-keyboard-response","38","404753","0.0-7.0-0.0-1.0-0.0-1.14","4","3","3","4","3","3","4","3","4","4","5","3","3","4","4","4","4","3","4","5","1","2","3","2","2","2","2","2","2","1","0","1","0","0","0","0","0","0","1","1","0","0","0","1","4","2","2","3","3","5","2","3","4","1","3","566315942938673152","张","398","","","","","","","","","","","","","","","","","","","","","","","","","","","","","","feedback_test","","","","","","","","","","","",""
"741","","f","psychophysics","39","406498","0.0-7.0-0.0-1.0-0.0-0.15","4","3","3","4","3","3","4","3","4","4","5","3","3","4","4","4","4","3","4","5","1","2","3","2","2","2","2","2","2","1","0","1","0","0","0","0","0","0","1","1","0","0","0","1","4","2","2","3","3","5","2","3","4","1","3","566315942938673152","张","398","","","","match","","","","","","","","","","","","","","key","f","16.654368932039063","640","356","f","true","match","img/diamond.png","菱形","菱形","ALT1_1","prac_ALT1_1","","","","","","","","","","","",""
"null","<span style='color:GreenYellow; font-size: 70px;'>正确! </span>","null","html-keyboard-response","40","407003","0.0-7.0-0.0-1.0-0.0-1.15","4","3","3","4","3","3","4","3","4","4","5","3","3","4","4","4","4","3","4","5","1","2","3","2","2","2","2","2","2","1","0","1","0","0","0","0","0","0","1","1","0","0","0","1","4","2","2","3","3","5","2","3","4","1","3","566315942938673152","张","398","","","","","","","","","","","","","","","","","","","","","","","","","","","","","","feedback_test","","","","","","","","","","","",""
"610","","f","psychophysics","41","408639","0.0-7.0-0.0-1.0-0.0-0.16","4","3","3","4","3","3","4","3","4","4","5","3","3","4","4","4","4","3","4","5","1","2","3","2","2","2","2","2","2","1","0","1","0","0","0","0","0","0","1","1","0","0","0","1","4","2","2","3","3","5","2","3","4","1","3","566315942938673152","张","398","","","","match","","","","","","","","","","","","","","key","f","16.651041666666668","640","356","f","true","match","img/square.png","方形","方形","ALT1_1","prac_ALT1_1","","","","","","","","","","","",""
"null","<span style='color:GreenYellow; font-size: 70px;'>正确! </span>","null","html-keyboard-response","42","409146","0.0-7.0-0.0-1.0-0.0-1.16","4","3","3","4","3","3","4","3","4","4","5","3","3","4","4","4","4","3","4","5","1","2","3","2","2","2","2","2","2","1","0","1","0","0","0","0","0","0","1","1","0","0","0","1","4","2","2","3","3","5","2","3","4","1","3","566315942938673152","张","398","","","","","","","","","","","","","","","","","","","","","","","","","","","","","","feedback_test","","","","","","","","","","","",""
"617","","f","psychophysics","43","410769","0.0-7.0-0.0-1.0-0.0-0.17","4","3","3","4","3","3","4","3","4","4","5","3","3","4","4","4","4","3","4","5","1","2","3","2","2","2","2","2","2","1","0","1","0","0","0","0","0","0","1","1","0","0","0","1","4","2","2","3","3","5","2","3","4","1","3","566315942938673152","张","398","","","","match","","","","","","","","","","","","","","key","f","16.652631578947368","640","356","f","true","match","img/diamond.png","菱形","菱形","ALT1_1","prac_ALT1_1","","","","","","","","","","","",""
"null","<span style='color:GreenYellow; font-size: 70px;'>正确! </span>","null","html-keyboard-response","44","411272","0.0-7.0-0.0-1.0-0.0-1.17","4","3","3","4","3","3","4","3","4","4","5","3","3","4","4","4","4","3","4","5","1","2","3","2","2","2","2","2","2","1","0","1","0","0","0","0","0","0","1","1","0","0","0","1","4","2","2","3","3","5","2","3","4","1","3","566315942938673152","张","398","","","","","","","","","","","","","","","","","","","","","","","","","","","","","","feedback_test","","","","","","","","","","","",""
"541","","f","psychophysics","45","412818","0.0-7.0-0.0-1.0-0.0-0.18","4","3","3","4","3","3","4","3","4","4","5","3","3","4","4","4","4","3","4","5","1","2","3","2","2","2","2","2","2","1","0","1","0","0","0","0","0","0","1","1","0","0","0","1","4","2","2","3","3","5","2","3","4","1","3","566315942938673152","张","398","","","","match","","","","","","","","","","","","","","key","f","16.65494505494544","640","356","j","false","nonmatch","img/hexagon.png","方形","六边","ALT1_1","prac_ALT1_1","","","","","","","","","","","",""
"null","<span style='color:red; font-size: 70px;'>错误! </span>","null","html-keyboard-response","46","413323","0.0-7.0-0.0-1.0-0.0-1.18","4","3","3","4","3","3","4","3","4","4","5","3","3","4","4","4","4","3","4","5","1","2","3","2","2","2","2","2","2","1","0","1","0","0","0","0","0","0","1","1","0","0","0","1","4","2","2","3","3","5","2","3","4","1","3","566315942938673152","张","398","","","","","","","","","","","","","","","","","","","","","","","","","","","","","","feedback_test","","","","","","","","","","","",""
"468","","f","psychophysics","47","414828","0.0-7.0-0.0-1.0-0.0-0.19","4","3","3","4","3","3","4","3","4","4","5","3","3","4","4","4","4","3","4","5","1","2","3","2","2","2","2","2","2","1","0","1","0","0","0","0","0","0","1","1","0","0","0","1","4","2","2","3","3","5","2","3","4","1","3","566315942938673152","张","398","","","","match","","","","","","","","","","","","","","key","f","16.64999999999947","640","356","f","true","match","img/hexagon.png","六边","六边","ALT1_1","prac_ALT1_1","","","","","","","","","","","",""
"null","<span style='color:GreenYellow; font-size: 70px;'>正确! </span>","null","html-keyboard-response","48","415343","0.0-7.0-0.0-1.0-0.0-1.19","4","3","3","4","3","3","4","3","4","4","5","3","3","4","4","4","4","3","4","5","1","2","3","2","2","2","2","2","2","1","0","1","0","0","0","0","0","0","1","1","0","0","0","1","4","2","2","3","3","5","2","3","4","1","3","566315942938673152","张","398","","","","","","","","","","","","","","","","","","","","","","","","","","","","","","feedback_test","","","","","","","","","","","",""
"744","","j","psychophysics","49","417090","0.0-7.0-0.0-1.0-0.0-0.20","4","3","3","4","3","3","4","3","4","4","5","3","3","4","4","4","4","3","4","5","1","2","3","2","2","2","2","2","2","1","0","1","0","0","0","0","0","0","1","1","0","0","0","1","4","2","2","3","3","5","2","3","4","1","3","566315942938673152","张","398","","","","nonmatch","","","","","","","","","","","","","","key","j","16.65728155339817","640","356","j","true","nonmatch","img/diamond.png","圆形","菱形","ALT1_1","prac_ALT1_1","","","","","","","","","","","",""
"null","<span style='color:GreenYellow; font-size: 70px;'>正确! </span>","null","html-keyboard-response","50","417605","0.0-7.0-0.0-1.0-0.0-1.20","4","3","3","4","3","3","4","3","4","4","5","3","3","4","4","4","4","3","4","5","1","2","3","2","2","2","2","2","2","1","0","1","0","0","0","0","0","0","1","1","0","0","0","1","4","2","2","3","3","5","2","3","4","1","3","566315942938673152","张","398","","","","","","","","","","","","","","","","","","","","","","","","","","","","","","feedback_test","","","","","","","","","","","",""
"854","","j","psychophysics","51","419462","0.0-7.0-0.0-1.0-0.0-0.21","4","3","3","4","3","3","4","3","4","4","5","3","3","4","4","4","4","3","4","5","1","2","3","2","2","2","2","2","2","1","0","1","0","0","0","0","0","0","1","1","0","0","0","1","4","2","2","3","3","5","2","3","4","1","3","566315942938673152","张","398","","","","nonmatch","","","","","","","","","","","","","","key","j","16.654545454545456","640","356","j","true","nonmatch","img/square.png","六边","方形","ALT1_1","prac_ALT1_1","","","","","","","","","","","",""
"null","<span style='color:GreenYellow; font-size: 70px;'>正确! </span>","null","html-keyboard-response","52","420005","0.0-7.0-0.0-1.0-0.0-1.21","4","3","3","4","3","3","4","3","4","4","5","3","3","4","4","4","4","3","4","5","1","2","3","2","2","2","2","2","2","1","0","1","0","0","0","0","0","0","1","1","0","0","0","1","4","2","2","3","3","5","2","3","4","1","3","566315942938673152","张","398","","","","","","","","","","","","","","","","","","","","","","","","","","","","","","feedback_test","","","","","","","","","","","",""
"699","","f","psychophysics","53","421720","0.0-7.0-0.0-1.0-0.0-0.22","4","3","3","4","3","3","4","3","4","4","5","3","3","4","4","4","4","3","4","5","1","2","3","2","2","2","2","2","2","1","0","1","0","0","0","0","0","0","1","1","0","0","0","1","4","2","2","3","3","5","2","3","4","1","3","566315942938673152","张","398","","","","match","","","","","","","","","","","","","","key","f","16.652475247524407","640","356","j","false","nonmatch","img/circle.png","六边","圆形","ALT1_1","prac_ALT1_1","","","","","","","","","","","",""
"null","<span style='color:red; font-size: 70px;'>错误! </span>","null","html-keyboard-response","54","422224","0.0-7.0-0.0-1.0-0.0-1.22","4","3","3","4","3","3","4","3","4","4","5","3","3","4","4","4","4","3","4","5","1","2","3","2","2","2","2","2","2","1","0","1","0","0","0","0","0","0","1","1","0","0","0","1","4","2","2","3","3","5","2","3","4","1","3","566315942938673152","张","398","","","","","","","","","","","","","","","","","","","","","","","","","","","","","","feedback_test","","","","","","","","","","","",""
"849","","j","psychophysics","55","424081","0.0-7.0-0.0-1.0-0.0-0.23","4","3","3","4","3","3","4","3","4","4","5","3","3","4","4","4","4","3","4","5","1","2","3","2","2","2","2","2","2","1","0","1","0","0","0","0","0","0","1","1","0","0","0","1","4","2","2","3","3","5","2","3","4","1","3","566315942938673152","张","398","","","","nonmatch","","","","","","","","","","","","","","key","j","16.6541284403674","640","356","j","true","nonmatch","img/square.png","菱形","方形","ALT1_1","prac_ALT1_1","","","","","","","","","","","",""
"null","<span style='color:GreenYellow; font-size: 70px;'>正确! </span>","null","html-keyboard-response","56","424592","0.0-7.0-0.0-1.0-0.0-1.23","4","3","3","4","3","3","4","3","4","4","5","3","3","4","4","4","4","3","4","5","1","2","3","2","2","2","2","2","2","1","0","1","0","0","0","0","0","0","1","1","0","0","0","1","4","2","2","3","3","5","2","3","4","1","3","566315942938673152","张","398","","","","","","","","","","","","","","","","","","","","","","","","","","","","","","feedback_test","","","","","","","","","","","",""
"735","","f","psychophysics","57","426332","0.0-7.0-0.0-1.0-0.0-0.24","4","3","3","4","3","3","4","3","4","4","5","3","3","4","4","4","4","3","4","5","1","2","3","2","2","2","2","2","2","1","0","1","0","0","0","0","0","0","1","1","0","0","0","1","4","2","2","3","3","5","2","3","4","1","3","566315942938673152","张","398","","","","match","","","","","","","","","","","","","","key","f","16.65686274509804","640","356","f","true","match","img/diamond.png","菱形","菱形","ALT1_1","prac_ALT1_1","","","","","","","","","","","",""
"null","<span style='color:GreenYellow; font-size: 70px;'>正确! </span>","null","html-keyboard-response","58","426869","0.0-7.0-0.0-1.0-0.0-1.24","4","3","3","4","3","3","4","3","4","4","5","3","3","4","4","4","4","3","4","5","1","2","3","2","2","2","2","2","2","1","0","1","0","0","0","0","0","0","1","1","0","0","0","1","4","2","2","3","3","5","2","3","4","1","3","566315942938673152","张","398","","","","","","","","","","","","","","","","","","","","","","","","","","","","","","feedback_test","","","","","","","","","","","",""
"736","","f","psychophysics","59","428623","0.0-7.0-0.0-1.0-0.0-0.25","4","3","3","4","3","3","4","3","4","4","5","3","3","4","4","4","4","3","4","5","1","2","3","2","2","2","2","2","2","1","0","1","0","0","0","0","0","0","1","1","0","0","0","1","4","2","2","3","3","5","2","3","4","1","3","566315942938673152","张","398","","","","match","","","","","","","","","","","","","","key","f","16.655339805825243","640","356","j","false","nonmatch","img/circle.png","方形","圆形","ALT1_1","prac_ALT1_1","","","","","","","","","","","",""
"null","<span style='color:red; font-size: 70px;'>错误! </span>","null","html-keyboard-response","60","429125","0.0-7.0-0.0-1.0-0.0-1.25","4","3","3","4","3","3","4","3","4","4","5","3","3","4","4","4","4","3","4","5","1","2","3","2","2","2","2","2","2","1","0","1","0","0","0","0","0","0","1","1","0","0","0","1","4","2","2","3","3","5","2","3","4","1","3","566315942938673152","张","398","","","","","","","","","","","","","","","","","","","","","","","","","","","","","","feedback_test","","","","","","","","","","","",""
"749","","j","psychophysics","61","430877","0.0-7.0-0.0-1.0-0.0-0.26","4","3","3","4","3","3","4","3","4","4","5","3","3","4","4","4","4","3","4","5","1","2","3","2","2","2","2","2","2","1","0","1","0","0","0","0","0","0","1","1","0","0","0","1","4","2","2","3","3","5","2","3","4","1","3","566315942938673152","张","398","","","","nonmatch","","","","","","","","","","","","","","key","j","16.655339805825243","640","356","j","true","nonmatch","img/diamond.png","圆形","菱形","ALT1_1","prac_ALT1_1","","","","","","","","","","","",""
"null","<span style='color:GreenYellow; font-size: 70px;'>正确! </span>","null","html-keyboard-response","62","431381","0.0-7.0-0.0-1.0-0.0-1.26","4","3","3","4","3","3","4","3","4","4","5","3","3","4","4","4","4","3","4","5","1","2","3","2","2","2","2","2","2","1","0","1","0","0","0","0","0","0","1","1","0","0","0","1","4","2","2","3","3","5","2","3","4","1","3","566315942938673152","张","398","","","","","","","","","","","","","","","","","","","","","","","","","","","","","","feedback_test","","","","","","","","","","","",""
"720","","f","psychophysics","63","433107","0.0-7.0-0.0-1.0-0.0-0.27","4","3","3","4","3","3","4","3","4","4","5","3","3","4","4","4","4","3","4","5","1","2","3","2","2","2","2","2","2","1","0","1","0","0","0","0","0","0","1","1","0","0","0","1","4","2","2","3","3","5","2","3","4","1","3","566315942938673152","张","398","","","","match","","","","","","","","","","","","","","key","f","16.651960784313726","640","356","j","false","nonmatch","img/hexagon.png","菱形","六边","ALT1_1","prac_ALT1_1","","","","","","","","","","","",""
"null","<span style='color:red; font-size: 70px;'>错误! </span>","null","html-keyboard-response","64","433626","0.0-7.0-0.0-1.0-0.0-1.27","4","3","3","4","3","3","4","3","4","4","5","3","3","4","4","4","4","3","4","5","1","2","3","2","2","2","2","2","2","1","0","1","0","0","0","0","0","0","1","1","0","0","0","1","4","2","2","3","3","5","2","3","4","1","3","566315942938673152","张","398","","","","","","","","","","","","","","","","","","","","","","","","","","","","","","feedback_test","","","","","","","","","","","",""
"1003","","j","psychophysics","65","435637","0.0-7.0-0.0-1.0-0.0-0.28","4","3","3","4","3","3","4","3","4","4","5","3","3","4","4","4","4","3","4","5","1","2","3","2","2","2","2","2","2","1","0","1","0","0","0","0","0","0","1","1","0","0","0","1","4","2","2","3","3","5","2","3","4","1","3","566315942938673152","张","398","","","","nonmatch","","","","","","","","","","","","","","key","j","16.656302521008207","640","356","j","true","nonmatch","img/hexagon.png","圆形","六边","ALT1_1","prac_ALT1_1","","","","","","","","","","","",""
"null","<span style='color:GreenYellow; font-size: 70px;'>正确! </span>","null","html-keyboard-response","66","436151","0.0-7.0-0.0-1.0-0.0-1.28","4","3","3","4","3","3","4","3","4","4","5","3","3","4","4","4","4","3","4","5","1","2","3","2","2","2","2","2","2","1","0","1","0","0","0","0","0","0","1","1","0","0","0","1","4","2","2","3","3","5","2","3","4","1","3","566315942938673152","张","398","","","","","","","","","","","","","","","","","","","","","","","","","","","","","","feedback_test","","","","","","","","","","","",""
"744","","j","psychophysics","67","437901","0.0-7.0-0.0-1.0-0.0-0.29","4","3","3","4","3","3","4","3","4","4","5","3","3","4","4","4","4","3","4","5","1","2","3","2","2","2","2","2","2","1","0","1","0","0","0","0","0","0","1","1","0","0","0","1","4","2","2","3","3","5","2","3","4","1","3","566315942938673152","张","398","","","","nonmatch","","","","","","","","","","","","","","key","j","16.654368932039063","640","356","j","true","nonmatch","img/square.png","六边","方形","ALT1_1","prac_ALT1_1","","","","","","","","","","","",""
"null","<span style='color:GreenYellow; font-size: 70px;'>正确! </span>","null","html-keyboard-response","68","438406","0.0-7.0-0.0-1.0-0.0-1.29","4","3","3","4","3","3","4","3","4","4","5","3","3","4","4","4","4","3","4","5","1","2","3","2","2","2","2","2","2","1","0","1","0","0","0","0","0","0","1","1","0","0","0","1","4","2","2","3","3","5","2","3","4","1","3","566315942938673152","张","398","","","","","","","","","","","","","","","","","","","","","","","","","","","","","","feedback_test","","","","","","","","","","","",""
"809","","f","psychophysics","69","440222","0.0-7.0-0.0-1.0-0.0-0.30","4","3","3","4","3","3","4","3","4","4","5","3","3","4","4","4","4","3","4","5","1","2","3","2","2","2","2","2","2","1","0","1","0","0","0","0","0","0","1","1","0","0","0","1","4","2","2","3","3","5","2","3","4","1","3","566315942938673152","张","398","","","","match","","","","","","","","","","","","","","key","f","16.653271028037057","640","356","f","true","match","img/hexagon.png","六边","六边","ALT1_1","prac_ALT1_1","","","","","","","","","","","",""
"null","<span style='color:GreenYellow; font-size: 70px;'>正确! </span>","null","html-keyboard-response","70","440766","0.0-7.0-0.0-1.0-0.0-1.30","4","3","3","4","3","3","4","3","4","4","5","3","3","4","4","4","4","3","4","5","1","2","3","2","2","2","2","2","2","1","0","1","0","0","0","0","0","0","1","1","0","0","0","1","4","2","2","3","3","5","2","3","4","1","3","566315942938673152","张","398","","","","","","","","","","","","","","","","","","","","","","","","","","","","","","feedback_test","","","","","","","","","","","",""
"623","","f","psychophysics","71","442398","0.0-7.0-0.0-1.0-0.0-0.31","4","3","3","4","3","3","4","3","4","4","5","3","3","4","4","4","4","3","4","5","1","2","3","2","2","2","2","2","2","1","0","1","0","0","0","0","0","0","1","1","0","0","0","1","4","2","2","3","3","5","2","3","4","1","3","566315942938673152","张","398","","","","match","","","","","","","","","","","","","","key","f","16.659375000000484","640","356","f","true","match","img/hexagon.png","六边","六边","ALT1_1","prac_ALT1_1","","","","","","","","","","","",""
"null","<span style='color:GreenYellow; font-size: 70px;'>正确! </span>","null","html-keyboard-response","72","442908","0.0-7.0-0.0-1.0-0.0-1.31","4","3","3","4","3","3","4","3","4","4","5","3","3","4","4","4","4","3","4","5","1","2","3","2","2","2","2","2","2","1","0","1","0","0","0","0","0","0","1","1","0","0","0","1","4","2","2","3","3","5","2","3","4","1","3","566315942938673152","张","398","","","","","","","","","","","","","","","","","","","","","","","","","","","","","","feedback_test","","","","","","","","","","","",""
"513","","f","psychophysics","73","444428","0.0-7.0-0.0-1.0-0.0-0.32","4","3","3","4","3","3","4","3","4","4","5","3","3","4","4","4","4","3","4","5","1","2","3","2","2","2","2","2","2","1","0","1","0","0","0","0","0","0","1","1","0","0","0","1","4","2","2","3","3","5","2","3","4","1","3","566315942938673152","张","398","","","","match","","","","","","","","","","","","","","key","f","16.650561797752417","640","356","f","true","match","img/square.png","方形","方形","ALT1_1","prac_ALT1_1","","","","","","","","","","","",""
"null","<span style='color:GreenYellow; font-size: 70px;'>正确! </span>","null","html-keyboard-response","74","444932","0.0-7.0-0.0-1.0-0.0-1.32","4","3","3","4","3","3","4","3","4","4","5","3","3","4","4","4","4","3","4","5","1","2","3","2","2","2","2","2","2","1","0","1","0","0","0","0","0","0","1","1","0","0","0","1","4","2","2","3","3","5","2","3","4","1","3","566315942938673152","张","398","","","","","","","","","","","","","","","","","","","","","","","","","","","","","","feedback_test","","","","","","","","","","","",""
"564","","f","psychophysics","75","446501","0.0-7.0-0.0-1.0-0.0-0.33","4","3","3","4","3","3","4","3","4","4","5","3","3","4","4","4","4","3","4","5","1","2","3","2","2","2","2","2","2","1","0","1","0","0","0","0","0","0","1","1","0","0","0","1","4","2","2","3","3","5","2","3","4","1","3","566315942938673152","张","398","","","","match","","","","","","","","","","","","","","key","f","16.650000000000507","640","356","f","true","match","img/hexagon.png","六边","六边","ALT1_1","prac_ALT1_1","","","","","","","","","","","",""
"null","<span style='color:GreenYellow; font-size: 70px;'>正确! </span>","null","html-keyboard-response","76","447013","0.0-7.0-0.0-1.0-0.0-1.33","4","3","3","4","3","3","4","3","4","4","5","3","3","4","4","4","4","3","4","5","1","2","3","2","2","2","2","2","2","1","0","1","0","0","0","0","0","0","1","1","0","0","0","1","4","2","2","3","3","5","2","3","4","1","3","566315942938673152","张","398","","","","","","","","","","","","","","","","","","","","","","","","","","","","","","feedback_test","","","","","","","","","","","",""
"649","","j","psychophysics","77","448698","0.0-7.0-0.0-1.0-0.0-0.34","4","3","3","4","3","3","4","3","4","4","5","3","3","4","4","4","4","3","4","5","1","2","3","2","2","2","2","2","2","1","0","1","0","0","0","0","0","0","1","1","0","0","0","1","4","2","2","3","3","5","2","3","4","1","3","566315942938673152","张","398","","","","nonmatch","","","","","","","","","","","","","","key","j","16.650505050505284","640","356","j","true","nonmatch","img/diamond.png","方形","菱形","ALT1_1","prac_ALT1_1","","","","","","","","","","","",""
"null","<span style='color:GreenYellow; font-size: 70px;'>正确! </span>","null","html-keyboard-response","78","449201","0.0-7.0-0.0-1.0-0.0-1.34","4","3","3","4","3","3","4","3","4","4","5","3","3","4","4","4","4","3","4","5","1","2","3","2","2","2","2","2","2","1","0","1","0","0","0","0","0","0","1","1","0","0","0","1","4","2","2","3","3","5","2","3","4","1","3","566315942938673152","张","398","","","","","","","","","","","","","","","","","","","","","","","","","","","","","","feedback_test","","","","","","","","","","","",""
"608","","j","psychophysics","79","450816","0.0-7.0-0.0-1.0-0.0-0.35","4","3","3","4","3","3","4","3","4","4","5","3","3","4","4","4","4","3","4","5","1","2","3","2","2","2","2","2","2","1","0","1","0","0","0","0","0","0","1","1","0","0","0","1","4","2","2","3","3","5","2","3","4","1","3","566315942938673152","张","398","","","","nonmatch","","","","","","","","","","","","","","key","j","16.65052631578935","640","356","f","false","match","img/circle.png","圆形","圆形","ALT1_1","prac_ALT1_1","","","","","","","","","","","",""
"null","<span style='color:red; font-size: 70px;'>错误! </span>","null","html-keyboard-response","80","451325","0.0-7.0-0.0-1.0-0.0-1.35","4","3","3","4","3","3","4","3","4","4","5","3","3","4","4","4","4","3","4","5","1","2","3","2","2","2","2","2","2","1","0","1","0","0","0","0","0","0","1","1","0","0","0","1","4","2","2","3","3","5","2","3","4","1","3","566315942938673152","张","398","","","","","","","","","","","","","","","","","","","","","","","","","","","","","","feedback_test","","","","","","","","","","","",""
"707","","j","psychophysics","81","453040","0.0-7.0-0.0-1.0-0.0-0.36","4","3","3","4","3","3","4","3","4","4","5","3","3","4","4","4","4","3","4","5","1","2","3","2","2","2","2","2","2","1","0","1","0","0","0","0","0","0","1","1","0","0","0","1","4","2","2","3","3","5","2","3","4","1","3","566315942938673152","张","398","","","","nonmatch","","","","","","","","","","","","","","key","j","16.660396039604077","640","356","j","true","nonmatch","img/square.png","圆形","方形","ALT1_1","prac_ALT1_1","","","","","","","","","","","",""
"null","<span style='color:GreenYellow; font-size: 70px;'>正确! </span>","null","html-keyboard-response","82","453550","0.0-7.0-0.0-1.0-0.0-1.36","4","3","3","4","3","3","4","3","4","4","5","3","3","4","4","4","4","3","4","5","1","2","3","2","2","2","2","2","2","1","0","1","0","0","0","0","0","0","1","1","0","0","0","1","4","2","2","3","3","5","2","3","4","1","3","566315942938673152","张","398","","","","","","","","","","","","","","","","","","","","","","","","","","","","","","feedback_test","","","","","","","","","","","",""
"838","","f","psychophysics","83","455395","0.0-7.0-0.0-1.0-0.0-0.37","4","3","3","4","3","3","4","3","4","4","5","3","3","4","4","4","4","3","4","5","1","2","3","2","2","2","2","2","2","1","0","1","0","0","0","0","0","0","1","1","0","0","0","1","4","2","2","3","3","5","2","3","4","1","3","566315942938673152","张","398","","","","match","","","","","","","","","","","","","","key","f","16.655963302752294","640","356","f","true","match","img/diamond.png","菱形","菱形","ALT1_1","prac_ALT1_1","","","","","","","","","","","",""
"null","<span style='color:GreenYellow; font-size: 70px;'>正确! </span>","null","html-keyboard-response","84","455901","0.0-7.0-0.0-1.0-0.0-1.37","4","3","3","4","3","3","4","3","4","4","5","3","3","4","4","4","4","3","4","5","1","2","3","2","2","2","2","2","2","1","0","1","0","0","0","0","0","0","1","1","0","0","0","1","4","2","2","3","3","5","2","3","4","1","3","566315942938673152","张","398","","","","","","","","","","","","","","","","","","","","","","","","","","","","","","feedback_test","","","","","","","","","","","",""
"572","","f","psychophysics","85","457479","0.0-7.0-0.0-1.0-0.0-0.38","4","3","3","4","3","3","4","3","4","4","5","3","3","4","4","4","4","3","4","5","1","2","3","2","2","2","2","2","2","1","0","1","0","0","0","0","0","0","1","1","0","0","0","1","4","2","2","3","3","5","2","3","4","1","3","566315942938673152","张","398","","","","match","","","","","","","","","","","","","","key","f","16.65698924731158","640","356","f","true","match","img/square.png","方形","方形","ALT1_1","prac_ALT1_1","","","","","","","","","","","",""
"null","<span style='color:GreenYellow; font-size: 70px;'>正确! </span>","null","html-keyboard-response","86","457990","0.0-7.0-0.0-1.0-0.0-1.38","4","3","3","4","3","3","4","3","4","4","5","3","3","4","4","4","4","3","4","5","1","2","3","2","2","2","2","2","2","1","0","1","0","0","0","0","0","0","1","1","0","0","0","1","4","2","2","3","3","5","2","3","4","1","3","566315942938673152","张","398","","","","","","","","","","","","","","","","","","","","","","","","","","","","","","feedback_test","","","","","","","","","","","",""
"642","","j","psychophysics","87","459635","0.0-7.0-0.0-1.0-0.0-0.39","4","3","3","4","3","3","4","3","4","4","5","3","3","4","4","4","4","3","4","5","1","2","3","2","2","2","2","2","2","1","0","1","0","0","0","0","0","0","1","1","0","0","0","1","4","2","2","3","3","5","2","3","4","1","3","566315942938673152","张","398","","","","nonmatch","","","","","","","","","","","","","","key","j","16.651546391752696","640","356","j","true","nonmatch","img/square.png","菱形","方形","ALT1_1","prac_ALT1_1","","","","","","","","","","","",""
"null","<span style='color:GreenYellow; font-size: 70px;'>正确! </span>","null","html-keyboard-response","88","460142","0.0-7.0-0.0-1.0-0.0-1.39","4","3","3","4","3","3","4","3","4","4","5","3","3","4","4","4","4","3","4","5","1","2","3","2","2","2","2","2","2","1","0","1","0","0","0","0","0","0","1","1","0","0","0","1","4","2","2","3","3","5","2","3","4","1","3","566315942938673152","张","398","","","","","","","","","","","","","","","","","","","","","","","","","","","","","","feedback_test","","","","","","","","","","","",""
"727","","f","psychophysics","89","461887","0.0-7.0-0.0-1.0-0.0-0.40","4","3","3","4","3","3","4","3","4","4","5","3","3","4","4","4","4","3","4","5","1","2","3","2","2","2","2","2","2","1","0","1","0","0","0","0","0","0","1","1","0","0","0","1","4","2","2","3","3","5","2","3","4","1","3","566315942938673152","张","398","","","","match","","","","","","","","","","","","","","key","f","16.656310679611426","640","356","f","true","match","img/circle.png","圆形","圆形","ALT1_1","prac_ALT1_1","","","","","","","","","","","",""
"null","<span style='color:GreenYellow; font-size: 70px;'>正确! </span>","null","html-keyboard-response","90","462401","0.0-7.0-0.0-1.0-0.0-1.40","4","3","3","4","3","3","4","3","4","4","5","3","3","4","4","4","4","3","4","5","1","2","3","2","2","2","2","2","2","1","0","1","0","0","0","0","0","0","1","1","0","0","0","1","4","2","2","3","3","5","2","3","4","1","3","566315942938673152","张","398","","","","","","","","","","","","","","","","","","","","","","","","","","","","","","feedback_test","","","","","","","","","","","",""
"856","","f","psychophysics","91","464260","0.0-7.0-0.0-1.0-0.0-0.41","4","3","3","4","3","3","4","3","4","4","5","3","3","4","4","4","4","3","4","5","1","2","3","2","2","2","2","2","2","1","0","1","0","0","0","0","0","0","1","1","0","0","0","1","4","2","2","3","3","5","2","3","4","1","3","566315942938673152","张","398","","","","match","","","","","","","","","","","","","","key","f","16.65181818181829","640","356","f","true","match","img/circle.png","圆形","圆形","ALT1_1","prac_ALT1_1","","","","","","","","","","","",""
"null","<span style='color:GreenYellow; font-size: 70px;'>正确! </span>","null","html-keyboard-response","92","464765","0.0-7.0-0.0-1.0-0.0-1.41","4","3","3","4","3","3","4","3","4","4","5","3","3","4","4","4","4","3","4","5","1","2","3","2","2","2","2","2","2","1","0","1","0","0","0","0","0","0","1","1","0","0","0","1","4","2","2","3","3","5","2","3","4","1","3","566315942938673152","张","398","","","","","","","","","","","","","","","","","","","","","","","","","","","","","","feedback_test","","","","","","","","","","","",""
"706","","f","psychophysics","93","466475","0.0-7.0-0.0-1.0-0.0-0.42","4","3","3","4","3","3","4","3","4","4","5","3","3","4","4","4","4","3","4","5","1","2","3","2","2","2","2","2","2","1","0","1","0","0","0","0","0","0","1","1","0","0","0","1","4","2","2","3","3","5","2","3","4","1","3","566315942938673152","张","398","","","","match","","","","","","","","","","","","","","key","f","16.665346534653004","640","356","j","false","nonmatch","img/hexagon.png","方形","六边","ALT1_1","prac_ALT1_1","","","","","","","","","","","",""
"null","<span style='color:red; font-size: 70px;'>错误! </span>","null","html-keyboard-response","94","467004","0.0-7.0-0.0-1.0-0.0-1.42","4","3","3","4","3","3","4","3","4","4","5","3","3","4","4","4","4","3","4","5","1","2","3","2","2","2","2","2","2","1","0","1","0","0","0","0","0","0","1","1","0","0","0","1","4","2","2","3","3","5","2","3","4","1","3","566315942938673152","张","398","","","","","","","","","","","","","","","","","","","","","","","","","","","","","","feedback_test","","","","","","","","","","","",""
"779","","j","psychophysics","95","468804","0.0-7.0-0.0-1.0-0.0-0.43","4","3","3","4","3","3","4","3","4","4","5","3","3","4","4","4","4","3","4","5","1","2","3","2","2","2","2","2","2","1","0","1","0","0","0","0","0","0","1","1","0","0","0","1","4","2","2","3","3","5","2","3","4","1","3","566315942938673152","张","398","","","","nonmatch","","","","","","","","","","","","","","key","j","16.65566037735849","640","356","j","true","nonmatch","img/circle.png","菱形","圆形","ALT1_1","prac_ALT1_1","","","","","","","","","","","",""
"null","<span style='color:GreenYellow; font-size: 70px;'>正确! </span>","null","html-keyboard-response","96","469307","0.0-7.0-0.0-1.0-0.0-1.43","4","3","3","4","3","3","4","3","4","4","5","3","3","4","4","4","4","3","4","5","1","2","3","2","2","2","2","2","2","1","0","1","0","0","0","0","0","0","1","1","0","0","0","1","4","2","2","3","3","5","2","3","4","1","3","566315942938673152","张","398","","","","","","","","","","","","","","","","","","","","","","","","","","","","","","feedback_test","","","","","","","","","","","",""
"762","","f","psychophysics","97","471077","0.0-7.0-0.0-1.0-0.0-0.44","4","3","3","4","3","3","4","3","4","4","5","3","3","4","4","4","4","3","4","5","1","2","3","2","2","2","2","2","2","1","0","1","0","0","0","0","0","0","1","1","0","0","0","1","4","2","2","3","3","5","2","3","4","1","3","566315942938673152","张","398","","","","match","","","","","","","","","","","","","","key","f","16.655769230769344","640","356","j","false","nonmatch","img/circle.png","六边","圆形","ALT1_1","prac_ALT1_1","","","","","","","","","","","",""
"null","<span style='color:red; font-size: 70px;'>错误! </span>","null","html-keyboard-response","98","471593","0.0-7.0-0.0-1.0-0.0-1.44","4","3","3","4","3","3","4","3","4","4","5","3","3","4","4","4","4","3","4","5","1","2","3","2","2","2","2","2","2","1","0","1","0","0","0","0","0","0","1","1","0","0","0","1","4","2","2","3","3","5","2","3","4","1","3","566315942938673152","张","398","","","","","","","","","","","","","","","","","","","","","","","","","","","","","","feedback_test","","","","","","","","","","","",""
"826","","j","psychophysics","99","473421","0.0-7.0-0.0-1.0-0.0-0.45","4","3","3","4","3","3","4","3","4","4","5","3","3","4","4","4","4","3","4","5","1","2","3","2","2","2","2","2","2","1","0","1","0","0","0","0","0","0","1","1","0","0","0","1","4","2","2","3","3","5","2","3","4","1","3","566315942938673152","张","398","","","","nonmatch","","","","","","","","","","","","","","key","j","16.65185185185153","640","356","j","true","nonmatch","img/diamond.png","六边","菱形","ALT1_1","prac_ALT1_1","","","","","","","","","","","",""
"null","<span style='color:GreenYellow; font-size: 70px;'>正确! </span>","null","html-keyboard-response","100","473934","0.0-7.0-0.0-1.0-0.0-1.45","4","3","3","4","3","3","4","3","4","4","5","3","3","4","4","4","4","3","4","5","1","2","3","2","2","2","2","2","2","1","0","1","0","0","0","0","0","0","1","1","0","0","0","1","4","2","2","3","3","5","2","3","4","1","3","566315942938673152","张","398","","","","","","","","","","","","","","","","","","","","","","","","","","","","","","feedback_test","","","","","","","","","","","",""
"629","","f","psychophysics","101","475585","0.0-7.0-0.0-1.0-0.0-0.46","4","3","3","4","3","3","4","3","4","4","5","3","3","4","4","4","4","3","4","5","1","2","3","2","2","2","2","2","2","1","0","1","0","0","0","0","0","0","1","1","0","0","0","1","4","2","2","3","3","5","2","3","4","1","3","566315942938673152","张","398","","","","match","","","","","","","","","","","","","","key","f","16.657731958763367","640","356","f","true","match","img/square.png","方形","方形","ALT1_1","prac_ALT1_1","","","","","","","","","","","",""
"null","<span style='color:GreenYellow; font-size: 70px;'>正确! </span>","null","html-keyboard-response","102","476103","0.0-7.0-0.0-1.0-0.0-1.46","4","3","3","4","3","3","4","3","4","4","5","3","3","4","4","4","4","3","4","5","1","2","3","2","2","2","2","2","2","1","0","1","0","0","0","0","0","0","1","1","0","0","0","1","4","2","2","3","3","5","2","3","4","1","3","566315942938673152","张","398","","","","","","","","","","","","","","","","","","","","","","","","","","","","","","feedback_test","","","","","","","","","","","",""
"749","","f","psychophysics","103","477855","0.0-7.0-0.0-1.0-0.0-0.47","4","3","3","4","3","3","4","3","4","4","5","3","3","4","4","4","4","3","4","5","1","2","3","2","2","2","2","2","2","1","0","1","0","0","0","0","0","0","1","1","0","0","0","1","4","2","2","3","3","5","2","3","4","1","3","566315942938673152","张","398","","","","match","","","","","","","","","","","","","","key","f","16.651456310679386","640","356","f","true","match","img/diamond.png","菱形","菱形","ALT1_1","prac_ALT1_1","","","","","","","","","","","",""
"null","<span style='color:GreenYellow; font-size: 70px;'>正确! </span>","null","html-keyboard-response","104","478367","0.0-7.0-0.0-1.0-0.0-1.47","4","3","3","4","3","3","4","3","4","4","5","3","3","4","4","4","4","3","4","5","1","2","3","2","2","2","2","2","2","1","0","1","0","0","0","0","0","0","1","1","0","0","0","1","4","2","2","3","3","5","2","3","4","1","3","566315942938673152","张","398","","","","","","","","","","","","","","","","","","","","","","","","","","","","","","feedback_test","","","","","","","","","","","",""
"12908","<style>.context{color:white; font-size: 35px; line-height:40px}</style>                            <div><p class='context'>您正确回答了69% 的试次。</p><p class='context'>您的平均反应时为715毫秒。</p><p class='context'>恭喜您完成练习。按空格键进入正式实验。</p><p class='footer' style='font-size: 35px; line-height:40px;'>请在进入正式实验之前将您的<span style='color: lightgreen;'>食指</span>放在电脑键盘的相应键位上进行按键。</p>"," ","html-keyboard-response","105","491281","0.0-7.0-0.0-2.0","4","3","3","4","3","3","4","3","4","4","5","3","3","4","4","4","4","3","4","5","1","2","3","2","2","2","2","2","2","1","0","1","0","0","0","0","0","0","1","1","0","0","0","1","4","2","2","3","3","5","2","3","4","1","3","566315942938673152","张","398","","","","","","","","","","","","","","","","","","","","","","","","","","","","","","","","","","","","","","","","","",""
"2666","
    <p style='color: white; font-size: 22px'>请您将手指放在按键上，准备进入正式的匹配任务。</p>
    <p> <div style = ""color: green""><按空格键进入下一阶段的匹配任务></div></p>
    "," ","html-keyboard-response","106","493953","0.0-7.0-0.0-3.0","4","3","3","4","3","3","4","3","4","4","5","3","3","4","4","4","4","3","4","5","1","2","3","2","2","2","2","2","2","1","0","1","0","0","0","0","0","0","1","1","0","0","0","1","4","2","2","3","3","5","2","3","4","1","3","566315942938673152","张","398","","","","","","","","","","","","","","","","","","","","","","","","","","","","","","","","","","","","","","","","","",""
"773","","f","psychophysics","107","495734","0.0-7.0-0.0-4.0-0.0-0.0","4","3","3","4","3","3","4","3","4","4","5","3","3","4","4","4","4","3","4","5","1","2","3","2","2","2","2","2","2","1","0","1","0","0","0","0","0","0","1","1","0","0","0","1","4","2","2","3","3","5","2","3","4","1","3","566315942938673152","张","398","","","","match","","","","","","","","","","","","","","key","f","16.656190476190144","640","356","f","true","match","img/circle.png","圆形","圆形","ALT1","formal_ALT1_1","","","","","","","","","","","",""
"null","<span style='color:GreenYellow; font-size: 70px;'>正确! </span>","null","html-keyboard-response","108","496247","0.0-7.0-0.0-4.0-0.0-1.0","4","3","3","4","3","3","4","3","4","4","5","3","3","4","4","4","4","3","4","5","1","2","3","2","2","2","2","2","2","1","0","1","0","0","0","0","0","0","1","1","0","0","0","1","4","2","2","3","3","5","2","3","4","1","3","566315942938673152","张","398","","","","","","","","","","","","","","","","","","","","","","","","","","","","","","feedback_test","","","","","","","","","","","",""
"653","","j","psychophysics","109","497923","0.0-7.0-0.0-4.0-0.0-0.1","4","3","3","4","3","3","4","3","4","4","5","3","3","4","4","4","4","3","4","5","1","2","3","2","2","2","2","2","2","1","0","1","0","0","0","0","0","0","1","1","0","0","0","1","4","2","2","3","3","5","2","3","4","1","3","566315942938673152","张","398","","","","nonmatch","","","","","","","","","","","","","","key","j","16.653535353534885","640","356","j","true","nonmatch","img/hexagon.png","方形","六边","ALT1","formal_ALT1_1","","","","","","","","","","","",""
"null","<span style='color:GreenYellow; font-size: 70px;'>正确! </span>","null","html-keyboard-response","110","498428","0.0-7.0-0.0-4.0-0.0-1.1","4","3","3","4","3","3","4","3","4","4","5","3","3","4","4","4","4","3","4","5","1","2","3","2","2","2","2","2","2","1","0","1","0","0","0","0","0","0","1","1","0","0","0","1","4","2","2","3","3","5","2","3","4","1","3","566315942938673152","张","398","","","","","","","","","","","","","","","","","","","","","","","","","","","","","","feedback_test","","","","","","","","","","","",""
"559","","f","psychophysics","111","499994","0.0-7.0-0.0-4.0-0.0-0.2","4","3","3","4","3","3","4","3","4","4","5","3","3","4","4","4","4","3","4","5","1","2","3","2","2","2","2","2","2","1","0","1","0","0","0","0","0","0","1","1","0","0","0","1","4","2","2","3","3","5","2","3","4","1","3","566315942938673152","张","398","","","","match","","","","","","","","","","","","","","key","f","16.651086956521993","640","356","f","true","match","img/circle.png","圆形","圆形","ALT1","formal_ALT1_1","","","","","","","","","","","",""
"null","<span style='color:GreenYellow; font-size: 70px;'>正确! </span>","null","html-keyboard-response","112","500501","0.0-7.0-0.0-4.0-0.0-1.2","4","3","3","4","3","3","4","3","4","4","5","3","3","4","4","4","4","3","4","5","1","2","3","2","2","2","2","2","2","1","0","1","0","0","0","0","0","0","1","1","0","0","0","1","4","2","2","3","3","5","2","3","4","1","3","566315942938673152","张","398","","","","","","","","","","","","","","","","","","","","","","","","","","","","","","feedback_test","","","","","","","","","","","",""
"742","","f","psychophysics","113","502246","0.0-7.0-0.0-4.0-0.0-0.3","4","3","3","4","3","3","4","3","4","4","5","3","3","4","4","4","4","3","4","5","1","2","3","2","2","2","2","2","2","1","0","1","0","0","0","0","0","0","1","1","0","0","0","1","4","2","2","3","3","5","2","3","4","1","3","566315942938673152","张","398","","","","match","","","","","","","","","","","","","","key","f","16.653398058252314","640","356","f","true","match","img/circle.png","圆形","圆形","ALT1","formal_ALT1_1","","","","","","","","","","","",""
"null","<span style='color:GreenYellow; font-size: 70px;'>正确! </span>","null","html-keyboard-response","114","502750","0.0-7.0-0.0-4.0-0.0-1.3","4","3","3","4","3","3","4","3","4","4","5","3","3","4","4","4","4","3","4","5","1","2","3","2","2","2","2","2","2","1","0","1","0","0","0","0","0","0","1","1","0","0","0","1","4","2","2","3","3","5","2","3","4","1","3","566315942938673152","张","398","","","","","","","","","","","","","","","","","","","","","","","","","","","","","","feedback_test","","","","","","","","","","","",""
"439","","f","psychophysics","115","504220","0.0-7.0-0.0-4.0-0.0-0.4","4","3","3","4","3","3","4","3","4","4","5","3","3","4","4","4","4","3","4","5","1","2","3","2","2","2","2","2","2","1","0","1","0","0","0","0","0","0","1","1","0","0","0","1","4","2","2","3","3","5","2","3","4","1","3","566315942938673152","张","398","","","","match","","","","","","","","","","","","","","key","f","16.650000000000272","640","356","j","false","nonmatch","img/square.png","圆形","方形","ALT1","formal_ALT1_1","","","","","","","","","","","",""
"null","<span style='color:red; font-size: 70px;'>错误! </span>","null","html-keyboard-response","116","504730","0.0-7.0-0.0-4.0-0.0-1.4","4","3","3","4","3","3","4","3","4","4","5","3","3","4","4","4","4","3","4","5","1","2","3","2","2","2","2","2","2","1","0","1","0","0","0","0","0","0","1","1","0","0","0","1","4","2","2","3","3","5","2","3","4","1","3","566315942938673152","张","398","","","","","","","","","","","","","","","","","","","","","","","","","","","","","","feedback_test","","","","","","","","","","","",""
"794","","j","psychophysics","117","506526","0.0-7.0-0.0-4.0-0.0-0.5","4","3","3","4","3","3","4","3","4","4","5","3","3","4","4","4","4","3","4","5","1","2","3","2","2","2","2","2","2","1","0","1","0","0","0","0","0","0","1","1","0","0","0","1","4","2","2","3","3","5","2","3","4","1","3","566315942938673152","张","398","","","","nonmatch","","","","","","","","","","","","","","key","j","16.654716981132296","640","356","j","true","nonmatch","img/diamond.png","六边","菱形","ALT1","formal_ALT1_1","","","","","","","","","","","",""
"null","<span style='color:GreenYellow; font-size: 70px;'>正确! </span>","null","html-keyboard-response","118","507032","0.0-7.0-0.0-4.0-0.0-1.5","4","3","3","4","3","3","4","3","4","4","5","3","3","4","4","4","4","3","4","5","1","2","3","2","2","2","2","2","2","1","0","1","0","0","0","0","0","0","1","1","0","0","0","1","4","2","2","3","3","5","2","3","4","1","3","566315942938673152","张","398","","","","","","","","","","","","","","","","","","","","","","","","","","","","","","feedback_test","","","","","","","","","","","",""
"697","","f","psychophysics","119","508733","0.0-7.0-0.0-4.0-0.0-0.6","4","3","3","4","3","3","4","3","4","4","5","3","3","4","4","4","4","3","4","5","1","2","3","2","2","2","2","2","2","1","0","1","0","0","0","0","0","0","1","1","0","0","0","1","4","2","2","3","3","5","2","3","4","1","3","566315942938673152","张","398","","","","match","","","","","","","","","","","","","","key","f","16.652999999999885","640","356","f","true","match","img/hexagon.png","六边","六边","ALT1","formal_ALT1_1","","","","","","","","","","","",""
"null","<span style='color:GreenYellow; font-size: 70px;'>正确! </span>","null","html-keyboard-response","120","509245","0.0-7.0-0.0-4.0-0.0-1.6","4","3","3","4","3","3","4","3","4","4","5","3","3","4","4","4","4","3","4","5","1","2","3","2","2","2","2","2","2","1","0","1","0","0","0","0","0","0","1","1","0","0","0","1","4","2","2","3","3","5","2","3","4","1","3","566315942938673152","张","398","","","","","","","","","","","","","","","","","","","","","","","","","","","","","","feedback_test","","","","","","","","","","","",""
"634","","f","psychophysics","121","510899","0.0-7.0-0.0-4.0-0.0-0.7","4","3","3","4","3","3","4","3","4","4","5","3","3","4","4","4","4","3","4","5","1","2","3","2","2","2","2","2","2","1","0","1","0","0","0","0","0","0","1","1","0","0","0","1","4","2","2","3","3","5","2","3","4","1","3","566315942938673152","张","398","","","","match","","","","","","","","","","","","","","key","f","16.656701030927955","640","356","f","true","match","img/hexagon.png","六边","六边","ALT1","formal_ALT1_1","","","","","","","","","","","",""
"null","<span style='color:GreenYellow; font-size: 70px;'>正确! </span>","null","html-keyboard-response","122","511405","0.0-7.0-0.0-4.0-0.0-1.7","4","3","3","4","3","3","4","3","4","4","5","3","3","4","4","4","4","3","4","5","1","2","3","2","2","2","2","2","2","1","0","1","0","0","0","0","0","0","1","1","0","0","0","1","4","2","2","3","3","5","2","3","4","1","3","566315942938673152","张","398","","","","","","","","","","","","","","","","","","","","","","","","","","","","","","feedback_test","","","","","","","","","","","",""
"716","","j","psychophysics","123","513127","0.0-7.0-0.0-4.0-0.0-0.8","4","3","3","4","3","3","4","3","4","4","5","3","3","4","4","4","4","3","4","5","1","2","3","2","2","2","2","2","2","1","0","1","0","0","0","0","0","0","1","1","0","0","0","1","4","2","2","3","3","5","2","3","4","1","3","566315942938673152","张","398","","","","nonmatch","","","","","","","","","","","","","","key","j","16.653465346534652","640","356","j","true","nonmatch","img/circle.png","六边","圆形","ALT1","formal_ALT1_1","","","","","","","","","","","",""
"null","<span style='color:GreenYellow; font-size: 70px;'>正确! </span>","null","html-keyboard-response","124","513635","0.0-7.0-0.0-4.0-0.0-1.8","4","3","3","4","3","3","4","3","4","4","5","3","3","4","4","4","4","3","4","5","1","2","3","2","2","2","2","2","2","1","0","1","0","0","0","0","0","0","1","1","0","0","0","1","4","2","2","3","3","5","2","3","4","1","3","566315942938673152","张","398","","","","","","","","","","","","","","","","","","","","","","","","","","","","","","feedback_test","","","","","","","","","","","",""
"623","","f","psychophysics","125","515266","0.0-7.0-0.0-4.0-0.0-0.9","4","3","3","4","3","3","4","3","4","4","5","3","3","4","4","4","4","3","4","5","1","2","3","2","2","2","2","2","2","1","0","1","0","0","0","0","0","0","1","1","0","0","0","1","4","2","2","3","3","5","2","3","4","1","3","566315942938673152","张","398","","","","match","","","","","","","","","","","","","","key","f","16.650000000000244","640","356","f","true","match","img/hexagon.png","六边","六边","ALT1","formal_ALT1_1","","","","","","","","","","","",""
"null","<span style='color:GreenYellow; font-size: 70px;'>正确! </span>","null","html-keyboard-response","126","515769","0.0-7.0-0.0-4.0-0.0-1.9","4","3","3","4","3","3","4","3","4","4","5","3","3","4","4","4","4","3","4","5","1","2","3","2","2","2","2","2","2","1","0","1","0","0","0","0","0","0","1","1","0","0","0","1","4","2","2","3","3","5","2","3","4","1","3","566315942938673152","张","398","","","","","","","","","","","","","","","","","","","","","","","","","","","","","","feedback_test","","","","","","","","","","","",""
"791","","f","psychophysics","127","517598","0.0-7.0-0.0-4.0-0.0-0.10","4","3","3","4","3","3","4","3","4","4","5","3","3","4","4","4","4","3","4","5","1","2","3","2","2","2","2","2","2","1","0","1","0","0","0","0","0","0","1","1","0","0","0","1","4","2","2","3","3","5","2","3","4","1","3","566315942938673152","张","398","","","","match","","","","","","","","","","","","","","key","f","16.6564814814817","640","356","f","true","match","img/diamond.png","菱形","菱形","ALT1","formal_ALT1_1","","","","","","","","","","","",""
"null","<span style='color:GreenYellow; font-size: 70px;'>正确! </span>","null","html-keyboard-response","128","518102","0.0-7.0-0.0-4.0-0.0-1.10","4","3","3","4","3","3","4","3","4","4","5","3","3","4","4","4","4","3","4","5","1","2","3","2","2","2","2","2","2","1","0","1","0","0","0","0","0","0","1","1","0","0","0","1","4","2","2","3","3","5","2","3","4","1","3","566315942938673152","张","398","","","","","","","","","","","","","","","","","","","","","","","","","","","","","","feedback_test","","","","","","","","","","","",""
"744","","j","psychophysics","129","519850","0.0-7.0-0.0-4.0-0.0-0.11","4","3","3","4","3","3","4","3","4","4","5","3","3","4","4","4","4","3","4","5","1","2","3","2","2","2","2","2","2","1","0","1","0","0","0","0","0","0","1","1","0","0","0","1","4","2","2","3","3","5","2","3","4","1","3","566315942938673152","张","398","","","","nonmatch","","","","","","","","","","","","","","key","j","16.655339805825243","640","356","j","true","nonmatch","img/diamond.png","圆形","菱形","ALT1","formal_ALT1_1","","","","","","","","","","","",""
"null","<span style='color:GreenYellow; font-size: 70px;'>正确! </span>","null","html-keyboard-response","130","520360","0.0-7.0-0.0-4.0-0.0-1.11","4","3","3","4","3","3","4","3","4","4","5","3","3","4","4","4","4","3","4","5","1","2","3","2","2","2","2","2","2","1","0","1","0","0","0","0","0","0","1","1","0","0","0","1","4","2","2","3","3","5","2","3","4","1","3","566315942938673152","张","398","","","","","","","","","","","","","","","","","","","","","","","","","","","","","","feedback_test","","","","","","","","","","","",""
"712","","j","psychophysics","131","522076","0.0-7.0-0.0-4.0-0.0-0.12","4","3","3","4","3","3","4","3","4","4","5","3","3","4","4","4","4","3","4","5","1","2","3","2","2","2","2","2","2","1","0","1","0","0","0","0","0","0","1","1","0","0","0","1","4","2","2","3","3","5","2","3","4","1","3","566315942938673152","张","398","","","","nonmatch","","","","","","","","","","","","","","key","j","16.656435643564816","640","356","j","true","nonmatch","img/circle.png","菱形","圆形","ALT1","formal_ALT1_1","","","","","","","","","","","",""
"null","<span style='color:GreenYellow; font-size: 70px;'>正确! </span>","null","html-keyboard-response","132","522595","0.0-7.0-0.0-4.0-0.0-1.12","4","3","3","4","3","3","4","3","4","4","5","3","3","4","4","4","4","3","4","5","1","2","3","2","2","2","2","2","2","1","0","1","0","0","0","0","0","0","1","1","0","0","0","1","4","2","2","3","3","5","2","3","4","1","3","566315942938673152","张","398","","","","","","","","","","","","","","","","","","","","","","","","","","","","","","feedback_test","","","","","","","","","","","",""
"518","","f","psychophysics","133","524131","0.0-7.0-0.0-4.0-0.0-0.13","4","3","3","4","3","3","4","3","4","4","5","3","3","4","4","4","4","3","4","5","1","2","3","2","2","2","2","2","2","1","0","1","0","0","0","0","0","0","1","1","0","0","0","1","4","2","2","3","3","5","2","3","4","1","3","566315942938673152","张","398","","","","match","","","","","","","","","","","","","","key","f","16.651111111110854","640","356","f","true","match","img/square.png","方形","方形","ALT1","formal_ALT1_1","","","","","","","","","","","",""
"null","<span style='color:GreenYellow; font-size: 70px;'>正确! </span>","null","html-keyboard-response","134","524634","0.0-7.0-0.0-4.0-0.0-1.13","4","3","3","4","3","3","4","3","4","4","5","3","3","4","4","4","4","3","4","5","1","2","3","2","2","2","2","2","2","1","0","1","0","0","0","0","0","0","1","1","0","0","0","1","4","2","2","3","3","5","2","3","4","1","3","566315942938673152","张","398","","","","","","","","","","","","","","","","","","","","","","","","","","","","","","feedback_test","","","","","","","","","","","",""
"619","","j","psychophysics","135","526256","0.0-7.0-0.0-4.0-0.0-0.14","4","3","3","4","3","3","4","3","4","4","5","3","3","4","4","4","4","3","4","5","1","2","3","2","2","2","2","2","2","1","0","1","0","0","0","0","0","0","1","1","0","0","0","1","4","2","2","3","3","5","2","3","4","1","3","566315942938673152","张","398","","","","nonmatch","","","","","","","","","","","","","","key","j","16.65368421052607","640","356","f","false","match","img/square.png","方形","方形","ALT1","formal_ALT1_1","","","","","","","","","","","",""
"null","<span style='color:red; font-size: 70px;'>错误! </span>","null","html-keyboard-response","136","526763","0.0-7.0-0.0-4.0-0.0-1.14","4","3","3","4","3","3","4","3","4","4","5","3","3","4","4","4","4","3","4","5","1","2","3","2","2","2","2","2","2","1","0","1","0","0","0","0","0","0","1","1","0","0","0","1","4","2","2","3","3","5","2","3","4","1","3","566315942938673152","张","398","","","","","","","","","","","","","","","","","","","","","","","","","","","","","","feedback_test","","","","","","","","","","","",""
"913","","j","psychophysics","137","528682","0.0-7.0-0.0-4.0-0.0-0.15","4","3","3","4","3","3","4","3","4","4","5","3","3","4","4","4","4","3","4","5","1","2","3","2","2","2","2","2","2","1","0","1","0","0","0","0","0","0","1","1","0","0","0","1","4","2","2","3","3","5","2","3","4","1","3","566315942938673152","张","398","","","","nonmatch","","","","","","","","","","","","","","key","j","16.65663716814118","640","356","j","true","nonmatch","img/hexagon.png","菱形","六边","ALT1","formal_ALT1_1","","","","","","","","","","","",""
"null","<span style='color:GreenYellow; font-size: 70px;'>正确! </span>","null","html-keyboard-response","138","529194","0.0-7.0-0.0-4.0-0.0-1.15","4","3","3","4","3","3","4","3","4","4","5","3","3","4","4","4","4","3","4","5","1","2","3","2","2","2","2","2","2","1","0","1","0","0","0","0","0","0","1","1","0","0","0","1","4","2","2","3","3","5","2","3","4","1","3","566315942938673152","张","398","","","","","","","","","","","","","","","","","","","","","","","","","","","","","","feedback_test","","","","","","","","","","","",""
"816","","f","psychophysics","139","531033","0.0-7.0-0.0-4.0-0.0-0.16","4","3","3","4","3","3","4","3","4","4","5","3","3","4","4","4","4","3","4","5","1","2","3","2","2","2","2","2","2","1","0","1","0","0","0","0","0","0","1","1","0","0","0","1","4","2","2","3","3","5","2","3","4","1","3","566315942938673152","张","398","","","","match","","","","","","","","","","","","","","key","f","16.654629629630275","640","356","f","true","match","img/diamond.png","菱形","菱形","ALT1","formal_ALT1_1","","","","","","","","","","","",""
"null","<span style='color:GreenYellow; font-size: 70px;'>正确! </span>","null","html-keyboard-response","140","531542","0.0-7.0-0.0-4.0-0.0-1.16","4","3","3","4","3","3","4","3","4","4","5","3","3","4","4","4","4","3","4","5","1","2","3","2","2","2","2","2","2","1","0","1","0","0","0","0","0","0","1","1","0","0","0","1","4","2","2","3","3","5","2","3","4","1","3","566315942938673152","张","398","","","","","","","","","","","","","","","","","","","","","","","","","","","","","","feedback_test","","","","","","","","","","","",""
"730","","j","psychophysics","141","533275","0.0-7.0-0.0-4.0-0.0-0.17","4","3","3","4","3","3","4","3","4","4","5","3","3","4","4","4","4","3","4","5","1","2","3","2","2","2","2","2","2","1","0","1","0","0","0","0","0","0","1","1","0","0","0","1","4","2","2","3","3","5","2","3","4","1","3","566315942938673152","张","398","","","","nonmatch","","","","","","","","","","","","","","key","j","16.650000000000457","640","356","j","true","nonmatch","img/square.png","菱形","方形","ALT1","formal_ALT1_1","","","","","","","","","","","",""
"null","<span style='color:GreenYellow; font-size: 70px;'>正确! </span>","null","html-keyboard-response","142","533784","0.0-7.0-0.0-4.0-0.0-1.17","4","3","3","4","3","3","4","3","4","4","5","3","3","4","4","4","4","3","4","5","1","2","3","2","2","2","2","2","2","1","0","1","0","0","0","0","0","0","1","1","0","0","0","1","4","2","2","3","3","5","2","3","4","1","3","566315942938673152","张","398","","","","","","","","","","","","","","","","","","","","","","","","","","","","","","feedback_test","","","","","","","","","","","",""
"739","","f","psychophysics","143","535530","0.0-7.0-0.0-4.0-0.0-0.18","4","3","3","4","3","3","4","3","4","4","5","3","3","4","4","4","4","3","4","5","1","2","3","2","2","2","2","2","2","1","0","1","0","0","0","0","0","0","1","1","0","0","0","1","4","2","2","3","3","5","2","3","4","1","3","566315942938673152","张","398","","","","match","","","","","","","","","","","","","","key","f","16.651456310679386","640","356","f","true","match","img/diamond.png","菱形","菱形","ALT1","formal_ALT1_1","","","","","","","","","","","",""
"null","<span style='color:GreenYellow; font-size: 70px;'>正确! </span>","null","html-keyboard-response","144","536035","0.0-7.0-0.0-4.0-0.0-1.18","4","3","3","4","3","3","4","3","4","4","5","3","3","4","4","4","4","3","4","5","1","2","3","2","2","2","2","2","2","1","0","1","0","0","0","0","0","0","1","1","0","0","0","1","4","2","2","3","3","5","2","3","4","1","3","566315942938673152","张","398","","","","","","","","","","","","","","","","","","","","","","","","","","","","","","feedback_test","","","","","","","","","","","",""
"738","","f","psychophysics","145","537794","0.0-7.0-0.0-4.0-0.0-0.19","4","3","3","4","3","3","4","3","4","4","5","3","3","4","4","4","4","3","4","5","1","2","3","2","2","2","2","2","2","1","0","1","0","0","0","0","0","0","1","1","0","0","0","1","4","2","2","3","3","5","2","3","4","1","3","566315942938673152","张","398","","","","match","","","","","","","","","","","","","","key","f","16.64903846153846","640","356","j","false","nonmatch","img/circle.png","方形","圆形","ALT1","formal_ALT1_1","","","","","","","","","","","",""
"null","<span style='color:red; font-size: 70px;'>错误! </span>","null","html-keyboard-response","146","538303","0.0-7.0-0.0-4.0-0.0-1.19","4","3","3","4","3","3","4","3","4","4","5","3","3","4","4","4","4","3","4","5","1","2","3","2","2","2","2","2","2","1","0","1","0","0","0","0","0","0","1","1","0","0","0","1","4","2","2","3","3","5","2","3","4","1","3","566315942938673152","张","398","","","","","","","","","","","","","","","","","","","","","","","","","","","","","","feedback_test","","","","","","","","","","","",""
"787","","j","psychophysics","147","540092","0.0-7.0-0.0-4.0-0.0-0.20","4","3","3","4","3","3","4","3","4","4","5","3","3","4","4","4","4","3","4","5","1","2","3","2","2","2","2","2","2","1","0","1","0","0","0","0","0","0","1","1","0","0","0","1","4","2","2","3","3","5","2","3","4","1","3","566315942938673152","张","398","","","","nonmatch","","","","","","","","","","","","","","key","j","16.651428571427683","640","356","j","true","nonmatch","img/square.png","六边","方形","ALT1","formal_ALT1_1","","","","","","","","","","","",""
"null","<span style='color:GreenYellow; font-size: 70px;'>正确! </span>","null","html-keyboard-response","148","540599","0.0-7.0-0.0-4.0-0.0-1.20","4","3","3","4","3","3","4","3","4","4","5","3","3","4","4","4","4","3","4","5","1","2","3","2","2","2","2","2","2","1","0","1","0","0","0","0","0","0","1","1","0","0","0","1","4","2","2","3","3","5","2","3","4","1","3","566315942938673152","张","398","","","","","","","","","","","","","","","","","","","","","","","","","","","","","","feedback_test","","","","","","","","","","","",""
"1065","","j","psychophysics","149","542667","0.0-7.0-0.0-4.0-0.0-0.21","4","3","3","4","3","3","4","3","4","4","5","3","3","4","4","4","4","3","4","5","1","2","3","2","2","2","2","2","2","1","0","1","0","0","0","0","0","0","1","1","0","0","0","1","4","2","2","3","3","5","2","3","4","1","3","566315942938673152","张","398","","","","nonmatch","","","","","","","","","","","","","","key","j","16.658536585365855","640","356","j","true","nonmatch","img/diamond.png","方形","菱形","ALT1","formal_ALT1_1","","","","","","","","","","","",""
"null","<span style='color:GreenYellow; font-size: 70px;'>正确! </span>","null","html-keyboard-response","150","543172","0.0-7.0-0.0-4.0-0.0-1.21","4","3","3","4","3","3","4","3","4","4","5","3","3","4","4","4","4","3","4","5","1","2","3","2","2","2","2","2","2","1","0","1","0","0","0","0","0","0","1","1","0","0","0","1","4","2","2","3","3","5","2","3","4","1","3","566315942938673152","张","398","","","","","","","","","","","","","","","","","","","","","","","","","","","","","","feedback_test","","","","","","","","","","","",""
"823","","j","psychophysics","151","545014","0.0-7.0-0.0-4.0-0.0-0.22","4","3","3","4","3","3","4","3","4","4","5","3","3","4","4","4","4","3","4","5","1","2","3","2","2","2","2","2","2","1","0","1","0","0","0","0","0","0","1","1","0","0","0","1","4","2","2","3","3","5","2","3","4","1","3","566315942938673152","张","398","","","","nonmatch","","","","","","","","","","","","","","key","j","16.657798165137187","640","356","j","true","nonmatch","img/hexagon.png","圆形","六边","ALT1","formal_ALT1_1","","","","","","","","","","","",""
"null","<span style='color:GreenYellow; font-size: 70px;'>正确! </span>","null","html-keyboard-response","152","545519","0.0-7.0-0.0-4.0-0.0-1.22","4","3","3","4","3","3","4","3","4","4","5","3","3","4","4","4","4","3","4","5","1","2","3","2","2","2","2","2","2","1","0","1","0","0","0","0","0","0","1","1","0","0","0","1","4","2","2","3","3","5","2","3","4","1","3","566315942938673152","张","398","","","","","","","","","","","","","","","","","","","","","","","","","","","","","","feedback_test","","","","","","","","","","","",""
"760","","f","psychophysics","153","547282","0.0-7.0-0.0-4.0-0.0-0.23","4","3","3","4","3","3","4","3","4","4","5","3","3","4","4","4","4","3","4","5","1","2","3","2","2","2","2","2","2","1","0","1","0","0","0","0","0","0","1","1","0","0","0","1","4","2","2","3","3","5","2","3","4","1","3","566315942938673152","张","398","","","","match","","","","","","","","","","","","","","key","f","16.656310679611426","640","356","f","true","match","img/square.png","方形","方形","ALT1","formal_ALT1_1","","","","","","","","","","","",""
"null","<span style='color:GreenYellow; font-size: 70px;'>正确! </span>","null","html-keyboard-response","154","547785","0.0-7.0-0.0-4.0-0.0-1.23","4","3","3","4","3","3","4","3","4","4","5","3","3","4","4","4","4","3","4","5","1","2","3","2","2","2","2","2","2","1","0","1","0","0","0","0","0","0","1","1","0","0","0","1","4","2","2","3","3","5","2","3","4","1","3","566315942938673152","张","398","","","","","","","","","","","","","","","","","","","","","","","","","","","","","","feedback_test","","","","","","","","","","","",""
"871","","f","psychophysics","155","549661","0.0-7.0-0.0-4.0-0.0-0.24","4","3","3","4","3","3","4","3","4","4","5","3","3","4","4","4","4","3","4","5","1","2","3","2","2","2","2","2","2","1","0","1","0","0","0","0","0","0","1","1","0","0","0","1","4","2","2","3","3","5","2","3","4","1","3","566315942938673152","张","398","","","","match","","","","","","","","","","","","","","key","f","16.658035714285298","640","356","f","true","match","img/diamond.png","菱形","菱形","ALT1","formal_ALT1_1","","","","","","","","","","","",""
"null","<span style='color:GreenYellow; font-size: 70px;'>正确! </span>","null","html-keyboard-response","156","550192","0.0-7.0-0.0-4.0-0.0-1.24","4","3","3","4","3","3","4","3","4","4","5","3","3","4","4","4","4","3","4","5","1","2","3","2","2","2","2","2","2","1","0","1","0","0","0","0","0","0","1","1","0","0","0","1","4","2","2","3","3","5","2","3","4","1","3","566315942938673152","张","398","","","","","","","","","","","","","","","","","","","","","","","","","","","","","","feedback_test","","","","","","","","","","","",""
"530","","f","psychophysics","157","551738","0.0-7.0-0.0-4.0-0.0-0.25","4","3","3","4","3","3","4","3","4","4","5","3","3","4","4","4","4","3","4","5","1","2","3","2","2","2","2","2","2","1","0","1","0","0","0","0","0","0","1","1","0","0","0","1","4","2","2","3","3","5","2","3","4","1","3","566315942938673152","张","398","","","","match","","","","","","","","","","","","","","key","f","16.65054945055022","640","356","f","true","match","img/circle.png","圆形","圆形","ALT1","formal_ALT1_1","","","","","","","","","","","",""
"null","<span style='color:GreenYellow; font-size: 70px;'>正确! </span>","null","html-keyboard-response","158","552240","0.0-7.0-0.0-4.0-0.0-1.25","4","3","3","4","3","3","4","3","4","4","5","3","3","4","4","4","4","3","4","5","1","2","3","2","2","2","2","2","2","1","0","1","0","0","0","0","0","0","1","1","0","0","0","1","4","2","2","3","3","5","2","3","4","1","3","566315942938673152","张","398","","","","","","","","","","","","","","","","","","","","","","","","","","","","","","feedback_test","","","","","","","","","","","",""
"690","","j","psychophysics","159","553933","0.0-7.0-0.0-4.0-0.0-0.26","4","3","3","4","3","3","4","3","4","4","5","3","3","4","4","4","4","3","4","5","1","2","3","2","2","2","2","2","2","1","0","1","0","0","0","0","0","0","1","1","0","0","0","1","4","2","2","3","3","5","2","3","4","1","3","566315942938673152","张","398","","","","nonmatch","","","","","","","","","","","","","","key","j","16.658000000000467","640","356","j","true","nonmatch","img/square.png","圆形","方形","ALT1","formal_ALT1_1","","","","","","","","","","","",""
"null","<span style='color:GreenYellow; font-size: 70px;'>正确! </span>","null","html-keyboard-response","160","554436","0.0-7.0-0.0-4.0-0.0-1.26","4","3","3","4","3","3","4","3","4","4","5","3","3","4","4","4","4","3","4","5","1","2","3","2","2","2","2","2","2","1","0","1","0","0","0","0","0","0","1","1","0","0","0","1","4","2","2","3","3","5","2","3","4","1","3","566315942938673152","张","398","","","","","","","","","","","","","","","","","","","","","","","","","","","","","","feedback_test","","","","","","","","","","","",""
"879","","f","psychophysics","161","556319","0.0-7.0-0.0-4.0-0.0-0.27","4","3","3","4","3","3","4","3","4","4","5","3","3","4","4","4","4","3","4","5","1","2","3","2","2","2","2","2","2","1","0","1","0","0","0","0","0","0","1","1","0","0","0","1","4","2","2","3","3","5","2","3","4","1","3","566315942938673152","张","398","","","","match","","","","","","","","","","","","","","key","f","16.654545454545456","640","356","j","false","nonmatch","img/square.png","菱形","方形","ALT1","formal_ALT1_1","","","","","","","","","","","",""
"null","<span style='color:red; font-size: 70px;'>错误! </span>","null","html-keyboard-response","162","556861","0.0-7.0-0.0-4.0-0.0-1.27","4","3","3","4","3","3","4","3","4","4","5","3","3","4","4","4","4","3","4","5","1","2","3","2","2","2","2","2","2","1","0","1","0","0","0","0","0","0","1","1","0","0","0","1","4","2","2","3","3","5","2","3","4","1","3","566315942938673152","张","398","","","","","","","","","","","","","","","","","","","","","","","","","","","","","","feedback_test","","","","","","","","","","","",""
"812","","j","psychophysics","163","558684","0.0-7.0-0.0-4.0-0.0-0.28","4","3","3","4","3","3","4","3","4","4","5","3","3","4","4","4","4","3","4","5","1","2","3","2","2","2","2","2","2","1","0","1","0","0","0","0","0","0","1","1","0","0","0","1","4","2","2","3","3","5","2","3","4","1","3","566315942938673152","张","398","","","","nonmatch","","","","","","","","","","","","","","key","j","16.645370370371015","640","356","j","true","nonmatch","img/diamond.png","六边","菱形","ALT1","formal_ALT1_1","","","","","","","","","","","",""
"null","<span style='color:GreenYellow; font-size: 70px;'>正确! </span>","null","html-keyboard-response","164","559188","0.0-7.0-0.0-4.0-0.0-1.28","4","3","3","4","3","3","4","3","4","4","5","3","3","4","4","4","4","3","4","5","1","2","3","2","2","2","2","2","2","1","0","1","0","0","0","0","0","0","1","1","0","0","0","1","4","2","2","3","3","5","2","3","4","1","3","566315942938673152","张","398","","","","","","","","","","","","","","","","","","","","","","","","","","","","","","feedback_test","","","","","","","","","","","",""
"715","","f","psychophysics","165","560909","0.0-7.0-0.0-4.0-0.0-0.29","4","3","3","4","3","3","4","3","4","4","5","3","3","4","4","4","4","3","4","5","1","2","3","2","2","2","2","2","2","1","0","1","0","0","0","0","0","0","1","1","0","0","0","1","4","2","2","3","3","5","2","3","4","1","3","566315942938673152","张","398","","","","match","","","","","","","","","","","","","","key","f","16.65742574257449","640","356","j","false","nonmatch","img/circle.png","六边","圆形","ALT1","formal_ALT1_1","","","","","","","","","","","",""
"null","<span style='color:red; font-size: 70px;'>错误! </span>","null","html-keyboard-response","166","561418","0.0-7.0-0.0-4.0-0.0-1.29","4","3","3","4","3","3","4","3","4","4","5","3","3","4","4","4","4","3","4","5","1","2","3","2","2","2","2","2","2","1","0","1","0","0","0","0","0","0","1","1","0","0","0","1","4","2","2","3","3","5","2","3","4","1","3","566315942938673152","张","398","","","","","","","","","","","","","","","","","","","","","","","","","","","","","","feedback_test","","","","","","","","","","","",""
"728","","j","psychophysics","167","563149","0.0-7.0-0.0-4.0-0.0-0.30","4","3","3","4","3","3","4","3","4","4","5","3","3","4","4","4","4","3","4","5","1","2","3","2","2","2","2","2","2","1","0","1","0","0","0","0","0","0","1","1","0","0","0","1","4","2","2","3","3","5","2","3","4","1","3","566315942938673152","张","398","","","","nonmatch","","","","","","","","","","","","","","key","j","16.657281553397606","640","356","j","true","nonmatch","img/square.png","六边","方形","ALT1","formal_ALT1_1","","","","","","","","","","","",""
"null","<span style='color:GreenYellow; font-size: 70px;'>正确! </span>","null","html-keyboard-response","168","563654","0.0-7.0-0.0-4.0-0.0-1.30","4","3","3","4","3","3","4","3","4","4","5","3","3","4","4","4","4","3","4","5","1","2","3","2","2","2","2","2","2","1","0","1","0","0","0","0","0","0","1","1","0","0","0","1","4","2","2","3","3","5","2","3","4","1","3","566315942938673152","张","398","","","","","","","","","","","","","","","","","","","","","","","","","","","","","","feedback_test","","","","","","","","","","","",""
"689","","f","psychophysics","169","565367","0.0-7.0-0.0-4.0-0.0-0.31","4","3","3","4","3","3","4","3","4","4","5","3","3","4","4","4","4","3","4","5","1","2","3","2","2","2","2","2","2","1","0","1","0","0","0","0","0","0","1","1","0","0","0","1","4","2","2","3","3","5","2","3","4","1","3","566315942938673152","张","398","","","","match","","","","","","","","","","","","","","key","f","16.65742574257449","640","356","j","false","nonmatch","img/diamond.png","方形","菱形","ALT1","formal_ALT1_1","","","","","","","","","","","",""
"null","<span style='color:red; font-size: 70px;'>错误! </span>","null","html-keyboard-response","170","565872","0.0-7.0-0.0-4.0-0.0-1.31","4","3","3","4","3","3","4","3","4","4","5","3","3","4","4","4","4","3","4","5","1","2","3","2","2","2","2","2","2","1","0","1","0","0","0","0","0","0","1","1","0","0","0","1","4","2","2","3","3","5","2","3","4","1","3","566315942938673152","张","398","","","","","","","","","","","","","","","","","","","","","","","","","","","","","","feedback_test","","","","","","","","","","","",""
"715","","f","psychophysics","171","567592","0.0-7.0-0.0-4.0-0.0-0.32","4","3","3","4","3","3","4","3","4","4","5","3","3","4","4","4","4","3","4","5","1","2","3","2","2","2","2","2","2","1","0","1","0","0","0","0","0","0","1","1","0","0","0","1","4","2","2","3","3","5","2","3","4","1","3","566315942938673152","张","398","","","","match","","","","","","","","","","","","","","key","f","16.657843137254673","640","356","f","true","match","img/circle.png","圆形","圆形","ALT1","formal_ALT1_1","","","","","","","","","","","",""
"null","<span style='color:GreenYellow; font-size: 70px;'>正确! </span>","null","html-keyboard-response","172","568098","0.0-7.0-0.0-4.0-0.0-1.32","4","3","3","4","3","3","4","3","4","4","5","3","3","4","4","4","4","3","4","5","1","2","3","2","2","2","2","2","2","1","0","1","0","0","0","0","0","0","1","1","0","0","0","1","4","2","2","3","3","5","2","3","4","1","3","566315942938673152","张","398","","","","","","","","","","","","","","","","","","","","","","","","","","","","","","feedback_test","","","","","","","","","","","",""
"810","","j","psychophysics","173","569915","0.0-7.0-0.0-4.0-0.0-0.33","4","3","3","4","3","3","4","3","4","4","5","3","3","4","4","4","4","3","4","5","1","2","3","2","2","2","2","2","2","1","0","1","0","0","0","0","0","0","1","1","0","0","0","1","4","2","2","3","3","5","2","3","4","1","3","566315942938673152","张","398","","","","nonmatch","","","","","","","","","","","","","","key","j","16.657943925232775","640","356","j","true","nonmatch","img/hexagon.png","方形","六边","ALT1","formal_ALT1_1","","","","","","","","","","","",""
"null","<span style='color:GreenYellow; font-size: 70px;'>正确! </span>","null","html-keyboard-response","174","570454","0.0-7.0-0.0-4.0-0.0-1.33","4","3","3","4","3","3","4","3","4","4","5","3","3","4","4","4","4","3","4","5","1","2","3","2","2","2","2","2","2","1","0","1","0","0","0","0","0","0","1","1","0","0","0","1","4","2","2","3","3","5","2","3","4","1","3","566315942938673152","张","398","","","","","","","","","","","","","","","","","","","","","","","","","","","","","","feedback_test","","","","","","","","","","","",""
"788","","j","psychophysics","175","572249","0.0-7.0-0.0-4.0-0.0-0.34","4","3","3","4","3","3","4","3","4","4","5","3","3","4","4","4","4","3","4","5","1","2","3","2","2","2","2","2","2","1","0","1","0","0","0","0","0","0","1","1","0","0","0","1","4","2","2","3","3","5","2","3","4","1","3","566315942938673152","张","398","","","","nonmatch","","","","","","","","","","","","","","key","j","16.6588785046729","640","356","j","true","nonmatch","img/circle.png","方形","圆形","ALT1","formal_ALT1_1","","","","","","","","","","","",""
"null","<span style='color:GreenYellow; font-size: 70px;'>正确! </span>","null","html-keyboard-response","176","572755","0.0-7.0-0.0-4.0-0.0-1.34","4","3","3","4","3","3","4","3","4","4","5","3","3","4","4","4","4","3","4","5","1","2","3","2","2","2","2","2","2","1","0","1","0","0","0","0","0","0","1","1","0","0","0","1","4","2","2","3","3","5","2","3","4","1","3","566315942938673152","张","398","","","","","","","","","","","","","","","","","","","","","","","","","","","","","","feedback_test","","","","","","","","","","","",""
"658","","j","psychophysics","177","574417","0.0-7.0-0.0-4.0-0.0-0.35","4","3","3","4","3","3","4","3","4","4","5","3","3","4","4","4","4","3","4","5","1","2","3","2","2","2","2","2","2","1","0","1","0","0","0","0","0","0","1","1","0","0","0","1","4","2","2","3","3","5","2","3","4","1","3","566315942938673152","张","398","","","","nonmatch","","","","","","","","","","","","","","key","j","16.656565656565657","640","356","j","true","nonmatch","img/diamond.png","圆形","菱形","ALT1","formal_ALT1_1","","","","","","","","","","","",""
"null","<span style='color:GreenYellow; font-size: 70px;'>正确! </span>","null","html-keyboard-response","178","574924","0.0-7.0-0.0-4.0-0.0-1.35","4","3","3","4","3","3","4","3","4","4","5","3","3","4","4","4","4","3","4","5","1","2","3","2","2","2","2","2","2","1","0","1","0","0","0","0","0","0","1","1","0","0","0","1","4","2","2","3","3","5","2","3","4","1","3","566315942938673152","张","398","","","","","","","","","","","","","","","","","","","","","","","","","","","","","","feedback_test","","","","","","","","","","","",""
"618","","f","psychophysics","179","576555","0.0-7.0-0.0-4.0-0.0-0.36","4","3","3","4","3","3","4","3","4","4","5","3","3","4","4","4","4","3","4","5","1","2","3","2","2","2","2","2","2","1","0","1","0","0","0","0","0","0","1","1","0","0","0","1","4","2","2","3","3","5","2","3","4","1","3","566315942938673152","张","398","","","","match","","","","","","","","","","","","","","key","f","16.657894736842106","640","356","f","true","match","img/hexagon.png","六边","六边","ALT1","formal_ALT1_1","","","","","","","","","","","",""
"null","<span style='color:GreenYellow; font-size: 70px;'>正确! </span>","null","html-keyboard-response","180","577070","0.0-7.0-0.0-4.0-0.0-1.36","4","3","3","4","3","3","4","3","4","4","5","3","3","4","4","4","4","3","4","5","1","2","3","2","2","2","2","2","2","1","0","1","0","0","0","0","0","0","1","1","0","0","0","1","4","2","2","3","3","5","2","3","4","1","3","566315942938673152","张","398","","","","","","","","","","","","","","","","","","","","","","","","","","","","","","feedback_test","","","","","","","","","","","",""
"678","","f","psychophysics","181","578770","0.0-7.0-0.0-4.0-0.0-0.37","4","3","3","4","3","3","4","3","4","4","5","3","3","4","4","4","4","3","4","5","1","2","3","2","2","2","2","2","2","1","0","1","0","0","0","0","0","0","1","1","0","0","0","1","4","2","2","3","3","5","2","3","4","1","3","566315942938673152","张","398","","","","match","","","","","","","","","","","","","","key","f","16.65742574257449","640","356","f","true","match","img/circle.png","圆形","圆形","ALT1","formal_ALT1_1","","","","","","","","","","","",""
