"rt","stimulus","response","trial_type","trial_index","time_elapsed","internal_node_id","ses_1","ses_2","ses_3","ses_4","ses_5","ses_6","ses_7","ses_8","ses_9","ses_10","coreself_1","coreself_2","coreself_3","coreself_4","coreself_5","coreself_6","coreself_7","coreself_8","coreself_9","coreself_10","SGPS_1","SGPS_2","SGPS_3","SGPS_4","SGPS_5","SGPS_6","SGPS_7","SGPS_8","SGPS_9","NPI1","NPI2","NPI3","NPI4","NPI5","NPI6","NPI7","NPI8","NPI9","NPI10","NPI11","NPI12","NPI13","NPI14","NPI15","hsns_1","hsns_2","hsns_3","hsns_4","hsns_5","trap1","hsns_6","hsns_7","hsns_8","hsns_9","hsns_10","subj_idx","friend_name","ParticipantID","value","success","user_agent","responses","item_order","radio_event_ids","radio_event_times","key_event_times","mouse_event_times","straightlining","zigzagging","honeypot","timeout","failed_images","failed_audio","failed_video","view_history","response_type","key_press","avg_frame_time","center_x","center_y","correct_response","correct","identity","Image","word","condition","task_id","screen_id","time_stamp","version_attrib2","version_target2","IAT","RT","varname","summary","version_attrib","version_target","question_order","correct_answer","trap1_item"
"6550","
   <p><div style = ""color: white;font-size:25px;"">您好，欢迎参加本次实验。</div> </p>
   <p><div style = ""color: white;font-size:25px;"">为充分保障您的权利，请确保您已经知晓并同意《参与实验同意书》以及《数据公开知情同意书》。</div></p>
   <p><div style = ""color: white;font-size:25px;"">如果您未见过上述内容，请咨询实验员。</div></p>
   <p><div style = ""color: white;font-size:25px;"">如果您选择继续实验，则表示您已经清楚两份知情同意书的内容并同意。</div></p>
   <p><div style = ""color: pink;font-size:30px;"">请确保您记得day0的实验编号，您将在本次实验输入该编号，若您忘记，请咨询实验员后作答。</div></p>
   <p><div style = ""color: lightblue;font-size:25px;"">请您尽可能认真地作答，我们将依据您在各问卷和按键任务中的作答质量发放报酬。</div></p>
   <p> <div style = ""color: green;font-size:25px;""><按空格键至下页></div> </p>
   "," ","html-keyboard-response","0","6552","0.0-0.0","4","3","4","4","3","4","3","4","3","4","4","4","1","4","5","5","4","5","4","4","2","1","1","2","2","1","1","2","1","1","0","1","1","0","0","0","1","0","1","1","0","1","0","1","4","2","5","1","2","1","3","5","4","5","3","733820079237763073","潘","415","","","","","","","","","","","","","","","","","","","","","","","","","","","","","","","","","","","","","","","","","",""
"","","","call-function","1","6553","0.0-1.0-0.0","4","3","4","4","3","4","3","4","3","4","4","4","1","4","5","5","4","5","4","4","2","1","1","2","2","1","1","2","1","1","0","1","1","0","0","0","1","0","1","1","0","1","0","1","4","2","5","1","2","1","3","5","4","5","3","733820079237763073","潘","415","","","","","","","","","","","","","","","","","","","","","","","","","","","","","","","","","","","","","","","","","",""
"28902","","{""friend_name"":""潘"",""ParticipantID"":""415""}","survey-html-form","2","35456","0.0-1.0-1.0","4","3","4","4","3","4","3","4","3","4","4","4","1","4","5","5","4","5","4","4","2","1","1","2","2","1","1","2","1","1","0","1","1","0","0","0","1","0","1","1","0","1","0","1","4","2","5","1","2","1","3","5","4","5","3","733820079237763073","潘","415","","","","","","","","","","","","","","","","","","","","","","","","","","","","","","","","","","","","","","","","","",""
"","","","fullscreen","3","39045","0.0-2.0","4","3","4","4","3","4","3","4","3","4","4","4","1","4","5","5","4","5","4","4","2","1","1","2","2","1","1","2","1","1","0","1","1","0","0","0","1","0","1","1","0","1","0","1","4","2","5","1","2","1","3","5","4","5","3","733820079237763073","潘","415","","true","{}","","","","","","","","","","","","","","","","","","","","","","","","","","","","","","","","","","","","","","",""
"43200.29999998212","","{""Q01"":""4"",""Q02"":""3"",""Q03"":""4"",""Q04"":""4"",""Q05"":""3"",""Q06"":""4"",""Q07"":""3"",""Q08"":""4"",""Q09"":""3"",""Q10"":""4""}","survey-template","4","82247","0.0-3.0","4","3","4","4","3","4","3","4","3","4","4","4","1","4","5","5","4","5","4","4","2","1","1","2","2","1","1","2","1","1","0","1","1","0","0","0","1","0","1","1","0","1","0","1","4","2","5","1","2","1","3","5","4","5","3","733820079237763073","潘","415","","","","{""Q01"":""4"",""Q02"":""3"",""Q03"":""4"",""Q04"":""4"",""Q05"":""3"",""Q06"":""4"",""Q07"":""3"",""Q08"":""4"",""Q09"":""3"",""Q10"":""4""}","[0,1,2,3,4,5,6,7,8,9]","[""Q01"",""Q02"",""Q03"",""Q03"",""Q03"",""Q04"",""Q05"",""Q06"",""Q06"",""Q07"",""Q08"",""Q08"",""Q09"",""Q10""]","[2449.7999999821186,3873.899999976158,5202,6298.199999988079,6826.199999988079,8634.5,9970.799999982119,11434.899999976158,13979.199999988079,14827.299999982119,16787.59999999404,23580.59999999404,26252.899999976158,27637.09999999404]","[]","[2449.7999999821186,3873.899999976158,5202,6298.199999988079,6826.199999988079,8634.5,9970.799999982119,11434.899999976158,13979.199999988079,14827.299999982119,16787.59999999404,23580.59999999404,25484.899999976158,26252.899999976158,27637.09999999404,43199.39999997616]","0.3","0.5555555555555556","0","","","","","","","","","","","","","","","","","","","","","","","","","","","","","",""
"30455.80000001192","","{""Q01"":""4"",""Q02"":""4"",""Q03"":""1"",""Q04"":""4"",""Q05"":""5"",""Q06"":""5"",""Q07"":""4"",""Q08"":""5"",""Q09"":""4"",""Q10"":""4""}","survey-template","5","112707","0.0-4.0","4","3","4","4","3","4","3","4","3","4","4","4","1","4","5","5","4","5","4","4","2","1","1","2","2","1","1","2","1","1","0","1","1","0","0","0","1","0","1","1","0","1","0","1","4","2","5","1","2","1","3","5","4","5","3","733820079237763073","潘","415","","","","{""Q01"":""4"",""Q02"":""4"",""Q03"":""1"",""Q04"":""4"",""Q05"":""5"",""Q06"":""5"",""Q07"":""4"",""Q08"":""5"",""Q09"":""4"",""Q10"":""4""}","[0,1,2,3,4,5,6,7,8,9]","[""Q01"",""Q02"",""Q03"",""Q02"",""Q03"",""Q04"",""Q05"",""Q06"",""Q07"",""Q08"",""Q09"",""Q10""]","[1778.9000000059605,3299.199999988079,5723.5,8603.90000000596,10348.09999999404,11100.199999988079,13788.800000011921,15044.800000011921,16917.09999999404,18869.40000000596,20869.5,22341.80000001192]","[]","[1778.9000000059605,3299.199999988079,5723.5,8603.90000000596,10348.09999999404,11100.199999988079,13316.59999999404,13788.800000011921,15044.800000011921,16557,16917.09999999404,18405.19999998808,18869.40000000596,20421.5,20869.5,22341.80000001192,30455.09999999404]","0.3","0.3333333333333333","0","","","","","","","","","","","","","","","","","","","","","","","","","","","","","",""
"","","","preload","6","113245","0.0-5.0","4","3","4","4","3","4","3","4","3","4","4","4","1","4","5","5","4","5","4","4","2","1","1","2","2","1","1","2","1","1","0","1","1","0","0","0","1","0","1","1","0","1","0","1","4","2","5","1","2","1","3","5","4","5","3","733820079237763073","潘","415","","true","","","","","","","","","","","false","[]","[]","[]","","","","","","","","","","","","","","","","","","","","","","","","","",""
"15495","","","instructions","7","128740","0.0-6.0","4","3","4","4","3","4","3","4","3","4","4","4","1","4","5","5","4","5","4","4","2","1","1","2","2","1","1","2","1","1","0","1","1","0","0","0","1","0","1","1","0","1","0","1","4","2","5","1","2","1","3","5","4","5","3","733820079237763073","潘","415","","","","","","","","","","","","","","","","","[{""page_index"":0,""viewing_time"":15495}]","","","","","","","","","","","","","","","","","","","","","","","","",""
"52158","","","instructions","8","180900","0.0-7.0-0.0-0.0","4","3","4","4","3","4","3","4","3","4","4","4","1","4","5","5","4","5","4","4","2","1","1","2","2","1","1","2","1","1","0","1","1","0","0","0","1","0","1","1","0","1","0","1","4","2","5","1","2","1","3","5","4","5","3","733820079237763073","潘","415","","","","","","","","","","","","","","","","","[{""page_index"":0,""viewing_time"":30235},{""page_index"":1,""viewing_time"":18555},{""page_index"":2,""viewing_time"":3369}]","","","","","","","","","","","","","","","","","","","","","","","","",""
"922","","j","psychophysics","9","182825","0.0-7.0-0.0-1.0-0.0-0.0","4","3","4","4","3","4","3","4","3","4","4","4","1","4","5","5","4","5","4","4","2","1","1","2","2","1","1","2","1","1","0","1","1","0","0","0","1","0","1","1","0","1","0","1","4","2","5","1","2","1","3","5","4","5","3","733820079237763073","潘","415","","","","match","","","","","","","","","","","","","","key","j","13.334965034964995","960","536","j","true","match","img/hexagon.png","六边","六边","ALT1_1","prac_ALT1_1","","","","","","","","","","","",""
"null","<span style='color:GreenYellow; font-size: 70px;'>正确! </span>","null","html-keyboard-response","10","183326","0.0-7.0-0.0-1.0-0.0-1.0","4","3","4","4","3","4","3","4","3","4","4","4","1","4","5","5","4","5","4","4","2","1","1","2","2","1","1","2","1","1","0","1","1","0","0","0","1","0","1","1","0","1","0","1","4","2","5","1","2","1","3","5","4","5","3","733820079237763073","潘","415","","","","","","","","","","","","","","","","","","","","","","","","","","","","","","feedback_test","","","","","","","","","","","",""
"754","","j","psychophysics","11","185081","0.0-7.0-0.0-1.0-0.0-0.1","4","3","4","4","3","4","3","4","3","4","4","4","1","4","5","5","4","5","4","4","2","1","1","2","2","1","1","2","1","1","0","1","1","0","0","0","1","0","1","1","0","1","0","1","4","2","5","1","2","1","3","5","4","5","3","733820079237763073","潘","415","","","","match","","","","","","","","","","","","","","key","j","13.334351145038301","960","536","j","true","match","img/diamond.png","菱形","菱形","ALT1_1","prac_ALT1_1","","","","","","","","","","","",""
"null","<span style='color:GreenYellow; font-size: 70px;'>正确! </span>","null","html-keyboard-response","12","185582","0.0-7.0-0.0-1.0-0.0-1.1","4","3","4","4","3","4","3","4","3","4","4","4","1","4","5","5","4","5","4","4","2","1","1","2","2","1","1","2","1","1","0","1","1","0","0","0","1","0","1","1","0","1","0","1","4","2","5","1","2","1","3","5","4","5","3","733820079237763073","潘","415","","","","","","","","","","","","","","","","","","","","","","","","","","","","","","feedback_test","","","","","","","","","","","",""
"1033","","f","psychophysics","13","187616","0.0-7.0-0.0-1.0-0.0-0.2","4","3","4","4","3","4","3","4","3","4","4","4","1","4","5","5","4","5","4","4","2","1","1","2","2","1","1","2","1","1","0","1","1","0","0","0","1","0","1","1","0","1","0","1","4","2","5","1","2","1","3","5","4","5","3","733820079237763073","潘","415","","","","nonmatch","","","","","","","","","","","","","","key","f","13.334868421052594","960","536","j","false","match","img/trapezoid.png","梯形","梯形","ALT1_1","prac_ALT1_1","","","","","","","","","","","",""
"null","<span style='color:red; font-size: 70px;'>错误! </span>","null","html-keyboard-response","14","188117","0.0-7.0-0.0-1.0-0.0-1.2","4","3","4","4","3","4","3","4","3","4","4","4","1","4","5","5","4","5","4","4","2","1","1","2","2","1","1","2","1","1","0","1","1","0","0","0","1","0","1","1","0","1","0","1","4","2","5","1","2","1","3","5","4","5","3","733820079237763073","潘","415","","","","","","","","","","","","","","","","","","","","","","","","","","","","","","feedback_test","","","","","","","","","","","",""
"875","","j","psychophysics","15","189994","0.0-7.0-0.0-1.0-0.0-0.3","4","3","4","4","3","4","3","4","3","4","4","4","1","4","5","5","4","5","4","4","2","1","1","2","2","1","1","2","1","1","0","1","1","0","0","0","1","0","1","1","0","1","0","1","4","2","5","1","2","1","3","5","4","5","3","733820079237763073","潘","415","","","","match","","","","","","","","","","","","","","key","j","13.335714285714285","960","536","f","false","nonmatch","img/diamond.png","梯形","菱形","ALT1_1","prac_ALT1_1","","","","","","","","","","","",""
"null","<span style='color:red; font-size: 70px;'>错误! </span>","null","html-keyboard-response","16","190495","0.0-7.0-0.0-1.0-0.0-1.3","4","3","4","4","3","4","3","4","3","4","4","4","1","4","5","5","4","5","4","4","2","1","1","2","2","1","1","2","1","1","0","1","1","0","0","0","1","0","1","1","0","1","0","1","4","2","5","1","2","1","3","5","4","5","3","733820079237763073","潘","415","","","","","","","","","","","","","","","","","","","","","","","","","","","","","","feedback_test","","","","","","","","","","","",""
"844","","f","psychophysics","17","192341","0.0-7.0-0.0-1.0-0.0-0.4","4","3","4","4","3","4","3","4","3","4","4","4","1","4","5","5","4","5","4","4","2","1","1","2","2","1","1","2","1","1","0","1","1","0","0","0","1","0","1","1","0","1","0","1","4","2","5","1","2","1","3","5","4","5","3","733820079237763073","潘","415","","","","nonmatch","","","","","","","","","","","","","","key","f","13.335036496350323","960","536","f","true","nonmatch","img/hexagon.png","梯形","六边","ALT1_1","prac_ALT1_1","","","","","","","","","","","",""
"null","<span style='color:GreenYellow; font-size: 70px;'>正确! </span>","null","html-keyboard-response","18","192842","0.0-7.0-0.0-1.0-0.0-1.4","4","3","4","4","3","4","3","4","3","4","4","4","1","4","5","5","4","5","4","4","2","1","1","2","2","1","1","2","1","1","0","1","1","0","0","0","1","0","1","1","0","1","0","1","4","2","5","1","2","1","3","5","4","5","3","733820079237763073","潘","415","","","","","","","","","","","","","","","","","","","","","","","","","","","","","","feedback_test","","","","","","","","","","","",""
"941","","j","psychophysics","19","194784","0.0-7.0-0.0-1.0-0.0-0.5","4","3","4","4","3","4","3","4","3","4","4","4","1","4","5","5","4","5","4","4","2","1","1","2","2","1","1","2","1","1","0","1","1","0","0","0","1","0","1","1","0","1","0","1","4","2","5","1","2","1","3","5","4","5","3","733820079237763073","潘","415","","","","match","","","","","","","","","","","","","","key","j","13.335416666666585","960","536","f","false","nonmatch","img/trapezoid.png","圆形","梯形","ALT1_1","prac_ALT1_1","","","","","","","","","","","",""
"null","<span style='color:red; font-size: 70px;'>错误! </span>","null","html-keyboard-response","20","195285","0.0-7.0-0.0-1.0-0.0-1.5","4","3","4","4","3","4","3","4","3","4","4","4","1","4","5","5","4","5","4","4","2","1","1","2","2","1","1","2","1","1","0","1","1","0","0","0","1","0","1","1","0","1","0","1","4","2","5","1","2","1","3","5","4","5","3","733820079237763073","潘","415","","","","","","","","","","","","","","","","","","","","","","","","","","","","","","feedback_test","","","","","","","","","","","",""
"823","","j","psychophysics","21","197109","0.0-7.0-0.0-1.0-0.0-0.6","4","3","4","4","3","4","3","4","3","4","4","4","1","4","5","5","4","5","4","4","2","1","1","2","2","1","1","2","1","1","0","1","1","0","0","0","1","0","1","1","0","1","0","1","4","2","5","1","2","1","3","5","4","5","3","733820079237763073","潘","415","","","","match","","","","","","","","","","","","","","key","j","13.334558823529411","960","536","f","false","nonmatch","img/diamond.png","六边","菱形","ALT1_1","prac_ALT1_1","","","","","","","","","","","",""
"null","<span style='color:red; font-size: 70px;'>错误! </span>","null","html-keyboard-response","22","197610","0.0-7.0-0.0-1.0-0.0-1.6","4","3","4","4","3","4","3","4","3","4","4","4","1","4","5","5","4","5","4","4","2","1","1","2","2","1","1","2","1","1","0","1","1","0","0","0","1","0","1","1","0","1","0","1","4","2","5","1","2","1","3","5","4","5","3","733820079237763073","潘","415","","","","","","","","","","","","","","","","","","","","","","","","","","","","","","feedback_test","","","","","","","","","","","",""
"934","","f","psychophysics","23","199545","0.0-7.0-0.0-1.0-0.0-0.7","4","3","4","4","3","4","3","4","3","4","4","4","1","4","5","5","4","5","4","4","2","1","1","2","2","1","1","2","1","1","0","1","1","0","0","0","1","0","1","1","0","1","0","1","4","2","5","1","2","1","3","5","4","5","3","733820079237763073","潘","415","","","","nonmatch","","","","","","","","","","","","","","key","f","13.335416666666585","960","536","f","true","nonmatch","img/circle.png","菱形","圆形","ALT1_1","prac_ALT1_1","","","","","","","","","","","",""
"null","<span style='color:GreenYellow; font-size: 70px;'>正确! </span>","null","html-keyboard-response","24","200046","0.0-7.0-0.0-1.0-0.0-1.7","4","3","4","4","3","4","3","4","3","4","4","4","1","4","5","5","4","5","4","4","2","1","1","2","2","1","1","2","1","1","0","1","1","0","0","0","1","0","1","1","0","1","0","1","4","2","5","1","2","1","3","5","4","5","3","733820079237763073","潘","415","","","","","","","","","","","","","","","","","","","","","","","","","","","","","","feedback_test","","","","","","","","","","","",""
"1147","","f","psychophysics","25","202195","0.0-7.0-0.0-1.0-0.0-0.8","4","3","4","4","3","4","3","4","3","4","4","4","1","4","5","5","4","5","4","4","2","1","1","2","2","1","1","2","1","1","0","1","1","0","0","0","1","0","1","1","0","1","0","1","4","2","5","1","2","1","3","5","4","5","3","733820079237763073","潘","415","","","","nonmatch","","","","","","","","","","","","","","key","f","13.335000000000036","960","536","f","true","nonmatch","img/hexagon.png","圆形","六边","ALT1_1","prac_ALT1_1","","","","","","","","","","","",""
"null","<span style='color:GreenYellow; font-size: 70px;'>正确! </span>","null","html-keyboard-response","26","202706","0.0-7.0-0.0-1.0-0.0-1.8","4","3","4","4","3","4","3","4","3","4","4","4","1","4","5","5","4","5","4","4","2","1","1","2","2","1","1","2","1","1","0","1","1","0","0","0","1","0","1","1","0","1","0","1","4","2","5","1","2","1","3","5","4","5","3","733820079237763073","潘","415","","","","","","","","","","","","","","","","","","","","","","","","","","","","","","feedback_test","","","","","","","","","","","",""
"1156","","f","psychophysics","27","204864","0.0-7.0-0.0-1.0-0.0-0.9","4","3","4","4","3","4","3","4","3","4","4","4","1","4","5","5","4","5","4","4","2","1","1","2","2","1","1","2","1","1","0","1","1","0","0","0","1","0","1","1","0","1","0","1","4","2","5","1","2","1","3","5","4","5","3","733820079237763073","潘","415","","","","nonmatch","","","","","","","","","","","","","","key","f","13.335403726708075","960","536","f","true","nonmatch","img/trapezoid.png","菱形","梯形","ALT1_1","prac_ALT1_1","","","","","","","","","","","",""
"null","<span style='color:GreenYellow; font-size: 70px;'>正确! </span>","null","html-keyboard-response","28","205364","0.0-7.0-0.0-1.0-0.0-1.9","4","3","4","4","3","4","3","4","3","4","4","4","1","4","5","5","4","5","4","4","2","1","1","2","2","1","1","2","1","1","0","1","1","0","0","0","1","0","1","1","0","1","0","1","4","2","5","1","2","1","3","5","4","5","3","733820079237763073","潘","415","","","","","","","","","","","","","","","","","","","","","","","","","","","","","","feedback_test","","","","","","","","","","","",""
"953","","f","psychophysics","29","207318","0.0-7.0-0.0-1.0-0.0-0.10","4","3","4","4","3","4","3","4","3","4","4","4","1","4","5","5","4","5","4","4","2","1","1","2","2","1","1","2","1","1","0","1","1","0","0","0","1","0","1","1","0","1","0","1","4","2","5","1","2","1","3","5","4","5","3","733820079237763073","潘","415","","","","nonmatch","","","","","","","","","","","","","","key","f","13.335862068965397","960","536","f","true","nonmatch","img/trapezoid.png","六边","梯形","ALT1_1","prac_ALT1_1","","","","","","","","","","","",""
"null","<span style='color:GreenYellow; font-size: 70px;'>正确! </span>","null","html-keyboard-response","30","207820","0.0-7.0-0.0-1.0-0.0-1.10","4","3","4","4","3","4","3","4","3","4","4","4","1","4","5","5","4","5","4","4","2","1","1","2","2","1","1","2","1","1","0","1","1","0","0","0","1","0","1","1","0","1","0","1","4","2","5","1","2","1","3","5","4","5","3","733820079237763073","潘","415","","","","","","","","","","","","","","","","","","","","","","","","","","","","","","feedback_test","","","","","","","","","","","",""
"952","","j","psychophysics","31","209773","0.0-7.0-0.0-1.0-0.0-0.11","4","3","4","4","3","4","3","4","3","4","4","4","1","4","5","5","4","5","4","4","2","1","1","2","2","1","1","2","1","1","0","1","1","0","0","0","1","0","1","1","0","1","0","1","4","2","5","1","2","1","3","5","4","5","3","733820079237763073","潘","415","","","","match","","","","","","","","","","","","","","key","j","13.335172413793144","960","536","j","true","match","img/hexagon.png","六边","六边","ALT1_1","prac_ALT1_1","","","","","","","","","","","",""
"null","<span style='color:GreenYellow; font-size: 70px;'>正确! </span>","null","html-keyboard-response","32","210275","0.0-7.0-0.0-1.0-0.0-1.11","4","3","4","4","3","4","3","4","3","4","4","4","1","4","5","5","4","5","4","4","2","1","1","2","2","1","1","2","1","1","0","1","1","0","0","0","1","0","1","1","0","1","0","1","4","2","5","1","2","1","3","5","4","5","3","733820079237763073","潘","415","","","","","","","","","","","","","","","","","","","","","","","","","","","","","","feedback_test","","","","","","","","","","","",""
"949","","j","psychophysics","33","212225","0.0-7.0-0.0-1.0-0.0-0.12","4","3","4","4","3","4","3","4","3","4","4","4","1","4","5","5","4","5","4","4","2","1","1","2","2","1","1","2","1","1","0","1","1","0","0","0","1","0","1","1","0","1","0","1","4","2","5","1","2","1","3","5","4","5","3","733820079237763073","潘","415","","","","match","","","","","","","","","","","","","","key","j","13.335862068965397","960","536","j","true","match","img/diamond.png","菱形","菱形","ALT1_1","prac_ALT1_1","","","","","","","","","","","",""
"null","<span style='color:GreenYellow; font-size: 70px;'>正确! </span>","null","html-keyboard-response","34","212726","0.0-7.0-0.0-1.0-0.0-1.12","4","3","4","4","3","4","3","4","3","4","4","4","1","4","5","5","4","5","4","4","2","1","1","2","2","1","1","2","1","1","0","1","1","0","0","0","1","0","1","1","0","1","0","1","4","2","5","1","2","1","3","5","4","5","3","733820079237763073","潘","415","","","","","","","","","","","","","","","","","","","","","","","","","","","","","","feedback_test","","","","","","","","","","","",""
"792","","j","psychophysics","35","214520","0.0-7.0-0.0-1.0-0.0-0.13","4","3","4","4","3","4","3","4","3","4","4","4","1","4","5","5","4","5","4","4","2","1","1","2","2","1","1","2","1","1","0","1","1","0","0","0","1","0","1","1","0","1","0","1","4","2","5","1","2","1","3","5","4","5","3","733820079237763073","潘","415","","","","match","","","","","","","","","","","","","","key","j","13.335338345864706","960","536","j","true","match","img/circle.png","圆形","圆形","ALT1_1","prac_ALT1_1","","","","","","","","","","","",""
"null","<span style='color:GreenYellow; font-size: 70px;'>正确! </span>","null","html-keyboard-response","36","215020","0.0-7.0-0.0-1.0-0.0-1.13","4","3","4","4","3","4","3","4","3","4","4","4","1","4","5","5","4","5","4","4","2","1","1","2","2","1","1","2","1","1","0","1","1","0","0","0","1","0","1","1","0","1","0","1","4","2","5","1","2","1","3","5","4","5","3","733820079237763073","潘","415","","","","","","","","","","","","","","","","","","","","","","","","","","","","","","feedback_test","","","","","","","","","","","",""
"873","","j","psychophysics","37","216895","0.0-7.0-0.0-1.0-0.0-0.14","4","3","4","4","3","4","3","4","3","4","4","4","1","4","5","5","4","5","4","4","2","1","1","2","2","1","1","2","1","1","0","1","1","0","0","0","1","0","1","1","0","1","0","1","4","2","5","1","2","1","3","5","4","5","3","733820079237763073","潘","415","","","","match","","","","","","","","","","","","","","key","j","13.33453237410072","960","536","j","true","match","img/circle.png","圆形","圆形","ALT1_1","prac_ALT1_1","","","","","","","","","","","",""
"null","<span style='color:GreenYellow; font-size: 70px;'>正确! </span>","null","html-keyboard-response","38","217396","0.0-7.0-0.0-1.0-0.0-1.14","4","3","4","4","3","4","3","4","3","4","4","4","1","4","5","5","4","5","4","4","2","1","1","2","2","1","1","2","1","1","0","1","1","0","0","0","1","0","1","1","0","1","0","1","4","2","5","1","2","1","3","5","4","5","3","733820079237763073","潘","415","","","","","","","","","","","","","","","","","","","","","","","","","","","","","","feedback_test","","","","","","","","","","","",""
"862","","f","psychophysics","39","219259","0.0-7.0-0.0-1.0-0.0-0.15","4","3","4","4","3","4","3","4","3","4","4","4","1","4","5","5","4","5","4","4","2","1","1","2","2","1","1","2","1","1","0","1","1","0","0","0","1","0","1","1","0","1","0","1","4","2","5","1","2","1","3","5","4","5","3","733820079237763073","潘","415","","","","nonmatch","","","","","","","","","","","","","","key","f","13.335251798561194","960","536","f","true","nonmatch","img/circle.png","六边","圆形","ALT1_1","prac_ALT1_1","","","","","","","","","","","",""
"null","<span style='color:GreenYellow; font-size: 70px;'>正确! </span>","null","html-keyboard-response","40","219770","0.0-7.0-0.0-1.0-0.0-1.15","4","3","4","4","3","4","3","4","3","4","4","4","1","4","5","5","4","5","4","4","2","1","1","2","2","1","1","2","1","1","0","1","1","0","0","0","1","0","1","1","0","1","0","1","4","2","5","1","2","1","3","5","4","5","3","733820079237763073","潘","415","","","","","","","","","","","","","","","","","","","","","","","","","","","","","","feedback_test","","","","","","","","","","","",""
"986","","j","psychophysics","41","221757","0.0-7.0-0.0-1.0-0.0-0.16","4","3","4","4","3","4","3","4","3","4","4","4","1","4","5","5","4","5","4","4","2","1","1","2","2","1","1","2","1","1","0","1","1","0","0","0","1","0","1","1","0","1","0","1","4","2","5","1","2","1","3","5","4","5","3","733820079237763073","潘","415","","","","match","","","","","","","","","","","","","","key","j","13.335135135135175","960","536","j","true","match","img/hexagon.png","六边","六边","ALT1_1","prac_ALT1_1","","","","","","","","","","","",""
"null","<span style='color:GreenYellow; font-size: 70px;'>正确! </span>","null","html-keyboard-response","42","222258","0.0-7.0-0.0-1.0-0.0-1.16","4","3","4","4","3","4","3","4","3","4","4","4","1","4","5","5","4","5","4","4","2","1","1","2","2","1","1","2","1","1","0","1","1","0","0","0","1","0","1","1","0","1","0","1","4","2","5","1","2","1","3","5","4","5","3","733820079237763073","潘","415","","","","","","","","","","","","","","","","","","","","","","","","","","","","","","feedback_test","","","","","","","","","","","",""
"1082","","f","psychophysics","43","224341","0.0-7.0-0.0-1.0-0.0-0.17","4","3","4","4","3","4","3","4","3","4","4","4","1","4","5","5","4","5","4","4","2","1","1","2","2","1","1","2","1","1","0","1","1","0","0","0","1","0","1","1","0","1","0","1","4","2","5","1","2","1","3","5","4","5","3","733820079237763073","潘","415","","","","nonmatch","","","","","","","","","","","","","","key","f","13.328387096774156","960","536","f","true","nonmatch","img/hexagon.png","菱形","六边","ALT1_1","prac_ALT1_1","","","","","","","","","","","",""
"null","<span style='color:GreenYellow; font-size: 70px;'>正确! </span>","null","html-keyboard-response","44","224842","0.0-7.0-0.0-1.0-0.0-1.17","4","3","4","4","3","4","3","4","3","4","4","4","1","4","5","5","4","5","4","4","2","1","1","2","2","1","1","2","1","1","0","1","1","0","0","0","1","0","1","1","0","1","0","1","4","2","5","1","2","1","3","5","4","5","3","733820079237763073","潘","415","","","","","","","","","","","","","","","","","","","","","","","","","","","","","","feedback_test","","","","","","","","","","","",""
"903","","j","psychophysics","45","226746","0.0-7.0-0.0-1.0-0.0-0.18","4","3","4","4","3","4","3","4","3","4","4","4","1","4","5","5","4","5","4","4","2","1","1","2","2","1","1","2","1","1","0","1","1","0","0","0","1","0","1","1","0","1","0","1","4","2","5","1","2","1","3","5","4","5","3","733820079237763073","潘","415","","","","match","","","","","","","","","","","","","","key","j","13.33591549295783","960","536","j","true","match","img/diamond.png","菱形","菱形","ALT1_1","prac_ALT1_1","","","","","","","","","","","",""
"null","<span style='color:GreenYellow; font-size: 70px;'>正确! </span>","null","html-keyboard-response","46","227247","0.0-7.0-0.0-1.0-0.0-1.18","4","3","4","4","3","4","3","4","3","4","4","4","1","4","5","5","4","5","4","4","2","1","1","2","2","1","1","2","1","1","0","1","1","0","0","0","1","0","1","1","0","1","0","1","4","2","5","1","2","1","3","5","4","5","3","733820079237763073","潘","415","","","","","","","","","","","","","","","","","","","","","","","","","","","","","","feedback_test","","","","","","","","","","","",""
"968","","j","psychophysics","47","229217","0.0-7.0-0.0-1.0-0.0-0.19","4","3","4","4","3","4","3","4","3","4","4","4","1","4","5","5","4","5","4","4","2","1","1","2","2","1","1","2","1","1","0","1","1","0","0","0","1","0","1","1","0","1","0","1","4","2","5","1","2","1","3","5","4","5","3","733820079237763073","潘","415","","","","match","","","","","","","","","","","","","","key","j","13.334931506849275","960","536","j","true","match","img/trapezoid.png","梯形","梯形","ALT1_1","prac_ALT1_1","","","","","","","","","","","",""
"null","<span style='color:GreenYellow; font-size: 70px;'>正确! </span>","null","html-keyboard-response","48","229718","0.0-7.0-0.0-1.0-0.0-1.19","4","3","4","4","3","4","3","4","3","4","4","4","1","4","5","5","4","5","4","4","2","1","1","2","2","1","1","2","1","1","0","1","1","0","0","0","1","0","1","1","0","1","0","1","4","2","5","1","2","1","3","5","4","5","3","733820079237763073","潘","415","","","","","","","","","","","","","","","","","","","","","","","","","","","","","","feedback_test","","","","","","","","","","","",""
"948","","j","psychophysics","49","231667","0.0-7.0-0.0-1.0-0.0-0.20","4","3","4","4","3","4","3","4","3","4","4","4","1","4","5","5","4","5","4","4","2","1","1","2","2","1","1","2","1","1","0","1","1","0","0","0","1","0","1","1","0","1","0","1","4","2","5","1","2","1","3","5","4","5","3","733820079237763073","潘","415","","","","match","","","","","","","","","","","","","","key","j","13.335172413793144","960","536","j","true","match","img/circle.png","圆形","圆形","ALT1_1","prac_ALT1_1","","","","","","","","","","","",""
"null","<span style='color:GreenYellow; font-size: 70px;'>正确! </span>","null","html-keyboard-response","50","232168","0.0-7.0-0.0-1.0-0.0-1.20","4","3","4","4","3","4","3","4","3","4","4","4","1","4","5","5","4","5","4","4","2","1","1","2","2","1","1","2","1","1","0","1","1","0","0","0","1","0","1","1","0","1","0","1","4","2","5","1","2","1","3","5","4","5","3","733820079237763073","潘","415","","","","","","","","","","","","","","","","","","","","","","","","","","","","","","feedback_test","","","","","","","","","","","",""
"936","","f","psychophysics","51","234105","0.0-7.0-0.0-1.0-0.0-0.21","4","3","4","4","3","4","3","4","3","4","4","4","1","4","5","5","4","5","4","4","2","1","1","2","2","1","1","2","1","1","0","1","1","0","0","0","1","0","1","1","0","1","0","1","4","2","5","1","2","1","3","5","4","5","3","733820079237763073","潘","415","","","","nonmatch","","","","","","","","","","","","","","key","f","13.334722222222304","960","536","f","true","nonmatch","img/diamond.png","圆形","菱形","ALT1_1","prac_ALT1_1","","","","","","","","","","","",""
"null","<span style='color:GreenYellow; font-size: 70px;'>正确! </span>","null","html-keyboard-response","52","234606","0.0-7.0-0.0-1.0-0.0-1.21","4","3","4","4","3","4","3","4","3","4","4","4","1","4","5","5","4","5","4","4","2","1","1","2","2","1","1","2","1","1","0","1","1","0","0","0","1","0","1","1","0","1","0","1","4","2","5","1","2","1","3","5","4","5","3","733820079237763073","潘","415","","","","","","","","","","","","","","","","","","","","","","","","","","","","","","feedback_test","","","","","","","","","","","",""
"1012","","f","psychophysics","53","236620","0.0-7.0-0.0-1.0-0.0-0.22","4","3","4","4","3","4","3","4","3","4","4","4","1","4","5","5","4","5","4","4","2","1","1","2","2","1","1","2","1","1","0","1","1","0","0","0","1","0","1","1","0","1","0","1","4","2","5","1","2","1","3","5","4","5","3","733820079237763073","潘","415","","","","nonmatch","","","","","","","","","","","","","","key","f","13.329530201342125","960","536","f","true","nonmatch","img/circle.png","梯形","圆形","ALT1_1","prac_ALT1_1","","","","","","","","","","","",""
"null","<span style='color:GreenYellow; font-size: 70px;'>正确! </span>","null","html-keyboard-response","54","237121","0.0-7.0-0.0-1.0-0.0-1.22","4","3","4","4","3","4","3","4","3","4","4","4","1","4","5","5","4","5","4","4","2","1","1","2","2","1","1","2","1","1","0","1","1","0","0","0","1","0","1","1","0","1","0","1","4","2","5","1","2","1","3","5","4","5","3","733820079237763073","潘","415","","","","","","","","","","","","","","","","","","","","","","","","","","","","","","feedback_test","","","","","","","","","","","",""
"1027","","j","psychophysics","55","239149","0.0-7.0-0.0-1.0-0.0-0.23","4","3","4","4","3","4","3","4","3","4","4","4","1","4","5","5","4","5","4","4","2","1","1","2","2","1","1","2","1","1","0","1","1","0","0","0","1","0","1","1","0","1","0","1","4","2","5","1","2","1","3","5","4","5","3","733820079237763073","潘","415","","","","match","","","","","","","","","","","","","","key","j","13.335099337748384","960","536","j","true","match","img/trapezoid.png","梯形","梯形","ALT1_1","prac_ALT1_1","","","","","","","","","","","",""
"null","<span style='color:GreenYellow; font-size: 70px;'>正确! </span>","null","html-keyboard-response","56","239650","0.0-7.0-0.0-1.0-0.0-1.23","4","3","4","4","3","4","3","4","3","4","4","4","1","4","5","5","4","5","4","4","2","1","1","2","2","1","1","2","1","1","0","1","1","0","0","0","1","0","1","1","0","1","0","1","4","2","5","1","2","1","3","5","4","5","3","733820079237763073","潘","415","","","","","","","","","","","","","","","","","","","","","","","","","","","","","","feedback_test","","","","","","","","","","","",""
"1068","","j","psychophysics","57","241719","0.0-7.0-0.0-1.0-0.0-0.24","4","3","4","4","3","4","3","4","3","4","4","4","1","4","5","5","4","5","4","4","2","1","1","2","2","1","1","2","1","1","0","1","1","0","0","0","1","0","1","1","0","1","0","1","4","2","5","1","2","1","3","5","4","5","3","733820079237763073","潘","415","","","","match","","","","","","","","","","","","","","key","j","13.335714285714172","960","536","j","true","match","img/hexagon.png","六边","六边","ALT1_1","prac_ALT1_1","","","","","","","","","","","",""
"null","<span style='color:GreenYellow; font-size: 70px;'>正确! </span>","null","html-keyboard-response","58","242220","0.0-7.0-0.0-1.0-0.0-1.24","4","3","4","4","3","4","3","4","3","4","4","4","1","4","5","5","4","5","4","4","2","1","1","2","2","1","1","2","1","1","0","1","1","0","0","0","1","0","1","1","0","1","0","1","4","2","5","1","2","1","3","5","4","5","3","733820079237763073","潘","415","","","","","","","","","","","","","","","","","","","","","","","","","","","","","","feedback_test","","","","","","","","","","","",""
"876","","j","psychophysics","59","244097","0.0-7.0-0.0-1.0-0.0-0.25","4","3","4","4","3","4","3","4","3","4","4","4","1","4","5","5","4","5","4","4","2","1","1","2","2","1","1","2","1","1","0","1","1","0","0","0","1","0","1","1","0","1","0","1","4","2","5","1","2","1","3","5","4","5","3","733820079237763073","潘","415","","","","match","","","","","","","","","","","","","","key","j","13.324460431654717","960","536","j","true","match","img/circle.png","圆形","圆形","ALT1_1","prac_ALT1_1","","","","","","","","","","","",""
"null","<span style='color:GreenYellow; font-size: 70px;'>正确! </span>","null","html-keyboard-response","60","244598","0.0-7.0-0.0-1.0-0.0-1.25","4","3","4","4","3","4","3","4","3","4","4","4","1","4","5","5","4","5","4","4","2","1","1","2","2","1","1","2","1","1","0","1","1","0","0","0","1","0","1","1","0","1","0","1","4","2","5","1","2","1","3","5","4","5","3","733820079237763073","潘","415","","","","","","","","","","","","","","","","","","","","","","","","","","","","","","feedback_test","","","","","","","","","","","",""
"898","","f","psychophysics","61","246497","0.0-7.0-0.0-1.0-0.0-0.26","4","3","4","4","3","4","3","4","3","4","4","4","1","4","5","5","4","5","4","4","2","1","1","2","2","1","1","2","1","1","0","1","1","0","0","0","1","0","1","1","0","1","0","1","4","2","5","1","2","1","3","5","4","5","3","733820079237763073","潘","415","","","","nonmatch","","","","","","","","","","","","","","key","f","13.335460992907718","960","536","f","true","nonmatch","img/trapezoid.png","圆形","梯形","ALT1_1","prac_ALT1_1","","","","","","","","","","","",""
"null","<span style='color:GreenYellow; font-size: 70px;'>正确! </span>","null","html-keyboard-response","62","246998","0.0-7.0-0.0-1.0-0.0-1.26","4","3","4","4","3","4","3","4","3","4","4","4","1","4","5","5","4","5","4","4","2","1","1","2","2","1","1","2","1","1","0","1","1","0","0","0","1","0","1","1","0","1","0","1","4","2","5","1","2","1","3","5","4","5","3","733820079237763073","潘","415","","","","","","","","","","","","","","","","","","","","","","","","","","","","","","feedback_test","","","","","","","","","","","",""
"958","","j","psychophysics","63","248957","0.0-7.0-0.0-1.0-0.0-0.27","4","3","4","4","3","4","3","4","3","4","4","4","1","4","5","5","4","5","4","4","2","1","1","2","2","1","1","2","1","1","0","1","1","0","0","0","1","0","1","1","0","1","0","1","4","2","5","1","2","1","3","5","4","5","3","733820079237763073","潘","415","","","","match","","","","","","","","","","","","","","key","j","13.334931506849275","960","536","j","true","match","img/circle.png","圆形","圆形","ALT1_1","prac_ALT1_1","","","","","","","","","","","",""
"null","<span style='color:GreenYellow; font-size: 70px;'>正确! </span>","null","html-keyboard-response","64","249457","0.0-7.0-0.0-1.0-0.0-1.27","4","3","4","4","3","4","3","4","3","4","4","4","1","4","5","5","4","5","4","4","2","1","1","2","2","1","1","2","1","1","0","1","1","0","0","0","1","0","1","1","0","1","0","1","4","2","5","1","2","1","3","5","4","5","3","733820079237763073","潘","415","","","","","","","","","","","","","","","","","","","","","","","","","","","","","","feedback_test","","","","","","","","","","","",""
"null","","null","psychophysics","65","251659","0.0-7.0-0.0-1.0-0.0-0.28","4","3","4","4","3","4","3","4","3","4","4","4","1","4","5","5","4","5","4","4","2","1","1","2","2","1","1","2","1","1","0","1","1","0","0","0","1","0","1","1","0","1","0","1","4","2","5","1","2","1","3","5","4","5","3","733820079237763073","潘","415","","","","null","","","","","","","","","","","","","","key","null","13.335975609755955","960","536","f","false","nonmatch","img/hexagon.png","菱形","六边","ALT1_1","prac_ALT1_1","","","","","","","","","","","",""
"null","<span class='add_' style='color:yellow; font-size: 70px;'> 太慢! </span>","null","html-keyboard-response","66","252161","0.0-7.0-0.0-1.0-0.0-1.28","4","3","4","4","3","4","3","4","3","4","4","4","1","4","5","5","4","5","4","4","2","1","1","2","2","1","1","2","1","1","0","1","1","0","0","0","1","0","1","1","0","1","0","1","4","2","5","1","2","1","3","5","4","5","3","733820079237763073","潘","415","","","","","","","","","","","","","","","","","","","","","","","","","","","","","","feedback_test","","","","","","","","","","","",""
"852","","j","psychophysics","67","254014","0.0-7.0-0.0-1.0-0.0-0.29","4","3","4","4","3","4","3","4","3","4","4","4","1","4","5","5","4","5","4","4","2","1","1","2","2","1","1","2","1","1","0","1","1","0","0","0","1","0","1","1","0","1","0","1","4","2","5","1","2","1","3","5","4","5","3","733820079237763073","潘","415","","","","match","","","","","","","","","","","","","","key","j","13.336231884057929","960","536","f","false","nonmatch","img/diamond.png","六边","菱形","ALT1_1","prac_ALT1_1","","","","","","","","","","","",""
"null","<span style='color:red; font-size: 70px;'>错误! </span>","null","html-keyboard-response","68","254516","0.0-7.0-0.0-1.0-0.0-1.29","4","3","4","4","3","4","3","4","3","4","4","4","1","4","5","5","4","5","4","4","2","1","1","2","2","1","1","2","1","1","0","1","1","0","0","0","1","0","1","1","0","1","0","1","4","2","5","1","2","1","3","5","4","5","3","733820079237763073","潘","415","","","","","","","","","","","","","","","","","","","","","","","","","","","","","","feedback_test","","","","","","","","","","","",""
"848","","j","psychophysics","69","256365","0.0-7.0-0.0-1.0-0.0-0.30","4","3","4","4","3","4","3","4","3","4","4","4","1","4","5","5","4","5","4","4","2","1","1","2","2","1","1","2","1","1","0","1","1","0","0","0","1","0","1","1","0","1","0","1","4","2","5","1","2","1","3","5","4","5","3","733820079237763073","潘","415","","","","match","","","","","","","","","","","","","","key","j","13.335507246376938","960","536","j","true","match","img/diamond.png","菱形","菱形","ALT1_1","prac_ALT1_1","","","","","","","","","","","",""
"null","<span style='color:GreenYellow; font-size: 70px;'>正确! </span>","null","html-keyboard-response","70","256866","0.0-7.0-0.0-1.0-0.0-1.30","4","3","4","4","3","4","3","4","3","4","4","4","1","4","5","5","4","5","4","4","2","1","1","2","2","1","1","2","1","1","0","1","1","0","0","0","1","0","1","1","0","1","0","1","4","2","5","1","2","1","3","5","4","5","3","733820079237763073","潘","415","","","","","","","","","","","","","","","","","","","","","","","","","","","","","","feedback_test","","","","","","","","","","","",""
"900","","f","psychophysics","71","258768","0.0-7.0-0.0-1.0-0.0-0.31","4","3","4","4","3","4","3","4","3","4","4","4","1","4","5","5","4","5","4","4","2","1","1","2","2","1","1","2","1","1","0","1","1","0","0","0","1","0","1","1","0","1","0","1","4","2","5","1","2","1","3","5","4","5","3","733820079237763073","潘","415","","","","nonmatch","","","","","","","","","","","","","","key","f","13.335460992907718","960","536","f","true","nonmatch","img/circle.png","菱形","圆形","ALT1_1","prac_ALT1_1","","","","","","","","","","","",""
"null","<span style='color:GreenYellow; font-size: 70px;'>正确! </span>","null","html-keyboard-response","72","259272","0.0-7.0-0.0-1.0-0.0-1.31","4","3","4","4","3","4","3","4","3","4","4","4","1","4","5","5","4","5","4","4","2","1","1","2","2","1","1","2","1","1","0","1","1","0","0","0","1","0","1","1","0","1","0","1","4","2","5","1","2","1","3","5","4","5","3","733820079237763073","潘","415","","","","","","","","","","","","","","","","","","","","","","","","","","","","","","feedback_test","","","","","","","","","","","",""
"833","","f","psychophysics","73","261106","0.0-7.0-0.0-1.0-0.0-0.32","4","3","4","4","3","4","3","4","3","4","4","4","1","4","5","5","4","5","4","4","2","1","1","2","2","1","1","2","1","1","0","1","1","0","0","0","1","0","1","1","0","1","0","1","4","2","5","1","2","1","3","5","4","5","3","733820079237763073","潘","415","","","","nonmatch","","","","","","","","","","","","","","key","f","13.335766423357665","960","536","f","true","nonmatch","img/circle.png","梯形","圆形","ALT1_1","prac_ALT1_1","","","","","","","","","","","",""
"null","<span style='color:GreenYellow; font-size: 70px;'>正确! </span>","null","html-keyboard-response","74","261608","0.0-7.0-0.0-1.0-0.0-1.32","4","3","4","4","3","4","3","4","3","4","4","4","1","4","5","5","4","5","4","4","2","1","1","2","2","1","1","2","1","1","0","1","1","0","0","0","1","0","1","1","0","1","0","1","4","2","5","1","2","1","3","5","4","5","3","733820079237763073","潘","415","","","","","","","","","","","","","","","","","","","","","","","","","","","","","","feedback_test","","","","","","","","","","","",""
"831","","j","psychophysics","75","263440","0.0-7.0-0.0-1.0-0.0-0.33","4","3","4","4","3","4","3","4","3","4","4","4","1","4","5","5","4","5","4","4","2","1","1","2","2","1","1","2","1","1","0","1","1","0","0","0","1","0","1","1","0","1","0","1","4","2","5","1","2","1","3","5","4","5","3","733820079237763073","潘","415","","","","match","","","","","","","","","","","","","","key","j","13.335766423357665","960","536","f","false","nonmatch","img/diamond.png","圆形","菱形","ALT1_1","prac_ALT1_1","","","","","","","","","","","",""
"null","<span style='color:red; font-size: 70px;'>错误! </span>","null","html-keyboard-response","76","263940","0.0-7.0-0.0-1.0-0.0-1.33","4","3","4","4","3","4","3","4","3","4","4","4","1","4","5","5","4","5","4","4","2","1","1","2","2","1","1","2","1","1","0","1","1","0","0","0","1","0","1","1","0","1","0","1","4","2","5","1","2","1","3","5","4","5","3","733820079237763073","潘","415","","","","","","","","","","","","","","","","","","","","","","","","","","","","","","feedback_test","","","","","","","","","","","",""
"793","","j","psychophysics","77","265735","0.0-7.0-0.0-1.0-0.0-0.34","4","3","4","4","3","4","3","4","3","4","4","4","1","4","5","5","4","5","4","4","2","1","1","2","2","1","1","2","1","1","0","1","1","0","0","0","1","0","1","1","0","1","0","1","4","2","5","1","2","1","3","5","4","5","3","733820079237763073","潘","415","","","","match","","","","","","","","","","","","","","key","j","13.335820895522389","960","536","j","true","match","img/circle.png","圆形","圆形","ALT1_1","prac_ALT1_1","","","","","","","","","","","",""
"null","<span style='color:GreenYellow; font-size: 70px;'>正确! </span>","null","html-keyboard-response","78","266236","0.0-7.0-0.0-1.0-0.0-1.34","4","3","4","4","3","4","3","4","3","4","4","4","1","4","5","5","4","5","4","4","2","1","1","2","2","1","1","2","1","1","0","1","1","0","0","0","1","0","1","1","0","1","0","1","4","2","5","1","2","1","3","5","4","5","3","733820079237763073","潘","415","","","","","","","","","","","","","","","","","","","","","","","","","","","","","","feedback_test","","","","","","","","","","","",""
"1085","","f","psychophysics","79","268322","0.0-7.0-0.0-1.0-0.0-0.35","4","3","4","4","3","4","3","4","3","4","4","4","1","4","5","5","4","5","4","4","2","1","1","2","2","1","1","2","1","1","0","1","1","0","0","0","1","0","1","1","0","1","0","1","4","2","5","1","2","1","3","5","4","5","3","733820079237763073","潘","415","","","","nonmatch","","","","","","","","","","","","","","key","f","13.335256410256335","960","536","j","false","match","img/hexagon.png","六边","六边","ALT1_1","prac_ALT1_1","","","","","","","","","","","",""
"null","<span style='color:red; font-size: 70px;'>错误! </span>","null","html-keyboard-response","80","268823","0.0-7.0-0.0-1.0-0.0-1.35","4","3","4","4","3","4","3","4","3","4","4","4","1","4","5","5","4","5","4","4","2","1","1","2","2","1","1","2","1","1","0","1","1","0","0","0","1","0","1","1","0","1","0","1","4","2","5","1","2","1","3","5","4","5","3","733820079237763073","潘","415","","","","","","","","","","","","","","","","","","","","","","","","","","","","","","feedback_test","","","","","","","","","","","",""
"837","","j","psychophysics","81","270661","0.0-7.0-0.0-1.0-0.0-0.36","4","3","4","4","3","4","3","4","3","4","4","4","1","4","5","5","4","5","4","4","2","1","1","2","2","1","1","2","1","1","0","1","1","0","0","0","1","0","1","1","0","1","0","1","4","2","5","1","2","1","3","5","4","5","3","733820079237763073","潘","415","","","","match","","","","","","","","","","","","","","key","j","13.335766423357665","960","536","j","true","match","img/diamond.png","菱形","菱形","ALT1_1","prac_ALT1_1","","","","","","","","","","","",""
"null","<span style='color:GreenYellow; font-size: 70px;'>正确! </span>","null","html-keyboard-response","82","271161","0.0-7.0-0.0-1.0-0.0-1.36","4","3","4","4","3","4","3","4","3","4","4","4","1","4","5","5","4","5","4","4","2","1","1","2","2","1","1","2","1","1","0","1","1","0","0","0","1","0","1","1","0","1","0","1","4","2","5","1","2","1","3","5","4","5","3","733820079237763073","潘","415","","","","","","","","","","","","","","","","","","","","","","","","","","","","","","feedback_test","","","","","","","","","","","",""
"873","","j","psychophysics","83","273035","0.0-7.0-0.0-1.0-0.0-0.37","4","3","4","4","3","4","3","4","3","4","4","4","1","4","5","5","4","5","4","4","2","1","1","2","2","1","1","2","1","1","0","1","1","0","0","0","1","0","1","1","0","1","0","1","4","2","5","1","2","1","3","5","4","5","3","733820079237763073","潘","415","","","","match","","","","","","","","","","","","","","key","j","13.335251798561403","960","536","j","true","match","img/diamond.png","菱形","菱形","ALT1_1","prac_ALT1_1","","","","","","","","","","","",""
"null","<span style='color:GreenYellow; font-size: 70px;'>正确! </span>","null","html-keyboard-response","84","273537","0.0-7.0-0.0-1.0-0.0-1.37","4","3","4","4","3","4","3","4","3","4","4","4","1","4","5","5","4","5","4","4","2","1","1","2","2","1","1","2","1","1","0","1","1","0","0","0","1","0","1","1","0","1","0","1","4","2","5","1","2","1","3","5","4","5","3","733820079237763073","潘","415","","","","","","","","","","","","","","","","","","","","","","","","","","","","","","feedback_test","","","","","","","","","","","",""
"975","","f","psychophysics","85","275512","0.0-7.0-0.0-1.0-0.0-0.38","4","3","4","4","3","4","3","4","3","4","4","4","1","4","5","5","4","5","4","4","2","1","1","2","2","1","1","2","1","1","0","1","1","0","0","0","1","0","1","1","0","1","0","1","4","2","5","1","2","1","3","5","4","5","3","733820079237763073","潘","415","","","","nonmatch","","","","","","","","","","","","","","key","f","13.335374149659785","960","536","f","true","nonmatch","img/hexagon.png","圆形","六边","ALT1_1","prac_ALT1_1","","","","","","","","","","","",""
"null","<span style='color:GreenYellow; font-size: 70px;'>正确! </span>","null","html-keyboard-response","86","276013","0.0-7.0-0.0-1.0-0.0-1.38","4","3","4","4","3","4","3","4","3","4","4","4","1","4","5","5","4","5","4","4","2","1","1","2","2","1","1","2","1","1","0","1","1","0","0","0","1","0","1","1","0","1","0","1","4","2","5","1","2","1","3","5","4","5","3","733820079237763073","潘","415","","","","","","","","","","","","","","","","","","","","","","","","","","","","","","feedback_test","","","","","","","","","","","",""
"956","","f","psychophysics","87","277970","0.0-7.0-0.0-1.0-0.0-0.39","4","3","4","4","3","4","3","4","3","4","4","4","1","4","5","5","4","5","4","4","2","1","1","2","2","1","1","2","1","1","0","1","1","0","0","0","1","0","1","1","0","1","0","1","4","2","5","1","2","1","3","5","4","5","3","733820079237763073","潘","415","","","","nonmatch","","","","","","","","","","","","","","key","f","13.328965517241459","960","536","f","true","nonmatch","img/hexagon.png","梯形","六边","ALT1_1","prac_ALT1_1","","","","","","","","","","","",""
"null","<span style='color:GreenYellow; font-size: 70px;'>正确! </span>","null","html-keyboard-response","88","278471","0.0-7.0-0.0-1.0-0.0-1.39","4","3","4","4","3","4","3","4","3","4","4","4","1","4","5","5","4","5","4","4","2","1","1","2","2","1","1","2","1","1","0","1","1","0","0","0","1","0","1","1","0","1","0","1","4","2","5","1","2","1","3","5","4","5","3","733820079237763073","潘","415","","","","","","","","","","","","","","","","","","","","","","","","","","","","","","feedback_test","","","","","","","","","","","",""
"979","","j","psychophysics","89","280452","0.0-7.0-0.0-1.0-0.0-0.40","4","3","4","4","3","4","3","4","3","4","4","4","1","4","5","5","4","5","4","4","2","1","1","2","2","1","1","2","1","1","0","1","1","0","0","0","1","0","1","1","0","1","0","1","4","2","5","1","2","1","3","5","4","5","3","733820079237763073","潘","415","","","","match","","","","","","","","","","","","","","key","j","13.335374149660181","960","536","j","true","match","img/trapezoid.png","梯形","梯形","ALT1_1","prac_ALT1_1","","","","","","","","","","","",""
"null","<span style='color:GreenYellow; font-size: 70px;'>正确! </span>","null","html-keyboard-response","90","280953","0.0-7.0-0.0-1.0-0.0-1.40","4","3","4","4","3","4","3","4","3","4","4","4","1","4","5","5","4","5","4","4","2","1","1","2","2","1","1","2","1","1","0","1","1","0","0","0","1","0","1","1","0","1","0","1","4","2","5","1","2","1","3","5","4","5","3","733820079237763073","潘","415","","","","","","","","","","","","","","","","","","","","","","","","","","","","","","feedback_test","","","","","","","","","","","",""
"722","","f","psychophysics","91","282676","0.0-7.0-0.0-1.0-0.0-0.41","4","3","4","4","3","4","3","4","3","4","4","4","1","4","5","5","4","5","4","4","2","1","1","2","2","1","1","2","1","1","0","1","1","0","0","0","1","0","1","1","0","1","0","1","4","2","5","1","2","1","3","5","4","5","3","733820079237763073","潘","415","","","","nonmatch","","","","","","","","","","","","","","key","f","13.335156250000182","960","536","f","true","nonmatch","img/circle.png","六边","圆形","ALT1_1","prac_ALT1_1","","","","","","","","","","","",""
"null","<span style='color:GreenYellow; font-size: 70px;'>正确! </span>","null","html-keyboard-response","92","283176","0.0-7.0-0.0-1.0-0.0-1.41","4","3","4","4","3","4","3","4","3","4","4","4","1","4","5","5","4","5","4","4","2","1","1","2","2","1","1","2","1","1","0","1","1","0","0","0","1","0","1","1","0","1","0","1","4","2","5","1","2","1","3","5","4","5","3","733820079237763073","潘","415","","","","","","","","","","","","","","","","","","","","","","","","","","","","","","feedback_test","","","","","","","","","","","",""
"1033","","f","psychophysics","93","285210","0.0-7.0-0.0-1.0-0.0-0.42","4","3","4","4","3","4","3","4","3","4","4","4","1","4","5","5","4","5","4","4","2","1","1","2","2","1","1","2","1","1","0","1","1","0","0","0","1","0","1","1","0","1","0","1","4","2","5","1","2","1","3","5","4","5","3","733820079237763073","潘","415","","","","nonmatch","","","","","","","","","","","","","","key","f","13.33576158940405","960","536","f","true","nonmatch","img/trapezoid.png","六边","梯形","ALT1_1","prac_ALT1_1","","","","","","","","","","","",""
"null","<span style='color:GreenYellow; font-size: 70px;'>正确! </span>","null","html-keyboard-response","94","285711","0.0-7.0-0.0-1.0-0.0-1.42","4","3","4","4","3","4","3","4","3","4","4","4","1","4","5","5","4","5","4","4","2","1","1","2","2","1","1","2","1","1","0","1","1","0","0","0","1","0","1","1","0","1","0","1","4","2","5","1","2","1","3","5","4","5","3","733820079237763073","潘","415","","","","","","","","","","","","","","","","","","","","","","","","","","","","","","feedback_test","","","","","","","","","","","",""
"865","","j","psychophysics","95","287577","0.0-7.0-0.0-1.0-0.0-0.43","4","3","4","4","3","4","3","4","3","4","4","4","1","4","5","5","4","5","4","4","2","1","1","2","2","1","1","2","1","1","0","1","1","0","0","0","1","0","1","1","0","1","0","1","4","2","5","1","2","1","3","5","4","5","3","733820079237763073","潘","415","","","","match","","","","","","","","","","","","","","key","j","13.335251798561403","960","536","j","true","match","img/hexagon.png","六边","六边","ALT1_1","prac_ALT1_1","","","","","","","","","","","",""
"null","<span style='color:GreenYellow; font-size: 70px;'>正确! </span>","null","html-keyboard-response","96","288078","0.0-7.0-0.0-1.0-0.0-1.43","4","3","4","4","3","4","3","4","3","4","4","4","1","4","5","5","4","5","4","4","2","1","1","2","2","1","1","2","1","1","0","1","1","0","0","0","1","0","1","1","0","1","0","1","4","2","5","1","2","1","3","5","4","5","3","733820079237763073","潘","415","","","","","","","","","","","","","","","","","","","","","","","","","","","","","","feedback_test","","","","","","","","","","","",""
"1116","","j","psychophysics","97","290194","0.0-7.0-0.0-1.0-0.0-0.44","4","3","4","4","3","4","3","4","3","4","4","4","1","4","5","5","4","5","4","4","2","1","1","2","2","1","1","2","1","1","0","1","1","0","0","0","1","0","1","1","0","1","0","1","4","2","5","1","2","1","3","5","4","5","3","733820079237763073","潘","415","","","","match","","","","","","","","","","","","","","key","j","13.335443037974683","960","536","f","false","nonmatch","img/trapezoid.png","菱形","梯形","ALT1_1","prac_ALT1_1","","","","","","","","","","","",""
"null","<span style='color:red; font-size: 70px;'>错误! </span>","null","html-keyboard-response","98","290695","0.0-7.0-0.0-1.0-0.0-1.44","4","3","4","4","3","4","3","4","3","4","4","4","1","4","5","5","4","5","4","4","2","1","1","2","2","1","1","2","1","1","0","1","1","0","0","0","1","0","1","1","0","1","0","1","4","2","5","1","2","1","3","5","4","5","3","733820079237763073","潘","415","","","","","","","","","","","","","","","","","","","","","","","","","","","","","","feedback_test","","","","","","","","","","","",""
"862","","j","psychophysics","99","292558","0.0-7.0-0.0-1.0-0.0-0.45","4","3","4","4","3","4","3","4","3","4","4","4","1","4","5","5","4","5","4","4","2","1","1","2","2","1","1","2","1","1","0","1","1","0","0","0","1","0","1","1","0","1","0","1","4","2","5","1","2","1","3","5","4","5","3","733820079237763073","潘","415","","","","match","","","","","","","","","","","","","","key","j","13.329710144927537","960","536","j","true","match","img/trapezoid.png","梯形","梯形","ALT1_1","prac_ALT1_1","","","","","","","","","","","",""
"null","<span style='color:GreenYellow; font-size: 70px;'>正确! </span>","null","html-keyboard-response","100","293059","0.0-7.0-0.0-1.0-0.0-1.45","4","3","4","4","3","4","3","4","3","4","4","4","1","4","5","5","4","5","4","4","2","1","1","2","2","1","1","2","1","1","0","1","1","0","0","0","1","0","1","1","0","1","0","1","4","2","5","1","2","1","3","5","4","5","3","733820079237763073","潘","415","","","","","","","","","","","","","","","","","","","","","","","","","","","","","","feedback_test","","","","","","","","","","","",""
"989","","f","psychophysics","101","295049","0.0-7.0-0.0-1.0-0.0-0.46","4","3","4","4","3","4","3","4","3","4","4","4","1","4","5","5","4","5","4","4","2","1","1","2","2","1","1","2","1","1","0","1","1","0","0","0","1","0","1","1","0","1","0","1","4","2","5","1","2","1","3","5","4","5","3","733820079237763073","潘","415","","","","nonmatch","","","","","","","","","","","","","","key","f","13.33513513513537","960","536","f","true","nonmatch","img/diamond.png","梯形","菱形","ALT1_1","prac_ALT1_1","","","","","","","","","","","",""
"null","<span style='color:GreenYellow; font-size: 70px;'>正确! </span>","null","html-keyboard-response","102","295549","0.0-7.0-0.0-1.0-0.0-1.46","4","3","4","4","3","4","3","4","3","4","4","4","1","4","5","5","4","5","4","4","2","1","1","2","2","1","1","2","1","1","0","1","1","0","0","0","1","0","1","1","0","1","0","1","4","2","5","1","2","1","3","5","4","5","3","733820079237763073","潘","415","","","","","","","","","","","","","","","","","","","","","","","","","","","","","","feedback_test","","","","","","","","","","","",""
"1016","","j","psychophysics","103","297567","0.0-7.0-0.0-1.0-0.0-0.47","4","3","4","4","3","4","3","4","3","4","4","4","1","4","5","5","4","5","4","4","2","1","1","2","2","1","1","2","1","1","0","1","1","0","0","0","1","0","1","1","0","1","0","1","4","2","5","1","2","1","3","5","4","5","3","733820079237763073","潘","415","","","","match","","","","","","","","","","","","","","key","j","13.328666666666589","960","536","j","true","match","img/trapezoid.png","梯形","梯形","ALT1_1","prac_ALT1_1","","","","","","","","","","","",""
"null","<span style='color:GreenYellow; font-size: 70px;'>正确! </span>","null","html-keyboard-response","104","298067","0.0-7.0-0.0-1.0-0.0-1.47","4","3","4","4","3","4","3","4","3","4","4","4","1","4","5","5","4","5","4","4","2","1","1","2","2","1","1","2","1","1","0","1","1","0","0","0","1","0","1","1","0","1","0","1","4","2","5","1","2","1","3","5","4","5","3","733820079237763073","潘","415","","","","","","","","","","","","","","","","","","","","","","","","","","","","","","feedback_test","","","","","","","","","","","",""
"49072","<style>.context{color:white; font-size: 35px; line-height:40px}</style>                            <div><p class='context'>您正确回答了81% 的试次。</p><p class='context'>您的平均反应时为930毫秒。</p><p class='context'>恭喜您完成练习。按空格键进入正式实验。</p><p class='footer' style='font-size: 35px; line-height:40px;'>请在进入正式实验之前将您的<span style='color: lightgreen;'>食指</span>放在电脑键盘的相应键位上进行按键。</p>"," ","html-keyboard-response","105","347140","0.0-7.0-0.0-2.0","4","3","4","4","3","4","3","4","3","4","4","4","1","4","5","5","4","5","4","4","2","1","1","2","2","1","1","2","1","1","0","1","1","0","0","0","1","0","1","1","0","1","0","1","4","2","5","1","2","1","3","5","4","5","3","733820079237763073","潘","415","","","","","","","","","","","","","","","","","","","","","","","","","","","","","","","","","","","","","","","","","",""
"2967","
    <p style='color: white; font-size: 22px'>请您将手指放在按键上，准备进入正式的匹配任务。</p>
    <p> <div style = ""color: green""><按空格键进入下一阶段的匹配任务></div></p>
    "," ","html-keyboard-response","106","350109","0.0-7.0-0.0-3.0","4","3","4","4","3","4","3","4","3","4","4","4","1","4","5","5","4","5","4","4","2","1","1","2","2","1","1","2","1","1","0","1","1","0","0","0","1","0","1","1","0","1","0","1","4","2","5","1","2","1","3","5","4","5","3","733820079237763073","潘","415","","","","","","","","","","","","","","","","","","","","","","","","","","","","","","","","","","","","","","","","","",""
"1036","","f","psychophysics","107","352146","0.0-7.0-0.0-4.0-0.0-0.0","4","3","4","4","3","4","3","4","3","4","4","4","1","4","5","5","4","5","4","4","2","1","1","2","2","1","1","2","1","1","0","1","1","0","0","0","1","0","1","1","0","1","0","1","4","2","5","1","2","1","3","5","4","5","3","733820079237763073","潘","415","","","","nonmatch","","","","","","","","","","","","","","key","f","13.335526315789474","960","536","f","true","nonmatch","img/diamond.png","梯形","菱形","ALT1","formal_ALT1_1","","","","","","","","","","","",""
"null","<span style='color:GreenYellow; font-size: 70px;'>正确! </span>","null","html-keyboard-response","108","352647","0.0-7.0-0.0-4.0-0.0-1.0","4","3","4","4","3","4","3","4","3","4","4","4","1","4","5","5","4","5","4","4","2","1","1","2","2","1","1","2","1","1","0","1","1","0","0","0","1","0","1","1","0","1","0","1","4","2","5","1","2","1","3","5","4","5","3","733820079237763073","潘","415","","","","","","","","","","","","","","","","","","","","","","","","","","","","","","feedback_test","","","","","","","","","","","",""
"1101","","f","psychophysics","109","354749","0.0-7.0-0.0-4.0-0.0-0.1","4","3","4","4","3","4","3","4","3","4","4","4","1","4","5","5","4","5","4","4","2","1","1","2","2","1","1","2","1","1","0","1","1","0","0","0","1","0","1","1","0","1","0","1","4","2","5","1","2","1","3","5","4","5","3","733820079237763073","潘","415","","","","nonmatch","","","","","","","","","","","","","","key","f","13.335668789808992","960","536","j","false","match","img/diamond.png","菱形","菱形","ALT1","formal_ALT1_1","","","","","","","","","","","",""
"null","<span style='color:red; font-size: 70px;'>错误! </span>","null","html-keyboard-response","110","355251","0.0-7.0-0.0-4.0-0.0-1.1","4","3","4","4","3","4","3","4","3","4","4","4","1","4","5","5","4","5","4","4","2","1","1","2","2","1","1","2","1","1","0","1","1","0","0","0","1","0","1","1","0","1","0","1","4","2","5","1","2","1","3","5","4","5","3","733820079237763073","潘","415","","","","","","","","","","","","","","","","","","","","","","","","","","","","","","feedback_test","","","","","","","","","","","",""
"771","","j","psychophysics","111","357023","0.0-7.0-0.0-4.0-0.0-0.2","4","3","4","4","3","4","3","4","3","4","4","4","1","4","5","5","4","5","4","4","2","1","1","2","2","1","1","2","1","1","0","1","1","0","0","0","1","0","1","1","0","1","0","1","4","2","5","1","2","1","3","5","4","5","3","733820079237763073","潘","415","","","","match","","","","","","","","","","","","","","key","j","13.336363636363371","960","536","j","true","match","img/circle.png","圆形","圆形","ALT1","formal_ALT1_1","","","","","","","","","","","",""
"null","<span style='color:GreenYellow; font-size: 70px;'>正确! </span>","null","html-keyboard-response","112","357524","0.0-7.0-0.0-4.0-0.0-1.2","4","3","4","4","3","4","3","4","3","4","4","4","1","4","5","5","4","5","4","4","2","1","1","2","2","1","1","2","1","1","0","1","1","0","0","0","1","0","1","1","0","1","0","1","4","2","5","1","2","1","3","5","4","5","3","733820079237763073","潘","415","","","","","","","","","","","","","","","","","","","","","","","","","","","","","","feedback_test","","","","","","","","","","","",""
"917","","f","psychophysics","113","359442","0.0-7.0-0.0-4.0-0.0-0.3","4","3","4","4","3","4","3","4","3","4","4","4","1","4","5","5","4","5","4","4","2","1","1","2","2","1","1","2","1","1","0","1","1","0","0","0","1","0","1","1","0","1","0","1","4","2","5","1","2","1","3","5","4","5","3","733820079237763073","潘","415","","","","nonmatch","","","","","","","","","","","","","","key","f","13.335664335664335","960","536","f","true","nonmatch","img/hexagon.png","菱形","六边","ALT1","formal_ALT1_1","","","","","","","","","","","",""
"null","<span style='color:GreenYellow; font-size: 70px;'>正确! </span>","null","html-keyboard-response","114","359943","0.0-7.0-0.0-4.0-0.0-1.3","4","3","4","4","3","4","3","4","3","4","4","4","1","4","5","5","4","5","4","4","2","1","1","2","2","1","1","2","1","1","0","1","1","0","0","0","1","0","1","1","0","1","0","1","4","2","5","1","2","1","3","5","4","5","3","733820079237763073","潘","415","","","","","","","","","","","","","","","","","","","","","","","","","","","","","","feedback_test","","","","","","","","","","","",""
"825","","j","psychophysics","115","361770","0.0-7.0-0.0-4.0-0.0-0.4","4","3","4","4","3","4","3","4","3","4","4","4","1","4","5","5","4","5","4","4","2","1","1","2","2","1","1","2","1","1","0","1","1","0","0","0","1","0","1","1","0","1","0","1","4","2","5","1","2","1","3","5","4","5","3","733820079237763073","潘","415","","","","match","","","","","","","","","","","","","","key","j","13.335294117647315","960","536","j","true","match","img/hexagon.png","六边","六边","ALT1","formal_ALT1_1","","","","","","","","","","","",""
"null","<span style='color:GreenYellow; font-size: 70px;'>正确! </span>","null","html-keyboard-response","116","362271","0.0-7.0-0.0-4.0-0.0-1.4","4","3","4","4","3","4","3","4","3","4","4","4","1","4","5","5","4","5","4","4","2","1","1","2","2","1","1","2","1","1","0","1","1","0","0","0","1","0","1","1","0","1","0","1","4","2","5","1","2","1","3","5","4","5","3","733820079237763073","潘","415","","","","","","","","","","","","","","","","","","","","","","","","","","","","","","feedback_test","","","","","","","","","","","",""
"900","","f","psychophysics","117","364172","0.0-7.0-0.0-4.0-0.0-0.5","4","3","4","4","3","4","3","4","3","4","4","4","1","4","5","5","4","5","4","4","2","1","1","2","2","1","1","2","1","1","0","1","1","0","0","0","1","0","1","1","0","1","0","1","4","2","5","1","2","1","3","5","4","5","3","733820079237763073","潘","415","","","","nonmatch","","","","","","","","","","","","","","key","f","13.334751773049728","960","536","f","true","nonmatch","img/hexagon.png","圆形","六边","ALT1","formal_ALT1_1","","","","","","","","","","","",""
"null","<span style='color:GreenYellow; font-size: 70px;'>正确! </span>","null","html-keyboard-response","118","364673","0.0-7.0-0.0-4.0-0.0-1.5","4","3","4","4","3","4","3","4","3","4","4","4","1","4","5","5","4","5","4","4","2","1","1","2","2","1","1","2","1","1","0","1","1","0","0","0","1","0","1","1","0","1","0","1","4","2","5","1","2","1","3","5","4","5","3","733820079237763073","潘","415","","","","","","","","","","","","","","","","","","","","","","","","","","","","","","feedback_test","","","","","","","","","","","",""
"969","","j","psychophysics","119","366643","0.0-7.0-0.0-4.0-0.0-0.6","4","3","4","4","3","4","3","4","3","4","4","4","1","4","5","5","4","5","4","4","2","1","1","2","2","1","1","2","1","1","0","1","1","0","0","0","1","0","1","1","0","1","0","1","4","2","5","1","2","1","3","5","4","5","3","733820079237763073","潘","415","","","","match","","","","","","","","","","","","","","key","j","13.335374149659785","960","536","f","false","nonmatch","img/diamond.png","六边","菱形","ALT1","formal_ALT1_1","","","","","","","","","","","",""
"null","<span style='color:red; font-size: 70px;'>错误! </span>","null","html-keyboard-response","120","367144","0.0-7.0-0.0-4.0-0.0-1.6","4","3","4","4","3","4","3","4","3","4","4","4","1","4","5","5","4","5","4","4","2","1","1","2","2","1","1","2","1","1","0","1","1","0","0","0","1","0","1","1","0","1","0","1","4","2","5","1","2","1","3","5","4","5","3","733820079237763073","潘","415","","","","","","","","","","","","","","","","","","","","","","","","","","","","","","feedback_test","","","","","","","","","","","",""
"861","","f","psychophysics","121","369007","0.0-7.0-0.0-4.0-0.0-0.7","4","3","4","4","3","4","3","4","3","4","4","4","1","4","5","5","4","5","4","4","2","1","1","2","2","1","1","2","1","1","0","1","1","0","0","0","1","0","1","1","0","1","0","1","4","2","5","1","2","1","3","5","4","5","3","733820079237763073","潘","415","","","","nonmatch","","","","","","","","","","","","","","key","f","13.335251798560984","960","536","f","true","nonmatch","img/circle.png","梯形","圆形","ALT1","formal_ALT1_1","","","","","","","","","","","",""
"null","<span style='color:GreenYellow; font-size: 70px;'>正确! </span>","null","html-keyboard-response","122","369508","0.0-7.0-0.0-4.0-0.0-1.7","4","3","4","4","3","4","3","4","3","4","4","4","1","4","5","5","4","5","4","4","2","1","1","2","2","1","1","2","1","1","0","1","1","0","0","0","1","0","1","1","0","1","0","1","4","2","5","1","2","1","3","5","4","5","3","733820079237763073","潘","415","","","","","","","","","","","","","","","","","","","","","","","","","","","","","","feedback_test","","","","","","","","","","","",""
"1027","","f","psychophysics","123","371536","0.0-7.0-0.0-4.0-0.0-0.8","4","3","4","4","3","4","3","4","3","4","4","4","1","4","5","5","4","5","4","4","2","1","1","2","2","1","1","2","1","1","0","1","1","0","0","0","1","0","1","1","0","1","0","1","4","2","5","1","2","1","3","5","4","5","3","733820079237763073","潘","415","","","","nonmatch","","","","","","","","","","","","","","key","f","13.33509933774819","960","536","f","true","nonmatch","img/diamond.png","圆形","菱形","ALT1","formal_ALT1_1","","","","","","","","","","","",""
"null","<span style='color:GreenYellow; font-size: 70px;'>正确! </span>","null","html-keyboard-response","124","372037","0.0-7.0-0.0-4.0-0.0-1.8","4","3","4","4","3","4","3","4","3","4","4","4","1","4","5","5","4","5","4","4","2","1","1","2","2","1","1","2","1","1","0","1","1","0","0","0","1","0","1","1","0","1","0","1","4","2","5","1","2","1","3","5","4","5","3","733820079237763073","潘","415","","","","","","","","","","","","","","","","","","","","","","","","","","","","","","feedback_test","","","","","","","","","","","",""
"1023","","f","psychophysics","125","374062","0.0-7.0-0.0-4.0-0.0-0.9","4","3","4","4","3","4","3","4","3","4","4","4","1","4","5","5","4","5","4","4","2","1","1","2","2","1","1","2","1","1","0","1","1","0","0","0","1","0","1","1","0","1","0","1","4","2","5","1","2","1","3","5","4","5","3","733820079237763073","潘","415","","","","nonmatch","","","","","","","","","","","","","","key","f","13.335099337748575","960","536","f","true","nonmatch","img/trapezoid.png","六边","梯形","ALT1","formal_ALT1_1","","","","","","","","","","","",""
"null","<span style='color:GreenYellow; font-size: 70px;'>正确! </span>","null","html-keyboard-response","126","374563","0.0-7.0-0.0-4.0-0.0-1.9","4","3","4","4","3","4","3","4","3","4","4","4","1","4","5","5","4","5","4","4","2","1","1","2","2","1","1","2","1","1","0","1","1","0","0","0","1","0","1","1","0","1","0","1","4","2","5","1","2","1","3","5","4","5","3","733820079237763073","潘","415","","","","","","","","","","","","","","","","","","","","","","","","","","","","","","feedback_test","","","","","","","","","","","",""
"901","","j","psychophysics","127","376464","0.0-7.0-0.0-4.0-0.0-0.10","4","3","4","4","3","4","3","4","3","4","4","4","1","4","5","5","4","5","4","4","2","1","1","2","2","1","1","2","1","1","0","1","1","0","0","0","1","0","1","1","0","1","0","1","4","2","5","1","2","1","3","5","4","5","3","733820079237763073","潘","415","","","","match","","","","","","","","","","","","","","key","j","13.335460992907718","960","536","j","true","match","img/trapezoid.png","梯形","梯形","ALT1","formal_ALT1_1","","","","","","","","","","","",""
"null","<span style='color:GreenYellow; font-size: 70px;'>正确! </span>","null","html-keyboard-response","128","376966","0.0-7.0-0.0-4.0-0.0-1.10","4","3","4","4","3","4","3","4","3","4","4","4","1","4","5","5","4","5","4","4","2","1","1","2","2","1","1","2","1","1","0","1","1","0","0","0","1","0","1","1","0","1","0","1","4","2","5","1","2","1","3","5","4","5","3","733820079237763073","潘","415","","","","","","","","","","","","","","","","","","","","","","","","","","","","","","feedback_test","","","","","","","","","","","",""
"1018","","j","psychophysics","129","378985","0.0-7.0-0.0-4.0-0.0-0.11","4","3","4","4","3","4","3","4","3","4","4","4","1","4","5","5","4","5","4","4","2","1","1","2","2","1","1","2","1","1","0","1","1","0","0","0","1","0","1","1","0","1","0","1","4","2","5","1","2","1","3","5","4","5","3","733820079237763073","潘","415","","","","match","","","","","","","","","","","","","","key","j","13.335333333333256","960","536","j","true","match","img/trapezoid.png","梯形","梯形","ALT1","formal_ALT1_1","","","","","","","","","","","",""
"null","<span style='color:GreenYellow; font-size: 70px;'>正确! </span>","null","html-keyboard-response","130","379486","0.0-7.0-0.0-4.0-0.0-1.11","4","3","4","4","3","4","3","4","3","4","4","4","1","4","5","5","4","5","4","4","2","1","1","2","2","1","1","2","1","1","0","1","1","0","0","0","1","0","1","1","0","1","0","1","4","2","5","1","2","1","3","5","4","5","3","733820079237763073","潘","415","","","","","","","","","","","","","","","","","","","","","","","","","","","","","","feedback_test","","","","","","","","","","","",""
"858","","f","psychophysics","131","381346","0.0-7.0-0.0-4.0-0.0-0.12","4","3","4","4","3","4","3","4","3","4","4","4","1","4","5","5","4","5","4","4","2","1","1","2","2","1","1","2","1","1","0","1","1","0","0","0","1","0","1","1","0","1","0","1","4","2","5","1","2","1","3","5","4","5","3","733820079237763073","潘","415","","","","nonmatch","","","","","","","","","","","","","","key","f","13.33550724637715","960","536","f","true","nonmatch","img/trapezoid.png","菱形","梯形","ALT1","formal_ALT1_1","","","","","","","","","","","",""
"null","<span style='color:GreenYellow; font-size: 70px;'>正确! </span>","null","html-keyboard-response","132","381847","0.0-7.0-0.0-4.0-0.0-1.12","4","3","4","4","3","4","3","4","3","4","4","4","1","4","5","5","4","5","4","4","2","1","1","2","2","1","1","2","1","1","0","1","1","0","0","0","1","0","1","1","0","1","0","1","4","2","5","1","2","1","3","5","4","5","3","733820079237763073","潘","415","","","","","","","","","","","","","","","","","","","","","","","","","","","","","","feedback_test","","","","","","","","","","","",""
"1101","","f","psychophysics","133","383949","0.0-7.0-0.0-4.0-0.0-0.13","4","3","4","4","3","4","3","4","3","4","4","4","1","4","5","5","4","5","4","4","2","1","1","2","2","1","1","2","1","1","0","1","1","0","0","0","1","0","1","1","0","1","0","1","4","2","5","1","2","1","3","5","4","5","3","733820079237763073","潘","415","","","","nonmatch","","","","","","","","","","","","","","key","f","13.335256410256335","960","536","f","true","nonmatch","img/hexagon.png","梯形","六边","ALT1","formal_ALT1_1","","","","","","","","","","","",""
"null","<span style='color:GreenYellow; font-size: 70px;'>正确! </span>","null","html-keyboard-response","134","384461","0.0-7.0-0.0-4.0-0.0-1.13","4","3","4","4","3","4","3","4","3","4","4","4","1","4","5","5","4","5","4","4","2","1","1","2","2","1","1","2","1","1","0","1","1","0","0","0","1","0","1","1","0","1","0","1","4","2","5","1","2","1","3","5","4","5","3","733820079237763073","潘","415","","","","","","","","","","","","","","","","","","","","","","","","","","","","","","feedback_test","","","","","","","","","","","",""
"854","","j","psychophysics","135","386316","0.0-7.0-0.0-4.0-0.0-0.14","4","3","4","4","3","4","3","4","3","4","4","4","1","4","5","5","4","5","4","4","2","1","1","2","2","1","1","2","1","1","0","1","1","0","0","0","1","0","1","1","0","1","0","1","4","2","5","1","2","1","3","5","4","5","3","733820079237763073","潘","415","","","","match","","","","","","","","","","","","","","key","j","13.335507246376727","960","536","j","true","match","img/trapezoid.png","梯形","梯形","ALT1","formal_ALT1_1","","","","","","","","","","","",""
"null","<span style='color:GreenYellow; font-size: 70px;'>正确! </span>","null","html-keyboard-response","136","386817","0.0-7.0-0.0-4.0-0.0-1.14","4","3","4","4","3","4","3","4","3","4","4","4","1","4","5","5","4","5","4","4","2","1","1","2","2","1","1","2","1","1","0","1","1","0","0","0","1","0","1","1","0","1","0","1","4","2","5","1","2","1","3","5","4","5","3","733820079237763073","潘","415","","","","","","","","","","","","","","","","","","","","","","","","","","","","","","feedback_test","","","","","","","","","","","",""
"887","","j","psychophysics","137","388705","0.0-7.0-0.0-4.0-0.0-0.15","4","3","4","4","3","4","3","4","3","4","4","4","1","4","5","5","4","5","4","4","2","1","1","2","2","1","1","2","1","1","0","1","1","0","0","0","1","0","1","1","0","1","0","1","4","2","5","1","2","1","3","5","4","5","3","733820079237763073","潘","415","","","","match","","","","","","","","","","","","","","key","j","13.335714285714285","960","536","j","true","match","img/circle.png","圆形","圆形","ALT1","formal_ALT1_1","","","","","","","","","","","",""
"null","<span style='color:GreenYellow; font-size: 70px;'>正确! </span>","null","html-keyboard-response","138","389213","0.0-7.0-0.0-4.0-0.0-1.15","4","3","4","4","3","4","3","4","3","4","4","4","1","4","5","5","4","5","4","4","2","1","1","2","2","1","1","2","1","1","0","1","1","0","0","0","1","0","1","1","0","1","0","1","4","2","5","1","2","1","3","5","4","5","3","733820079237763073","潘","415","","","","","","","","","","","","","","","","","","","","","","","","","","","","","","feedback_test","","","","","","","","","","","",""
"895","","j","psychophysics","139","391110","0.0-7.0-0.0-4.0-0.0-0.16","4","3","4","4","3","4","3","4","3","4","4","4","1","4","5","5","4","5","4","4","2","1","1","2","2","1","1","2","1","1","0","1","1","0","0","0","1","0","1","1","0","1","0","1","4","2","5","1","2","1","3","5","4","5","3","733820079237763073","潘","415","","","","match","","","","","","","","","","","","","","key","j","13.335460992908132","960","536","j","true","match","img/diamond.png","菱形","菱形","ALT1","formal_ALT1_1","","","","","","","","","","","",""
"null","<span style='color:GreenYellow; font-size: 70px;'>正确! </span>","null","html-keyboard-response","140","391610","0.0-7.0-0.0-4.0-0.0-1.16","4","3","4","4","3","4","3","4","3","4","4","4","1","4","5","5","4","5","4","4","2","1","1","2","2","1","1","2","1","1","0","1","1","0","0","0","1","0","1","1","0","1","0","1","4","2","5","1","2","1","3","5","4","5","3","733820079237763073","潘","415","","","","","","","","","","","","","","","","","","","","","","","","","","","","","","feedback_test","","","","","","","","","","","",""
"967","","f","psychophysics","141","393578","0.0-7.0-0.0-4.0-0.0-0.17","4","3","4","4","3","4","3","4","3","4","4","4","1","4","5","5","4","5","4","4","2","1","1","2","2","1","1","2","1","1","0","1","1","0","0","0","1","0","1","1","0","1","0","1","4","2","5","1","2","1","3","5","4","5","3","733820079237763073","潘","415","","","","nonmatch","","","","","","","","","","","","","","key","f","13.335616438356164","960","536","f","true","nonmatch","img/trapezoid.png","圆形","梯形","ALT1","formal_ALT1_1","","","","","","","","","","","",""
"null","<span style='color:GreenYellow; font-size: 70px;'>正确! </span>","null","html-keyboard-response","142","394079","0.0-7.0-0.0-4.0-0.0-1.17","4","3","4","4","3","4","3","4","3","4","4","4","1","4","5","5","4","5","4","4","2","1","1","2","2","1","1","2","1","1","0","1","1","0","0","0","1","0","1","1","0","1","0","1","4","2","5","1","2","1","3","5","4","5","3","733820079237763073","潘","415","","","","","","","","","","","","","","","","","","","","","","","","","","","","","","feedback_test","","","","","","","","","","","",""
"752","","j","psychophysics","143","395832","0.0-7.0-0.0-4.0-0.0-0.18","4","3","4","4","3","4","3","4","3","4","4","4","1","4","5","5","4","5","4","4","2","1","1","2","2","1","1","2","1","1","0","1","1","0","0","0","1","0","1","1","0","1","0","1","4","2","5","1","2","1","3","5","4","5","3","733820079237763073","潘","415","","","","match","","","","","","","","","","","","","","key","j","13.335384615384884","960","536","j","true","match","img/circle.png","圆形","圆形","ALT1","formal_ALT1_1","","","","","","","","","","","",""
"null","<span style='color:GreenYellow; font-size: 70px;'>正确! </span>","null","html-keyboard-response","144","396333","0.0-7.0-0.0-4.0-0.0-1.18","4","3","4","4","3","4","3","4","3","4","4","4","1","4","5","5","4","5","4","4","2","1","1","2","2","1","1","2","1","1","0","1","1","0","0","0","1","0","1","1","0","1","0","1","4","2","5","1","2","1","3","5","4","5","3","733820079237763073","潘","415","","","","","","","","","","","","","","","","","","","","","","","","","","","","","","feedback_test","","","","","","","","","","","",""
"974","","j","psychophysics","145","398308","0.0-7.0-0.0-4.0-0.0-0.19","4","3","4","4","3","4","3","4","3","4","4","4","1","4","5","5","4","5","4","4","2","1","1","2","2","1","1","2","1","1","0","1","1","0","0","0","1","0","1","1","0","1","0","1","4","2","5","1","2","1","3","5","4","5","3","733820079237763073","潘","415","","","","match","","","","","","","","","","","","","","key","j","13.335374149659785","960","536","j","true","match","img/hexagon.png","六边","六边","ALT1","formal_ALT1_1","","","","","","","","","","","",""
"null","<span style='color:GreenYellow; font-size: 70px;'>正确! </span>","null","html-keyboard-response","146","398810","0.0-7.0-0.0-4.0-0.0-1.19","4","3","4","4","3","4","3","4","3","4","4","4","1","4","5","5","4","5","4","4","2","1","1","2","2","1","1","2","1","1","0","1","1","0","0","0","1","0","1","1","0","1","0","1","4","2","5","1","2","1","3","5","4","5","3","733820079237763073","潘","415","","","","","","","","","","","","","","","","","","","","","","","","","","","","","","feedback_test","","","","","","","","","","","",""
"810","","f","psychophysics","147","400621","0.0-7.0-0.0-4.0-0.0-0.20","4","3","4","4","3","4","3","4","3","4","4","4","1","4","5","5","4","5","4","4","2","1","1","2","2","1","1","2","1","1","0","1","1","0","0","0","1","0","1","1","0","1","0","1","4","2","5","1","2","1","3","5","4","5","3","733820079237763073","潘","415","","","","nonmatch","","","","","","","","","","","","","","key","f","13.336296296296469","960","536","f","true","nonmatch","img/circle.png","菱形","圆形","ALT1","formal_ALT1_1","","","","","","","","","","","",""
"null","<span style='color:GreenYellow; font-size: 70px;'>正确! </span>","null","html-keyboard-response","148","401122","0.0-7.0-0.0-4.0-0.0-1.20","4","3","4","4","3","4","3","4","3","4","4","4","1","4","5","5","4","5","4","4","2","1","1","2","2","1","1","2","1","1","0","1","1","0","0","0","1","0","1","1","0","1","0","1","4","2","5","1","2","1","3","5","4","5","3","733820079237763073","潘","415","","","","","","","","","","","","","","","","","","","","","","","","","","","","","","feedback_test","","","","","","","","","","","",""
"871","","f","psychophysics","149","402995","0.0-7.0-0.0-4.0-0.0-0.21","4","3","4","4","3","4","3","4","3","4","4","4","1","4","5","5","4","5","4","4","2","1","1","2","2","1","1","2","1","1","0","1","1","0","0","0","1","0","1","1","0","1","0","1","4","2","5","1","2","1","3","5","4","5","3","733820079237763073","潘","415","","","","nonmatch","","","","","","","","","","","","","","key","f","13.335714285714285","960","536","f","true","nonmatch","img/circle.png","六边","圆形","ALT1","formal_ALT1_1","","","","","","","","","","","",""
"null","<span style='color:GreenYellow; font-size: 70px;'>正确! </span>","null","html-keyboard-response","150","403495","0.0-7.0-0.0-4.0-0.0-1.21","4","3","4","4","3","4","3","4","3","4","4","4","1","4","5","5","4","5","4","4","2","1","1","2","2","1","1","2","1","1","0","1","1","0","0","0","1","0","1","1","0","1","0","1","4","2","5","1","2","1","3","5","4","5","3","733820079237763073","潘","415","","","","","","","","","","","","","","","","","","","","","","","","","","","","","","feedback_test","","","","","","","","","","","",""
"864","","j","psychophysics","151","405361","0.0-7.0-0.0-4.0-0.0-0.22","4","3","4","4","3","4","3","4","3","4","4","4","1","4","5","5","4","5","4","4","2","1","1","2","2","1","1","2","1","1","0","1","1","0","0","0","1","0","1","1","0","1","0","1","4","2","5","1","2","1","3","5","4","5","3","733820079237763073","潘","415","","","","match","","","","","","","","","","","","","","key","j","13.335251798560984","960","536","j","true","match","img/diamond.png","菱形","菱形","ALT1","formal_ALT1_1","","","","","","","","","","","",""
"null","<span style='color:GreenYellow; font-size: 70px;'>正确! </span>","null","html-keyboard-response","152","405862","0.0-7.0-0.0-4.0-0.0-1.22","4","3","4","4","3","4","3","4","3","4","4","4","1","4","5","5","4","5","4","4","2","1","1","2","2","1","1","2","1","1","0","1","1","0","0","0","1","0","1","1","0","1","0","1","4","2","5","1","2","1","3","5","4","5","3","733820079237763073","潘","415","","","","","","","","","","","","","","","","","","","","","","","","","","","","","","feedback_test","","","","","","","","","","","",""
"838","","j","psychophysics","153","407701","0.0-7.0-0.0-4.0-0.0-0.23","4","3","4","4","3","4","3","4","3","4","4","4","1","4","5","5","4","5","4","4","2","1","1","2","2","1","1","2","1","1","0","1","1","0","0","0","1","0","1","1","0","1","0","1","4","2","5","1","2","1","3","5","4","5","3","733820079237763073","潘","415","","","","match","","","","","","","","","","","","","","key","j","13.335294117647315","960","536","j","true","match","img/hexagon.png","六边","六边","ALT1","formal_ALT1_1","","","","","","","","","","","",""
"null","<span style='color:GreenYellow; font-size: 70px;'>正确! </span>","null","html-keyboard-response","154","408201","0.0-7.0-0.0-4.0-0.0-1.23","4","3","4","4","3","4","3","4","3","4","4","4","1","4","5","5","4","5","4","4","2","1","1","2","2","1","1","2","1","1","0","1","1","0","0","0","1","0","1","1","0","1","0","1","4","2","5","1","2","1","3","5","4","5","3","733820079237763073","潘","415","","","","","","","","","","","","","","","","","","","","","","","","","","","","","","feedback_test","","","","","","","","","","","",""
"870","","j","psychophysics","155","410073","0.0-7.0-0.0-4.0-0.0-0.24","4","3","4","4","3","4","3","4","3","4","4","4","1","4","5","5","4","5","4","4","2","1","1","2","2","1","1","2","1","1","0","1","1","0","0","0","1","0","1","1","0","1","0","1","4","2","5","1","2","1","3","5","4","5","3","733820079237763073","潘","415","","","","match","","","","","","","","","","","","","","key","j","13.335251798561403","960","536","j","true","match","img/diamond.png","菱形","菱形","ALT1","formal_ALT1_1","","","","","","","","","","","",""
"null","<span style='color:GreenYellow; font-size: 70px;'>正确! </span>","null","html-keyboard-response","156","410574","0.0-7.0-0.0-4.0-0.0-1.24","4","3","4","4","3","4","3","4","3","4","4","4","1","4","5","5","4","5","4","4","2","1","1","2","2","1","1","2","1","1","0","1","1","0","0","0","1","0","1","1","0","1","0","1","4","2","5","1","2","1","3","5","4","5","3","733820079237763073","潘","415","","","","","","","","","","","","","","","","","","","","","","","","","","","","","","feedback_test","","","","","","","","","","","",""
"793","","j","psychophysics","157","412368","0.0-7.0-0.0-4.0-0.0-0.25","4","3","4","4","3","4","3","4","3","4","4","4","1","4","5","5","4","5","4","4","2","1","1","2","2","1","1","2","1","1","0","1","1","0","0","0","1","0","1","1","0","1","0","1","4","2","5","1","2","1","3","5","4","5","3","733820079237763073","潘","415","","","","match","","","","","","","","","","","","","","key","j","13.335338345864487","960","536","j","true","match","img/diamond.png","菱形","菱形","ALT1","formal_ALT1_1","","","","","","","","","","","",""
"null","<span style='color:GreenYellow; font-size: 70px;'>正确! </span>","null","html-keyboard-response","158","412869","0.0-7.0-0.0-4.0-0.0-1.25","4","3","4","4","3","4","3","4","3","4","4","4","1","4","5","5","4","5","4","4","2","1","1","2","2","1","1","2","1","1","0","1","1","0","0","0","1","0","1","1","0","1","0","1","4","2","5","1","2","1","3","5","4","5","3","733820079237763073","潘","415","","","","","","","","","","","","","","","","","","","","","","","","","","","","","","feedback_test","","","","","","","","","","","",""
"837","","j","psychophysics","159","414707","0.0-7.0-0.0-4.0-0.0-0.26","4","3","4","4","3","4","3","4","3","4","4","4","1","4","5","5","4","5","4","4","2","1","1","2","2","1","1","2","1","1","0","1","1","0","0","0","1","0","1","1","0","1","0","1","4","2","5","1","2","1","3","5","4","5","3","733820079237763073","潘","415","","","","match","","","","","","","","","","","","","","key","j","13.335766423357665","960","536","j","true","match","img/circle.png","圆形","圆形","ALT1","formal_ALT1_1","","","","","","","","","","","",""
"null","<span style='color:GreenYellow; font-size: 70px;'>正确! </span>","null","html-keyboard-response","160","415208","0.0-7.0-0.0-4.0-0.0-1.26","4","3","4","4","3","4","3","4","3","4","4","4","1","4","5","5","4","5","4","4","2","1","1","2","2","1","1","2","1","1","0","1","1","0","0","0","1","0","1","1","0","1","0","1","4","2","5","1","2","1","3","5","4","5","3","733820079237763073","潘","415","","","","","","","","","","","","","","","","","","","","","","","","","","","","","","feedback_test","","","","","","","","","","","",""
"752","","j","psychophysics","161","416961","0.0-7.0-0.0-4.0-0.0-0.27","4","3","4","4","3","4","3","4","3","4","4","4","1","4","5","5","4","5","4","4","2","1","1","2","2","1","1","2","1","1","0","1","1","0","0","0","1","0","1","1","0","1","0","1","4","2","5","1","2","1","3","5","4","5","3","733820079237763073","潘","415","","","","match","","","","","","","","","","","","","","key","j","13.323846153846423","960","536","j","true","match","img/circle.png","圆形","圆形","ALT1","formal_ALT1_1","","","","","","","","","","","",""
"null","<span style='color:GreenYellow; font-size: 70px;'>正确! </span>","null","html-keyboard-response","162","417462","0.0-7.0-0.0-4.0-0.0-1.27","4","3","4","4","3","4","3","4","3","4","4","4","1","4","5","5","4","5","4","4","2","1","1","2","2","1","1","2","1","1","0","1","1","0","0","0","1","0","1","1","0","1","0","1","4","2","5","1","2","1","3","5","4","5","3","733820079237763073","潘","415","","","","","","","","","","","","","","","","","","","","","","","","","","","","","","feedback_test","","","","","","","","","","","",""
"942","","f","psychophysics","163","419405","0.0-7.0-0.0-4.0-0.0-0.28","4","3","4","4","3","4","3","4","3","4","4","4","1","4","5","5","4","5","4","4","2","1","1","2","2","1","1","2","1","1","0","1","1","0","0","0","1","0","1","1","0","1","0","1","4","2","5","1","2","1","3","5","4","5","3","733820079237763073","潘","415","","","","nonmatch","","","","","","","","","","","","","","key","f","13.327083333333576","960","536","f","true","nonmatch","img/trapezoid.png","圆形","梯形","ALT1","formal_ALT1_1","","","","","","","","","","","",""
"null","<span style='color:GreenYellow; font-size: 70px;'>正确! </span>","null","html-keyboard-response","164","419906","0.0-7.0-0.0-4.0-0.0-1.28","4","3","4","4","3","4","3","4","3","4","4","4","1","4","5","5","4","5","4","4","2","1","1","2","2","1","1","2","1","1","0","1","1","0","0","0","1","0","1","1","0","1","0","1","4","2","5","1","2","1","3","5","4","5","3","733820079237763073","潘","415","","","","","","","","","","","","","","","","","","","","","","","","","","","","","","feedback_test","","","","","","","","","","","",""
"887","","f","psychophysics","165","421793","0.0-7.0-0.0-4.0-0.0-0.29","4","3","4","4","3","4","3","4","3","4","4","4","1","4","5","5","4","5","4","4","2","1","1","2","2","1","1","2","1","1","0","1","1","0","0","0","1","0","1","1","0","1","0","1","4","2","5","1","2","1","3","5","4","5","3","733820079237763073","潘","415","","","","nonmatch","","","","","","","","","","","","","","key","f","13.335000000000166","960","536","f","true","nonmatch","img/circle.png","梯形","圆形","ALT1","formal_ALT1_1","","","","","","","","","","","",""
"null","<span style='color:GreenYellow; font-size: 70px;'>正确! </span>","null","html-keyboard-response","166","422294","0.0-7.0-0.0-4.0-0.0-1.29","4","3","4","4","3","4","3","4","3","4","4","4","1","4","5","5","4","5","4","4","2","1","1","2","2","1","1","2","1","1","0","1","1","0","0","0","1","0","1","1","0","1","0","1","4","2","5","1","2","1","3","5","4","5","3","733820079237763073","潘","415","","","","","","","","","","","","","","","","","","","","","","","","","","","","","","feedback_test","","","","","","","","","","","",""
"856","","f","psychophysics","167","424152","0.0-7.0-0.0-4.0-0.0-0.30","4","3","4","4","3","4","3","4","3","4","4","4","1","4","5","5","4","5","4","4","2","1","1","2","2","1","1","2","1","1","0","1","1","0","0","0","1","0","1","1","0","1","0","1","4","2","5","1","2","1","3","5","4","5","3","733820079237763073","潘","415","","","","nonmatch","","","","","","","","","","","","","","key","f","13.334782608695315","960","536","f","true","nonmatch","img/circle.png","六边","圆形","ALT1","formal_ALT1_1","","","","","","","","","","","",""
"null","<span style='color:GreenYellow; font-size: 70px;'>正确! </span>","null","html-keyboard-response","168","424653","0.0-7.0-0.0-4.0-0.0-1.30","4","3","4","4","3","4","3","4","3","4","4","4","1","4","5","5","4","5","4","4","2","1","1","2","2","1","1","2","1","1","0","1","1","0","0","0","1","0","1","1","0","1","0","1","4","2","5","1","2","1","3","5","4","5","3","733820079237763073","潘","415","","","","","","","","","","","","","","","","","","","","","","","","","","","","","","feedback_test","","","","","","","","","","","",""
"971","","f","psychophysics","169","426634","0.0-7.0-0.0-4.0-0.0-0.31","4","3","4","4","3","4","3","4","3","4","4","4","1","4","5","5","4","5","4","4","2","1","1","2","2","1","1","2","1","1","0","1","1","0","0","0","1","0","1","1","0","1","0","1","4","2","5","1","2","1","3","5","4","5","3","733820079237763073","潘","415","","","","nonmatch","","","","","","","","","","","","","","key","f","13.335374149659785","960","536","f","true","nonmatch","img/diamond.png","圆形","菱形","ALT1","formal_ALT1_1","","","","","","","","","","","",""
"null","<span style='color:GreenYellow; font-size: 70px;'>正确! </span>","null","html-keyboard-response","170","427134","0.0-7.0-0.0-4.0-0.0-1.31","4","3","4","4","3","4","3","4","3","4","4","4","1","4","5","5","4","5","4","4","2","1","1","2","2","1","1","2","1","1","0","1","1","0","0","0","1","0","1","1","0","1","0","1","4","2","5","1","2","1","3","5","4","5","3","733820079237763073","潘","415","","","","","","","","","","","","","","","","","","","","","","","","","","","","","","feedback_test","","","","","","","","","","","",""
"744","","j","psychophysics","171","428879","0.0-7.0-0.0-4.0-0.0-0.32","4","3","4","4","3","4","3","4","3","4","4","4","1","4","5","5","4","5","4","4","2","1","1","2","2","1","1","2","1","1","0","1","1","0","0","0","1","0","1","1","0","1","0","1","4","2","5","1","2","1","3","5","4","5","3","733820079237763073","潘","415","","","","match","","","","","","","","","","","","","","key","j","13.334615384615384","960","536","j","true","match","img/circle.png","圆形","圆形","ALT1","formal_ALT1_1","","","","","","","","","","","",""
"null","<span style='color:GreenYellow; font-size: 70px;'>正确! </span>","null","html-keyboard-response","172","429380","0.0-7.0-0.0-4.0-0.0-1.32","4","3","4","4","3","4","3","4","3","4","4","4","1","4","5","5","4","5","4","4","2","1","1","2","2","1","1","2","1","1","0","1","1","0","0","0","1","0","1","1","0","1","0","1","4","2","5","1","2","1","3","5","4","5","3","733820079237763073","潘","415","","","","","","","","","","","","","","","","","","","","","","","","","","","","","","feedback_test","","","","","","","","","","","",""
"821","","j","psychophysics","173","431202","0.0-7.0-0.0-4.0-0.0-0.33","4","3","4","4","3","4","3","4","3","4","4","4","1","4","5","5","4","5","4","4","2","1","1","2","2","1","1","2","1","1","0","1","1","0","0","0","1","0","1","1","0","1","0","1","4","2","5","1","2","1","3","5","4","5","3","733820079237763073","潘","415","","","","match","","","","","","","","","","","","","","key","j","13.335294117646887","960","536","j","true","match","img/trapezoid.png","梯形","梯形","ALT1","formal_ALT1_1","","","","","","","","","","","",""
"null","<span style='color:GreenYellow; font-size: 70px;'>正确! </span>","null","html-keyboard-response","174","431717","0.0-7.0-0.0-4.0-0.0-1.33","4","3","4","4","3","4","3","4","3","4","4","4","1","4","5","5","4","5","4","4","2","1","1","2","2","1","1","2","1","1","0","1","1","0","0","0","1","0","1","1","0","1","0","1","4","2","5","1","2","1","3","5","4","5","3","733820079237763073","潘","415","","","","","","","","","","","","","","","","","","","","","","","","","","","","","","feedback_test","","","","","","","","","","","",""
"867","","f","psychophysics","175","433585","0.0-7.0-0.0-4.0-0.0-0.34","4","3","4","4","3","4","3","4","3","4","4","4","1","4","5","5","4","5","4","4","2","1","1","2","2","1","1","2","1","1","0","1","1","0","0","0","1","0","1","1","0","1","0","1","4","2","5","1","2","1","3","5","4","5","3","733820079237763073","潘","415","","","","nonmatch","","","","","","","","","","","","","","key","f","13.335971223021666","960","536","f","true","nonmatch","img/hexagon.png","菱形","六边","ALT1","formal_ALT1_1","","","","","","","","","","","",""
"null","<span style='color:GreenYellow; font-size: 70px;'>正确! </span>","null","html-keyboard-response","176","434086","0.0-7.0-0.0-4.0-0.0-1.34","4","3","4","4","3","4","3","4","3","4","4","4","1","4","5","5","4","5","4","4","2","1","1","2","2","1","1","2","1","1","0","1","1","0","0","0","1","0","1","1","0","1","0","1","4","2","5","1","2","1","3","5","4","5","3","733820079237763073","潘","415","","","","","","","","","","","","","","","","","","","","","","","","","","","","","","feedback_test","","","","","","","","","","","",""
"906","","j","psychophysics","177","435993","0.0-7.0-0.0-4.0-0.0-0.35","4","3","4","4","3","4","3","4","3","4","4","4","1","4","5","5","4","5","4","4","2","1","1","2","2","1","1","2","1","1","0","1","1","0","0","0","1","0","1","1","0","1","0","1","4","2","5","1","2","1","3","5","4","5","3","733820079237763073","潘","415","","","","match","","","","","","","","","","","","","","key","j","13.335915492957419","960","536","j","true","match","img/hexagon.png","六边","六边","ALT1","formal_ALT1_1","","","","","","","","","","","",""
"null","<span style='color:GreenYellow; font-size: 70px;'>正确! </span>","null","html-keyboard-response","178","436494","0.0-7.0-0.0-4.0-0.0-1.35","4","3","4","4","3","4","3","4","3","4","4","4","1","4","5","5","4","5","4","4","2","1","1","2","2","1","1","2","1","1","0","1","1","0","0","0","1","0","1","1","0","1","0","1","4","2","5","1","2","1","3","5","4","5","3","733820079237763073","潘","415","","","","","","","","","","","","","","","","","","","","","","","","","","","","","","feedback_test","","","","","","","","","","","",""
"782","","j","psychophysics","179","438277","0.0-7.0-0.0-4.0-0.0-0.36","4","3","4","4","3","4","3","4","3","4","4","4","1","4","5","5","4","5","4","4","2","1","1","2","2","1","1","2","1","1","0","1","1","0","0","0","1","0","1","1","0","1","0","1","4","2","5","1","2","1","3","5","4","5","3","733820079237763073","潘","415","","","","match","","","","","","","","","","","","","","key","j","13.335606060606413","960","536","f","false","nonmatch","img/trapezoid.png","六边","梯形","ALT1","formal_ALT1_1","","","","","","","","","","","",""
"null","<span style='color:red; font-size: 70px;'>错误! </span>","null","html-keyboard-response","180","438779","0.0-7.0-0.0-4.0-0.0-1.36","4","3","4","4","3","4","3","4","3","4","4","4","1","4","5","5","4","5","4","4","2","1","1","2","2","1","1","2","1","1","0","1","1","0","0","0","1","0","1","1","0","1","0","1","4","2","5","1","2","1","3","5","4","5","3","733820079237763073","潘","415","","","","","","","","","","","","","","","","","","","","","","","","","","","","","","feedback_test","","","","","","","","","","","",""
