"rt","stimulus","response","trial_type","trial_index","time_elapsed","internal_node_id","ses_1","ses_2","ses_3","ses_4","ses_5","ses_6","ses_7","ses_8","ses_9","ses_10","coreself_1","coreself_2","coreself_3","coreself_4","coreself_5","coreself_6","coreself_7","coreself_8","coreself_9","coreself_10","SGPS_1","SGPS_2","SGPS_3","SGPS_4","SGPS_5","SGPS_6","SGPS_7","SGPS_8","SGPS_9","NPI1","NPI2","NPI3","NPI4","NPI5","NPI6","NPI7","NPI8","NPI9","NPI10","NPI11","NPI12","NPI13","NPI14","NPI15","hsns_1","hsns_2","hsns_3","hsns_4","hsns_5","trap1","hsns_6","hsns_7","hsns_8","hsns_9","hsns_10","subj_idx","friend_name","ParticipantID","value","success","user_agent","responses","item_order","radio_event_ids","radio_event_times","key_event_times","mouse_event_times","straightlining","zigzagging","honeypot","timeout","failed_images","failed_audio","failed_video","version_attrib2","version_target2","correct","IAT","screen_id","task_id","RT","condition","word","varname","summary","version_attrib","version_target","time_stamp","view_history","response_type","key_press","avg_frame_time","center_x","center_y","correct_response","identity","Image","question_order","correct_answer","trap1_item"
"1886","
   <p><div style = ""color: white;font-size:25px;"">您好，欢迎参加本次实验。</div> </p>
   <p><div style = ""color: white;font-size:25px;"">为充分保障您的权利，请确保您已经知晓并同意《参与实验同意书》以及《数据公开知情同意书》。</div></p>
   <p><div style = ""color: white;font-size:25px;"">如果您未见过上述内容，请咨询实验员。</div></p>
   <p><div style = ""color: white;font-size:25px;"">如果您选择继续实验，则表示您已经清楚两份知情同意书的内容并同意。</div></p>
   <p><div style = ""color: pink;font-size:30px;"">请确保您记得day0的实验编号，您将在本次实验输入该编号，若您忘记，请咨询实验员后作答。</div></p>
   <p><div style = ""color: lightblue;font-size:25px;"">请您尽可能认真地作答，我们将依据您在各问卷和按键任务中的作答质量发放报酬。</div></p>
   <p> <div style = ""color: green;font-size:25px;""><按空格键至下页></div> </p>
   "," ","html-keyboard-response","0","1890","0.0-0.0","4","4","4","4","4","4","4","4","4","4","5","5","5","5","5","5","5","5","5","5","1","1","1","1","1","1","1","1","1","1","0","1","1","0","0","0","0","0","1","1","0","0","1","1","5","1","2","1","2","","2","3","1","5","1","633753940910931968","付","330","","","","","","","","","","","","","","","","","","","","","","","","","","","","","","","","","","","","","","","","","",""
"","","","call-function","1","1893","0.0-1.0-0.0","4","4","4","4","4","4","4","4","4","4","5","5","5","5","5","5","5","5","5","5","1","1","1","1","1","1","1","1","1","1","0","1","1","0","0","0","0","0","1","1","0","0","1","1","5","1","2","1","2","","2","3","1","5","1","633753940910931968","付","330","","","","","","","","","","","","","","","","","","","","","","","","","","","","","","","","","","","","","","","","","",""
"24370","","{""friend_name"":""付"",""ParticipantID"":""330""}","survey-html-form","2","26265","0.0-1.0-1.0","4","4","4","4","4","4","4","4","4","4","5","5","5","5","5","5","5","5","5","5","1","1","1","1","1","1","1","1","1","1","0","1","1","0","0","0","0","0","1","1","0","0","1","1","5","1","2","1","2","","2","3","1","5","1","633753940910931968","付","330","","","","","","","","","","","","","","","","","","","","","","","","","","","","","","","","","","","","","","","","","",""
"","","","fullscreen","3","41532","0.0-2.0","4","4","4","4","4","4","4","4","4","4","5","5","5","5","5","5","5","5","5","5","1","1","1","1","1","1","1","1","1","1","0","1","1","0","0","0","0","0","1","1","0","0","1","1","5","1","2","1","2","","2","3","1","5","1","633753940910931968","付","330","","true","","","","","","","","","","","","","","","","","","","","","","","","","","","","","","","","","","","","","","","",""
"21337.164999999914","","{""Q01"":""4"",""Q02"":""4"",""Q03"":""4"",""Q04"":""4"",""Q05"":""4"",""Q06"":""4"",""Q07"":""4"",""Q08"":""4"",""Q09"":""4"",""Q10"":""4""}","survey-template","4","62872","0.0-3.0","4","4","4","4","4","4","4","4","4","4","5","5","5","5","5","5","5","5","5","5","1","1","1","1","1","1","1","1","1","1","0","1","1","0","0","0","0","0","1","1","0","0","1","1","5","1","2","1","2","","2","3","1","5","1","633753940910931968","付","330","","","","{""Q01"":""4"",""Q02"":""4"",""Q03"":""4"",""Q04"":""4"",""Q05"":""4"",""Q06"":""4"",""Q07"":""4"",""Q08"":""4"",""Q09"":""4"",""Q10"":""4""}","[0,1,2,3,4,5,6,7,8,9]","[""Q10"",""Q08"",""Q09"",""Q06"",""Q07"",""Q05"",""Q04"",""Q03"",""Q01"",""Q02""]","[2840.524999999958,4503.954999999907,5120.109999999957,6576.139999999898,7368.129999999954,8840.154999999984,10056.304999999957,10976.059999999961,12752.229999999945,13176.184999999918]","[]","[2263.8799999999756,2840.524999999958,3209.0649999999005,3543.78999999995,3912.104999999996,4503.954999999907,4824.824999999924,5120.109999999957,5935.839999999989,6576.139999999898,7368.129999999954,8313.164999999914,8840.154999999984,10056.304999999957,10976.059999999961,11647.899999999936,12135.864999999969,12752.229999999945,13176.184999999918,21335.944999999927]","0.5","0.5555555555555556","0","","","","","","","","","","","","","","","","","","","","","","","","","","","","","",""
"16729.659999999974","","{""Q01"":""5"",""Q02"":""5"",""Q03"":""5"",""Q04"":""5"",""Q05"":""5"",""Q06"":""5"",""Q07"":""5"",""Q08"":""5"",""Q09"":""5"",""Q10"":""5""}","survey-template","5","79608","0.0-4.0","4","4","4","4","4","4","4","4","4","4","5","5","5","5","5","5","5","5","5","5","1","1","1","1","1","1","1","1","1","1","0","1","1","0","0","0","0","0","1","1","0","0","1","1","5","1","2","1","2","","2","3","1","5","1","633753940910931968","付","330","","","","{""Q01"":""5"",""Q02"":""5"",""Q03"":""5"",""Q04"":""5"",""Q05"":""5"",""Q06"":""5"",""Q07"":""5"",""Q08"":""5"",""Q09"":""5"",""Q10"":""5""}","[0,1,2,3,4,5,6,7,8,9]","[""Q01"",""Q02"",""Q03"",""Q04"",""Q05"",""Q06"",""Q07"",""Q08"",""Q09"",""Q10""]","[1648.554999999993,2456.16999999994,3144.3299999999726,4096.284999999974,4960.154999999984,5848.3949999999895,6968.354999999981,7288.15499999997,8616.289999999935,10448.109999999928]","[]","[1648.554999999993,2456.16999999994,3144.3299999999726,4096.284999999974,4960.154999999984,5848.3949999999895,6968.354999999981,7288.15499999997,8616.289999999935,9304.159999999916,10063.99499999998,10448.109999999928,16728.219999999972]","0.6","0.7777777777777778","0","","","","","","","","","","","","","","","","","","","","","","","","","","","","","",""
"","","","preload","6","79811","0.0-5.0","4","4","4","4","4","4","4","4","4","4","5","5","5","5","5","5","5","5","5","5","1","1","1","1","1","1","1","1","1","1","0","1","1","0","0","0","0","0","1","1","0","0","1","1","5","1","2","1","2","","2","3","1","5","1","633753940910931968","付","330","","true","","","","","","","","","","","false","[]","[]","[]","","","","","","","","","","","","","","","","","","","","","","","","","",""
"26218","
    <h3>词语分类任务</h3>
    <p>在接下来的任务中，你需要对一系列词语进行分类。<p/>
    请先熟悉这些词语，这有利于你完成接下来的任务。</p>
    <table align=""center"" border=1 cellpadding=3 cellspacing=0>
    <tr> <th>类别</th> <th>词语</th> </tr>
    <tr> <td>&emsp;积极&emsp;</td> <td>&emsp;高尚、诚信、善良、君子、廉正、正直&emsp;</td> </tr>
    <tr> <td>&emsp;消极&emsp;</td> <td>&emsp;缺德、卑鄙、不孝、不仁、小人、黑心&emsp;</td> </tr>
    <tr> <td>&emsp;自我&emsp;</td> <td>&emsp;我、我的、自己、自己的、本人、本人的&emsp;</td> </tr>
    <tr> <td>&emsp;他人&emsp;</td> <td>&emsp;他、他的、别人、别人的、他人、他人的&emsp;</td> </tr>
    </table><br/>","0","html-button-response","7","106030","0.0-6.0-1.0-0.0","4","4","4","4","4","4","4","4","4","4","5","5","5","5","5","5","5","5","5","5","1","1","1","1","1","1","1","1","1","1","0","1","1","0","0","0","0","0","1","1","0","0","1","1","5","1","2","1","2","","2","3","1","5","1","633753940910931968","付","330","","","","","","","","","","","","","","","","","2","1","","","","","","","","","","","","","","","","","","","","","","","",""
"7894","
    <div class=""tag-bottom""><p>
    —— 任务1：对“自我”词和“他人”词分类 ——<p/>
    不同词语会出现在屏幕中央，类别标签将始终显示在屏幕上方<p/>   
    <span style=""color:#FFD866""><b>请根据上方标签的提示，尽可能正确并且快速地做出按键反应</b></span><p/>
    当按键错误时屏幕中会出现<span style=""color:red""> X </span>，需要按另一个键纠正才能继续<br/><p/>
    请把双手食指分别放在键盘的“E”键和“I”键上<p/>
    按<空格键>开始
    </p></div>"," ","html-keyboard-response","8","113928","0.0-6.0-1.0-1.0","4","4","4","4","4","4","4","4","4","4","5","5","5","5","5","5","5","5","5","5","1","1","1","1","1","1","1","1","1","1","0","1","1","0","0","0","0","0","1","1","0","0","1","1","5","1","2","1","2","","2","3","1","5","1","633753940910931968","付","330","","","","","","","","","","","","","","","","","","","","","","","","","","","","","","","","","","","","","","","","","",""
"null","","null","html-keyboard-response","9","114180","0.0-6.0-1.0-2.0-0.0","4","4","4","4","4","4","4","4","4","4","5","5","5","5","5","5","5","5","5","5","1","1","1","1","1","1","1","1","1","1","0","1","1","0","0","0","0","0","1","1","0","0","1","1","5","1","2","1","2","","2","3","1","5","1","633753940910931968","付","330","","","","","","","","","","","","","","","","","","","","","","","","","","","","","","","","","","","","","","","","","",""
"603","<p style=""color:rgb(150, 250, 100); font-size: 35px;"">他</p>","i","categorize-html","10","114789","0.0-6.0-1.0-2.0-1.0","4","4","4","4","4","4","4","4","4","4","5","5","5","5","5","5","5","5","5","5","1","1","1","1","1","1","1","1","1","1","0","1","1","0","0","0","0","0","1","1","0","0","1","1","5","1","2","1","2","","2","3","1","5","1","633753940910931968","付","330","","","","","","","","","","","","","","","","","","","true","11","1","moral","603","other","他","","","","","","","","","","","","","","","","",""
"null","","null","html-keyboard-response","11","115045","0.0-6.0-1.0-2.0-0.1","4","4","4","4","4","4","4","4","4","4","5","5","5","5","5","5","5","5","5","5","1","1","1","1","1","1","1","1","1","1","0","1","1","0","0","0","0","0","1","1","0","0","1","1","5","1","2","1","2","","2","3","1","5","1","633753940910931968","付","330","","","","","","","","","","","","","","","","","","","","","","","","","","","","","","","","","","","","","","","","","",""
"503","<p style=""color:rgb(150, 250, 100); font-size: 35px;"">我</p>","e","categorize-html","12","115553","0.0-6.0-1.0-2.0-1.1","4","4","4","4","4","4","4","4","4","4","5","5","5","5","5","5","5","5","5","5","1","1","1","1","1","1","1","1","1","1","0","1","1","0","0","0","0","0","1","1","0","0","1","1","5","1","2","1","2","","2","3","1","5","1","633753940910931968","付","330","","","","","","","","","","","","","","","","","","","true","11","1","moral","503","self","我","","","","","","","","","","","","","","","","",""
"null","","null","html-keyboard-response","13","115805","0.0-6.0-1.0-2.0-0.2","4","4","4","4","4","4","4","4","4","4","5","5","5","5","5","5","5","5","5","5","1","1","1","1","1","1","1","1","1","1","0","1","1","0","0","0","0","0","1","1","0","0","1","1","5","1","2","1","2","","2","3","1","5","1","633753940910931968","付","330","","","","","","","","","","","","","","","","","","","","","","","","","","","","","","","","","","","","","","","","","",""
"721","<p style=""color:rgb(150, 250, 100); font-size: 35px;"">我的</p>","e","categorize-html","14","116532","0.0-6.0-1.0-2.0-1.2","4","4","4","4","4","4","4","4","4","4","5","5","5","5","5","5","5","5","5","5","1","1","1","1","1","1","1","1","1","1","0","1","1","0","0","0","0","0","1","1","0","0","1","1","5","1","2","1","2","","2","3","1","5","1","633753940910931968","付","330","","","","","","","","","","","","","","","","","","","true","11","1","moral","721","self","我的","","","","","","","","","","","","","","","","",""
"null","","null","html-keyboard-response","15","116784","0.0-6.0-1.0-2.0-0.3","4","4","4","4","4","4","4","4","4","4","5","5","5","5","5","5","5","5","5","5","1","1","1","1","1","1","1","1","1","1","0","1","1","0","0","0","0","0","1","1","0","0","1","1","5","1","2","1","2","","2","3","1","5","1","633753940910931968","付","330","","","","","","","","","","","","","","","","","","","","","","","","","","","","","","","","","","","","","","","","","",""
"525","<p style=""color:rgb(150, 250, 100); font-size: 35px;"">本人</p>","e","categorize-html","16","117312","0.0-6.0-1.0-2.0-1.3","4","4","4","4","4","4","4","4","4","4","5","5","5","5","5","5","5","5","5","5","1","1","1","1","1","1","1","1","1","1","0","1","1","0","0","0","0","0","1","1","0","0","1","1","5","1","2","1","2","","2","3","1","5","1","633753940910931968","付","330","","","","","","","","","","","","","","","","","","","true","11","1","moral","525","self","本人","","","","","","","","","","","","","","","","",""
"null","","null","html-keyboard-response","17","117564","0.0-6.0-1.0-2.0-0.4","4","4","4","4","4","4","4","4","4","4","5","5","5","5","5","5","5","5","5","5","1","1","1","1","1","1","1","1","1","1","0","1","1","0","0","0","0","0","1","1","0","0","1","1","5","1","2","1","2","","2","3","1","5","1","633753940910931968","付","330","","","","","","","","","","","","","","","","","","","","","","","","","","","","","","","","","","","","","","","","","",""
"448","<p style=""color:rgb(150, 250, 100); font-size: 35px;"">别人的</p>","i","categorize-html","18","118016","0.0-6.0-1.0-2.0-1.4","4","4","4","4","4","4","4","4","4","4","5","5","5","5","5","5","5","5","5","5","1","1","1","1","1","1","1","1","1","1","0","1","1","0","0","0","0","0","1","1","0","0","1","1","5","1","2","1","2","","2","3","1","5","1","633753940910931968","付","330","","","","","","","","","","","","","","","","","","","true","11","1","moral","448","other","别人的","","","","","","","","","","","","","","","","",""
"null","","null","html-keyboard-response","19","118266","0.0-6.0-1.0-2.0-0.5","4","4","4","4","4","4","4","4","4","4","5","5","5","5","5","5","5","5","5","5","1","1","1","1","1","1","1","1","1","1","0","1","1","0","0","0","0","0","1","1","0","0","1","1","5","1","2","1","2","","2","3","1","5","1","633753940910931968","付","330","","","","","","","","","","","","","","","","","","","","","","","","","","","","","","","","","","","","","","","","","",""
"475","<p style=""color:rgb(150, 250, 100); font-size: 35px;"">他的</p>","i","categorize-html","20","118746","0.0-6.0-1.0-2.0-1.5","4","4","4","4","4","4","4","4","4","4","5","5","5","5","5","5","5","5","5","5","1","1","1","1","1","1","1","1","1","1","0","1","1","0","0","0","0","0","1","1","0","0","1","1","5","1","2","1","2","","2","3","1","5","1","633753940910931968","付","330","","","","","","","","","","","","","","","","","","","true","11","1","moral","475","other","他的","","","","","","","","","","","","","","","","",""
"null","","null","html-keyboard-response","21","118998","0.0-6.0-1.0-2.0-0.6","4","4","4","4","4","4","4","4","4","4","5","5","5","5","5","5","5","5","5","5","1","1","1","1","1","1","1","1","1","1","0","1","1","0","0","0","0","0","1","1","0","0","1","1","5","1","2","1","2","","2","3","1","5","1","633753940910931968","付","330","","","","","","","","","","","","","","","","","","","","","","","","","","","","","","","","","","","","","","","","","",""
"532","<p style=""color:rgb(150, 250, 100); font-size: 35px;"">本人的</p>","e","categorize-html","22","119535","0.0-6.0-1.0-2.0-1.6","4","4","4","4","4","4","4","4","4","4","5","5","5","5","5","5","5","5","5","5","1","1","1","1","1","1","1","1","1","1","0","1","1","0","0","0","0","0","1","1","0","0","1","1","5","1","2","1","2","","2","3","1","5","1","633753940910931968","付","330","","","","","","","","","","","","","","","","","","","true","11","1","moral","532","self","本人的","","","","","","","","","","","","","","","","",""
"null","","null","html-keyboard-response","23","119786","0.0-6.0-1.0-2.0-0.7","4","4","4","4","4","4","4","4","4","4","5","5","5","5","5","5","5","5","5","5","1","1","1","1","1","1","1","1","1","1","0","1","1","0","0","0","0","0","1","1","0","0","1","1","5","1","2","1","2","","2","3","1","5","1","633753940910931968","付","330","","","","","","","","","","","","","","","","","","","","","","","","","","","","","","","","","","","","","","","","","",""
"488","<p style=""color:rgb(150, 250, 100); font-size: 35px;"">别人</p>","i","categorize-html","24","120276","0.0-6.0-1.0-2.0-1.7","4","4","4","4","4","4","4","4","4","4","5","5","5","5","5","5","5","5","5","5","1","1","1","1","1","1","1","1","1","1","0","1","1","0","0","0","0","0","1","1","0","0","1","1","5","1","2","1","2","","2","3","1","5","1","633753940910931968","付","330","","","","","","","","","","","","","","","","","","","true","11","1","moral","488","other","别人","","","","","","","","","","","","","","","","",""
"null","","null","html-keyboard-response","25","120527","0.0-6.0-1.0-2.0-0.8","4","4","4","4","4","4","4","4","4","4","5","5","5","5","5","5","5","5","5","5","1","1","1","1","1","1","1","1","1","1","0","1","1","0","0","0","0","0","1","1","0","0","1","1","5","1","2","1","2","","2","3","1","5","1","633753940910931968","付","330","","","","","","","","","","","","","","","","","","","","","","","","","","","","","","","","","","","","","","","","","",""
"357","<p style=""color:rgb(150, 250, 100); font-size: 35px;"">他人的</p>","i","categorize-html","26","120889","0.0-6.0-1.0-2.0-1.8","4","4","4","4","4","4","4","4","4","4","5","5","5","5","5","5","5","5","5","5","1","1","1","1","1","1","1","1","1","1","0","1","1","0","0","0","0","0","1","1","0","0","1","1","5","1","2","1","2","","2","3","1","5","1","633753940910931968","付","330","","","","","","","","","","","","","","","","","","","true","11","1","moral","357","other","他人的","","","","","","","","","","","","","","","","",""
"null","","null","html-keyboard-response","27","121139","0.0-6.0-1.0-2.0-0.9","4","4","4","4","4","4","4","4","4","4","5","5","5","5","5","5","5","5","5","5","1","1","1","1","1","1","1","1","1","1","0","1","1","0","0","0","0","0","1","1","0","0","1","1","5","1","2","1","2","","2","3","1","5","1","633753940910931968","付","330","","","","","","","","","","","","","","","","","","","","","","","","","","","","","","","","","","","","","","","","","",""
"425","<p style=""color:rgb(150, 250, 100); font-size: 35px;"">自己的</p>","e","categorize-html","28","121569","0.0-6.0-1.0-2.0-1.9","4","4","4","4","4","4","4","4","4","4","5","5","5","5","5","5","5","5","5","5","1","1","1","1","1","1","1","1","1","1","0","1","1","0","0","0","0","0","1","1","0","0","1","1","5","1","2","1","2","","2","3","1","5","1","633753940910931968","付","330","","","","","","","","","","","","","","","","","","","true","11","1","moral","425","self","自己的","","","","","","","","","","","","","","","","",""
"null","","null","html-keyboard-response","29","121821","0.0-6.0-1.0-2.0-0.10","4","4","4","4","4","4","4","4","4","4","5","5","5","5","5","5","5","5","5","5","1","1","1","1","1","1","1","1","1","1","0","1","1","0","0","0","0","0","1","1","0","0","1","1","5","1","2","1","2","","2","3","1","5","1","633753940910931968","付","330","","","","","","","","","","","","","","","","","","","","","","","","","","","","","","","","","","","","","","","","","",""
"425","<p style=""color:rgb(150, 250, 100); font-size: 35px;"">他人</p>","i","categorize-html","30","122251","0.0-6.0-1.0-2.0-1.10","4","4","4","4","4","4","4","4","4","4","5","5","5","5","5","5","5","5","5","5","1","1","1","1","1","1","1","1","1","1","0","1","1","0","0","0","0","0","1","1","0","0","1","1","5","1","2","1","2","","2","3","1","5","1","633753940910931968","付","330","","","","","","","","","","","","","","","","","","","true","11","1","moral","425","other","他人","","","","","","","","","","","","","","","","",""
"null","","null","html-keyboard-response","31","122503","0.0-6.0-1.0-2.0-0.11","4","4","4","4","4","4","4","4","4","4","5","5","5","5","5","5","5","5","5","5","1","1","1","1","1","1","1","1","1","1","0","1","1","0","0","0","0","0","1","1","0","0","1","1","5","1","2","1","2","","2","3","1","5","1","633753940910931968","付","330","","","","","","","","","","","","","","","","","","","","","","","","","","","","","","","","","","","","","","","","","",""
"486","<p style=""color:rgb(150, 250, 100); font-size: 35px;"">自己</p>","e","categorize-html","32","122992","0.0-6.0-1.0-2.0-1.11","4","4","4","4","4","4","4","4","4","4","5","5","5","5","5","5","5","5","5","5","1","1","1","1","1","1","1","1","1","1","0","1","1","0","0","0","0","0","1","1","0","0","1","1","5","1","2","1","2","","2","3","1","5","1","633753940910931968","付","330","","","","","","","","","","","","","","","","","","","true","11","1","moral","486","self","自己","","","","","","","","","","","","","","","","",""
"25521","
    <div class=""tag-bottom""><p>
    —— 任务2：对“消极”词和“积极”词分类 ——<p/>   
    <span style=""color:#78DCE8""><b>注意上方，类别标签和需要分类的词语都已经改变</b></span><p/>
    <span style=""color:#FFD866""><b>请根据上方标签的提示，尽可能正确并且快速地做出按键反应</b></span><p/>
    当按键错误时屏幕中会出现<span style=""color:red""> X </span>，需要按另一个键纠正才能继续<br/><p/>
    请把双手食指分别放在键盘的“E”键和“I”键上<p/>
    按<空格键>开始
    </p></div>"," ","html-keyboard-response","33","148514","0.0-6.0-1.0-3.0","4","4","4","4","4","4","4","4","4","4","5","5","5","5","5","5","5","5","5","5","1","1","1","1","1","1","1","1","1","1","0","1","1","0","0","0","0","0","1","1","0","0","1","1","5","1","2","1","2","","2","3","1","5","1","633753940910931968","付","330","","","","","","","","","","","","","","","","","","","","","","","","","","","","","","","","","","","","","","","","","",""
"null","","null","html-keyboard-response","34","148766","0.0-6.0-1.0-4.0-0.0","4","4","4","4","4","4","4","4","4","4","5","5","5","5","5","5","5","5","5","5","1","1","1","1","1","1","1","1","1","1","0","1","1","0","0","0","0","0","1","1","0","0","1","1","5","1","2","1","2","","2","3","1","5","1","633753940910931968","付","330","","","","","","","","","","","","","","","","","","","","","","","","","","","","","","","","","","","","","","","","","",""
"668","<p style=""color:white; font-size: 35px;"">缺德</p>","e","categorize-html","35","149438","0.0-6.0-1.0-4.0-1.0","4","4","4","4","4","4","4","4","4","4","5","5","5","5","5","5","5","5","5","5","1","1","1","1","1","1","1","1","1","1","0","1","1","0","0","0","0","0","1","1","0","0","1","1","5","1","2","1","2","","2","3","1","5","1","633753940910931968","付","330","","","","","","","","","","","","","","","","","","","true","12","2","moral","668","negative","缺德","","","","","","","","","","","","","","","","",""
"null","","null","html-keyboard-response","36","149689","0.0-6.0-1.0-4.0-0.1","4","4","4","4","4","4","4","4","4","4","5","5","5","5","5","5","5","5","5","5","1","1","1","1","1","1","1","1","1","1","0","1","1","0","0","0","0","0","1","1","0","0","1","1","5","1","2","1","2","","2","3","1","5","1","633753940910931968","付","330","","","","","","","","","","","","","","","","","","","","","","","","","","","","","","","","","","","","","","","","","",""
"542","<p style=""color:white; font-size: 35px;"">不仁</p>","e","categorize-html","37","150235","0.0-6.0-1.0-4.0-1.1","4","4","4","4","4","4","4","4","4","4","5","5","5","5","5","5","5","5","5","5","1","1","1","1","1","1","1","1","1","1","0","1","1","0","0","0","0","0","1","1","0","0","1","1","5","1","2","1","2","","2","3","1","5","1","633753940910931968","付","330","","","","","","","","","","","","","","","","","","","true","12","2","moral","542","negative","不仁","","","","","","","","","","","","","","","","",""
"null","","null","html-keyboard-response","38","150486","0.0-6.0-1.0-4.0-0.2","4","4","4","4","4","4","4","4","4","4","5","5","5","5","5","5","5","5","5","5","1","1","1","1","1","1","1","1","1","1","0","1","1","0","0","0","0","0","1","1","0","0","1","1","5","1","2","1","2","","2","3","1","5","1","633753940910931968","付","330","","","","","","","","","","","","","","","","","","","","","","","","","","","","","","","","","","","","","","","","","",""
"637","<p style=""color:white; font-size: 35px;"">正直</p>","i","categorize-html","39","151126","0.0-6.0-1.0-4.0-1.2","4","4","4","4","4","4","4","4","4","4","5","5","5","5","5","5","5","5","5","5","1","1","1","1","1","1","1","1","1","1","0","1","1","0","0","0","0","0","1","1","0","0","1","1","5","1","2","1","2","","2","3","1","5","1","633753940910931968","付","330","","","","","","","","","","","","","","","","","","","true","12","2","moral","637","positive","正直","","","","","","","","","","","","","","","","",""
"null","","null","html-keyboard-response","40","151377","0.0-6.0-1.0-4.0-0.3","4","4","4","4","4","4","4","4","4","4","5","5","5","5","5","5","5","5","5","5","1","1","1","1","1","1","1","1","1","1","0","1","1","0","0","0","0","0","1","1","0","0","1","1","5","1","2","1","2","","2","3","1","5","1","633753940910931968","付","330","","","","","","","","","","","","","","","","","","","","","","","","","","","","","","","","","","","","","","","","","",""
"604","<p style=""color:white; font-size: 35px;"">不孝</p>","e","categorize-html","41","151986","0.0-6.0-1.0-4.0-1.3","4","4","4","4","4","4","4","4","4","4","5","5","5","5","5","5","5","5","5","5","1","1","1","1","1","1","1","1","1","1","0","1","1","0","0","0","0","0","1","1","0","0","1","1","5","1","2","1","2","","2","3","1","5","1","633753940910931968","付","330","","","","","","","","","","","","","","","","","","","true","12","2","moral","604","negative","不孝","","","","","","","","","","","","","","","","",""
"null","","null","html-keyboard-response","42","152238","0.0-6.0-1.0-4.0-0.4","4","4","4","4","4","4","4","4","4","4","5","5","5","5","5","5","5","5","5","5","1","1","1","1","1","1","1","1","1","1","0","1","1","0","0","0","0","0","1","1","0","0","1","1","5","1","2","1","2","","2","3","1","5","1","633753940910931968","付","330","","","","","","","","","","","","","","","","","","","","","","","","","","","","","","","","","","","","","","","","","",""
"612","<p style=""color:white; font-size: 35px;"">高尚</p>","i","categorize-html","43","152854","0.0-6.0-1.0-4.0-1.4","4","4","4","4","4","4","4","4","4","4","5","5","5","5","5","5","5","5","5","5","1","1","1","1","1","1","1","1","1","1","0","1","1","0","0","0","0","0","1","1","0","0","1","1","5","1","2","1","2","","2","3","1","5","1","633753940910931968","付","330","","","","","","","","","","","","","","","","","","","true","12","2","moral","612","positive","高尚","","","","","","","","","","","","","","","","",""
"null","","null","html-keyboard-response","44","153106","0.0-6.0-1.0-4.0-0.5","4","4","4","4","4","4","4","4","4","4","5","5","5","5","5","5","5","5","5","5","1","1","1","1","1","1","1","1","1","1","0","1","1","0","0","0","0","0","1","1","0","0","1","1","5","1","2","1","2","","2","3","1","5","1","633753940910931968","付","330","","","","","","","","","","","","","","","","","","","","","","","","","","","","","","","","","","","","","","","","","",""
"933","<p style=""color:white; font-size: 35px;"">善良</p>","i","categorize-html","45","154043","0.0-6.0-1.0-4.0-1.5","4","4","4","4","4","4","4","4","4","4","5","5","5","5","5","5","5","5","5","5","1","1","1","1","1","1","1","1","1","1","0","1","1","0","0","0","0","0","1","1","0","0","1","1","5","1","2","1","2","","2","3","1","5","1","633753940910931968","付","330","","","","","","","","","","","","","","","","","","","true","12","2","moral","933","positive","善良","","","","","","","","","","","","","","","","",""
"null","","null","html-keyboard-response","46","154295","0.0-6.0-1.0-4.0-0.6","4","4","4","4","4","4","4","4","4","4","5","5","5","5","5","5","5","5","5","5","1","1","1","1","1","1","1","1","1","1","0","1","1","0","0","0","0","0","1","1","0","0","1","1","5","1","2","1","2","","2","3","1","5","1","633753940910931968","付","330","","","","","","","","","","","","","","","","","","","","","","","","","","","","","","","","","","","","","","","","","",""
"1143","<p style=""color:white; font-size: 35px;"">卑鄙</p>","e","categorize-html","47","155441","0.0-6.0-1.0-4.0-1.6","4","4","4","4","4","4","4","4","4","4","5","5","5","5","5","5","5","5","5","5","1","1","1","1","1","1","1","1","1","1","0","1","1","0","0","0","0","0","1","1","0","0","1","1","5","1","2","1","2","","2","3","1","5","1","633753940910931968","付","330","","","","","","","","","","","","","","","","","","","true","12","2","moral","1143","negative","卑鄙","","","","","","","","","","","","","","","","",""
"null","","null","html-keyboard-response","48","155691","0.0-6.0-1.0-4.0-0.7","4","4","4","4","4","4","4","4","4","4","5","5","5","5","5","5","5","5","5","5","1","1","1","1","1","1","1","1","1","1","0","1","1","0","0","0","0","0","1","1","0","0","1","1","5","1","2","1","2","","2","3","1","5","1","633753940910931968","付","330","","","","","","","","","","","","","","","","","","","","","","","","","","","","","","","","","","","","","","","","","",""
"542","<p style=""color:white; font-size: 35px;"">诚信</p>","i","categorize-html","49","156235","0.0-6.0-1.0-4.0-1.7","4","4","4","4","4","4","4","4","4","4","5","5","5","5","5","5","5","5","5","5","1","1","1","1","1","1","1","1","1","1","0","1","1","0","0","0","0","0","1","1","0","0","1","1","5","1","2","1","2","","2","3","1","5","1","633753940910931968","付","330","","","","","","","","","","","","","","","","","","","true","12","2","moral","542","positive","诚信","","","","","","","","","","","","","","","","",""
"null","","null","html-keyboard-response","50","156486","0.0-6.0-1.0-4.0-0.8","4","4","4","4","4","4","4","4","4","4","5","5","5","5","5","5","5","5","5","5","1","1","1","1","1","1","1","1","1","1","0","1","1","0","0","0","0","0","1","1","0","0","1","1","5","1","2","1","2","","2","3","1","5","1","633753940910931968","付","330","","","","","","","","","","","","","","","","","","","","","","","","","","","","","","","","","","","","","","","","","",""
"490","<p style=""color:white; font-size: 35px;"">君子</p>","i","categorize-html","51","156978","0.0-6.0-1.0-4.0-1.8","4","4","4","4","4","4","4","4","4","4","5","5","5","5","5","5","5","5","5","5","1","1","1","1","1","1","1","1","1","1","0","1","1","0","0","0","0","0","1","1","0","0","1","1","5","1","2","1","2","","2","3","1","5","1","633753940910931968","付","330","","","","","","","","","","","","","","","","","","","true","12","2","moral","490","positive","君子","","","","","","","","","","","","","","","","",""
"null","","null","html-keyboard-response","52","157229","0.0-6.0-1.0-4.0-0.9","4","4","4","4","4","4","4","4","4","4","5","5","5","5","5","5","5","5","5","5","1","1","1","1","1","1","1","1","1","1","0","1","1","0","0","0","0","0","1","1","0","0","1","1","5","1","2","1","2","","2","3","1","5","1","633753940910931968","付","330","","","","","","","","","","","","","","","","","","","","","","","","","","","","","","","","","","","","","","","","","",""
"493","<p style=""color:white; font-size: 35px;"">小人</p>","e","categorize-html","53","157724","0.0-6.0-1.0-4.0-1.9","4","4","4","4","4","4","4","4","4","4","5","5","5","5","5","5","5","5","5","5","1","1","1","1","1","1","1","1","1","1","0","1","1","0","0","0","0","0","1","1","0","0","1","1","5","1","2","1","2","","2","3","1","5","1","633753940910931968","付","330","","","","","","","","","","","","","","","","","","","true","12","2","moral","493","negative","小人","","","","","","","","","","","","","","","","",""
"null","","null","html-keyboard-response","54","157975","0.0-6.0-1.0-4.0-0.10","4","4","4","4","4","4","4","4","4","4","5","5","5","5","5","5","5","5","5","5","1","1","1","1","1","1","1","1","1","1","0","1","1","0","0","0","0","0","1","1","0","0","1","1","5","1","2","1","2","","2","3","1","5","1","633753940910931968","付","330","","","","","","","","","","","","","","","","","","","","","","","","","","","","","","","","","","","","","","","","","",""
"629","<p style=""color:white; font-size: 35px;"">廉正</p>","i","categorize-html","55","158607","0.0-6.0-1.0-4.0-1.10","4","4","4","4","4","4","4","4","4","4","5","5","5","5","5","5","5","5","5","5","1","1","1","1","1","1","1","1","1","1","0","1","1","0","0","0","0","0","1","1","0","0","1","1","5","1","2","1","2","","2","3","1","5","1","633753940910931968","付","330","","","","","","","","","","","","","","","","","","","true","12","2","moral","629","positive","廉正","","","","","","","","","","","","","","","","",""
"null","","null","html-keyboard-response","56","158858","0.0-6.0-1.0-4.0-0.11","4","4","4","4","4","4","4","4","4","4","5","5","5","5","5","5","5","5","5","5","1","1","1","1","1","1","1","1","1","1","0","1","1","0","0","0","0","0","1","1","0","0","1","1","5","1","2","1","2","","2","3","1","5","1","633753940910931968","付","330","","","","","","","","","","","","","","","","","","","","","","","","","","","","","","","","","","","","","","","","","",""
"421","<p style=""color:white; font-size: 35px;"">黑心</p>","e","categorize-html","57","159281","0.0-6.0-1.0-4.0-1.11","4","4","4","4","4","4","4","4","4","4","5","5","5","5","5","5","5","5","5","5","1","1","1","1","1","1","1","1","1","1","0","1","1","0","0","0","0","0","1","1","0","0","1","1","5","1","2","1","2","","2","3","1","5","1","633753940910931968","付","330","","","","","","","","","","","","","","","","","","","true","12","2","moral","421","negative","黑心","","","","","","","","","","","","","","","","",""
"1598","
    <div class=""tag-bottom""><p>
    —— 任务3：对“自我/消极”词和“他人/积极”词分类 ——<p/>
    <span style=""color:#78DCE8""><b>注意上方，之前的四类词语将混合在一起交替呈现</b></span><p/>
    <span style=""color:#FFD866""><b>请根据上方标签的提示，尽可能正确并且快速地做出按键反应</b></span><p/>
    当按键错误时屏幕中会出现<span style=""color:red""> X </span>，需要按另一个键纠正才能继续<br/><p/>
    请把双手食指分别放在键盘的“E”键和“I”键上<p/>
    按<空格键>开始
    </p></div>"," ","html-keyboard-response","58","160880","0.0-6.0-1.0-5.0","4","4","4","4","4","4","4","4","4","4","5","5","5","5","5","5","5","5","5","5","1","1","1","1","1","1","1","1","1","1","0","1","1","0","0","0","0","0","1","1","0","0","1","1","5","1","2","1","2","","2","3","1","5","1","633753940910931968","付","330","","","","","","","","","","","","","","","","","","","","","","","","","","","","","","","","","","","","","","","","","",""
"null","","null","html-keyboard-response","59","161138","0.0-6.0-1.0-6.0-0.0","4","4","4","4","4","4","4","4","4","4","5","5","5","5","5","5","5","5","5","5","1","1","1","1","1","1","1","1","1","1","0","1","1","0","0","0","0","0","1","1","0","0","1","1","5","1","2","1","2","","2","3","1","5","1","633753940910931968","付","330","","","","","","","","","","","","","","","","","","","","","","","","","","","","","","","","","","","","","","","","","",""
"693","<p style=""color:rgb(150, 250, 100); font-size: 35px;"">别人</p>","i","categorize-html","60","161837","0.0-6.0-1.0-6.0-1.0","4","4","4","4","4","4","4","4","4","4","5","5","5","5","5","5","5","5","5","5","1","1","1","1","1","1","1","1","1","1","0","1","1","0","0","0","0","0","1","1","0","0","1","1","5","1","2","1","2","","2","3","1","5","1","633753940910931968","付","330","","","","","","","","","","","","","","","","","","","true","13","3","moral","693","other","别人","","","","","","","","","","","","","","","","",""
"null","","null","html-keyboard-response","61","162090","0.0-6.0-1.0-6.0-0.1","4","4","4","4","4","4","4","4","4","4","5","5","5","5","5","5","5","5","5","5","1","1","1","1","1","1","1","1","1","1","0","1","1","0","0","0","0","0","1","1","0","0","1","1","5","1","2","1","2","","2","3","1","5","1","633753940910931968","付","330","","","","","","","","","","","","","","","","","","","","","","","","","","","","","","","","","","","","","","","","","",""
"606","<p style=""color:white; font-size: 35px;"">小人</p>","e","categorize-html","62","162699","0.0-6.0-1.0-6.0-1.1","4","4","4","4","4","4","4","4","4","4","5","5","5","5","5","5","5","5","5","5","1","1","1","1","1","1","1","1","1","1","0","1","1","0","0","0","0","0","1","1","0","0","1","1","5","1","2","1","2","","2","3","1","5","1","633753940910931968","付","330","","","","","","","","","","","","","","","","","","","true","13","3","moral","606","negative","小人","","","","","","","","","","","","","","","","",""
"null","","null","html-keyboard-response","63","162950","0.0-6.0-1.0-6.0-0.2","4","4","4","4","4","4","4","4","4","4","5","5","5","5","5","5","5","5","5","5","1","1","1","1","1","1","1","1","1","1","0","1","1","0","0","0","0","0","1","1","0","0","1","1","5","1","2","1","2","","2","3","1","5","1","633753940910931968","付","330","","","","","","","","","","","","","","","","","","","","","","","","","","","","","","","","","","","","","","","","","",""
"857","<p style=""color:rgb(150, 250, 100); font-size: 35px;"">自己的</p>","e","categorize-html","64","163813","0.0-6.0-1.0-6.0-1.2","4","4","4","4","4","4","4","4","4","4","5","5","5","5","5","5","5","5","5","5","1","1","1","1","1","1","1","1","1","1","0","1","1","0","0","0","0","0","1","1","0","0","1","1","5","1","2","1","2","","2","3","1","5","1","633753940910931968","付","330","","","","","","","","","","","","","","","","","","","true","13","3","moral","857","self","自己的","","","","","","","","","","","","","","","","",""
"null","","null","html-keyboard-response","65","164071","0.0-6.0-1.0-6.0-0.3","4","4","4","4","4","4","4","4","4","4","5","5","5","5","5","5","5","5","5","5","1","1","1","1","1","1","1","1","1","1","0","1","1","0","0","0","0","0","1","1","0","0","1","1","5","1","2","1","2","","2","3","1","5","1","633753940910931968","付","330","","","","","","","","","","","","","","","","","","","","","","","","","","","","","","","","","","","","","","","","","",""
"870","<p style=""color:white; font-size: 35px;"">廉正</p>","i","categorize-html","66","164946","0.0-6.0-1.0-6.0-1.3","4","4","4","4","4","4","4","4","4","4","5","5","5","5","5","5","5","5","5","5","1","1","1","1","1","1","1","1","1","1","0","1","1","0","0","0","0","0","1","1","0","0","1","1","5","1","2","1","2","","2","3","1","5","1","633753940910931968","付","330","","","","","","","","","","","","","","","","","","","true","13","3","moral","870","positive","廉正","","","","","","","","","","","","","","","","",""
"null","","null","html-keyboard-response","67","165198","0.0-6.0-1.0-6.0-0.4","4","4","4","4","4","4","4","4","4","4","5","5","5","5","5","5","5","5","5","5","1","1","1","1","1","1","1","1","1","1","0","1","1","0","0","0","0","0","1","1","0","0","1","1","5","1","2","1","2","","2","3","1","5","1","633753940910931968","付","330","","","","","","","","","","","","","","","","","","","","","","","","","","","","","","","","","","","","","","","","","",""
"649","<p style=""color:rgb(150, 250, 100); font-size: 35px;"">本人</p>","e","categorize-html","68","165852","0.0-6.0-1.0-6.0-1.4","4","4","4","4","4","4","4","4","4","4","5","5","5","5","5","5","5","5","5","5","1","1","1","1","1","1","1","1","1","1","0","1","1","0","0","0","0","0","1","1","0","0","1","1","5","1","2","1","2","","2","3","1","5","1","633753940910931968","付","330","","","","","","","","","","","","","","","","","","","true","13","3","moral","649","self","本人","","","","","","","","","","","","","","","","",""
"null","","null","html-keyboard-response","69","166105","0.0-6.0-1.0-6.0-0.5","4","4","4","4","4","4","4","4","4","4","5","5","5","5","5","5","5","5","5","5","1","1","1","1","1","1","1","1","1","1","0","1","1","0","0","0","0","0","1","1","0","0","1","1","5","1","2","1","2","","2","3","1","5","1","633753940910931968","付","330","","","","","","","","","","","","","","","","","","","","","","","","","","","","","","","","","","","","","","","","","",""
"528","<p style=""color:white; font-size: 35px;"">不仁</p>","e","categorize-html","70","166636","0.0-6.0-1.0-6.0-1.5","4","4","4","4","4","4","4","4","4","4","5","5","5","5","5","5","5","5","5","5","1","1","1","1","1","1","1","1","1","1","0","1","1","0","0","0","0","0","1","1","0","0","1","1","5","1","2","1","2","","2","3","1","5","1","633753940910931968","付","330","","","","","","","","","","","","","","","","","","","true","13","3","moral","528","negative","不仁","","","","","","","","","","","","","","","","",""
"null","","null","html-keyboard-response","71","166888","0.0-6.0-1.0-6.0-0.6","4","4","4","4","4","4","4","4","4","4","5","5","5","5","5","5","5","5","5","5","1","1","1","1","1","1","1","1","1","1","0","1","1","0","0","0","0","0","1","1","0","0","1","1","5","1","2","1","2","","2","3","1","5","1","633753940910931968","付","330","","","","","","","","","","","","","","","","","","","","","","","","","","","","","","","","","","","","","","","","","",""
"400","<p style=""color:rgb(150, 250, 100); font-size: 35px;"">他</p>","i","categorize-html","72","167292","0.0-6.0-1.0-6.0-1.6","4","4","4","4","4","4","4","4","4","4","5","5","5","5","5","5","5","5","5","5","1","1","1","1","1","1","1","1","1","1","0","1","1","0","0","0","0","0","1","1","0","0","1","1","5","1","2","1","2","","2","3","1","5","1","633753940910931968","付","330","","","","","","","","","","","","","","","","","","","true","13","3","moral","400","other","他","","","","","","","","","","","","","","","","",""
"null","","null","html-keyboard-response","73","167544","0.0-6.0-1.0-6.0-0.7","4","4","4","4","4","4","4","4","4","4","5","5","5","5","5","5","5","5","5","5","1","1","1","1","1","1","1","1","1","1","0","1","1","0","0","0","0","0","1","1","0","0","1","1","5","1","2","1","2","","2","3","1","5","1","633753940910931968","付","330","","","","","","","","","","","","","","","","","","","","","","","","","","","","","","","","","","","","","","","","","",""
"497","<p style=""color:white; font-size: 35px;"">诚信</p>","i","categorize-html","74","168046","0.0-6.0-1.0-6.0-1.7","4","4","4","4","4","4","4","4","4","4","5","5","5","5","5","5","5","5","5","5","1","1","1","1","1","1","1","1","1","1","0","1","1","0","0","0","0","0","1","1","0","0","1","1","5","1","2","1","2","","2","3","1","5","1","633753940910931968","付","330","","","","","","","","","","","","","","","","","","","true","13","3","moral","497","positive","诚信","","","","","","","","","","","","","","","","",""
"null","","null","html-keyboard-response","75","168298","0.0-6.0-1.0-6.0-0.8","4","4","4","4","4","4","4","4","4","4","5","5","5","5","5","5","5","5","5","5","1","1","1","1","1","1","1","1","1","1","0","1","1","0","0","0","0","0","1","1","0","0","1","1","5","1","2","1","2","","2","3","1","5","1","633753940910931968","付","330","","","","","","","","","","","","","","","","","","","","","","","","","","","","","","","","","","","","","","","","","",""
"571","<p style=""color:rgb(150, 250, 100); font-size: 35px;"">我的</p>","e","categorize-html","76","168875","0.0-6.0-1.0-6.0-1.8","4","4","4","4","4","4","4","4","4","4","5","5","5","5","5","5","5","5","5","5","1","1","1","1","1","1","1","1","1","1","0","1","1","0","0","0","0","0","1","1","0","0","1","1","5","1","2","1","2","","2","3","1","5","1","633753940910931968","付","330","","","","","","","","","","","","","","","","","","","true","13","3","moral","571","self","我的","","","","","","","","","","","","","","","","",""
"null","","null","html-keyboard-response","77","169127","0.0-6.0-1.0-6.0-0.9","4","4","4","4","4","4","4","4","4","4","5","5","5","5","5","5","5","5","5","5","1","1","1","1","1","1","1","1","1","1","0","1","1","0","0","0","0","0","1","1","0","0","1","1","5","1","2","1","2","","2","3","1","5","1","633753940910931968","付","330","","","","","","","","","","","","","","","","","","","","","","","","","","","","","","","","","","","","","","","","","",""
"695","<p style=""color:white; font-size: 35px;"">缺德</p>","e","categorize-html","78","169826","0.0-6.0-1.0-6.0-1.9","4","4","4","4","4","4","4","4","4","4","5","5","5","5","5","5","5","5","5","5","1","1","1","1","1","1","1","1","1","1","0","1","1","0","0","0","0","0","1","1","0","0","1","1","5","1","2","1","2","","2","3","1","5","1","633753940910931968","付","330","","","","","","","","","","","","","","","","","","","true","13","3","moral","695","negative","缺德","","","","","","","","","","","","","","","","",""
"null","","null","html-keyboard-response","79","170090","0.0-6.0-1.0-6.0-0.10","4","4","4","4","4","4","4","4","4","4","5","5","5","5","5","5","5","5","5","5","1","1","1","1","1","1","1","1","1","1","0","1","1","0","0","0","0","0","1","1","0","0","1","1","5","1","2","1","2","","2","3","1","5","1","633753940910931968","付","330","","","","","","","","","","","","","","","","","","","","","","","","","","","","","","","","","","","","","","","","","",""
"587","<p style=""color:rgb(150, 250, 100); font-size: 35px;"">别人的</p>","i","categorize-html","80","170682","0.0-6.0-1.0-6.0-1.10","4","4","4","4","4","4","4","4","4","4","5","5","5","5","5","5","5","5","5","5","1","1","1","1","1","1","1","1","1","1","0","1","1","0","0","0","0","0","1","1","0","0","1","1","5","1","2","1","2","","2","3","1","5","1","633753940910931968","付","330","","","","","","","","","","","","","","","","","","","true","13","3","moral","587","other","别人的","","","","","","","","","","","","","","","","",""
"null","","null","html-keyboard-response","81","170934","0.0-6.0-1.0-6.0-0.11","4","4","4","4","4","4","4","4","4","4","5","5","5","5","5","5","5","5","5","5","1","1","1","1","1","1","1","1","1","1","0","1","1","0","0","0","0","0","1","1","0","0","1","1","5","1","2","1","2","","2","3","1","5","1","633753940910931968","付","330","","","","","","","","","","","","","","","","","","","","","","","","","","","","","","","","","","","","","","","","","",""
"619","<p style=""color:white; font-size: 35px;"">正直</p>","i","categorize-html","82","171558","0.0-6.0-1.0-6.0-1.11","4","4","4","4","4","4","4","4","4","4","5","5","5","5","5","5","5","5","5","5","1","1","1","1","1","1","1","1","1","1","0","1","1","0","0","0","0","0","1","1","0","0","1","1","5","1","2","1","2","","2","3","1","5","1","633753940910931968","付","330","","","","","","","","","","","","","","","","","","","true","13","3","moral","619","positive","正直","","","","","","","","","","","","","","","","",""
"null","","null","html-keyboard-response","83","171811","0.0-6.0-1.0-6.0-0.12","4","4","4","4","4","4","4","4","4","4","5","5","5","5","5","5","5","5","5","5","1","1","1","1","1","1","1","1","1","1","0","1","1","0","0","0","0","0","1","1","0","0","1","1","5","1","2","1","2","","2","3","1","5","1","633753940910931968","付","330","","","","","","","","","","","","","","","","","","","","","","","","","","","","","","","","","","","","","","","","","",""
"421","<p style=""color:rgb(150, 250, 100); font-size: 35px;"">他人的</p>","i","categorize-html","84","172236","0.0-6.0-1.0-6.0-1.12","4","4","4","4","4","4","4","4","4","4","5","5","5","5","5","5","5","5","5","5","1","1","1","1","1","1","1","1","1","1","0","1","1","0","0","0","0","0","1","1","0","0","1","1","5","1","2","1","2","","2","3","1","5","1","633753940910931968","付","330","","","","","","","","","","","","","","","","","","","true","13","3","moral","421","other","他人的","","","","","","","","","","","","","","","","",""
"null","","null","html-keyboard-response","85","172488","0.0-6.0-1.0-6.0-0.13","4","4","4","4","4","4","4","4","4","4","5","5","5","5","5","5","5","5","5","5","1","1","1","1","1","1","1","1","1","1","0","1","1","0","0","0","0","0","1","1","0","0","1","1","5","1","2","1","2","","2","3","1","5","1","633753940910931968","付","330","","","","","","","","","","","","","","","","","","","","","","","","","","","","","","","","","","","","","","","","","",""
"1047","<p style=""color:white; font-size: 35px;"">君子</p>","i","categorize-html","86","173538","0.0-6.0-1.0-6.0-1.13","4","4","4","4","4","4","4","4","4","4","5","5","5","5","5","5","5","5","5","5","1","1","1","1","1","1","1","1","1","1","0","1","1","0","0","0","0","0","1","1","0","0","1","1","5","1","2","1","2","","2","3","1","5","1","633753940910931968","付","330","","","","","","","","","","","","","","","","","","","true","13","3","moral","1047","positive","君子","","","","","","","","","","","","","","","","",""
"null","","null","html-keyboard-response","87","173789","0.0-6.0-1.0-6.0-0.14","4","4","4","4","4","4","4","4","4","4","5","5","5","5","5","5","5","5","5","5","1","1","1","1","1","1","1","1","1","1","0","1","1","0","0","0","0","0","1","1","0","0","1","1","5","1","2","1","2","","2","3","1","5","1","633753940910931968","付","330","","","","","","","","","","","","","","","","","","","","","","","","","","","","","","","","","","","","","","","","","",""
"851","<p style=""color:rgb(150, 250, 100); font-size: 35px;"">本人的</p>","e","categorize-html","88","174645","0.0-6.0-1.0-6.0-1.14","4","4","4","4","4","4","4","4","4","4","5","5","5","5","5","5","5","5","5","5","1","1","1","1","1","1","1","1","1","1","0","1","1","0","0","0","0","0","1","1","0","0","1","1","5","1","2","1","2","","2","3","1","5","1","633753940910931968","付","330","","","","","","","","","","","","","","","","","","","true","13","3","moral","851","self","本人的","","","","","","","","","","","","","","","","",""
"null","","null","html-keyboard-response","89","174897","0.0-6.0-1.0-6.0-0.15","4","4","4","4","4","4","4","4","4","4","5","5","5","5","5","5","5","5","5","5","1","1","1","1","1","1","1","1","1","1","0","1","1","0","0","0","0","0","1","1","0","0","1","1","5","1","2","1","2","","2","3","1","5","1","633753940910931968","付","330","","","","","","","","","","","","","","","","","","","","","","","","","","","","","","","","","","","","","","","","","",""
"943","<p style=""color:white; font-size: 35px;"">不孝</p>","i","categorize-html","90","176274","0.0-6.0-1.0-6.0-1.15","4","4","4","4","4","4","4","4","4","4","5","5","5","5","5","5","5","5","5","5","1","1","1","1","1","1","1","1","1","1","0","1","1","0","0","0","0","0","1","1","0","0","1","1","5","1","2","1","2","","2","3","1","5","1","633753940910931968","付","330","","","","","","","","","","","","","","","","","","","false","13","3","moral","1295.1739130434783","negative","不孝","","","","","","","","","","","","","","","","",""
"null","","null","html-keyboard-response","91","176526","0.0-6.0-1.0-6.0-0.16","4","4","4","4","4","4","4","4","4","4","5","5","5","5","5","5","5","5","5","5","1","1","1","1","1","1","1","1","1","1","0","1","1","0","0","0","0","0","1","1","0","0","1","1","5","1","2","1","2","","2","3","1","5","1","633753940910931968","付","330","","","","","","","","","","","","","","","","","","","","","","","","","","","","","","","","","","","","","","","","","",""
"811","<p style=""color:rgb(150, 250, 100); font-size: 35px;"">我</p>","e","categorize-html","92","177342","0.0-6.0-1.0-6.0-1.16","4","4","4","4","4","4","4","4","4","4","5","5","5","5","5","5","5","5","5","5","1","1","1","1","1","1","1","1","1","1","0","1","1","0","0","0","0","0","1","1","0","0","1","1","5","1","2","1","2","","2","3","1","5","1","633753940910931968","付","330","","","","","","","","","","","","","","","","","","","true","13","3","moral","811","self","我","","","","","","","","","","","","","","","","",""
"null","","null","html-keyboard-response","93","177593","0.0-6.0-1.0-6.0-0.17","4","4","4","4","4","4","4","4","4","4","5","5","5","5","5","5","5","5","5","5","1","1","1","1","1","1","1","1","1","1","0","1","1","0","0","0","0","0","1","1","0","0","1","1","5","1","2","1","2","","2","3","1","5","1","633753940910931968","付","330","","","","","","","","","","","","","","","","","","","","","","","","","","","","","","","","","","","","","","","","","",""
"1280","<p style=""color:white; font-size: 35px;"">善良</p>","i","categorize-html","94","178878","0.0-6.0-1.0-6.0-1.17","4","4","4","4","4","4","4","4","4","4","5","5","5","5","5","5","5","5","5","5","1","1","1","1","1","1","1","1","1","1","0","1","1","0","0","0","0","0","1","1","0","0","1","1","5","1","2","1","2","","2","3","1","5","1","633753940910931968","付","330","","","","","","","","","","","","","","","","","","","true","13","3","moral","1280","positive","善良","","","","","","","","","","","","","","","","",""
"null","","null","html-keyboard-response","95","179130","0.0-6.0-1.0-6.0-0.18","4","4","4","4","4","4","4","4","4","4","5","5","5","5","5","5","5","5","5","5","1","1","1","1","1","1","1","1","1","1","0","1","1","0","0","0","0","0","1","1","0","0","1","1","5","1","2","1","2","","2","3","1","5","1","633753940910931968","付","330","","","","","","","","","","","","","","","","","","","","","","","","","","","","","","","","","","","","","","","","","",""
"470","<p style=""color:rgb(150, 250, 100); font-size: 35px;"">他的</p>","i","categorize-html","96","179604","0.0-6.0-1.0-6.0-1.18","4","4","4","4","4","4","4","4","4","4","5","5","5","5","5","5","5","5","5","5","1","1","1","1","1","1","1","1","1","1","0","1","1","0","0","0","0","0","1","1","0","0","1","1","5","1","2","1","2","","2","3","1","5","1","633753940910931968","付","330","","","","","","","","","","","","","","","","","","","true","13","3","moral","470","other","他的","","","","","","","","","","","","","","","","",""
"null","","null","html-keyboard-response","97","179857","0.0-6.0-1.0-6.0-0.19","4","4","4","4","4","4","4","4","4","4","5","5","5","5","5","5","5","5","5","5","1","1","1","1","1","1","1","1","1","1","0","1","1","0","0","0","0","0","1","1","0","0","1","1","5","1","2","1","2","","2","3","1","5","1","633753940910931968","付","330","","","","","","","","","","","","","","","","","","","","","","","","","","","","","","","","","","","","","","","","","",""
"761","<p style=""color:white; font-size: 35px;"">卑鄙</p>","e","categorize-html","98","180623","0.0-6.0-1.0-6.0-1.19","4","4","4","4","4","4","4","4","4","4","5","5","5","5","5","5","5","5","5","5","1","1","1","1","1","1","1","1","1","1","0","1","1","0","0","0","0","0","1","1","0","0","1","1","5","1","2","1","2","","2","3","1","5","1","633753940910931968","付","330","","","","","","","","","","","","","","","","","","","true","13","3","moral","761","negative","卑鄙","","","","","","","","","","","","","","","","",""
"null","","null","html-keyboard-response","99","180875","0.0-6.0-1.0-6.0-0.20","4","4","4","4","4","4","4","4","4","4","5","5","5","5","5","5","5","5","5","5","1","1","1","1","1","1","1","1","1","1","0","1","1","0","0","0","0","0","1","1","0","0","1","1","5","1","2","1","2","","2","3","1","5","1","633753940910931968","付","330","","","","","","","","","","","","","","","","","","","","","","","","","","","","","","","","","","","","","","","","","",""
"718","<p style=""color:rgb(150, 250, 100); font-size: 35px;"">自己</p>","e","categorize-html","100","181598","0.0-6.0-1.0-6.0-1.20","4","4","4","4","4","4","4","4","4","4","5","5","5","5","5","5","5","5","5","5","1","1","1","1","1","1","1","1","1","1","0","1","1","0","0","0","0","0","1","1","0","0","1","1","5","1","2","1","2","","2","3","1","5","1","633753940910931968","付","330","","","","","","","","","","","","","","","","","","","true","13","3","moral","718","self","自己","","","","","","","","","","","","","","","","",""
"null","","null","html-keyboard-response","101","181851","0.0-6.0-1.0-6.0-0.21","4","4","4","4","4","4","4","4","4","4","5","5","5","5","5","5","5","5","5","5","1","1","1","1","1","1","1","1","1","1","0","1","1","0","0","0","0","0","1","1","0","0","1","1","5","1","2","1","2","","2","3","1","5","1","633753940910931968","付","330","","","","","","","","","","","","","","","","","","","","","","","","","","","","","","","","","","","","","","","","","",""
"673","<p style=""color:white; font-size: 35px;"">高尚</p>","i","categorize-html","102","182527","0.0-6.0-1.0-6.0-1.21","4","4","4","4","4","4","4","4","4","4","5","5","5","5","5","5","5","5","5","5","1","1","1","1","1","1","1","1","1","1","0","1","1","0","0","0","0","0","1","1","0","0","1","1","5","1","2","1","2","","2","3","1","5","1","633753940910931968","付","330","","","","","","","","","","","","","","","","","","","true","13","3","moral","673","positive","高尚","","","","","","","","","","","","","","","","",""
"null","","null","html-keyboard-response","103","182779","0.0-6.0-1.0-6.0-0.22","4","4","4","4","4","4","4","4","4","4","5","5","5","5","5","5","5","5","5","5","1","1","1","1","1","1","1","1","1","1","0","1","1","0","0","0","0","0","1","1","0","0","1","1","5","1","2","1","2","","2","3","1","5","1","633753940910931968","付","330","","","","","","","","","","","","","","","","","","","","","","","","","","","","","","","","","","","","","","","","","",""
"447","<p style=""color:rgb(150, 250, 100); font-size: 35px;"">他人</p>","i","categorize-html","104","183230","0.0-6.0-1.0-6.0-1.22","4","4","4","4","4","4","4","4","4","4","5","5","5","5","5","5","5","5","5","5","1","1","1","1","1","1","1","1","1","1","0","1","1","0","0","0","0","0","1","1","0","0","1","1","5","1","2","1","2","","2","3","1","5","1","633753940910931968","付","330","","","","","","","","","","","","","","","","","","","true","13","3","moral","447","other","他人","","","","","","","","","","","","","","","","",""
"null","","null","html-keyboard-response","105","183482","0.0-6.0-1.0-6.0-0.23","4","4","4","4","4","4","4","4","4","4","5","5","5","5","5","5","5","5","5","5","1","1","1","1","1","1","1","1","1","1","0","1","1","0","0","0","0","0","1","1","0","0","1","1","5","1","2","1","2","","2","3","1","5","1","633753940910931968","付","330","","","","","","","","","","","","","","","","","","","","","","","","","","","","","","","","","","","","","","","","","",""
"938","<p style=""color:white; font-size: 35px;"">黑心</p>","e","categorize-html","106","184425","0.0-6.0-1.0-6.0-1.23","4","4","4","4","4","4","4","4","4","4","5","5","5","5","5","5","5","5","5","5","1","1","1","1","1","1","1","1","1","1","0","1","1","0","0","0","0","0","1","1","0","0","1","1","5","1","2","1","2","","2","3","1","5","1","633753940910931968","付","330","","","","","","","","","","","","","","","","","","","true","13","3","moral","938","negative","黑心","","","","","","","","","","","","","","","","",""
"33910","
    <div class=""tag-bottom""><p>
    —— 任务4：对“自我/消极”词和“他人/积极”词分类 ——<p/>
    <span style=""color:#78DCE8""><b>与刚才的任务完全相同，请再次对这四类词语分类</b></span><p/>
    <span style=""color:#FFD866""><b>请根据上方标签的提示，尽可能正确并且快速地做出按键反应</b></span><p/>
    当按键错误时屏幕中会出现<span style=""color:red""> X </span>，需要按另一个键纠正才能继续<br/><p/>
    请把双手食指分别放在键盘的“E”键和“I”键上<p/>
    按<空格键>开始
    </p></div>"," ","html-keyboard-response","107","218336","0.0-6.0-1.0-7.0","4","4","4","4","4","4","4","4","4","4","5","5","5","5","5","5","5","5","5","5","1","1","1","1","1","1","1","1","1","1","0","1","1","0","0","0","0","0","1","1","0","0","1","1","5","1","2","1","2","","2","3","1","5","1","633753940910931968","付","330","","","","","","","","","","","","","","","","","","","","","","","","","","","","","","","","","","","","","","","","","",""
"null","","null","html-keyboard-response","108","218589","0.0-6.0-1.0-8.0-0.0","4","4","4","4","4","4","4","4","4","4","5","5","5","5","5","5","5","5","5","5","1","1","1","1","1","1","1","1","1","1","0","1","1","0","0","0","0","0","1","1","0","0","1","1","5","1","2","1","2","","2","3","1","5","1","633753940910931968","付","330","","","","","","","","","","","","","","","","","","","","","","","","","","","","","","","","","","","","","","","","","",""
"716","<p style=""color:rgb(150, 250, 100); font-size: 35px;"">自己</p>","e","categorize-html","109","219311","0.0-6.0-1.0-8.0-1.0","4","4","4","4","4","4","4","4","4","4","5","5","5","5","5","5","5","5","5","5","1","1","1","1","1","1","1","1","1","1","0","1","1","0","0","0","0","0","1","1","0","0","1","1","5","1","2","1","2","","2","3","1","5","1","633753940910931968","付","330","","","","","","","","","","","","","","","","","","","true","14","4","moral","716","self","自己","","","","","","","","","","","","","","","","",""
"null","","null","html-keyboard-response","110","219563","0.0-6.0-1.0-8.0-0.1","4","4","4","4","4","4","4","4","4","4","5","5","5","5","5","5","5","5","5","5","1","1","1","1","1","1","1","1","1","1","0","1","1","0","0","0","0","0","1","1","0","0","1","1","5","1","2","1","2","","2","3","1","5","1","633753940910931968","付","330","","","","","","","","","","","","","","","","","","","","","","","","","","","","","","","","","","","","","","","","","",""
"821","<p style=""color:white; font-size: 35px;"">缺德</p>","e","categorize-html","111","220387","0.0-6.0-1.0-8.0-1.1","4","4","4","4","4","4","4","4","4","4","5","5","5","5","5","5","5","5","5","5","1","1","1","1","1","1","1","1","1","1","0","1","1","0","0","0","0","0","1","1","0","0","1","1","5","1","2","1","2","","2","3","1","5","1","633753940910931968","付","330","","","","","","","","","","","","","","","","","","","true","14","4","moral","821","negative","缺德","","","","","","","","","","","","","","","","",""
"null","","null","html-keyboard-response","112","220638","0.0-6.0-1.0-8.0-0.2","4","4","4","4","4","4","4","4","4","4","5","5","5","5","5","5","5","5","5","5","1","1","1","1","1","1","1","1","1","1","0","1","1","0","0","0","0","0","1","1","0","0","1","1","5","1","2","1","2","","2","3","1","5","1","633753940910931968","付","330","","","","","","","","","","","","","","","","","","","","","","","","","","","","","","","","","","","","","","","","","",""
"759","<p style=""color:rgb(150, 250, 100); font-size: 35px;"">他人的</p>","i","categorize-html","113","221401","0.0-6.0-1.0-8.0-1.2","4","4","4","4","4","4","4","4","4","4","5","5","5","5","5","5","5","5","5","5","1","1","1","1","1","1","1","1","1","1","0","1","1","0","0","0","0","0","1","1","0","0","1","1","5","1","2","1","2","","2","3","1","5","1","633753940910931968","付","330","","","","","","","","","","","","","","","","","","","true","14","4","moral","759","other","他人的","","","","","","","","","","","","","","","","",""
"null","","null","html-keyboard-response","114","221655","0.0-6.0-1.0-8.0-0.3","4","4","4","4","4","4","4","4","4","4","5","5","5","5","5","5","5","5","5","5","1","1","1","1","1","1","1","1","1","1","0","1","1","0","0","0","0","0","1","1","0","0","1","1","5","1","2","1","2","","2","3","1","5","1","633753940910931968","付","330","","","","","","","","","","","","","","","","","","","","","","","","","","","","","","","","","","","","","","","","","",""
"421","<p style=""color:white; font-size: 35px;"">善良</p>","i","categorize-html","115","222080","0.0-6.0-1.0-8.0-1.3","4","4","4","4","4","4","4","4","4","4","5","5","5","5","5","5","5","5","5","5","1","1","1","1","1","1","1","1","1","1","0","1","1","0","0","0","0","0","1","1","0","0","1","1","5","1","2","1","2","","2","3","1","5","1","633753940910931968","付","330","","","","","","","","","","","","","","","","","","","true","14","4","moral","421","positive","善良","","","","","","","","","","","","","","","","",""
"null","","null","html-keyboard-response","116","222331","0.0-6.0-1.0-8.0-0.4","4","4","4","4","4","4","4","4","4","4","5","5","5","5","5","5","5","5","5","5","1","1","1","1","1","1","1","1","1","1","0","1","1","0","0","0","0","0","1","1","0","0","1","1","5","1","2","1","2","","2","3","1","5","1","633753940910931968","付","330","","","","","","","","","","","","","","","","","","","","","","","","","","","","","","","","","","","","","","","","","",""
"517","<p style=""color:rgb(150, 250, 100); font-size: 35px;"">别人</p>","i","categorize-html","117","222854","0.0-6.0-1.0-8.0-1.4","4","4","4","4","4","4","4","4","4","4","5","5","5","5","5","5","5","5","5","5","1","1","1","1","1","1","1","1","1","1","0","1","1","0","0","0","0","0","1","1","0","0","1","1","5","1","2","1","2","","2","3","1","5","1","633753940910931968","付","330","","","","","","","","","","","","","","","","","","","true","14","4","moral","517","other","别人","","","","","","","","","","","","","","","","",""
"null","","null","html-keyboard-response","118","223106","0.0-6.0-1.0-8.0-0.5","4","4","4","4","4","4","4","4","4","4","5","5","5","5","5","5","5","5","5","5","1","1","1","1","1","1","1","1","1","1","0","1","1","0","0","0","0","0","1","1","0","0","1","1","5","1","2","1","2","","2","3","1","5","1","633753940910931968","付","330","","","","","","","","","","","","","","","","","","","","","","","","","","","","","","","","","","","","","","","","","",""
"865","<p style=""color:white; font-size: 35px;"">卑鄙</p>","e","categorize-html","119","223973","0.0-6.0-1.0-8.0-1.5","4","4","4","4","4","4","4","4","4","4","5","5","5","5","5","5","5","5","5","5","1","1","1","1","1","1","1","1","1","1","0","1","1","0","0","0","0","0","1","1","0","0","1","1","5","1","2","1","2","","2","3","1","5","1","633753940910931968","付","330","","","","","","","","","","","","","","","","","","","true","14","4","moral","865","negative","卑鄙","","","","","","","","","","","","","","","","",""
"null","","null","html-keyboard-response","120","224224","0.0-6.0-1.0-8.0-0.6","4","4","4","4","4","4","4","4","4","4","5","5","5","5","5","5","5","5","5","5","1","1","1","1","1","1","1","1","1","1","0","1","1","0","0","0","0","0","1","1","0","0","1","1","5","1","2","1","2","","2","3","1","5","1","633753940910931968","付","330","","","","","","","","","","","","","","","","","","","","","","","","","","","","","","","","","","","","","","","","","",""
"464","<p style=""color:rgb(150, 250, 100); font-size: 35px;"">自己</p>","e","categorize-html","121","224693","0.0-6.0-1.0-8.0-1.6","4","4","4","4","4","4","4","4","4","4","5","5","5","5","5","5","5","5","5","5","1","1","1","1","1","1","1","1","1","1","0","1","1","0","0","0","0","0","1","1","0","0","1","1","5","1","2","1","2","","2","3","1","5","1","633753940910931968","付","330","","","","","","","","","","","","","","","","","","","true","14","4","moral","464","self","自己","","","","","","","","","","","","","","","","",""
"null","","null","html-keyboard-response","122","224944","0.0-6.0-1.0-8.0-0.7","4","4","4","4","4","4","4","4","4","4","5","5","5","5","5","5","5","5","5","5","1","1","1","1","1","1","1","1","1","1","0","1","1","0","0","0","0","0","1","1","0","0","1","1","5","1","2","1","2","","2","3","1","5","1","633753940910931968","付","330","","","","","","","","","","","","","","","","","","","","","","","","","","","","","","","","","","","","","","","","","",""
"667","<p style=""color:white; font-size: 35px;"">诚信</p>","i","categorize-html","123","225615","0.0-6.0-1.0-8.0-1.7","4","4","4","4","4","4","4","4","4","4","5","5","5","5","5","5","5","5","5","5","1","1","1","1","1","1","1","1","1","1","0","1","1","0","0","0","0","0","1","1","0","0","1","1","5","1","2","1","2","","2","3","1","5","1","633753940910931968","付","330","","","","","","","","","","","","","","","","","","","true","14","4","moral","667","positive","诚信","","","","","","","","","","","","","","","","",""
"null","","null","html-keyboard-response","124","225867","0.0-6.0-1.0-8.0-0.8","4","4","4","4","4","4","4","4","4","4","5","5","5","5","5","5","5","5","5","5","1","1","1","1","1","1","1","1","1","1","0","1","1","0","0","0","0","0","1","1","0","0","1","1","5","1","2","1","2","","2","3","1","5","1","633753940910931968","付","330","","","","","","","","","","","","","","","","","","","","","","","","","","","","","","","","","","","","","","","","","",""
"505","<p style=""color:rgb(150, 250, 100); font-size: 35px;"">本人</p>","e","categorize-html","125","226377","0.0-6.0-1.0-8.0-1.8","4","4","4","4","4","4","4","4","4","4","5","5","5","5","5","5","5","5","5","5","1","1","1","1","1","1","1","1","1","1","0","1","1","0","0","0","0","0","1","1","0","0","1","1","5","1","2","1","2","","2","3","1","5","1","633753940910931968","付","330","","","","","","","","","","","","","","","","","","","true","14","4","moral","505","self","本人","","","","","","","","","","","","","","","","",""
"null","","null","html-keyboard-response","126","226628","0.0-6.0-1.0-8.0-0.9","4","4","4","4","4","4","4","4","4","4","5","5","5","5","5","5","5","5","5","5","1","1","1","1","1","1","1","1","1","1","0","1","1","0","0","0","0","0","1","1","0","0","1","1","5","1","2","1","2","","2","3","1","5","1","633753940910931968","付","330","","","","","","","","","","","","","","","","","","","","","","","","","","","","","","","","","","","","","","","","","",""
"720","<p style=""color:white; font-size: 35px;"">君子</p>","i","categorize-html","127","227351","0.0-6.0-1.0-8.0-1.9","4","4","4","4","4","4","4","4","4","4","5","5","5","5","5","5","5","5","5","5","1","1","1","1","1","1","1","1","1","1","0","1","1","0","0","0","0","0","1","1","0","0","1","1","5","1","2","1","2","","2","3","1","5","1","633753940910931968","付","330","","","","","","","","","","","","","","","","","","","true","14","4","moral","720","positive","君子","","","","","","","","","","","","","","","","",""
"null","","null","html-keyboard-response","128","227603","0.0-6.0-1.0-8.0-0.10","4","4","4","4","4","4","4","4","4","4","5","5","5","5","5","5","5","5","5","5","1","1","1","1","1","1","1","1","1","1","0","1","1","0","0","0","0","0","1","1","0","0","1","1","5","1","2","1","2","","2","3","1","5","1","633753940910931968","付","330","","","","","","","","","","","","","","","","","","","","","","","","","","","","","","","","","","","","","","","","","",""
"471","<p style=""color:rgb(150, 250, 100); font-size: 35px;"">别人的</p>","i","categorize-html","129","228079","0.0-6.0-1.0-8.0-1.10","4","4","4","4","4","4","4","4","4","4","5","5","5","5","5","5","5","5","5","5","1","1","1","1","1","1","1","1","1","1","0","1","1","0","0","0","0","0","1","1","0","0","1","1","5","1","2","1","2","","2","3","1","5","1","633753940910931968","付","330","","","","","","","","","","","","","","","","","","","true","14","4","moral","471","other","别人的","","","","","","","","","","","","","","","","",""
"null","","null","html-keyboard-response","130","228332","0.0-6.0-1.0-8.0-0.11","4","4","4","4","4","4","4","4","4","4","5","5","5","5","5","5","5","5","5","5","1","1","1","1","1","1","1","1","1","1","0","1","1","0","0","0","0","0","1","1","0","0","1","1","5","1","2","1","2","","2","3","1","5","1","633753940910931968","付","330","","","","","","","","","","","","","","","","","","","","","","","","","","","","","","","","","","","","","","","","","",""
"666","<p style=""color:white; font-size: 35px;"">卑鄙</p>","e","categorize-html","131","229003","0.0-6.0-1.0-8.0-1.11","4","4","4","4","4","4","4","4","4","4","5","5","5","5","5","5","5","5","5","5","1","1","1","1","1","1","1","1","1","1","0","1","1","0","0","0","0","0","1","1","0","0","1","1","5","1","2","1","2","","2","3","1","5","1","633753940910931968","付","330","","","","","","","","","","","","","","","","","","","true","14","4","moral","666","negative","卑鄙","","","","","","","","","","","","","","","","",""
"null","","null","html-keyboard-response","132","229254","0.0-6.0-1.0-8.0-0.12","4","4","4","4","4","4","4","4","4","4","5","5","5","5","5","5","5","5","5","5","1","1","1","1","1","1","1","1","1","1","0","1","1","0","0","0","0","0","1","1","0","0","1","1","5","1","2","1","2","","2","3","1","5","1","633753940910931968","付","330","","","","","","","","","","","","","","","","","","","","","","","","","","","","","","","","","","","","","","","","","",""
"422","<p style=""color:rgb(150, 250, 100); font-size: 35px;"">自己的</p>","e","categorize-html","133","229680","0.0-6.0-1.0-8.0-1.12","4","4","4","4","4","4","4","4","4","4","5","5","5","5","5","5","5","5","5","5","1","1","1","1","1","1","1","1","1","1","0","1","1","0","0","0","0","0","1","1","0","0","1","1","5","1","2","1","2","","2","3","1","5","1","633753940910931968","付","330","","","","","","","","","","","","","","","","","","","true","14","4","moral","422","self","自己的","","","","","","","","","","","","","","","","",""
"null","","null","html-keyboard-response","134","229932","0.0-6.0-1.0-8.0-0.13","4","4","4","4","4","4","4","4","4","4","5","5","5","5","5","5","5","5","5","5","1","1","1","1","1","1","1","1","1","1","0","1","1","0","0","0","0","0","1","1","0","0","1","1","5","1","2","1","2","","2","3","1","5","1","633753940910931968","付","330","","","","","","","","","","","","","","","","","","","","","","","","","","","","","","","","","","","","","","","","","",""
"853","<p style=""color:white; font-size: 35px;"">廉正</p>","i","categorize-html","135","230789","0.0-6.0-1.0-8.0-1.13","4","4","4","4","4","4","4","4","4","4","5","5","5","5","5","5","5","5","5","5","1","1","1","1","1","1","1","1","1","1","0","1","1","0","0","0","0","0","1","1","0","0","1","1","5","1","2","1","2","","2","3","1","5","1","633753940910931968","付","330","","","","","","","","","","","","","","","","","","","true","14","4","moral","853","positive","廉正","","","","","","","","","","","","","","","","",""
"null","","null","html-keyboard-response","136","231047","0.0-6.0-1.0-8.0-0.14","4","4","4","4","4","4","4","4","4","4","5","5","5","5","5","5","5","5","5","5","1","1","1","1","1","1","1","1","1","1","0","1","1","0","0","0","0","0","1","1","0","0","1","1","5","1","2","1","2","","2","3","1","5","1","633753940910931968","付","330","","","","","","","","","","","","","","","","","","","","","","","","","","","","","","","","","","","","","","","","","",""
"434","<p style=""color:rgb(150, 250, 100); font-size: 35px;"">别人</p>","i","categorize-html","137","231487","0.0-6.0-1.0-8.0-1.14","4","4","4","4","4","4","4","4","4","4","5","5","5","5","5","5","5","5","5","5","1","1","1","1","1","1","1","1","1","1","0","1","1","0","0","0","0","0","1","1","0","0","1","1","5","1","2","1","2","","2","3","1","5","1","633753940910931968","付","330","","","","","","","","","","","","","","","","","","","true","14","4","moral","434","other","别人","","","","","","","","","","","","","","","","",""
"null","","null","html-keyboard-response","138","231738","0.0-6.0-1.0-8.0-0.15","4","4","4","4","4","4","4","4","4","4","5","5","5","5","5","5","5","5","5","5","1","1","1","1","1","1","1","1","1","1","0","1","1","0","0","0","0","0","1","1","0","0","1","1","5","1","2","1","2","","2","3","1","5","1","633753940910931968","付","330","","","","","","","","","","","","","","","","","","","","","","","","","","","","","","","","","","","","","","","","","",""
"497","<p style=""color:white; font-size: 35px;"">不仁</p>","e","categorize-html","139","232241","0.0-6.0-1.0-8.0-1.15","4","4","4","4","4","4","4","4","4","4","5","5","5","5","5","5","5","5","5","5","1","1","1","1","1","1","1","1","1","1","0","1","1","0","0","0","0","0","1","1","0","0","1","1","5","1","2","1","2","","2","3","1","5","1","633753940910931968","付","330","","","","","","","","","","","","","","","","","","","true","14","4","moral","497","negative","不仁","","","","","","","","","","","","","","","","",""
"null","","null","html-keyboard-response","140","232493","0.0-6.0-1.0-8.0-0.16","4","4","4","4","4","4","4","4","4","4","5","5","5","5","5","5","5","5","5","5","1","1","1","1","1","1","1","1","1","1","0","1","1","0","0","0","0","0","1","1","0","0","1","1","5","1","2","1","2","","2","3","1","5","1","633753940910931968","付","330","","","","","","","","","","","","","","","","","","","","","","","","","","","","","","","","","","","","","","","","","",""
"411","<p style=""color:rgb(150, 250, 100); font-size: 35px;"">别人的</p>","e","categorize-html","141","233122","0.0-6.0-1.0-8.0-1.16","4","4","4","4","4","4","4","4","4","4","5","5","5","5","5","5","5","5","5","5","1","1","1","1","1","1","1","1","1","1","0","1","1","0","0","0","0","0","1","1","0","0","1","1","5","1","2","1","2","","2","3","1","5","1","633753940910931968","付","330","","","","","","","","","","","","","","","","","","","false","14","4","moral","1199.9545454545455","other","别人的","","","","","","","","","","","","","","","","",""
"null","","null","html-keyboard-response","142","233374","0.0-6.0-1.0-8.0-0.17","4","4","4","4","4","4","4","4","4","4","5","5","5","5","5","5","5","5","5","5","1","1","1","1","1","1","1","1","1","1","0","1","1","0","0","0","0","0","1","1","0","0","1","1","5","1","2","1","2","","2","3","1","5","1","633753940910931968","付","330","","","","","","","","","","","","","","","","","","","","","","","","","","","","","","","","","","","","","","","","","",""
"702","<p style=""color:white; font-size: 35px;"">黑心</p>","e","categorize-html","143","234081","0.0-6.0-1.0-8.0-1.17","4","4","4","4","4","4","4","4","4","4","5","5","5","5","5","5","5","5","5","5","1","1","1","1","1","1","1","1","1","1","0","1","1","0","0","0","0","0","1","1","0","0","1","1","5","1","2","1","2","","2","3","1","5","1","633753940910931968","付","330","","","","","","","","","","","","","","","","","","","true","14","4","moral","702","negative","黑心","","","","","","","","","","","","","","","","",""
"null","","null","html-keyboard-response","144","234333","0.0-6.0-1.0-8.0-0.18","4","4","4","4","4","4","4","4","4","4","5","5","5","5","5","5","5","5","5","5","1","1","1","1","1","1","1","1","1","1","0","1","1","0","0","0","0","0","1","1","0","0","1","1","5","1","2","1","2","","2","3","1","5","1","633753940910931968","付","330","","","","","","","","","","","","","","","","","","","","","","","","","","","","","","","","","","","","","","","","","",""
"497","<p style=""color:rgb(150, 250, 100); font-size: 35px;"">我的</p>","e","categorize-html","145","234835","0.0-6.0-1.0-8.0-1.18","4","4","4","4","4","4","4","4","4","4","5","5","5","5","5","5","5","5","5","5","1","1","1","1","1","1","1","1","1","1","0","1","1","0","0","0","0","0","1","1","0","0","1","1","5","1","2","1","2","","2","3","1","5","1","633753940910931968","付","330","","","","","","","","","","","","","","","","","","","true","14","4","moral","497","self","我的","","","","","","","","","","","","","","","","",""
"null","","null","html-keyboard-response","146","235086","0.0-6.0-1.0-8.0-0.19","4","4","4","4","4","4","4","4","4","4","5","5","5","5","5","5","5","5","5","5","1","1","1","1","1","1","1","1","1","1","0","1","1","0","0","0","0","0","1","1","0","0","1","1","5","1","2","1","2","","2","3","1","5","1","633753940910931968","付","330","","","","","","","","","","","","","","","","","","","","","","","","","","","","","","","","","","","","","","","","","",""
"710","<p style=""color:white; font-size: 35px;"">善良</p>","e","categorize-html","147","236093","0.0-6.0-1.0-8.0-1.19","4","4","4","4","4","4","4","4","4","4","5","5","5","5","5","5","5","5","5","5","1","1","1","1","1","1","1","1","1","1","0","1","1","0","0","0","0","0","1","1","0","0","1","1","5","1","2","1","2","","2","3","1","5","1","633753940910931968","付","330","","","","","","","","","","","","","","","","","","","false","14","4","moral","1199.9545454545455","positive","善良","","","","","","","","","","","","","","","","",""
"null","","null","html-keyboard-response","148","236345","0.0-6.0-1.0-8.0-0.20","4","4","4","4","4","4","4","4","4","4","5","5","5","5","5","5","5","5","5","5","1","1","1","1","1","1","1","1","1","1","0","1","1","0","0","0","0","0","1","1","0","0","1","1","5","1","2","1","2","","2","3","1","5","1","633753940910931968","付","330","","","","","","","","","","","","","","","","","","","","","","","","","","","","","","","","","","","","","","","","","",""
"328","<p style=""color:rgb(150, 250, 100); font-size: 35px;"">他人</p>","i","categorize-html","149","236678","0.0-6.0-1.0-8.0-1.20","4","4","4","4","4","4","4","4","4","4","5","5","5","5","5","5","5","5","5","5","1","1","1","1","1","1","1","1","1","1","0","1","1","0","0","0","0","0","1","1","0","0","1","1","5","1","2","1","2","","2","3","1","5","1","633753940910931968","付","330","","","","","","","","","","","","","","","","","","","true","14","4","moral","328","other","他人","","","","","","","","","","","","","","","","",""
"null","","null","html-keyboard-response","150","236930","0.0-6.0-1.0-8.0-0.21","4","4","4","4","4","4","4","4","4","4","5","5","5","5","5","5","5","5","5","5","1","1","1","1","1","1","1","1","1","1","0","1","1","0","0","0","0","0","1","1","0","0","1","1","5","1","2","1","2","","2","3","1","5","1","633753940910931968","付","330","","","","","","","","","","","","","","","","","","","","","","","","","","","","","","","","","","","","","","","","","",""
"588","<p style=""color:white; font-size: 35px;"">小人</p>","e","categorize-html","151","237523","0.0-6.0-1.0-8.0-1.21","4","4","4","4","4","4","4","4","4","4","5","5","5","5","5","5","5","5","5","5","1","1","1","1","1","1","1","1","1","1","0","1","1","0","0","0","0","0","1","1","0","0","1","1","5","1","2","1","2","","2","3","1","5","1","633753940910931968","付","330","","","","","","","","","","","","","","","","","","","true","14","4","moral","588","negative","小人","","","","","","","","","","","","","","","","",""
"null","","null","html-keyboard-response","152","237774","0.0-6.0-1.0-8.0-0.22","4","4","4","4","4","4","4","4","4","4","5","5","5","5","5","5","5","5","5","5","1","1","1","1","1","1","1","1","1","1","0","1","1","0","0","0","0","0","1","1","0","0","1","1","5","1","2","1","2","","2","3","1","5","1","633753940910931968","付","330","","","","","","","","","","","","","","","","","","","","","","","","","","","","","","","","","","","","","","","","","",""
"428","<p style=""color:rgb(150, 250, 100); font-size: 35px;"">我</p>","e","categorize-html","153","238207","0.0-6.0-1.0-8.0-1.22","4","4","4","4","4","4","4","4","4","4","5","5","5","5","5","5","5","5","5","5","1","1","1","1","1","1","1","1","1","1","0","1","1","0","0","0","0","0","1","1","0","0","1","1","5","1","2","1","2","","2","3","1","5","1","633753940910931968","付","330","","","","","","","","","","","","","","","","","","","true","14","4","moral","428","self","我","","","","","","","","","","","","","","","","",""
"null","","null","html-keyboard-response","154","238458","0.0-6.0-1.0-8.0-0.23","4","4","4","4","4","4","4","4","4","4","5","5","5","5","5","5","5","5","5","5","1","1","1","1","1","1","1","1","1","1","0","1","1","0","0","0","0","0","1","1","0","0","1","1","5","1","2","1","2","","2","3","1","5","1","633753940910931968","付","330","","","","","","","","","","","","","","","","","","","","","","","","","","","","","","","","","","","","","","","","","",""
"628","<p style=""color:white; font-size: 35px;"">高尚</p>","i","categorize-html","155","239091","0.0-6.0-1.0-8.0-1.23","4","4","4","4","4","4","4","4","4","4","5","5","5","5","5","5","5","5","5","5","1","1","1","1","1","1","1","1","1","1","0","1","1","0","0","0","0","0","1","1","0","0","1","1","5","1","2","1","2","","2","3","1","5","1","633753940910931968","付","330","","","","","","","","","","","","","","","","","","","true","14","4","moral","628","positive","高尚","","","","","","","","","","","","","","","","",""
"null","","null","html-keyboard-response","156","239342","0.0-6.0-1.0-8.0-0.24","4","4","4","4","4","4","4","4","4","4","5","5","5","5","5","5","5","5","5","5","1","1","1","1","1","1","1","1","1","1","0","1","1","0","0","0","0","0","1","1","0","0","1","1","5","1","2","1","2","","2","3","1","5","1","633753940910931968","付","330","","","","","","","","","","","","","","","","","","","","","","","","","","","","","","","","","","","","","","","","","",""
"440","<p style=""color:rgb(150, 250, 100); font-size: 35px;"">他的</p>","i","categorize-html","157","239786","0.0-6.0-1.0-8.0-1.24","4","4","4","4","4","4","4","4","4","4","5","5","5","5","5","5","5","5","5","5","1","1","1","1","1","1","1","1","1","1","0","1","1","0","0","0","0","0","1","1","0","0","1","1","5","1","2","1","2","","2","3","1","5","1","633753940910931968","付","330","","","","","","","","","","","","","","","","","","","true","14","4","moral","440","other","他的","","","","","","","","","","","","","","","","",""
"null","","null","html-keyboard-response","158","240038","0.0-6.0-1.0-8.0-0.25","4","4","4","4","4","4","4","4","4","4","5","5","5","5","5","5","5","5","5","5","1","1","1","1","1","1","1","1","1","1","0","1","1","0","0","0","0","0","1","1","0","0","1","1","5","1","2","1","2","","2","3","1","5","1","633753940910931968","付","330","","","","","","","","","","","","","","","","","","","","","","","","","","","","","","","","","","","","","","","","","",""
"699","<p style=""color:white; font-size: 35px;"">正直</p>","i","categorize-html","159","240741","0.0-6.0-1.0-8.0-1.25","4","4","4","4","4","4","4","4","4","4","5","5","5","5","5","5","5","5","5","5","1","1","1","1","1","1","1","1","1","1","0","1","1","0","0","0","0","0","1","1","0","0","1","1","5","1","2","1","2","","2","3","1","5","1","633753940910931968","付","330","","","","","","","","","","","","","","","","","","","true","14","4","moral","699","positive","正直","","","","","","","","","","","","","","","","",""
"null","","null","html-keyboard-response","160","240993","0.0-6.0-1.0-8.0-0.26","4","4","4","4","4","4","4","4","4","4","5","5","5","5","5","5","5","5","5","5","1","1","1","1","1","1","1","1","1","1","0","1","1","0","0","0","0","0","1","1","0","0","1","1","5","1","2","1","2","","2","3","1","5","1","633753940910931968","付","330","","","","","","","","","","","","","","","","","","","","","","","","","","","","","","","","","","","","","","","","","",""
"650","<p style=""color:rgb(150, 250, 100); font-size: 35px;"">本人</p>","e","categorize-html","161","241648","0.0-6.0-1.0-8.0-1.26","4","4","4","4","4","4","4","4","4","4","5","5","5","5","5","5","5","5","5","5","1","1","1","1","1","1","1","1","1","1","0","1","1","0","0","0","0","0","1","1","0","0","1","1","5","1","2","1","2","","2","3","1","5","1","633753940910931968","付","330","","","","","","","","","","","","","","","","","","","true","14","4","moral","650","self","本人","","","","","","","","","","","","","","","","",""
"null","","null","html-keyboard-response","162","241900","0.0-6.0-1.0-8.0-0.27","4","4","4","4","4","4","4","4","4","4","5","5","5","5","5","5","5","5","5","5","1","1","1","1","1","1","1","1","1","1","0","1","1","0","0","0","0","0","1","1","0","0","1","1","5","1","2","1","2","","2","3","1","5","1","633753940910931968","付","330","","","","","","","","","","","","","","","","","","","","","","","","","","","","","","","","","","","","","","","","","",""
"554","<p style=""color:white; font-size: 35px;"">缺德</p>","e","categorize-html","163","242457","0.0-6.0-1.0-8.0-1.27","4","4","4","4","4","4","4","4","4","4","5","5","5","5","5","5","5","5","5","5","1","1","1","1","1","1","1","1","1","1","0","1","1","0","0","0","0","0","1","1","0","0","1","1","5","1","2","1","2","","2","3","1","5","1","633753940910931968","付","330","","","","","","","","","","","","","","","","","","","true","14","4","moral","554","negative","缺德","","","","","","","","","","","","","","","","",""
"null","","null","html-keyboard-response","164","242708","0.0-6.0-1.0-8.0-0.28","4","4","4","4","4","4","4","4","4","4","5","5","5","5","5","5","5","5","5","5","1","1","1","1","1","1","1","1","1","1","0","1","1","0","0","0","0","0","1","1","0","0","1","1","5","1","2","1","2","","2","3","1","5","1","633753940910931968","付","330","","","","","","","","","","","","","","","","","","","","","","","","","","","","","","","","","","","","","","","","","",""
"649","<p style=""color:rgb(150, 250, 100); font-size: 35px;"">他</p>","i","categorize-html","165","243360","0.0-6.0-1.0-8.0-1.28","4","4","4","4","4","4","4","4","4","4","5","5","5","5","5","5","5","5","5","5","1","1","1","1","1","1","1","1","1","1","0","1","1","0","0","0","0","0","1","1","0","0","1","1","5","1","2","1","2","","2","3","1","5","1","633753940910931968","付","330","","","","","","","","","","","","","","","","","","","true","14","4","moral","649","other","他","","","","","","","","","","","","","","","","",""
"null","","null","html-keyboard-response","166","243611","0.0-6.0-1.0-8.0-0.29","4","4","4","4","4","4","4","4","4","4","5","5","5","5","5","5","5","5","5","5","1","1","1","1","1","1","1","1","1","1","0","1","1","0","0","0","0","0","1","1","0","0","1","1","5","1","2","1","2","","2","3","1","5","1","633753940910931968","付","330","","","","","","","","","","","","","","","","","","","","","","","","","","","","","","","","","","","","","","","","","",""
"642","<p style=""color:white; font-size: 35px;"">不仁</p>","e","categorize-html","167","244258","0.0-6.0-1.0-8.0-1.29","4","4","4","4","4","4","4","4","4","4","5","5","5","5","5","5","5","5","5","5","1","1","1","1","1","1","1","1","1","1","0","1","1","0","0","0","0","0","1","1","0","0","1","1","5","1","2","1","2","","2","3","1","5","1","633753940910931968","付","330","","","","","","","","","","","","","","","","","","","true","14","4","moral","642","negative","不仁","","","","","","","","","","","","","","","","",""
"null","","null","html-keyboard-response","168","244510","0.0-6.0-1.0-8.0-0.30","4","4","4","4","4","4","4","4","4","4","5","5","5","5","5","5","5","5","5","5","1","1","1","1","1","1","1","1","1","1","0","1","1","0","0","0","0","0","1","1","0","0","1","1","5","1","2","1","2","","2","3","1","5","1","633753940910931968","付","330","","","","","","","","","","","","","","","","","","","","","","","","","","","","","","","","","","","","","","","","","",""
"490","<p style=""color:rgb(150, 250, 100); font-size: 35px;"">本人的</p>","e","categorize-html","169","245005","0.0-6.0-1.0-8.0-1.30","4","4","4","4","4","4","4","4","4","4","5","5","5","5","5","5","5","5","5","5","1","1","1","1","1","1","1","1","1","1","0","1","1","0","0","0","0","0","1","1","0","0","1","1","5","1","2","1","2","","2","3","1","5","1","633753940910931968","付","330","","","","","","","","","","","","","","","","","","","true","14","4","moral","490","self","本人的","","","","","","","","","","","","","","","","",""
"null","","null","html-keyboard-response","170","245258","0.0-6.0-1.0-8.0-0.31","4","4","4","4","4","4","4","4","4","4","5","5","5","5","5","5","5","5","5","5","1","1","1","1","1","1","1","1","1","1","0","1","1","0","0","0","0","0","1","1","0","0","1","1","5","1","2","1","2","","2","3","1","5","1","633753940910931968","付","330","","","","","","","","","","","","","","","","","","","","","","","","","","","","","","","","","","","","","","","","","",""
"740","<p style=""color:white; font-size: 35px;"">高尚</p>","i","categorize-html","171","246001","0.0-6.0-1.0-8.0-1.31","4","4","4","4","4","4","4","4","4","4","5","5","5","5","5","5","5","5","5","5","1","1","1","1","1","1","1","1","1","1","0","1","1","0","0","0","0","0","1","1","0","0","1","1","5","1","2","1","2","","2","3","1","5","1","633753940910931968","付","330","","","","","","","","","","","","","","","","","","","true","14","4","moral","740","positive","高尚","","","","","","","","","","","","","","","","",""
"null","","null","html-keyboard-response","172","246252","0.0-6.0-1.0-8.0-0.32","4","4","4","4","4","4","4","4","4","4","5","5","5","5","5","5","5","5","5","5","1","1","1","1","1","1","1","1","1","1","0","1","1","0","0","0","0","0","1","1","0","0","1","1","5","1","2","1","2","","2","3","1","5","1","633753940910931968","付","330","","","","","","","","","","","","","","","","","","","","","","","","","","","","","","","","","","","","","","","","","",""
"480","<p style=""color:rgb(150, 250, 100); font-size: 35px;"">他人的</p>","i","categorize-html","173","246737","0.0-6.0-1.0-8.0-1.32","4","4","4","4","4","4","4","4","4","4","5","5","5","5","5","5","5","5","5","5","1","1","1","1","1","1","1","1","1","1","0","1","1","0","0","0","0","0","1","1","0","0","1","1","5","1","2","1","2","","2","3","1","5","1","633753940910931968","付","330","","","","","","","","","","","","","","","","","","","true","14","4","moral","480","other","他人的","","","","","","","","","","","","","","","","",""
"null","","null","html-keyboard-response","174","246989","0.0-6.0-1.0-8.0-0.33","4","4","4","4","4","4","4","4","4","4","5","5","5","5","5","5","5","5","5","5","1","1","1","1","1","1","1","1","1","1","0","1","1","0","0","0","0","0","1","1","0","0","1","1","5","1","2","1","2","","2","3","1","5","1","633753940910931968","付","330","","","","","","","","","","","","","","","","","","","","","","","","","","","","","","","","","","","","","","","","","",""
"751","<p style=""color:white; font-size: 35px;"">不孝</p>","e","categorize-html","175","247743","0.0-6.0-1.0-8.0-1.33","4","4","4","4","4","4","4","4","4","4","5","5","5","5","5","5","5","5","5","5","1","1","1","1","1","1","1","1","1","1","0","1","1","0","0","0","0","0","1","1","0","0","1","1","5","1","2","1","2","","2","3","1","5","1","633753940910931968","付","330","","","","","","","","","","","","","","","","","","","true","14","4","moral","751","negative","不孝","","","","","","","","","","","","","","","","",""
"null","","null","html-keyboard-response","176","247994","0.0-6.0-1.0-8.0-0.34","4","4","4","4","4","4","4","4","4","4","5","5","5","5","5","5","5","5","5","5","1","1","1","1","1","1","1","1","1","1","0","1","1","0","0","0","0","0","1","1","0","0","1","1","5","1","2","1","2","","2","3","1","5","1","633753940910931968","付","330","","","","","","","","","","","","","","","","","","","","","","","","","","","","","","","","","","","","","","","","","",""
"522","<p style=""color:rgb(150, 250, 100); font-size: 35px;"">我的</p>","e","categorize-html","177","248521","0.0-6.0-1.0-8.0-1.34","4","4","4","4","4","4","4","4","4","4","5","5","5","5","5","5","5","5","5","5","1","1","1","1","1","1","1","1","1","1","0","1","1","0","0","0","0","0","1","1","0","0","1","1","5","1","2","1","2","","2","3","1","5","1","633753940910931968","付","330","","","","","","","","","","","","","","","","","","","true","14","4","moral","522","self","我的","","","","","","","","","","","","","","","","",""
"null","","null","html-keyboard-response","178","248772","0.0-6.0-1.0-8.0-0.35","4","4","4","4","4","4","4","4","4","4","5","5","5","5","5","5","5","5","5","5","1","1","1","1","1","1","1","1","1","1","0","1","1","0","0","0","0","0","1","1","0","0","1","1","5","1","2","1","2","","2","3","1","5","1","633753940910931968","付","330","","","","","","","","","","","","","","","","","","","","","","","","","","","","","","","","","","","","","","","","","",""
"545","<p style=""color:white; font-size: 35px;"">诚信</p>","i","categorize-html","179","249322","0.0-6.0-1.0-8.0-1.35","4","4","4","4","4","4","4","4","4","4","5","5","5","5","5","5","5","5","5","5","1","1","1","1","1","1","1","1","1","1","0","1","1","0","0","0","0","0","1","1","0","0","1","1","5","1","2","1","2","","2","3","1","5","1","633753940910931968","付","330","","","","","","","","","","","","","","","","","","","true","14","4","moral","545","positive","诚信","","","","","","","","","","","","","","","","",""
"null","","null","html-keyboard-response","180","249574","0.0-6.0-1.0-8.0-0.36","4","4","4","4","4","4","4","4","4","4","5","5","5","5","5","5","5","5","5","5","1","1","1","1","1","1","1","1","1","1","0","1","1","0","0","0","0","0","1","1","0","0","1","1","5","1","2","1","2","","2","3","1","5","1","633753940910931968","付","330","","","","","","","","","","","","","","","","","","","","","","","","","","","","","","","","","","","","","","","","","",""
"406","<p style=""color:rgb(150, 250, 100); font-size: 35px;"">他</p>","i","categorize-html","181","249983","0.0-6.0-1.0-8.0-1.36","4","4","4","4","4","4","4","4","4","4","5","5","5","5","5","5","5","5","5","5","1","1","1","1","1","1","1","1","1","1","0","1","1","0","0","0","0","0","1","1","0","0","1","1","5","1","2","1","2","","2","3","1","5","1","633753940910931968","付","330","","","","","","","","","","","","","","","","","","","true","14","4","moral","406","other","他","","","","","","","","","","","","","","","","",""
"null","","null","html-keyboard-response","182","250234","0.0-6.0-1.0-8.0-0.37","4","4","4","4","4","4","4","4","4","4","5","5","5","5","5","5","5","5","5","5","1","1","1","1","1","1","1","1","1","1","0","1","1","0","0","0","0","0","1","1","0","0","1","1","5","1","2","1","2","","2","3","1","5","1","633753940910931968","付","330","","","","","","","","","","","","","","","","","","","","","","","","","","","","","","","","","","","","","","","","","",""
"448","<p style=""color:white; font-size: 35px;"">君子</p>","e","categorize-html","183","251194","0.0-6.0-1.0-8.0-1.37","4","4","4","4","4","4","4","4","4","4","5","5","5","5","5","5","5","5","5","5","1","1","1","1","1","1","1","1","1","1","0","1","1","0","0","0","0","0","1","1","0","0","1","1","5","1","2","1","2","","2","3","1","5","1","633753940910931968","付","330","","","","","","","","","","","","","","","","","","","false","14","4","moral","1199.9545454545455","positive","君子","","","","","","","","","","","","","","","","",""
"null","","null","html-keyboard-response","184","251446","0.0-6.0-1.0-8.0-0.38","4","4","4","4","4","4","4","4","4","4","5","5","5","5","5","5","5","5","5","5","1","1","1","1","1","1","1","1","1","1","0","1","1","0","0","0","0","0","1","1","0","0","1","1","5","1","2","1","2","","2","3","1","5","1","633753940910931968","付","330","","","","","","","","","","","","","","","","","","","","","","","","","","","","","","","","","","","","","","","","","",""
"791","<p style=""color:rgb(150, 250, 100); font-size: 35px;"">我</p>","e","categorize-html","185","252242","0.0-6.0-1.0-8.0-1.38","4","4","4","4","4","4","4","4","4","4","5","5","5","5","5","5","5","5","5","5","1","1","1","1","1","1","1","1","1","1","0","1","1","0","0","0","0","0","1","1","0","0","1","1","5","1","2","1","2","","2","3","1","5","1","633753940910931968","付","330","","","","","","","","","","","","","","","","","","","true","14","4","moral","791","self","我","","","","","","","","","","","","","","","","",""
"null","","null","html-keyboard-response","186","252494","0.0-6.0-1.0-8.0-0.39","4","4","4","4","4","4","4","4","4","4","5","5","5","5","5","5","5","5","5","5","1","1","1","1","1","1","1","1","1","1","0","1","1","0","0","0","0","0","1","1","0","0","1","1","5","1","2","1","2","","2","3","1","5","1","633753940910931968","付","330","","","","","","","","","","","","","","","","","","","","","","","","","","","","","","","","","","","","","","","","","",""
"539","<p style=""color:white; font-size: 35px;"">不孝</p>","e","categorize-html","187","253038","0.0-6.0-1.0-8.0-1.39","4","4","4","4","4","4","4","4","4","4","5","5","5","5","5","5","5","5","5","5","1","1","1","1","1","1","1","1","1","1","0","1","1","0","0","0","0","0","1","1","0","0","1","1","5","1","2","1","2","","2","3","1","5","1","633753940910931968","付","330","","","","","","","","","","","","","","","","","","","true","14","4","moral","539","negative","不孝","","","","","","","","","","","","","","","","",""
"null","","null","html-keyboard-response","188","253289","0.0-6.0-1.0-8.0-0.40","4","4","4","4","4","4","4","4","4","4","5","5","5","5","5","5","5","5","5","5","1","1","1","1","1","1","1","1","1","1","0","1","1","0","0","0","0","0","1","1","0","0","1","1","5","1","2","1","2","","2","3","1","5","1","633753940910931968","付","330","","","","","","","","","","","","","","","","","","","","","","","","","","","","","","","","","","","","","","","","","",""
"605","<p style=""color:rgb(150, 250, 100); font-size: 35px;"">自己的</p>","e","categorize-html","189","253897","0.0-6.0-1.0-8.0-1.40","4","4","4","4","4","4","4","4","4","4","5","5","5","5","5","5","5","5","5","5","1","1","1","1","1","1","1","1","1","1","0","1","1","0","0","0","0","0","1","1","0","0","1","1","5","1","2","1","2","","2","3","1","5","1","633753940910931968","付","330","","","","","","","","","","","","","","","","","","","true","14","4","moral","605","self","自己的","","","","","","","","","","","","","","","","",""
"null","","null","html-keyboard-response","190","254148","0.0-6.0-1.0-8.0-0.41","4","4","4","4","4","4","4","4","4","4","5","5","5","5","5","5","5","5","5","5","1","1","1","1","1","1","1","1","1","1","0","1","1","0","0","0","0","0","1","1","0","0","1","1","5","1","2","1","2","","2","3","1","5","1","633753940910931968","付","330","","","","","","","","","","","","","","","","","","","","","","","","","","","","","","","","","","","","","","","","","",""
"718","<p style=""color:white; font-size: 35px;"">正直</p>","i","categorize-html","191","254870","0.0-6.0-1.0-8.0-1.41","4","4","4","4","4","4","4","4","4","4","5","5","5","5","5","5","5","5","5","5","1","1","1","1","1","1","1","1","1","1","0","1","1","0","0","0","0","0","1","1","0","0","1","1","5","1","2","1","2","","2","3","1","5","1","633753940910931968","付","330","","","","","","","","","","","","","","","","","","","true","14","4","moral","718","positive","正直","","","","","","","","","","","","","","","","",""
"null","","null","html-keyboard-response","192","255122","0.0-6.0-1.0-8.0-0.42","4","4","4","4","4","4","4","4","4","4","5","5","5","5","5","5","5","5","5","5","1","1","1","1","1","1","1","1","1","1","0","1","1","0","0","0","0","0","1","1","0","0","1","1","5","1","2","1","2","","2","3","1","5","1","633753940910931968","付","330","","","","","","","","","","","","","","","","","","","","","","","","","","","","","","","","","","","","","","","","","",""
"373","<p style=""color:rgb(150, 250, 100); font-size: 35px;"">他人</p>","i","categorize-html","193","255500","0.0-6.0-1.0-8.0-1.42","4","4","4","4","4","4","4","4","4","4","5","5","5","5","5","5","5","5","5","5","1","1","1","1","1","1","1","1","1","1","0","1","1","0","0","0","0","0","1","1","0","0","1","1","5","1","2","1","2","","2","3","1","5","1","633753940910931968","付","330","","","","","","","","","","","","","","","","","","","true","14","4","moral","373","other","他人","","","","","","","","","","","","","","","","",""
