"rt","stimulus","response","trial_type","trial_index","time_elapsed","internal_node_id","ses_1","ses_2","ses_3","ses_4","ses_5","ses_6","ses_7","ses_8","ses_9","ses_10","coreself_1","coreself_2","coreself_3","coreself_4","coreself_5","coreself_6","coreself_7","coreself_8","coreself_9","coreself_10","SGPS_1","SGPS_2","SGPS_3","SGPS_4","SGPS_5","SGPS_6","SGPS_7","SGPS_8","SGPS_9","NPI1","NPI2","NPI3","NPI4","NPI5","NPI6","NPI7","NPI8","NPI9","NPI10","NPI11","NPI12","NPI13","NPI14","NPI15","hsns_1","hsns_2","hsns_3","hsns_4","hsns_5","trap1","hsns_6","hsns_7","hsns_8","hsns_9","hsns_10","subj_idx","friend_name","ParticipantID","value","success","user_agent","responses","item_order","radio_event_ids","radio_event_times","key_event_times","mouse_event_times","straightlining","zigzagging","honeypot","timeout","failed_images","failed_audio","failed_video","version_attrib2","version_target2","correct","IAT","screen_id","task_id","RT","condition","word","varname","summary","version_attrib","version_target","time_stamp","view_history","response_type","key_press","avg_frame_time","center_x","center_y","correct_response","identity","Image","question_order","correct_answer","trap1_item"
"553","
   <p><div style = ""color: white;font-size:25px;"">您好，欢迎参加本次实验。</div> </p>
   <p><div style = ""color: white;font-size:25px;"">为充分保障您的权利，请确保您已经知晓并同意《参与实验同意书》以及《数据公开知情同意书》。</div></p>
   <p><div style = ""color: white;font-size:25px;"">如果您未见过上述内容，请咨询实验员。</div></p>
   <p><div style = ""color: white;font-size:25px;"">如果您选择继续实验，则表示您已经清楚两份知情同意书的内容并同意。</div></p>
   <p><div style = ""color: pink;font-size:30px;"">请确保您记得day0的实验编号，您将在本次实验输入该编号，若您忘记，请咨询实验员后作答。</div></p>
   <p><div style = ""color: lightblue;font-size:25px;"">请您尽可能认真地作答，我们将依据您在各问卷和按键任务中的作答质量发放报酬。</div></p>
   <p> <div style = ""color: green;font-size:25px;""><按空格键至下页></div> </p>
   "," ","html-keyboard-response","0","555","0.0-0.0","4","4","4","4","4","4","4","3","4","4","5","5","5","5","5","5","5","5","5","5","1","1","1","1","1","1","1","1","1","0","0","1","1","0","0","0","0","0","1","1","0","1","1","1","5","1","1","1","2","5","1","1","2","4","2","633781445638225920","刘","357","","","","","","","","","","","","","","","","","","","","","","","","","","","","","","","","","","","","","","","","","",""
"","","","call-function","1","555","0.0-1.0-0.0","4","4","4","4","4","4","4","3","4","4","5","5","5","5","5","5","5","5","5","5","1","1","1","1","1","1","1","1","1","0","0","1","1","0","0","0","0","0","1","1","0","1","1","1","5","1","1","1","2","5","1","1","2","4","2","633781445638225920","刘","357","","","","","","","","","","","","","","","","","","","","","","","","","","","","","","","","","","","","","","","","","",""
"17832","","{""friend_name"":""刘"",""ParticipantID"":""357""}","survey-html-form","2","18388","0.0-1.0-1.0","4","4","4","4","4","4","4","3","4","4","5","5","5","5","5","5","5","5","5","5","1","1","1","1","1","1","1","1","1","0","0","1","1","0","0","0","0","0","1","1","0","1","1","1","5","1","1","1","2","5","1","1","2","4","2","633781445638225920","刘","357","","","","","","","","","","","","","","","","","","","","","","","","","","","","","","","","","","","","","","","","","",""
"","","","fullscreen","3","19330","0.0-2.0","4","4","4","4","4","4","4","3","4","4","5","5","5","5","5","5","5","5","5","5","1","1","1","1","1","1","1","1","1","0","0","1","1","0","0","0","0","0","1","1","0","1","1","1","5","1","1","1","2","5","1","1","2","4","2","633781445638225920","刘","357","","true","{}","","","","","","","","","","","","","","","","","","","","","","","","","","","","","","","","","","","","","","",""
"13827.70000000298","","{""Q01"":""4"",""Q02"":""4"",""Q03"":""4"",""Q04"":""4"",""Q05"":""4"",""Q06"":""4"",""Q07"":""4"",""Q08"":""3"",""Q09"":""4"",""Q10"":""4""}","survey-template","4","33159","0.0-3.0","4","4","4","4","4","4","4","3","4","4","5","5","5","5","5","5","5","5","5","5","1","1","1","1","1","1","1","1","1","0","0","1","1","0","0","0","0","0","1","1","0","1","1","1","5","1","1","1","2","5","1","1","2","4","2","633781445638225920","刘","357","","","","{""Q01"":""4"",""Q02"":""4"",""Q03"":""4"",""Q04"":""4"",""Q05"":""4"",""Q06"":""4"",""Q07"":""4"",""Q08"":""3"",""Q09"":""4"",""Q10"":""4""}","[0,1,2,3,4,5,6,7,8,9]","[""Q01"",""Q02"",""Q03"",""Q04"",""Q04"",""Q05"",""Q06"",""Q07"",""Q08"",""Q09"",""Q10"",""Q08""]","[1281,2265,3328.9000000059605,4304.4000000059605,4497.9000000059605,5313.70000000298,6584.4000000059605,7256.4000000059605,8272.70000000298,8600.5,9609.90000000596,12280.40000000596]","[]","[1281,1976.5,2265,3328.9000000059605,4304.4000000059605,4497.9000000059605,5313.70000000298,5696.79999999702,6584.4000000059605,7256.4000000059605,8272.70000000298,8600.5,9000.5,9184.59999999404,9609.90000000596,11824.5,12280.40000000596,13826.90000000596]","0.5","0.5555555555555556","0","","","","","","","","","","","","","","","","","","","","","","","","","","","","","",""
"17786","","{""Q01"":""5"",""Q02"":""5"",""Q03"":""5"",""Q04"":""5"",""Q05"":""5"",""Q06"":""5"",""Q07"":""5"",""Q08"":""5"",""Q09"":""5"",""Q10"":""5""}","survey-template","5","50949","0.0-4.0","4","4","4","4","4","4","4","3","4","4","5","5","5","5","5","5","5","5","5","5","1","1","1","1","1","1","1","1","1","0","0","1","1","0","0","0","0","0","1","1","0","1","1","1","5","1","1","1","2","5","1","1","2","4","2","633781445638225920","刘","357","","","","{""Q01"":""5"",""Q02"":""5"",""Q03"":""5"",""Q04"":""5"",""Q05"":""5"",""Q06"":""5"",""Q07"":""5"",""Q08"":""5"",""Q09"":""5"",""Q10"":""5""}","[0,1,2,3,4,5,6,7,8,9]","[""Q01"",""Q03"",""Q02"",""Q04"",""Q05"",""Q06"",""Q07"",""Q08"",""Q09"",""Q10""]","[1401.6000000089407,2705.5,3105.2999999970198,4193.4000000059605,4993.29999999702,6297.4000000059605,7049.100000008941,11345.10000000894,12961.70000000298,14433.40000000596]","[]","[1401.6000000089407,2233,2705.5,3105.2999999970198,4193.4000000059605,4993.29999999702,6297.4000000059605,7049.100000008941,7899.100000008941,9017.10000000894,10033.40000000596,11345.10000000894,12241.60000000894,12961.70000000298,14433.40000000596,17785.29999999702]","0.6","0.7777777777777778","0","","","","","","","","","","","","","","","","","","","","","","","","","","","","","",""
"","","","preload","6","51128","0.0-5.0","4","4","4","4","4","4","4","3","4","4","5","5","5","5","5","5","5","5","5","5","1","1","1","1","1","1","1","1","1","0","0","1","1","0","0","0","0","0","1","1","0","1","1","1","5","1","1","1","2","5","1","1","2","4","2","633781445638225920","刘","357","","true","","","","","","","","","","","false","[]","[]","[]","","","","","","","","","","","","","","","","","","","","","","","","","",""
"22331","
    <h3>词语分类任务</h3>
    <p>在接下来的任务中，你需要对一系列词语进行分类。<p/>
    请先熟悉这些词语，这有利于你完成接下来的任务。</p>
    <table align=""center"" border=1 cellpadding=3 cellspacing=0>
    <tr> <th>类别</th> <th>词语</th> </tr>
    <tr> <td>&emsp;积极&emsp;</td> <td>&emsp;高尚、诚信、善良、君子、廉正、正直&emsp;</td> </tr>
    <tr> <td>&emsp;消极&emsp;</td> <td>&emsp;缺德、卑鄙、不孝、不仁、小人、黑心&emsp;</td> </tr>
    <tr> <td>&emsp;自我&emsp;</td> <td>&emsp;我、我的、自己、自己的、本人、本人的&emsp;</td> </tr>
    <tr> <td>&emsp;他人&emsp;</td> <td>&emsp;他、他的、别人、别人的、他人、他人的&emsp;</td> </tr>
    </table><br/>","0","html-button-response","7","73461","0.0-6.0-1.0-0.0","4","4","4","4","4","4","4","3","4","4","5","5","5","5","5","5","5","5","5","5","1","1","1","1","1","1","1","1","1","0","0","1","1","0","0","0","0","0","1","1","0","1","1","1","5","1","1","1","2","5","1","1","2","4","2","633781445638225920","刘","357","","","","","","","","","","","","","","","","","2","2","","","","","","","","","","","","","","","","","","","","","","","",""
"15564","
    <div class=""tag-bottom""><p>
    —— 任务1：对“他人”词和“自我”词分类 ——<p/>
    不同词语会出现在屏幕中央，类别标签将始终显示在屏幕上方<p/>   
    <span style=""color:#FFD866""><b>请根据上方标签的提示，尽可能正确并且快速地做出按键反应</b></span><p/>
    当按键错误时屏幕中会出现<span style=""color:red""> X </span>，需要按另一个键纠正才能继续<br/><p/>
    请把双手食指分别放在键盘的“E”键和“I”键上<p/>
    按<空格键>开始
    </p></div>"," ","html-keyboard-response","8","89027","0.0-6.0-1.0-1.0","4","4","4","4","4","4","4","3","4","4","5","5","5","5","5","5","5","5","5","5","1","1","1","1","1","1","1","1","1","0","0","1","1","0","0","0","0","0","1","1","0","1","1","1","5","1","1","1","2","5","1","1","2","4","2","633781445638225920","刘","357","","","","","","","","","","","","","","","","","","","","","","","","","","","","","","","","","","","","","","","","","",""
"null","","null","html-keyboard-response","9","89279","0.0-6.0-1.0-2.0-0.0","4","4","4","4","4","4","4","3","4","4","5","5","5","5","5","5","5","5","5","5","1","1","1","1","1","1","1","1","1","0","0","1","1","0","0","0","0","0","1","1","0","1","1","1","5","1","1","1","2","5","1","1","2","4","2","633781445638225920","刘","357","","","","","","","","","","","","","","","","","","","","","","","","","","","","","","","","","","","","","","","","","",""
"681","<p style=""color:rgb(150, 250, 100); font-size: 35px;"">他</p>","e","categorize-html","10","89961","0.0-6.0-1.0-2.0-1.0","4","4","4","4","4","4","4","3","4","4","5","5","5","5","5","5","5","5","5","5","1","1","1","1","1","1","1","1","1","0","0","1","1","0","0","0","0","0","1","1","0","1","1","1","5","1","1","1","2","5","1","1","2","4","2","633781445638225920","刘","357","","","","","","","","","","","","","","","","","","","true","11","1","moral","681","other","他","","","","","","","","","","","","","","","","",""
"null","","null","html-keyboard-response","11","90213","0.0-6.0-1.0-2.0-0.1","4","4","4","4","4","4","4","3","4","4","5","5","5","5","5","5","5","5","5","5","1","1","1","1","1","1","1","1","1","0","0","1","1","0","0","0","0","0","1","1","0","1","1","1","5","1","1","1","2","5","1","1","2","4","2","633781445638225920","刘","357","","","","","","","","","","","","","","","","","","","","","","","","","","","","","","","","","","","","","","","","","",""
"436","<p style=""color:rgb(150, 250, 100); font-size: 35px;"">本人的</p>","i","categorize-html","12","90649","0.0-6.0-1.0-2.0-1.1","4","4","4","4","4","4","4","3","4","4","5","5","5","5","5","5","5","5","5","5","1","1","1","1","1","1","1","1","1","0","0","1","1","0","0","0","0","0","1","1","0","1","1","1","5","1","1","1","2","5","1","1","2","4","2","633781445638225920","刘","357","","","","","","","","","","","","","","","","","","","true","11","1","moral","436","self","本人的","","","","","","","","","","","","","","","","",""
"null","","null","html-keyboard-response","13","90900","0.0-6.0-1.0-2.0-0.2","4","4","4","4","4","4","4","3","4","4","5","5","5","5","5","5","5","5","5","5","1","1","1","1","1","1","1","1","1","0","0","1","1","0","0","0","0","0","1","1","0","1","1","1","5","1","1","1","2","5","1","1","2","4","2","633781445638225920","刘","357","","","","","","","","","","","","","","","","","","","","","","","","","","","","","","","","","","","","","","","","","",""
"759","<p style=""color:rgb(150, 250, 100); font-size: 35px;"">他人</p>","e","categorize-html","14","91660","0.0-6.0-1.0-2.0-1.2","4","4","4","4","4","4","4","3","4","4","5","5","5","5","5","5","5","5","5","5","1","1","1","1","1","1","1","1","1","0","0","1","1","0","0","0","0","0","1","1","0","1","1","1","5","1","1","1","2","5","1","1","2","4","2","633781445638225920","刘","357","","","","","","","","","","","","","","","","","","","true","11","1","moral","759","other","他人","","","","","","","","","","","","","","","","",""
"null","","null","html-keyboard-response","15","91911","0.0-6.0-1.0-2.0-0.3","4","4","4","4","4","4","4","3","4","4","5","5","5","5","5","5","5","5","5","5","1","1","1","1","1","1","1","1","1","0","0","1","1","0","0","0","0","0","1","1","0","1","1","1","5","1","1","1","2","5","1","1","2","4","2","633781445638225920","刘","357","","","","","","","","","","","","","","","","","","","","","","","","","","","","","","","","","","","","","","","","","",""
"386","<p style=""color:rgb(150, 250, 100); font-size: 35px;"">他人的</p>","e","categorize-html","16","92298","0.0-6.0-1.0-2.0-1.3","4","4","4","4","4","4","4","3","4","4","5","5","5","5","5","5","5","5","5","5","1","1","1","1","1","1","1","1","1","0","0","1","1","0","0","0","0","0","1","1","0","1","1","1","5","1","1","1","2","5","1","1","2","4","2","633781445638225920","刘","357","","","","","","","","","","","","","","","","","","","true","11","1","moral","386","other","他人的","","","","","","","","","","","","","","","","",""
"null","","null","html-keyboard-response","17","92549","0.0-6.0-1.0-2.0-0.4","4","4","4","4","4","4","4","3","4","4","5","5","5","5","5","5","5","5","5","5","1","1","1","1","1","1","1","1","1","0","0","1","1","0","0","0","0","0","1","1","0","1","1","1","5","1","1","1","2","5","1","1","2","4","2","633781445638225920","刘","357","","","","","","","","","","","","","","","","","","","","","","","","","","","","","","","","","","","","","","","","","",""
"535","<p style=""color:rgb(150, 250, 100); font-size: 35px;"">别人的</p>","e","categorize-html","18","93086","0.0-6.0-1.0-2.0-1.4","4","4","4","4","4","4","4","3","4","4","5","5","5","5","5","5","5","5","5","5","1","1","1","1","1","1","1","1","1","0","0","1","1","0","0","0","0","0","1","1","0","1","1","1","5","1","1","1","2","5","1","1","2","4","2","633781445638225920","刘","357","","","","","","","","","","","","","","","","","","","true","11","1","moral","535","other","别人的","","","","","","","","","","","","","","","","",""
"null","","null","html-keyboard-response","19","93337","0.0-6.0-1.0-2.0-0.5","4","4","4","4","4","4","4","3","4","4","5","5","5","5","5","5","5","5","5","5","1","1","1","1","1","1","1","1","1","0","0","1","1","0","0","0","0","0","1","1","0","1","1","1","5","1","1","1","2","5","1","1","2","4","2","633781445638225920","刘","357","","","","","","","","","","","","","","","","","","","","","","","","","","","","","","","","","","","","","","","","","",""
"631","<p style=""color:rgb(150, 250, 100); font-size: 35px;"">自己的</p>","i","categorize-html","20","93970","0.0-6.0-1.0-2.0-1.5","4","4","4","4","4","4","4","3","4","4","5","5","5","5","5","5","5","5","5","5","1","1","1","1","1","1","1","1","1","0","0","1","1","0","0","0","0","0","1","1","0","1","1","1","5","1","1","1","2","5","1","1","2","4","2","633781445638225920","刘","357","","","","","","","","","","","","","","","","","","","true","11","1","moral","631","self","自己的","","","","","","","","","","","","","","","","",""
"null","","null","html-keyboard-response","21","94221","0.0-6.0-1.0-2.0-0.6","4","4","4","4","4","4","4","3","4","4","5","5","5","5","5","5","5","5","5","5","1","1","1","1","1","1","1","1","1","0","0","1","1","0","0","0","0","0","1","1","0","1","1","1","5","1","1","1","2","5","1","1","2","4","2","633781445638225920","刘","357","","","","","","","","","","","","","","","","","","","","","","","","","","","","","","","","","","","","","","","","","",""
"731","<p style=""color:rgb(150, 250, 100); font-size: 35px;"">本人</p>","i","categorize-html","22","94953","0.0-6.0-1.0-2.0-1.6","4","4","4","4","4","4","4","3","4","4","5","5","5","5","5","5","5","5","5","5","1","1","1","1","1","1","1","1","1","0","0","1","1","0","0","0","0","0","1","1","0","1","1","1","5","1","1","1","2","5","1","1","2","4","2","633781445638225920","刘","357","","","","","","","","","","","","","","","","","","","true","11","1","moral","731","self","本人","","","","","","","","","","","","","","","","",""
"null","","null","html-keyboard-response","23","95205","0.0-6.0-1.0-2.0-0.7","4","4","4","4","4","4","4","3","4","4","5","5","5","5","5","5","5","5","5","5","1","1","1","1","1","1","1","1","1","0","0","1","1","0","0","0","0","0","1","1","0","1","1","1","5","1","1","1","2","5","1","1","2","4","2","633781445638225920","刘","357","","","","","","","","","","","","","","","","","","","","","","","","","","","","","","","","","","","","","","","","","",""
"505","<p style=""color:rgb(150, 250, 100); font-size: 35px;"">他的</p>","e","categorize-html","24","95711","0.0-6.0-1.0-2.0-1.7","4","4","4","4","4","4","4","3","4","4","5","5","5","5","5","5","5","5","5","5","1","1","1","1","1","1","1","1","1","0","0","1","1","0","0","0","0","0","1","1","0","1","1","1","5","1","1","1","2","5","1","1","2","4","2","633781445638225920","刘","357","","","","","","","","","","","","","","","","","","","true","11","1","moral","505","other","他的","","","","","","","","","","","","","","","","",""
"null","","null","html-keyboard-response","25","95962","0.0-6.0-1.0-2.0-0.8","4","4","4","4","4","4","4","3","4","4","5","5","5","5","5","5","5","5","5","5","1","1","1","1","1","1","1","1","1","0","0","1","1","0","0","0","0","0","1","1","0","1","1","1","5","1","1","1","2","5","1","1","2","4","2","633781445638225920","刘","357","","","","","","","","","","","","","","","","","","","","","","","","","","","","","","","","","","","","","","","","","",""
"931","<p style=""color:rgb(150, 250, 100); font-size: 35px;"">我的</p>","i","categorize-html","26","96894","0.0-6.0-1.0-2.0-1.8","4","4","4","4","4","4","4","3","4","4","5","5","5","5","5","5","5","5","5","5","1","1","1","1","1","1","1","1","1","0","0","1","1","0","0","0","0","0","1","1","0","1","1","1","5","1","1","1","2","5","1","1","2","4","2","633781445638225920","刘","357","","","","","","","","","","","","","","","","","","","true","11","1","moral","931","self","我的","","","","","","","","","","","","","","","","",""
"null","","null","html-keyboard-response","27","97146","0.0-6.0-1.0-2.0-0.9","4","4","4","4","4","4","4","3","4","4","5","5","5","5","5","5","5","5","5","5","1","1","1","1","1","1","1","1","1","0","0","1","1","0","0","0","0","0","1","1","0","1","1","1","5","1","1","1","2","5","1","1","2","4","2","633781445638225920","刘","357","","","","","","","","","","","","","","","","","","","","","","","","","","","","","","","","","","","","","","","","","",""
"667","<p style=""color:rgb(150, 250, 100); font-size: 35px;"">自己</p>","i","categorize-html","28","97813","0.0-6.0-1.0-2.0-1.9","4","4","4","4","4","4","4","3","4","4","5","5","5","5","5","5","5","5","5","5","1","1","1","1","1","1","1","1","1","0","0","1","1","0","0","0","0","0","1","1","0","1","1","1","5","1","1","1","2","5","1","1","2","4","2","633781445638225920","刘","357","","","","","","","","","","","","","","","","","","","true","11","1","moral","667","self","自己","","","","","","","","","","","","","","","","",""
"null","","null","html-keyboard-response","29","98064","0.0-6.0-1.0-2.0-0.10","4","4","4","4","4","4","4","3","4","4","5","5","5","5","5","5","5","5","5","5","1","1","1","1","1","1","1","1","1","0","0","1","1","0","0","0","0","0","1","1","0","1","1","1","5","1","1","1","2","5","1","1","2","4","2","633781445638225920","刘","357","","","","","","","","","","","","","","","","","","","","","","","","","","","","","","","","","","","","","","","","","",""
"476","<p style=""color:rgb(150, 250, 100); font-size: 35px;"">我</p>","i","categorize-html","30","98541","0.0-6.0-1.0-2.0-1.10","4","4","4","4","4","4","4","3","4","4","5","5","5","5","5","5","5","5","5","5","1","1","1","1","1","1","1","1","1","0","0","1","1","0","0","0","0","0","1","1","0","1","1","1","5","1","1","1","2","5","1","1","2","4","2","633781445638225920","刘","357","","","","","","","","","","","","","","","","","","","true","11","1","moral","476","self","我","","","","","","","","","","","","","","","","",""
"null","","null","html-keyboard-response","31","98792","0.0-6.0-1.0-2.0-0.11","4","4","4","4","4","4","4","3","4","4","5","5","5","5","5","5","5","5","5","5","1","1","1","1","1","1","1","1","1","0","0","1","1","0","0","0","0","0","1","1","0","1","1","1","5","1","1","1","2","5","1","1","2","4","2","633781445638225920","刘","357","","","","","","","","","","","","","","","","","","","","","","","","","","","","","","","","","","","","","","","","","",""
"417","<p style=""color:rgb(150, 250, 100); font-size: 35px;"">别人</p>","i","categorize-html","32","99470","0.0-6.0-1.0-2.0-1.11","4","4","4","4","4","4","4","3","4","4","5","5","5","5","5","5","5","5","5","5","1","1","1","1","1","1","1","1","1","0","0","1","1","0","0","0","0","0","1","1","0","1","1","1","5","1","1","1","2","5","1","1","2","4","2","633781445638225920","刘","357","","","","","","","","","","","","","","","","","","","false","11","1","moral","417","other","别人","","","","","","","","","","","","","","","","",""
"1000","
    <div class=""tag-bottom""><p>
    —— 任务2：对“消极”词和“积极”词分类 ——<p/>   
    <span style=""color:#78DCE8""><b>注意上方，类别标签和需要分类的词语都已经改变</b></span><p/>
    <span style=""color:#FFD866""><b>请根据上方标签的提示，尽可能正确并且快速地做出按键反应</b></span><p/>
    当按键错误时屏幕中会出现<span style=""color:red""> X </span>，需要按另一个键纠正才能继续<br/><p/>
    请把双手食指分别放在键盘的“E”键和“I”键上<p/>
    按<空格键>开始
    </p></div>"," ","html-keyboard-response","33","100470","0.0-6.0-1.0-3.0","4","4","4","4","4","4","4","3","4","4","5","5","5","5","5","5","5","5","5","5","1","1","1","1","1","1","1","1","1","0","0","1","1","0","0","0","0","0","1","1","0","1","1","1","5","1","1","1","2","5","1","1","2","4","2","633781445638225920","刘","357","","","","","","","","","","","","","","","","","","","","","","","","","","","","","","","","","","","","","","","","","",""
"null","","null","html-keyboard-response","34","100722","0.0-6.0-1.0-4.0-0.0","4","4","4","4","4","4","4","3","4","4","5","5","5","5","5","5","5","5","5","5","1","1","1","1","1","1","1","1","1","0","0","1","1","0","0","0","0","0","1","1","0","1","1","1","5","1","1","1","2","5","1","1","2","4","2","633781445638225920","刘","357","","","","","","","","","","","","","","","","","","","","","","","","","","","","","","","","","","","","","","","","","",""
"764","<p style=""color:white; font-size: 35px;"">廉正</p>","i","categorize-html","35","101487","0.0-6.0-1.0-4.0-1.0","4","4","4","4","4","4","4","3","4","4","5","5","5","5","5","5","5","5","5","5","1","1","1","1","1","1","1","1","1","0","0","1","1","0","0","0","0","0","1","1","0","1","1","1","5","1","1","1","2","5","1","1","2","4","2","633781445638225920","刘","357","","","","","","","","","","","","","","","","","","","true","12","2","moral","764","positive","廉正","","","","","","","","","","","","","","","","",""
"null","","null","html-keyboard-response","36","101738","0.0-6.0-1.0-4.0-0.1","4","4","4","4","4","4","4","3","4","4","5","5","5","5","5","5","5","5","5","5","1","1","1","1","1","1","1","1","1","0","0","1","1","0","0","0","0","0","1","1","0","1","1","1","5","1","1","1","2","5","1","1","2","4","2","633781445638225920","刘","357","","","","","","","","","","","","","","","","","","","","","","","","","","","","","","","","","","","","","","","","","",""
"456","<p style=""color:white; font-size: 35px;"">小人</p>","e","categorize-html","37","102195","0.0-6.0-1.0-4.0-1.1","4","4","4","4","4","4","4","3","4","4","5","5","5","5","5","5","5","5","5","5","1","1","1","1","1","1","1","1","1","0","0","1","1","0","0","0","0","0","1","1","0","1","1","1","5","1","1","1","2","5","1","1","2","4","2","633781445638225920","刘","357","","","","","","","","","","","","","","","","","","","true","12","2","moral","456","negative","小人","","","","","","","","","","","","","","","","",""
"null","","null","html-keyboard-response","38","102445","0.0-6.0-1.0-4.0-0.2","4","4","4","4","4","4","4","3","4","4","5","5","5","5","5","5","5","5","5","5","1","1","1","1","1","1","1","1","1","0","0","1","1","0","0","0","0","0","1","1","0","1","1","1","5","1","1","1","2","5","1","1","2","4","2","633781445638225920","刘","357","","","","","","","","","","","","","","","","","","","","","","","","","","","","","","","","","","","","","","","","","",""
"478","<p style=""color:white; font-size: 35px;"">黑心</p>","e","categorize-html","39","102924","0.0-6.0-1.0-4.0-1.2","4","4","4","4","4","4","4","3","4","4","5","5","5","5","5","5","5","5","5","5","1","1","1","1","1","1","1","1","1","0","0","1","1","0","0","0","0","0","1","1","0","1","1","1","5","1","1","1","2","5","1","1","2","4","2","633781445638225920","刘","357","","","","","","","","","","","","","","","","","","","true","12","2","moral","478","negative","黑心","","","","","","","","","","","","","","","","",""
"null","","null","html-keyboard-response","40","103174","0.0-6.0-1.0-4.0-0.3","4","4","4","4","4","4","4","3","4","4","5","5","5","5","5","5","5","5","5","5","1","1","1","1","1","1","1","1","1","0","0","1","1","0","0","0","0","0","1","1","0","1","1","1","5","1","1","1","2","5","1","1","2","4","2","633781445638225920","刘","357","","","","","","","","","","","","","","","","","","","","","","","","","","","","","","","","","","","","","","","","","",""
"433","<p style=""color:white; font-size: 35px;"">诚信</p>","i","categorize-html","41","103608","0.0-6.0-1.0-4.0-1.3","4","4","4","4","4","4","4","3","4","4","5","5","5","5","5","5","5","5","5","5","1","1","1","1","1","1","1","1","1","0","0","1","1","0","0","0","0","0","1","1","0","1","1","1","5","1","1","1","2","5","1","1","2","4","2","633781445638225920","刘","357","","","","","","","","","","","","","","","","","","","true","12","2","moral","433","positive","诚信","","","","","","","","","","","","","","","","",""
"null","","null","html-keyboard-response","42","103858","0.0-6.0-1.0-4.0-0.4","4","4","4","4","4","4","4","3","4","4","5","5","5","5","5","5","5","5","5","5","1","1","1","1","1","1","1","1","1","0","0","1","1","0","0","0","0","0","1","1","0","1","1","1","5","1","1","1","2","5","1","1","2","4","2","633781445638225920","刘","357","","","","","","","","","","","","","","","","","","","","","","","","","","","","","","","","","","","","","","","","","",""
"458","<p style=""color:white; font-size: 35px;"">善良</p>","i","categorize-html","43","104316","0.0-6.0-1.0-4.0-1.4","4","4","4","4","4","4","4","3","4","4","5","5","5","5","5","5","5","5","5","5","1","1","1","1","1","1","1","1","1","0","0","1","1","0","0","0","0","0","1","1","0","1","1","1","5","1","1","1","2","5","1","1","2","4","2","633781445638225920","刘","357","","","","","","","","","","","","","","","","","","","true","12","2","moral","458","positive","善良","","","","","","","","","","","","","","","","",""
"null","","null","html-keyboard-response","44","104568","0.0-6.0-1.0-4.0-0.5","4","4","4","4","4","4","4","3","4","4","5","5","5","5","5","5","5","5","5","5","1","1","1","1","1","1","1","1","1","0","0","1","1","0","0","0","0","0","1","1","0","1","1","1","5","1","1","1","2","5","1","1","2","4","2","633781445638225920","刘","357","","","","","","","","","","","","","","","","","","","","","","","","","","","","","","","","","","","","","","","","","",""
"421","<p style=""color:white; font-size: 35px;"">不仁</p>","e","categorize-html","45","104990","0.0-6.0-1.0-4.0-1.5","4","4","4","4","4","4","4","3","4","4","5","5","5","5","5","5","5","5","5","5","1","1","1","1","1","1","1","1","1","0","0","1","1","0","0","0","0","0","1","1","0","1","1","1","5","1","1","1","2","5","1","1","2","4","2","633781445638225920","刘","357","","","","","","","","","","","","","","","","","","","true","12","2","moral","421","negative","不仁","","","","","","","","","","","","","","","","",""
"null","","null","html-keyboard-response","46","105241","0.0-6.0-1.0-4.0-0.6","4","4","4","4","4","4","4","3","4","4","5","5","5","5","5","5","5","5","5","5","1","1","1","1","1","1","1","1","1","0","0","1","1","0","0","0","0","0","1","1","0","1","1","1","5","1","1","1","2","5","1","1","2","4","2","633781445638225920","刘","357","","","","","","","","","","","","","","","","","","","","","","","","","","","","","","","","","","","","","","","","","",""
"477","<p style=""color:white; font-size: 35px;"">不孝</p>","e","categorize-html","47","105719","0.0-6.0-1.0-4.0-1.6","4","4","4","4","4","4","4","3","4","4","5","5","5","5","5","5","5","5","5","5","1","1","1","1","1","1","1","1","1","0","0","1","1","0","0","0","0","0","1","1","0","1","1","1","5","1","1","1","2","5","1","1","2","4","2","633781445638225920","刘","357","","","","","","","","","","","","","","","","","","","true","12","2","moral","477","negative","不孝","","","","","","","","","","","","","","","","",""
"null","","null","html-keyboard-response","48","105970","0.0-6.0-1.0-4.0-0.7","4","4","4","4","4","4","4","3","4","4","5","5","5","5","5","5","5","5","5","5","1","1","1","1","1","1","1","1","1","0","0","1","1","0","0","0","0","0","1","1","0","1","1","1","5","1","1","1","2","5","1","1","2","4","2","633781445638225920","刘","357","","","","","","","","","","","","","","","","","","","","","","","","","","","","","","","","","","","","","","","","","",""
"532","<p style=""color:white; font-size: 35px;"">高尚</p>","i","categorize-html","49","106503","0.0-6.0-1.0-4.0-1.7","4","4","4","4","4","4","4","3","4","4","5","5","5","5","5","5","5","5","5","5","1","1","1","1","1","1","1","1","1","0","0","1","1","0","0","0","0","0","1","1","0","1","1","1","5","1","1","1","2","5","1","1","2","4","2","633781445638225920","刘","357","","","","","","","","","","","","","","","","","","","true","12","2","moral","532","positive","高尚","","","","","","","","","","","","","","","","",""
"null","","null","html-keyboard-response","50","106753","0.0-6.0-1.0-4.0-0.8","4","4","4","4","4","4","4","3","4","4","5","5","5","5","5","5","5","5","5","5","1","1","1","1","1","1","1","1","1","0","0","1","1","0","0","0","0","0","1","1","0","1","1","1","5","1","1","1","2","5","1","1","2","4","2","633781445638225920","刘","357","","","","","","","","","","","","","","","","","","","","","","","","","","","","","","","","","","","","","","","","","",""
"684","<p style=""color:white; font-size: 35px;"">卑鄙</p>","e","categorize-html","51","107437","0.0-6.0-1.0-4.0-1.8","4","4","4","4","4","4","4","3","4","4","5","5","5","5","5","5","5","5","5","5","1","1","1","1","1","1","1","1","1","0","0","1","1","0","0","0","0","0","1","1","0","1","1","1","5","1","1","1","2","5","1","1","2","4","2","633781445638225920","刘","357","","","","","","","","","","","","","","","","","","","true","12","2","moral","684","negative","卑鄙","","","","","","","","","","","","","","","","",""
"null","","null","html-keyboard-response","52","107688","0.0-6.0-1.0-4.0-0.9","4","4","4","4","4","4","4","3","4","4","5","5","5","5","5","5","5","5","5","5","1","1","1","1","1","1","1","1","1","0","0","1","1","0","0","0","0","0","1","1","0","1","1","1","5","1","1","1","2","5","1","1","2","4","2","633781445638225920","刘","357","","","","","","","","","","","","","","","","","","","","","","","","","","","","","","","","","","","","","","","","","",""
"466","<p style=""color:white; font-size: 35px;"">正直</p>","i","categorize-html","53","108155","0.0-6.0-1.0-4.0-1.9","4","4","4","4","4","4","4","3","4","4","5","5","5","5","5","5","5","5","5","5","1","1","1","1","1","1","1","1","1","0","0","1","1","0","0","0","0","0","1","1","0","1","1","1","5","1","1","1","2","5","1","1","2","4","2","633781445638225920","刘","357","","","","","","","","","","","","","","","","","","","true","12","2","moral","466","positive","正直","","","","","","","","","","","","","","","","",""
"null","","null","html-keyboard-response","54","108407","0.0-6.0-1.0-4.0-0.10","4","4","4","4","4","4","4","3","4","4","5","5","5","5","5","5","5","5","5","5","1","1","1","1","1","1","1","1","1","0","0","1","1","0","0","0","0","0","1","1","0","1","1","1","5","1","1","1","2","5","1","1","2","4","2","633781445638225920","刘","357","","","","","","","","","","","","","","","","","","","","","","","","","","","","","","","","","","","","","","","","","",""
"506","<p style=""color:white; font-size: 35px;"">君子</p>","i","categorize-html","55","108914","0.0-6.0-1.0-4.0-1.10","4","4","4","4","4","4","4","3","4","4","5","5","5","5","5","5","5","5","5","5","1","1","1","1","1","1","1","1","1","0","0","1","1","0","0","0","0","0","1","1","0","1","1","1","5","1","1","1","2","5","1","1","2","4","2","633781445638225920","刘","357","","","","","","","","","","","","","","","","","","","true","12","2","moral","506","positive","君子","","","","","","","","","","","","","","","","",""
"null","","null","html-keyboard-response","56","109166","0.0-6.0-1.0-4.0-0.11","4","4","4","4","4","4","4","3","4","4","5","5","5","5","5","5","5","5","5","5","1","1","1","1","1","1","1","1","1","0","0","1","1","0","0","0","0","0","1","1","0","1","1","1","5","1","1","1","2","5","1","1","2","4","2","633781445638225920","刘","357","","","","","","","","","","","","","","","","","","","","","","","","","","","","","","","","","","","","","","","","","",""
"486","<p style=""color:white; font-size: 35px;"">缺德</p>","e","categorize-html","57","109652","0.0-6.0-1.0-4.0-1.11","4","4","4","4","4","4","4","3","4","4","5","5","5","5","5","5","5","5","5","5","1","1","1","1","1","1","1","1","1","0","0","1","1","0","0","0","0","0","1","1","0","1","1","1","5","1","1","1","2","5","1","1","2","4","2","633781445638225920","刘","357","","","","","","","","","","","","","","","","","","","true","12","2","moral","486","negative","缺德","","","","","","","","","","","","","","","","",""
"833","
    <div class=""tag-bottom""><p>
    —— 任务3：对“他人/消极”词和“自我/积极”词分类 ——<p/>
    <span style=""color:#78DCE8""><b>注意上方，之前的四类词语将混合在一起交替呈现</b></span><p/>
    <span style=""color:#FFD866""><b>请根据上方标签的提示，尽可能正确并且快速地做出按键反应</b></span><p/>
    当按键错误时屏幕中会出现<span style=""color:red""> X </span>，需要按另一个键纠正才能继续<br/><p/>
    请把双手食指分别放在键盘的“E”键和“I”键上<p/>
    按<空格键>开始
    </p></div>"," ","html-keyboard-response","58","110486","0.0-6.0-1.0-5.0","4","4","4","4","4","4","4","3","4","4","5","5","5","5","5","5","5","5","5","5","1","1","1","1","1","1","1","1","1","0","0","1","1","0","0","0","0","0","1","1","0","1","1","1","5","1","1","1","2","5","1","1","2","4","2","633781445638225920","刘","357","","","","","","","","","","","","","","","","","","","","","","","","","","","","","","","","","","","","","","","","","",""
"null","","null","html-keyboard-response","59","110736","0.0-6.0-1.0-6.0-0.0","4","4","4","4","4","4","4","3","4","4","5","5","5","5","5","5","5","5","5","5","1","1","1","1","1","1","1","1","1","0","0","1","1","0","0","0","0","0","1","1","0","1","1","1","5","1","1","1","2","5","1","1","2","4","2","633781445638225920","刘","357","","","","","","","","","","","","","","","","","","","","","","","","","","","","","","","","","","","","","","","","","",""
"434","<p style=""color:rgb(150, 250, 100); font-size: 35px;"">自己的</p>","i","categorize-html","60","111171","0.0-6.0-1.0-6.0-1.0","4","4","4","4","4","4","4","3","4","4","5","5","5","5","5","5","5","5","5","5","1","1","1","1","1","1","1","1","1","0","0","1","1","0","0","0","0","0","1","1","0","1","1","1","5","1","1","1","2","5","1","1","2","4","2","633781445638225920","刘","357","","","","","","","","","","","","","","","","","","","true","13","3","moral","434","self","自己的","","","","","","","","","","","","","","","","",""
"null","","null","html-keyboard-response","61","111423","0.0-6.0-1.0-6.0-0.1","4","4","4","4","4","4","4","3","4","4","5","5","5","5","5","5","5","5","5","5","1","1","1","1","1","1","1","1","1","0","0","1","1","0","0","0","0","0","1","1","0","1","1","1","5","1","1","1","2","5","1","1","2","4","2","633781445638225920","刘","357","","","","","","","","","","","","","","","","","","","","","","","","","","","","","","","","","","","","","","","","","",""
"355","<p style=""color:white; font-size: 35px;"">诚信</p>","i","categorize-html","62","111779","0.0-6.0-1.0-6.0-1.1","4","4","4","4","4","4","4","3","4","4","5","5","5","5","5","5","5","5","5","5","1","1","1","1","1","1","1","1","1","0","0","1","1","0","0","0","0","0","1","1","0","1","1","1","5","1","1","1","2","5","1","1","2","4","2","633781445638225920","刘","357","","","","","","","","","","","","","","","","","","","true","13","3","moral","355","positive","诚信","","","","","","","","","","","","","","","","",""
"null","","null","html-keyboard-response","63","112030","0.0-6.0-1.0-6.0-0.2","4","4","4","4","4","4","4","3","4","4","5","5","5","5","5","5","5","5","5","5","1","1","1","1","1","1","1","1","1","0","0","1","1","0","0","0","0","0","1","1","0","1","1","1","5","1","1","1","2","5","1","1","2","4","2","633781445638225920","刘","357","","","","","","","","","","","","","","","","","","","","","","","","","","","","","","","","","","","","","","","","","",""
"438","<p style=""color:rgb(150, 250, 100); font-size: 35px;"">他</p>","e","categorize-html","64","112471","0.0-6.0-1.0-6.0-1.2","4","4","4","4","4","4","4","3","4","4","5","5","5","5","5","5","5","5","5","5","1","1","1","1","1","1","1","1","1","0","0","1","1","0","0","0","0","0","1","1","0","1","1","1","5","1","1","1","2","5","1","1","2","4","2","633781445638225920","刘","357","","","","","","","","","","","","","","","","","","","true","13","3","moral","438","other","他","","","","","","","","","","","","","","","","",""
"null","","null","html-keyboard-response","65","112723","0.0-6.0-1.0-6.0-0.3","4","4","4","4","4","4","4","3","4","4","5","5","5","5","5","5","5","5","5","5","1","1","1","1","1","1","1","1","1","0","0","1","1","0","0","0","0","0","1","1","0","1","1","1","5","1","1","1","2","5","1","1","2","4","2","633781445638225920","刘","357","","","","","","","","","","","","","","","","","","","","","","","","","","","","","","","","","","","","","","","","","",""
"438","<p style=""color:white; font-size: 35px;"">卑鄙</p>","e","categorize-html","66","113162","0.0-6.0-1.0-6.0-1.3","4","4","4","4","4","4","4","3","4","4","5","5","5","5","5","5","5","5","5","5","1","1","1","1","1","1","1","1","1","0","0","1","1","0","0","0","0","0","1","1","0","1","1","1","5","1","1","1","2","5","1","1","2","4","2","633781445638225920","刘","357","","","","","","","","","","","","","","","","","","","true","13","3","moral","438","negative","卑鄙","","","","","","","","","","","","","","","","",""
"null","","null","html-keyboard-response","67","113413","0.0-6.0-1.0-6.0-0.4","4","4","4","4","4","4","4","3","4","4","5","5","5","5","5","5","5","5","5","5","1","1","1","1","1","1","1","1","1","0","0","1","1","0","0","0","0","0","1","1","0","1","1","1","5","1","1","1","2","5","1","1","2","4","2","633781445638225920","刘","357","","","","","","","","","","","","","","","","","","","","","","","","","","","","","","","","","","","","","","","","","",""
"451","<p style=""color:rgb(150, 250, 100); font-size: 35px;"">本人</p>","i","categorize-html","68","113865","0.0-6.0-1.0-6.0-1.4","4","4","4","4","4","4","4","3","4","4","5","5","5","5","5","5","5","5","5","5","1","1","1","1","1","1","1","1","1","0","0","1","1","0","0","0","0","0","1","1","0","1","1","1","5","1","1","1","2","5","1","1","2","4","2","633781445638225920","刘","357","","","","","","","","","","","","","","","","","","","true","13","3","moral","451","self","本人","","","","","","","","","","","","","","","","",""
"null","","null","html-keyboard-response","69","114117","0.0-6.0-1.0-6.0-0.5","4","4","4","4","4","4","4","3","4","4","5","5","5","5","5","5","5","5","5","5","1","1","1","1","1","1","1","1","1","0","0","1","1","0","0","0","0","0","1","1","0","1","1","1","5","1","1","1","2","5","1","1","2","4","2","633781445638225920","刘","357","","","","","","","","","","","","","","","","","","","","","","","","","","","","","","","","","","","","","","","","","",""
"393","<p style=""color:white; font-size: 35px;"">善良</p>","i","categorize-html","70","114510","0.0-6.0-1.0-6.0-1.5","4","4","4","4","4","4","4","3","4","4","5","5","5","5","5","5","5","5","5","5","1","1","1","1","1","1","1","1","1","0","0","1","1","0","0","0","0","0","1","1","0","1","1","1","5","1","1","1","2","5","1","1","2","4","2","633781445638225920","刘","357","","","","","","","","","","","","","","","","","","","true","13","3","moral","393","positive","善良","","","","","","","","","","","","","","","","",""
"null","","null","html-keyboard-response","71","114762","0.0-6.0-1.0-6.0-0.6","4","4","4","4","4","4","4","3","4","4","5","5","5","5","5","5","5","5","5","5","1","1","1","1","1","1","1","1","1","0","0","1","1","0","0","0","0","0","1","1","0","1","1","1","5","1","1","1","2","5","1","1","2","4","2","633781445638225920","刘","357","","","","","","","","","","","","","","","","","","","","","","","","","","","","","","","","","","","","","","","","","",""
"486","<p style=""color:rgb(150, 250, 100); font-size: 35px;"">他人的</p>","e","categorize-html","72","115248","0.0-6.0-1.0-6.0-1.6","4","4","4","4","4","4","4","3","4","4","5","5","5","5","5","5","5","5","5","5","1","1","1","1","1","1","1","1","1","0","0","1","1","0","0","0","0","0","1","1","0","1","1","1","5","1","1","1","2","5","1","1","2","4","2","633781445638225920","刘","357","","","","","","","","","","","","","","","","","","","true","13","3","moral","486","other","他人的","","","","","","","","","","","","","","","","",""
"null","","null","html-keyboard-response","73","115499","0.0-6.0-1.0-6.0-0.7","4","4","4","4","4","4","4","3","4","4","5","5","5","5","5","5","5","5","5","5","1","1","1","1","1","1","1","1","1","0","0","1","1","0","0","0","0","0","1","1","0","1","1","1","5","1","1","1","2","5","1","1","2","4","2","633781445638225920","刘","357","","","","","","","","","","","","","","","","","","","","","","","","","","","","","","","","","","","","","","","","","",""
"507","<p style=""color:white; font-size: 35px;"">小人</p>","e","categorize-html","74","116007","0.0-6.0-1.0-6.0-1.7","4","4","4","4","4","4","4","3","4","4","5","5","5","5","5","5","5","5","5","5","1","1","1","1","1","1","1","1","1","0","0","1","1","0","0","0","0","0","1","1","0","1","1","1","5","1","1","1","2","5","1","1","2","4","2","633781445638225920","刘","357","","","","","","","","","","","","","","","","","","","true","13","3","moral","507","negative","小人","","","","","","","","","","","","","","","","",""
"null","","null","html-keyboard-response","75","116258","0.0-6.0-1.0-6.0-0.8","4","4","4","4","4","4","4","3","4","4","5","5","5","5","5","5","5","5","5","5","1","1","1","1","1","1","1","1","1","0","0","1","1","0","0","0","0","0","1","1","0","1","1","1","5","1","1","1","2","5","1","1","2","4","2","633781445638225920","刘","357","","","","","","","","","","","","","","","","","","","","","","","","","","","","","","","","","","","","","","","","","",""
"542","<p style=""color:rgb(150, 250, 100); font-size: 35px;"">本人的</p>","i","categorize-html","76","116800","0.0-6.0-1.0-6.0-1.8","4","4","4","4","4","4","4","3","4","4","5","5","5","5","5","5","5","5","5","5","1","1","1","1","1","1","1","1","1","0","0","1","1","0","0","0","0","0","1","1","0","1","1","1","5","1","1","1","2","5","1","1","2","4","2","633781445638225920","刘","357","","","","","","","","","","","","","","","","","","","true","13","3","moral","542","self","本人的","","","","","","","","","","","","","","","","",""
"null","","null","html-keyboard-response","77","117051","0.0-6.0-1.0-6.0-0.9","4","4","4","4","4","4","4","3","4","4","5","5","5","5","5","5","5","5","5","5","1","1","1","1","1","1","1","1","1","0","0","1","1","0","0","0","0","0","1","1","0","1","1","1","5","1","1","1","2","5","1","1","2","4","2","633781445638225920","刘","357","","","","","","","","","","","","","","","","","","","","","","","","","","","","","","","","","","","","","","","","","",""
"423","<p style=""color:white; font-size: 35px;"">缺德</p>","e","categorize-html","78","117474","0.0-6.0-1.0-6.0-1.9","4","4","4","4","4","4","4","3","4","4","5","5","5","5","5","5","5","5","5","5","1","1","1","1","1","1","1","1","1","0","0","1","1","0","0","0","0","0","1","1","0","1","1","1","5","1","1","1","2","5","1","1","2","4","2","633781445638225920","刘","357","","","","","","","","","","","","","","","","","","","true","13","3","moral","423","negative","缺德","","","","","","","","","","","","","","","","",""
"null","","null","html-keyboard-response","79","117725","0.0-6.0-1.0-6.0-0.10","4","4","4","4","4","4","4","3","4","4","5","5","5","5","5","5","5","5","5","5","1","1","1","1","1","1","1","1","1","0","0","1","1","0","0","0","0","0","1","1","0","1","1","1","5","1","1","1","2","5","1","1","2","4","2","633781445638225920","刘","357","","","","","","","","","","","","","","","","","","","","","","","","","","","","","","","","","","","","","","","","","",""
"382","<p style=""color:rgb(150, 250, 100); font-size: 35px;"">别人</p>","e","categorize-html","80","118107","0.0-6.0-1.0-6.0-1.10","4","4","4","4","4","4","4","3","4","4","5","5","5","5","5","5","5","5","5","5","1","1","1","1","1","1","1","1","1","0","0","1","1","0","0","0","0","0","1","1","0","1","1","1","5","1","1","1","2","5","1","1","2","4","2","633781445638225920","刘","357","","","","","","","","","","","","","","","","","","","true","13","3","moral","382","other","别人","","","","","","","","","","","","","","","","",""
"null","","null","html-keyboard-response","81","118359","0.0-6.0-1.0-6.0-0.11","4","4","4","4","4","4","4","3","4","4","5","5","5","5","5","5","5","5","5","5","1","1","1","1","1","1","1","1","1","0","0","1","1","0","0","0","0","0","1","1","0","1","1","1","5","1","1","1","2","5","1","1","2","4","2","633781445638225920","刘","357","","","","","","","","","","","","","","","","","","","","","","","","","","","","","","","","","","","","","","","","","",""
"418","<p style=""color:white; font-size: 35px;"">君子</p>","i","categorize-html","82","118777","0.0-6.0-1.0-6.0-1.11","4","4","4","4","4","4","4","3","4","4","5","5","5","5","5","5","5","5","5","5","1","1","1","1","1","1","1","1","1","0","0","1","1","0","0","0","0","0","1","1","0","1","1","1","5","1","1","1","2","5","1","1","2","4","2","633781445638225920","刘","357","","","","","","","","","","","","","","","","","","","true","13","3","moral","418","positive","君子","","","","","","","","","","","","","","","","",""
"null","","null","html-keyboard-response","83","119029","0.0-6.0-1.0-6.0-0.12","4","4","4","4","4","4","4","3","4","4","5","5","5","5","5","5","5","5","5","5","1","1","1","1","1","1","1","1","1","0","0","1","1","0","0","0","0","0","1","1","0","1","1","1","5","1","1","1","2","5","1","1","2","4","2","633781445638225920","刘","357","","","","","","","","","","","","","","","","","","","","","","","","","","","","","","","","","","","","","","","","","",""
"411","<p style=""color:rgb(150, 250, 100); font-size: 35px;"">自己</p>","i","categorize-html","84","119441","0.0-6.0-1.0-6.0-1.12","4","4","4","4","4","4","4","3","4","4","5","5","5","5","5","5","5","5","5","5","1","1","1","1","1","1","1","1","1","0","0","1","1","0","0","0","0","0","1","1","0","1","1","1","5","1","1","1","2","5","1","1","2","4","2","633781445638225920","刘","357","","","","","","","","","","","","","","","","","","","true","13","3","moral","411","self","自己","","","","","","","","","","","","","","","","",""
"null","","null","html-keyboard-response","85","119691","0.0-6.0-1.0-6.0-0.13","4","4","4","4","4","4","4","3","4","4","5","5","5","5","5","5","5","5","5","5","1","1","1","1","1","1","1","1","1","0","0","1","1","0","0","0","0","0","1","1","0","1","1","1","5","1","1","1","2","5","1","1","2","4","2","633781445638225920","刘","357","","","","","","","","","","","","","","","","","","","","","","","","","","","","","","","","","","","","","","","","","",""
"443","<p style=""color:white; font-size: 35px;"">正直</p>","i","categorize-html","86","120135","0.0-6.0-1.0-6.0-1.13","4","4","4","4","4","4","4","3","4","4","5","5","5","5","5","5","5","5","5","5","1","1","1","1","1","1","1","1","1","0","0","1","1","0","0","0","0","0","1","1","0","1","1","1","5","1","1","1","2","5","1","1","2","4","2","633781445638225920","刘","357","","","","","","","","","","","","","","","","","","","true","13","3","moral","443","positive","正直","","","","","","","","","","","","","","","","",""
"null","","null","html-keyboard-response","87","120387","0.0-6.0-1.0-6.0-0.14","4","4","4","4","4","4","4","3","4","4","5","5","5","5","5","5","5","5","5","5","1","1","1","1","1","1","1","1","1","0","0","1","1","0","0","0","0","0","1","1","0","1","1","1","5","1","1","1","2","5","1","1","2","4","2","633781445638225920","刘","357","","","","","","","","","","","","","","","","","","","","","","","","","","","","","","","","","","","","","","","","","",""
"386","<p style=""color:rgb(150, 250, 100); font-size: 35px;"">别人的</p>","i","categorize-html","88","121008","0.0-6.0-1.0-6.0-1.14","4","4","4","4","4","4","4","3","4","4","5","5","5","5","5","5","5","5","5","5","1","1","1","1","1","1","1","1","1","0","0","1","1","0","0","0","0","0","1","1","0","1","1","1","5","1","1","1","2","5","1","1","2","4","2","633781445638225920","刘","357","","","","","","","","","","","","","","","","","","","false","13","3","moral","1045.2608695652175","other","别人的","","","","","","","","","","","","","","","","",""
"null","","null","html-keyboard-response","89","121259","0.0-6.0-1.0-6.0-0.15","4","4","4","4","4","4","4","3","4","4","5","5","5","5","5","5","5","5","5","5","1","1","1","1","1","1","1","1","1","0","0","1","1","0","0","0","0","0","1","1","0","1","1","1","5","1","1","1","2","5","1","1","2","4","2","633781445638225920","刘","357","","","","","","","","","","","","","","","","","","","","","","","","","","","","","","","","","","","","","","","","","",""
"462","<p style=""color:white; font-size: 35px;"">不仁</p>","e","categorize-html","90","121722","0.0-6.0-1.0-6.0-1.15","4","4","4","4","4","4","4","3","4","4","5","5","5","5","5","5","5","5","5","5","1","1","1","1","1","1","1","1","1","0","0","1","1","0","0","0","0","0","1","1","0","1","1","1","5","1","1","1","2","5","1","1","2","4","2","633781445638225920","刘","357","","","","","","","","","","","","","","","","","","","true","13","3","moral","462","negative","不仁","","","","","","","","","","","","","","","","",""
"null","","null","html-keyboard-response","91","121974","0.0-6.0-1.0-6.0-0.16","4","4","4","4","4","4","4","3","4","4","5","5","5","5","5","5","5","5","5","5","1","1","1","1","1","1","1","1","1","0","0","1","1","0","0","0","0","0","1","1","0","1","1","1","5","1","1","1","2","5","1","1","2","4","2","633781445638225920","刘","357","","","","","","","","","","","","","","","","","","","","","","","","","","","","","","","","","","","","","","","","","",""
"557","<p style=""color:rgb(150, 250, 100); font-size: 35px;"">他的</p>","e","categorize-html","92","122534","0.0-6.0-1.0-6.0-1.16","4","4","4","4","4","4","4","3","4","4","5","5","5","5","5","5","5","5","5","5","1","1","1","1","1","1","1","1","1","0","0","1","1","0","0","0","0","0","1","1","0","1","1","1","5","1","1","1","2","5","1","1","2","4","2","633781445638225920","刘","357","","","","","","","","","","","","","","","","","","","true","13","3","moral","557","other","他的","","","","","","","","","","","","","","","","",""
"null","","null","html-keyboard-response","93","122786","0.0-6.0-1.0-6.0-0.17","4","4","4","4","4","4","4","3","4","4","5","5","5","5","5","5","5","5","5","5","1","1","1","1","1","1","1","1","1","0","0","1","1","0","0","0","0","0","1","1","0","1","1","1","5","1","1","1","2","5","1","1","2","4","2","633781445638225920","刘","357","","","","","","","","","","","","","","","","","","","","","","","","","","","","","","","","","","","","","","","","","",""
"368","<p style=""color:white; font-size: 35px;"">廉正</p>","i","categorize-html","94","123155","0.0-6.0-1.0-6.0-1.17","4","4","4","4","4","4","4","3","4","4","5","5","5","5","5","5","5","5","5","5","1","1","1","1","1","1","1","1","1","0","0","1","1","0","0","0","0","0","1","1","0","1","1","1","5","1","1","1","2","5","1","1","2","4","2","633781445638225920","刘","357","","","","","","","","","","","","","","","","","","","true","13","3","moral","368","positive","廉正","","","","","","","","","","","","","","","","",""
"null","","null","html-keyboard-response","95","123406","0.0-6.0-1.0-6.0-0.18","4","4","4","4","4","4","4","3","4","4","5","5","5","5","5","5","5","5","5","5","1","1","1","1","1","1","1","1","1","0","0","1","1","0","0","0","0","0","1","1","0","1","1","1","5","1","1","1","2","5","1","1","2","4","2","633781445638225920","刘","357","","","","","","","","","","","","","","","","","","","","","","","","","","","","","","","","","","","","","","","","","",""
"372","<p style=""color:rgb(150, 250, 100); font-size: 35px;"">我</p>","i","categorize-html","96","123778","0.0-6.0-1.0-6.0-1.18","4","4","4","4","4","4","4","3","4","4","5","5","5","5","5","5","5","5","5","5","1","1","1","1","1","1","1","1","1","0","0","1","1","0","0","0","0","0","1","1","0","1","1","1","5","1","1","1","2","5","1","1","2","4","2","633781445638225920","刘","357","","","","","","","","","","","","","","","","","","","true","13","3","moral","372","self","我","","","","","","","","","","","","","","","","",""
"null","","null","html-keyboard-response","97","124029","0.0-6.0-1.0-6.0-0.19","4","4","4","4","4","4","4","3","4","4","5","5","5","5","5","5","5","5","5","5","1","1","1","1","1","1","1","1","1","0","0","1","1","0","0","0","0","0","1","1","0","1","1","1","5","1","1","1","2","5","1","1","2","4","2","633781445638225920","刘","357","","","","","","","","","","","","","","","","","","","","","","","","","","","","","","","","","","","","","","","","","",""
"474","<p style=""color:white; font-size: 35px;"">黑心</p>","e","categorize-html","98","124504","0.0-6.0-1.0-6.0-1.19","4","4","4","4","4","4","4","3","4","4","5","5","5","5","5","5","5","5","5","5","1","1","1","1","1","1","1","1","1","0","0","1","1","0","0","0","0","0","1","1","0","1","1","1","5","1","1","1","2","5","1","1","2","4","2","633781445638225920","刘","357","","","","","","","","","","","","","","","","","","","true","13","3","moral","474","negative","黑心","","","","","","","","","","","","","","","","",""
"null","","null","html-keyboard-response","99","124755","0.0-6.0-1.0-6.0-0.20","4","4","4","4","4","4","4","3","4","4","5","5","5","5","5","5","5","5","5","5","1","1","1","1","1","1","1","1","1","0","0","1","1","0","0","0","0","0","1","1","0","1","1","1","5","1","1","1","2","5","1","1","2","4","2","633781445638225920","刘","357","","","","","","","","","","","","","","","","","","","","","","","","","","","","","","","","","","","","","","","","","",""
"485","<p style=""color:rgb(150, 250, 100); font-size: 35px;"">我的</p>","i","categorize-html","100","125241","0.0-6.0-1.0-6.0-1.20","4","4","4","4","4","4","4","3","4","4","5","5","5","5","5","5","5","5","5","5","1","1","1","1","1","1","1","1","1","0","0","1","1","0","0","0","0","0","1","1","0","1","1","1","5","1","1","1","2","5","1","1","2","4","2","633781445638225920","刘","357","","","","","","","","","","","","","","","","","","","true","13","3","moral","485","self","我的","","","","","","","","","","","","","","","","",""
"null","","null","html-keyboard-response","101","125491","0.0-6.0-1.0-6.0-0.21","4","4","4","4","4","4","4","3","4","4","5","5","5","5","5","5","5","5","5","5","1","1","1","1","1","1","1","1","1","0","0","1","1","0","0","0","0","0","1","1","0","1","1","1","5","1","1","1","2","5","1","1","2","4","2","633781445638225920","刘","357","","","","","","","","","","","","","","","","","","","","","","","","","","","","","","","","","","","","","","","","","",""
"508","<p style=""color:white; font-size: 35px;"">不孝</p>","e","categorize-html","102","125999","0.0-6.0-1.0-6.0-1.21","4","4","4","4","4","4","4","3","4","4","5","5","5","5","5","5","5","5","5","5","1","1","1","1","1","1","1","1","1","0","0","1","1","0","0","0","0","0","1","1","0","1","1","1","5","1","1","1","2","5","1","1","2","4","2","633781445638225920","刘","357","","","","","","","","","","","","","","","","","","","true","13","3","moral","508","negative","不孝","","","","","","","","","","","","","","","","",""
"null","","null","html-keyboard-response","103","126251","0.0-6.0-1.0-6.0-0.22","4","4","4","4","4","4","4","3","4","4","5","5","5","5","5","5","5","5","5","5","1","1","1","1","1","1","1","1","1","0","0","1","1","0","0","0","0","0","1","1","0","1","1","1","5","1","1","1","2","5","1","1","2","4","2","633781445638225920","刘","357","","","","","","","","","","","","","","","","","","","","","","","","","","","","","","","","","","","","","","","","","",""
"447","<p style=""color:rgb(150, 250, 100); font-size: 35px;"">他人</p>","e","categorize-html","104","126699","0.0-6.0-1.0-6.0-1.22","4","4","4","4","4","4","4","3","4","4","5","5","5","5","5","5","5","5","5","5","1","1","1","1","1","1","1","1","1","0","0","1","1","0","0","0","0","0","1","1","0","1","1","1","5","1","1","1","2","5","1","1","2","4","2","633781445638225920","刘","357","","","","","","","","","","","","","","","","","","","true","13","3","moral","447","other","他人","","","","","","","","","","","","","","","","",""
"null","","null","html-keyboard-response","105","126950","0.0-6.0-1.0-6.0-0.23","4","4","4","4","4","4","4","3","4","4","5","5","5","5","5","5","5","5","5","5","1","1","1","1","1","1","1","1","1","0","0","1","1","0","0","0","0","0","1","1","0","1","1","1","5","1","1","1","2","5","1","1","2","4","2","633781445638225920","刘","357","","","","","","","","","","","","","","","","","","","","","","","","","","","","","","","","","","","","","","","","","",""
"447","<p style=""color:white; font-size: 35px;"">高尚</p>","i","categorize-html","106","127398","0.0-6.0-1.0-6.0-1.23","4","4","4","4","4","4","4","3","4","4","5","5","5","5","5","5","5","5","5","5","1","1","1","1","1","1","1","1","1","0","0","1","1","0","0","0","0","0","1","1","0","1","1","1","5","1","1","1","2","5","1","1","2","4","2","633781445638225920","刘","357","","","","","","","","","","","","","","","","","","","true","13","3","moral","447","positive","高尚","","","","","","","","","","","","","","","","",""
"27157","
    <div class=""tag-bottom""><p>
    —— 任务4：对“他人/消极”词和“自我/积极”词分类 ——<p/>
    <span style=""color:#78DCE8""><b>与刚才的任务完全相同，请再次对这四类词语分类</b></span><p/>
    <span style=""color:#FFD866""><b>请根据上方标签的提示，尽可能正确并且快速地做出按键反应</b></span><p/>
    当按键错误时屏幕中会出现<span style=""color:red""> X </span>，需要按另一个键纠正才能继续<br/><p/>
    请把双手食指分别放在键盘的“E”键和“I”键上<p/>
    按<空格键>开始
    </p></div>"," ","html-keyboard-response","107","154555","0.0-6.0-1.0-7.0","4","4","4","4","4","4","4","3","4","4","5","5","5","5","5","5","5","5","5","5","1","1","1","1","1","1","1","1","1","0","0","1","1","0","0","0","0","0","1","1","0","1","1","1","5","1","1","1","2","5","1","1","2","4","2","633781445638225920","刘","357","","","","","","","","","","","","","","","","","","","","","","","","","","","","","","","","","","","","","","","","","",""
"null","","null","html-keyboard-response","108","154806","0.0-6.0-1.0-8.0-0.0","4","4","4","4","4","4","4","3","4","4","5","5","5","5","5","5","5","5","5","5","1","1","1","1","1","1","1","1","1","0","0","1","1","0","0","0","0","0","1","1","0","1","1","1","5","1","1","1","2","5","1","1","2","4","2","633781445638225920","刘","357","","","","","","","","","","","","","","","","","","","","","","","","","","","","","","","","","","","","","","","","","",""
"391","<p style=""color:rgb(150, 250, 100); font-size: 35px;"">自己的</p>","i","categorize-html","109","155198","0.0-6.0-1.0-8.0-1.0","4","4","4","4","4","4","4","3","4","4","5","5","5","5","5","5","5","5","5","5","1","1","1","1","1","1","1","1","1","0","0","1","1","0","0","0","0","0","1","1","0","1","1","1","5","1","1","1","2","5","1","1","2","4","2","633781445638225920","刘","357","","","","","","","","","","","","","","","","","","","true","14","4","moral","391","self","自己的","","","","","","","","","","","","","","","","",""
"null","","null","html-keyboard-response","110","155450","0.0-6.0-1.0-8.0-0.1","4","4","4","4","4","4","4","3","4","4","5","5","5","5","5","5","5","5","5","5","1","1","1","1","1","1","1","1","1","0","0","1","1","0","0","0","0","0","1","1","0","1","1","1","5","1","1","1","2","5","1","1","2","4","2","633781445638225920","刘","357","","","","","","","","","","","","","","","","","","","","","","","","","","","","","","","","","","","","","","","","","",""
"547","<p style=""color:white; font-size: 35px;"">诚信</p>","i","categorize-html","111","155998","0.0-6.0-1.0-8.0-1.1","4","4","4","4","4","4","4","3","4","4","5","5","5","5","5","5","5","5","5","5","1","1","1","1","1","1","1","1","1","0","0","1","1","0","0","0","0","0","1","1","0","1","1","1","5","1","1","1","2","5","1","1","2","4","2","633781445638225920","刘","357","","","","","","","","","","","","","","","","","","","true","14","4","moral","547","positive","诚信","","","","","","","","","","","","","","","","",""
"null","","null","html-keyboard-response","112","156250","0.0-6.0-1.0-8.0-0.2","4","4","4","4","4","4","4","3","4","4","5","5","5","5","5","5","5","5","5","5","1","1","1","1","1","1","1","1","1","0","0","1","1","0","0","0","0","0","1","1","0","1","1","1","5","1","1","1","2","5","1","1","2","4","2","633781445638225920","刘","357","","","","","","","","","","","","","","","","","","","","","","","","","","","","","","","","","","","","","","","","","",""
"1105","<p style=""color:rgb(150, 250, 100); font-size: 35px;"">别人的</p>","e","categorize-html","113","157356","0.0-6.0-1.0-8.0-1.2","4","4","4","4","4","4","4","3","4","4","5","5","5","5","5","5","5","5","5","5","1","1","1","1","1","1","1","1","1","0","0","1","1","0","0","0","0","0","1","1","0","1","1","1","5","1","1","1","2","5","1","1","2","4","2","633781445638225920","刘","357","","","","","","","","","","","","","","","","","","","true","14","4","moral","1105","other","别人的","","","","","","","","","","","","","","","","",""
"null","","null","html-keyboard-response","114","157607","0.0-6.0-1.0-8.0-0.3","4","4","4","4","4","4","4","3","4","4","5","5","5","5","5","5","5","5","5","5","1","1","1","1","1","1","1","1","1","0","0","1","1","0","0","0","0","0","1","1","0","1","1","1","5","1","1","1","2","5","1","1","2","4","2","633781445638225920","刘","357","","","","","","","","","","","","","","","","","","","","","","","","","","","","","","","","","","","","","","","","","",""
"701","<p style=""color:white; font-size: 35px;"">不孝</p>","e","categorize-html","115","158308","0.0-6.0-1.0-8.0-1.3","4","4","4","4","4","4","4","3","4","4","5","5","5","5","5","5","5","5","5","5","1","1","1","1","1","1","1","1","1","0","0","1","1","0","0","0","0","0","1","1","0","1","1","1","5","1","1","1","2","5","1","1","2","4","2","633781445638225920","刘","357","","","","","","","","","","","","","","","","","","","true","14","4","moral","701","negative","不孝","","","","","","","","","","","","","","","","",""
"null","","null","html-keyboard-response","116","158560","0.0-6.0-1.0-8.0-0.4","4","4","4","4","4","4","4","3","4","4","5","5","5","5","5","5","5","5","5","5","1","1","1","1","1","1","1","1","1","0","0","1","1","0","0","0","0","0","1","1","0","1","1","1","5","1","1","1","2","5","1","1","2","4","2","633781445638225920","刘","357","","","","","","","","","","","","","","","","","","","","","","","","","","","","","","","","","","","","","","","","","",""
"931","<p style=""color:rgb(150, 250, 100); font-size: 35px;"">他的</p>","e","categorize-html","117","159492","0.0-6.0-1.0-8.0-1.4","4","4","4","4","4","4","4","3","4","4","5","5","5","5","5","5","5","5","5","5","1","1","1","1","1","1","1","1","1","0","0","1","1","0","0","0","0","0","1","1","0","1","1","1","5","1","1","1","2","5","1","1","2","4","2","633781445638225920","刘","357","","","","","","","","","","","","","","","","","","","true","14","4","moral","931","other","他的","","","","","","","","","","","","","","","","",""
"null","","null","html-keyboard-response","118","159743","0.0-6.0-1.0-8.0-0.5","4","4","4","4","4","4","4","3","4","4","5","5","5","5","5","5","5","5","5","5","1","1","1","1","1","1","1","1","1","0","0","1","1","0","0","0","0","0","1","1","0","1","1","1","5","1","1","1","2","5","1","1","2","4","2","633781445638225920","刘","357","","","","","","","","","","","","","","","","","","","","","","","","","","","","","","","","","","","","","","","","","",""
"647","<p style=""color:white; font-size: 35px;"">不仁</p>","e","categorize-html","119","160391","0.0-6.0-1.0-8.0-1.5","4","4","4","4","4","4","4","3","4","4","5","5","5","5","5","5","5","5","5","5","1","1","1","1","1","1","1","1","1","0","0","1","1","0","0","0","0","0","1","1","0","1","1","1","5","1","1","1","2","5","1","1","2","4","2","633781445638225920","刘","357","","","","","","","","","","","","","","","","","","","true","14","4","moral","647","negative","不仁","","","","","","","","","","","","","","","","",""
"null","","null","html-keyboard-response","120","160641","0.0-6.0-1.0-8.0-0.6","4","4","4","4","4","4","4","3","4","4","5","5","5","5","5","5","5","5","5","5","1","1","1","1","1","1","1","1","1","0","0","1","1","0","0","0","0","0","1","1","0","1","1","1","5","1","1","1","2","5","1","1","2","4","2","633781445638225920","刘","357","","","","","","","","","","","","","","","","","","","","","","","","","","","","","","","","","","","","","","","","","",""
"697","<p style=""color:rgb(150, 250, 100); font-size: 35px;"">本人</p>","i","categorize-html","121","161339","0.0-6.0-1.0-8.0-1.6","4","4","4","4","4","4","4","3","4","4","5","5","5","5","5","5","5","5","5","5","1","1","1","1","1","1","1","1","1","0","0","1","1","0","0","0","0","0","1","1","0","1","1","1","5","1","1","1","2","5","1","1","2","4","2","633781445638225920","刘","357","","","","","","","","","","","","","","","","","","","true","14","4","moral","697","self","本人","","","","","","","","","","","","","","","","",""
"null","","null","html-keyboard-response","122","161591","0.0-6.0-1.0-8.0-0.7","4","4","4","4","4","4","4","3","4","4","5","5","5","5","5","5","5","5","5","5","1","1","1","1","1","1","1","1","1","0","0","1","1","0","0","0","0","0","1","1","0","1","1","1","5","1","1","1","2","5","1","1","2","4","2","633781445638225920","刘","357","","","","","","","","","","","","","","","","","","","","","","","","","","","","","","","","","","","","","","","","","",""
"506","<p style=""color:white; font-size: 35px;"">廉正</p>","i","categorize-html","123","162098","0.0-6.0-1.0-8.0-1.7","4","4","4","4","4","4","4","3","4","4","5","5","5","5","5","5","5","5","5","5","1","1","1","1","1","1","1","1","1","0","0","1","1","0","0","0","0","0","1","1","0","1","1","1","5","1","1","1","2","5","1","1","2","4","2","633781445638225920","刘","357","","","","","","","","","","","","","","","","","","","true","14","4","moral","506","positive","廉正","","","","","","","","","","","","","","","","",""
"null","","null","html-keyboard-response","124","162349","0.0-6.0-1.0-8.0-0.8","4","4","4","4","4","4","4","3","4","4","5","5","5","5","5","5","5","5","5","5","1","1","1","1","1","1","1","1","1","0","0","1","1","0","0","0","0","0","1","1","0","1","1","1","5","1","1","1","2","5","1","1","2","4","2","633781445638225920","刘","357","","","","","","","","","","","","","","","","","","","","","","","","","","","","","","","","","","","","","","","","","",""
"402","<p style=""color:rgb(150, 250, 100); font-size: 35px;"">我</p>","i","categorize-html","125","162751","0.0-6.0-1.0-8.0-1.8","4","4","4","4","4","4","4","3","4","4","5","5","5","5","5","5","5","5","5","5","1","1","1","1","1","1","1","1","1","0","0","1","1","0","0","0","0","0","1","1","0","1","1","1","5","1","1","1","2","5","1","1","2","4","2","633781445638225920","刘","357","","","","","","","","","","","","","","","","","","","true","14","4","moral","402","self","我","","","","","","","","","","","","","","","","",""
"null","","null","html-keyboard-response","126","163004","0.0-6.0-1.0-8.0-0.9","4","4","4","4","4","4","4","3","4","4","5","5","5","5","5","5","5","5","5","5","1","1","1","1","1","1","1","1","1","0","0","1","1","0","0","0","0","0","1","1","0","1","1","1","5","1","1","1","2","5","1","1","2","4","2","633781445638225920","刘","357","","","","","","","","","","","","","","","","","","","","","","","","","","","","","","","","","","","","","","","","","",""
"825","<p style=""color:white; font-size: 35px;"">君子</p>","i","categorize-html","127","163830","0.0-6.0-1.0-8.0-1.9","4","4","4","4","4","4","4","3","4","4","5","5","5","5","5","5","5","5","5","5","1","1","1","1","1","1","1","1","1","0","0","1","1","0","0","0","0","0","1","1","0","1","1","1","5","1","1","1","2","5","1","1","2","4","2","633781445638225920","刘","357","","","","","","","","","","","","","","","","","","","true","14","4","moral","825","positive","君子","","","","","","","","","","","","","","","","",""
"null","","null","html-keyboard-response","128","164082","0.0-6.0-1.0-8.0-0.10","4","4","4","4","4","4","4","3","4","4","5","5","5","5","5","5","5","5","5","5","1","1","1","1","1","1","1","1","1","0","0","1","1","0","0","0","0","0","1","1","0","1","1","1","5","1","1","1","2","5","1","1","2","4","2","633781445638225920","刘","357","","","","","","","","","","","","","","","","","","","","","","","","","","","","","","","","","","","","","","","","","",""
"725","<p style=""color:rgb(150, 250, 100); font-size: 35px;"">他人的</p>","e","categorize-html","129","164808","0.0-6.0-1.0-8.0-1.10","4","4","4","4","4","4","4","3","4","4","5","5","5","5","5","5","5","5","5","5","1","1","1","1","1","1","1","1","1","0","0","1","1","0","0","0","0","0","1","1","0","1","1","1","5","1","1","1","2","5","1","1","2","4","2","633781445638225920","刘","357","","","","","","","","","","","","","","","","","","","true","14","4","moral","725","other","他人的","","","","","","","","","","","","","","","","",""
"null","","null","html-keyboard-response","130","165059","0.0-6.0-1.0-8.0-0.11","4","4","4","4","4","4","4","3","4","4","5","5","5","5","5","5","5","5","5","5","1","1","1","1","1","1","1","1","1","0","0","1","1","0","0","0","0","0","1","1","0","1","1","1","5","1","1","1","2","5","1","1","2","4","2","633781445638225920","刘","357","","","","","","","","","","","","","","","","","","","","","","","","","","","","","","","","","","","","","","","","","",""
"802","<p style=""color:white; font-size: 35px;"">缺德</p>","e","categorize-html","131","165862","0.0-6.0-1.0-8.0-1.11","4","4","4","4","4","4","4","3","4","4","5","5","5","5","5","5","5","5","5","5","1","1","1","1","1","1","1","1","1","0","0","1","1","0","0","0","0","0","1","1","0","1","1","1","5","1","1","1","2","5","1","1","2","4","2","633781445638225920","刘","357","","","","","","","","","","","","","","","","","","","true","14","4","moral","802","negative","缺德","","","","","","","","","","","","","","","","",""
"null","","null","html-keyboard-response","132","166112","0.0-6.0-1.0-8.0-0.12","4","4","4","4","4","4","4","3","4","4","5","5","5","5","5","5","5","5","5","5","1","1","1","1","1","1","1","1","1","0","0","1","1","0","0","0","0","0","1","1","0","1","1","1","5","1","1","1","2","5","1","1","2","4","2","633781445638225920","刘","357","","","","","","","","","","","","","","","","","","","","","","","","","","","","","","","","","","","","","","","","","",""
"662","<p style=""color:rgb(150, 250, 100); font-size: 35px;"">他人</p>","e","categorize-html","133","166775","0.0-6.0-1.0-8.0-1.12","4","4","4","4","4","4","4","3","4","4","5","5","5","5","5","5","5","5","5","5","1","1","1","1","1","1","1","1","1","0","0","1","1","0","0","0","0","0","1","1","0","1","1","1","5","1","1","1","2","5","1","1","2","4","2","633781445638225920","刘","357","","","","","","","","","","","","","","","","","","","true","14","4","moral","662","other","他人","","","","","","","","","","","","","","","","",""
"null","","null","html-keyboard-response","134","167026","0.0-6.0-1.0-8.0-0.13","4","4","4","4","4","4","4","3","4","4","5","5","5","5","5","5","5","5","5","5","1","1","1","1","1","1","1","1","1","0","0","1","1","0","0","0","0","0","1","1","0","1","1","1","5","1","1","1","2","5","1","1","2","4","2","633781445638225920","刘","357","","","","","","","","","","","","","","","","","","","","","","","","","","","","","","","","","","","","","","","","","",""
"1042","<p style=""color:white; font-size: 35px;"">善良</p>","i","categorize-html","135","168068","0.0-6.0-1.0-8.0-1.13","4","4","4","4","4","4","4","3","4","4","5","5","5","5","5","5","5","5","5","5","1","1","1","1","1","1","1","1","1","0","0","1","1","0","0","0","0","0","1","1","0","1","1","1","5","1","1","1","2","5","1","1","2","4","2","633781445638225920","刘","357","","","","","","","","","","","","","","","","","","","true","14","4","moral","1042","positive","善良","","","","","","","","","","","","","","","","",""
"null","","null","html-keyboard-response","136","168319","0.0-6.0-1.0-8.0-0.14","4","4","4","4","4","4","4","3","4","4","5","5","5","5","5","5","5","5","5","5","1","1","1","1","1","1","1","1","1","0","0","1","1","0","0","0","0","0","1","1","0","1","1","1","5","1","1","1","2","5","1","1","2","4","2","633781445638225920","刘","357","","","","","","","","","","","","","","","","","","","","","","","","","","","","","","","","","","","","","","","","","",""
"1061","<p style=""color:rgb(150, 250, 100); font-size: 35px;"">自己</p>","i","categorize-html","137","169381","0.0-6.0-1.0-8.0-1.14","4","4","4","4","4","4","4","3","4","4","5","5","5","5","5","5","5","5","5","5","1","1","1","1","1","1","1","1","1","0","0","1","1","0","0","0","0","0","1","1","0","1","1","1","5","1","1","1","2","5","1","1","2","4","2","633781445638225920","刘","357","","","","","","","","","","","","","","","","","","","true","14","4","moral","1061","self","自己","","","","","","","","","","","","","","","","",""
"null","","null","html-keyboard-response","138","169632","0.0-6.0-1.0-8.0-0.15","4","4","4","4","4","4","4","3","4","4","5","5","5","5","5","5","5","5","5","5","1","1","1","1","1","1","1","1","1","0","0","1","1","0","0","0","0","0","1","1","0","1","1","1","5","1","1","1","2","5","1","1","2","4","2","633781445638225920","刘","357","","","","","","","","","","","","","","","","","","","","","","","","","","","","","","","","","","","","","","","","","",""
"786","<p style=""color:white; font-size: 35px;"">卑鄙</p>","e","categorize-html","139","170419","0.0-6.0-1.0-8.0-1.15","4","4","4","4","4","4","4","3","4","4","5","5","5","5","5","5","5","5","5","5","1","1","1","1","1","1","1","1","1","0","0","1","1","0","0","0","0","0","1","1","0","1","1","1","5","1","1","1","2","5","1","1","2","4","2","633781445638225920","刘","357","","","","","","","","","","","","","","","","","","","true","14","4","moral","786","negative","卑鄙","","","","","","","","","","","","","","","","",""
"null","","null","html-keyboard-response","140","170669","0.0-6.0-1.0-8.0-0.16","4","4","4","4","4","4","4","3","4","4","5","5","5","5","5","5","5","5","5","5","1","1","1","1","1","1","1","1","1","0","0","1","1","0","0","0","0","0","1","1","0","1","1","1","5","1","1","1","2","5","1","1","2","4","2","633781445638225920","刘","357","","","","","","","","","","","","","","","","","","","","","","","","","","","","","","","","","","","","","","","","","",""
"1107","<p style=""color:rgb(150, 250, 100); font-size: 35px;"">本人的</p>","i","categorize-html","141","171777","0.0-6.0-1.0-8.0-1.16","4","4","4","4","4","4","4","3","4","4","5","5","5","5","5","5","5","5","5","5","1","1","1","1","1","1","1","1","1","0","0","1","1","0","0","0","0","0","1","1","0","1","1","1","5","1","1","1","2","5","1","1","2","4","2","633781445638225920","刘","357","","","","","","","","","","","","","","","","","","","true","14","4","moral","1107","self","本人的","","","","","","","","","","","","","","","","",""
"null","","null","html-keyboard-response","142","172028","0.0-6.0-1.0-8.0-0.17","4","4","4","4","4","4","4","3","4","4","5","5","5","5","5","5","5","5","5","5","1","1","1","1","1","1","1","1","1","0","0","1","1","0","0","0","0","0","1","1","0","1","1","1","5","1","1","1","2","5","1","1","2","4","2","633781445638225920","刘","357","","","","","","","","","","","","","","","","","","","","","","","","","","","","","","","","","","","","","","","","","",""
"497","<p style=""color:white; font-size: 35px;"">正直</p>","i","categorize-html","143","172525","0.0-6.0-1.0-8.0-1.17","4","4","4","4","4","4","4","3","4","4","5","5","5","5","5","5","5","5","5","5","1","1","1","1","1","1","1","1","1","0","0","1","1","0","0","0","0","0","1","1","0","1","1","1","5","1","1","1","2","5","1","1","2","4","2","633781445638225920","刘","357","","","","","","","","","","","","","","","","","","","true","14","4","moral","497","positive","正直","","","","","","","","","","","","","","","","",""
"null","","null","html-keyboard-response","144","172776","0.0-6.0-1.0-8.0-0.18","4","4","4","4","4","4","4","3","4","4","5","5","5","5","5","5","5","5","5","5","1","1","1","1","1","1","1","1","1","0","0","1","1","0","0","0","0","0","1","1","0","1","1","1","5","1","1","1","2","5","1","1","2","4","2","633781445638225920","刘","357","","","","","","","","","","","","","","","","","","","","","","","","","","","","","","","","","","","","","","","","","",""
"424","<p style=""color:rgb(150, 250, 100); font-size: 35px;"">别人的</p>","e","categorize-html","145","173200","0.0-6.0-1.0-8.0-1.18","4","4","4","4","4","4","4","3","4","4","5","5","5","5","5","5","5","5","5","5","1","1","1","1","1","1","1","1","1","0","0","1","1","0","0","0","0","0","1","1","0","1","1","1","5","1","1","1","2","5","1","1","2","4","2","633781445638225920","刘","357","","","","","","","","","","","","","","","","","","","true","14","4","moral","424","other","别人的","","","","","","","","","","","","","","","","",""
"null","","null","html-keyboard-response","146","173450","0.0-6.0-1.0-8.0-0.19","4","4","4","4","4","4","4","3","4","4","5","5","5","5","5","5","5","5","5","5","1","1","1","1","1","1","1","1","1","0","0","1","1","0","0","0","0","0","1","1","0","1","1","1","5","1","1","1","2","5","1","1","2","4","2","633781445638225920","刘","357","","","","","","","","","","","","","","","","","","","","","","","","","","","","","","","","","","","","","","","","","",""
"418","<p style=""color:white; font-size: 35px;"">缺德</p>","e","categorize-html","147","173869","0.0-6.0-1.0-8.0-1.19","4","4","4","4","4","4","4","3","4","4","5","5","5","5","5","5","5","5","5","5","1","1","1","1","1","1","1","1","1","0","0","1","1","0","0","0","0","0","1","1","0","1","1","1","5","1","1","1","2","5","1","1","2","4","2","633781445638225920","刘","357","","","","","","","","","","","","","","","","","","","true","14","4","moral","418","negative","缺德","","","","","","","","","","","","","","","","",""
"null","","null","html-keyboard-response","148","174121","0.0-6.0-1.0-8.0-0.20","4","4","4","4","4","4","4","3","4","4","5","5","5","5","5","5","5","5","5","5","1","1","1","1","1","1","1","1","1","0","0","1","1","0","0","0","0","0","1","1","0","1","1","1","5","1","1","1","2","5","1","1","2","4","2","633781445638225920","刘","357","","","","","","","","","","","","","","","","","","","","","","","","","","","","","","","","","","","","","","","","","",""
"662","<p style=""color:rgb(150, 250, 100); font-size: 35px;"">我的</p>","i","categorize-html","149","174783","0.0-6.0-1.0-8.0-1.20","4","4","4","4","4","4","4","3","4","4","5","5","5","5","5","5","5","5","5","5","1","1","1","1","1","1","1","1","1","0","0","1","1","0","0","0","0","0","1","1","0","1","1","1","5","1","1","1","2","5","1","1","2","4","2","633781445638225920","刘","357","","","","","","","","","","","","","","","","","","","true","14","4","moral","662","self","我的","","","","","","","","","","","","","","","","",""
"null","","null","html-keyboard-response","150","175034","0.0-6.0-1.0-8.0-0.21","4","4","4","4","4","4","4","3","4","4","5","5","5","5","5","5","5","5","5","5","1","1","1","1","1","1","1","1","1","0","0","1","1","0","0","0","0","0","1","1","0","1","1","1","5","1","1","1","2","5","1","1","2","4","2","633781445638225920","刘","357","","","","","","","","","","","","","","","","","","","","","","","","","","","","","","","","","","","","","","","","","",""
"501","<p style=""color:white; font-size: 35px;"">正直</p>","i","categorize-html","151","175536","0.0-6.0-1.0-8.0-1.21","4","4","4","4","4","4","4","3","4","4","5","5","5","5","5","5","5","5","5","5","1","1","1","1","1","1","1","1","1","0","0","1","1","0","0","0","0","0","1","1","0","1","1","1","5","1","1","1","2","5","1","1","2","4","2","633781445638225920","刘","357","","","","","","","","","","","","","","","","","","","true","14","4","moral","501","positive","正直","","","","","","","","","","","","","","","","",""
"null","","null","html-keyboard-response","152","175787","0.0-6.0-1.0-8.0-0.22","4","4","4","4","4","4","4","3","4","4","5","5","5","5","5","5","5","5","5","5","1","1","1","1","1","1","1","1","1","0","0","1","1","0","0","0","0","0","1","1","0","1","1","1","5","1","1","1","2","5","1","1","2","4","2","633781445638225920","刘","357","","","","","","","","","","","","","","","","","","","","","","","","","","","","","","","","","","","","","","","","","",""
"428","<p style=""color:rgb(150, 250, 100); font-size: 35px;"">他</p>","e","categorize-html","153","176215","0.0-6.0-1.0-8.0-1.22","4","4","4","4","4","4","4","3","4","4","5","5","5","5","5","5","5","5","5","5","1","1","1","1","1","1","1","1","1","0","0","1","1","0","0","0","0","0","1","1","0","1","1","1","5","1","1","1","2","5","1","1","2","4","2","633781445638225920","刘","357","","","","","","","","","","","","","","","","","","","true","14","4","moral","428","other","他","","","","","","","","","","","","","","","","",""
"null","","null","html-keyboard-response","154","176466","0.0-6.0-1.0-8.0-0.23","4","4","4","4","4","4","4","3","4","4","5","5","5","5","5","5","5","5","5","5","1","1","1","1","1","1","1","1","1","0","0","1","1","0","0","0","0","0","1","1","0","1","1","1","5","1","1","1","2","5","1","1","2","4","2","633781445638225920","刘","357","","","","","","","","","","","","","","","","","","","","","","","","","","","","","","","","","","","","","","","","","",""
"387","<p style=""color:white; font-size: 35px;"">小人</p>","e","categorize-html","155","176855","0.0-6.0-1.0-8.0-1.23","4","4","4","4","4","4","4","3","4","4","5","5","5","5","5","5","5","5","5","5","1","1","1","1","1","1","1","1","1","0","0","1","1","0","0","0","0","0","1","1","0","1","1","1","5","1","1","1","2","5","1","1","2","4","2","633781445638225920","刘","357","","","","","","","","","","","","","","","","","","","true","14","4","moral","387","negative","小人","","","","","","","","","","","","","","","","",""
"null","","null","html-keyboard-response","156","177106","0.0-6.0-1.0-8.0-0.24","4","4","4","4","4","4","4","3","4","4","5","5","5","5","5","5","5","5","5","5","1","1","1","1","1","1","1","1","1","0","0","1","1","0","0","0","0","0","1","1","0","1","1","1","5","1","1","1","2","5","1","1","2","4","2","633781445638225920","刘","357","","","","","","","","","","","","","","","","","","","","","","","","","","","","","","","","","","","","","","","","","",""
"457","<p style=""color:rgb(150, 250, 100); font-size: 35px;"">自己的</p>","i","categorize-html","157","177565","0.0-6.0-1.0-8.0-1.24","4","4","4","4","4","4","4","3","4","4","5","5","5","5","5","5","5","5","5","5","1","1","1","1","1","1","1","1","1","0","0","1","1","0","0","0","0","0","1","1","0","1","1","1","5","1","1","1","2","5","1","1","2","4","2","633781445638225920","刘","357","","","","","","","","","","","","","","","","","","","true","14","4","moral","457","self","自己的","","","","","","","","","","","","","","","","",""
"null","","null","html-keyboard-response","158","177816","0.0-6.0-1.0-8.0-0.25","4","4","4","4","4","4","4","3","4","4","5","5","5","5","5","5","5","5","5","5","1","1","1","1","1","1","1","1","1","0","0","1","1","0","0","0","0","0","1","1","0","1","1","1","5","1","1","1","2","5","1","1","2","4","2","633781445638225920","刘","357","","","","","","","","","","","","","","","","","","","","","","","","","","","","","","","","","","","","","","","","","",""
"435","<p style=""color:white; font-size: 35px;"">不仁</p>","e","categorize-html","159","178252","0.0-6.0-1.0-8.0-1.25","4","4","4","4","4","4","4","3","4","4","5","5","5","5","5","5","5","5","5","5","1","1","1","1","1","1","1","1","1","0","0","1","1","0","0","0","0","0","1","1","0","1","1","1","5","1","1","1","2","5","1","1","2","4","2","633781445638225920","刘","357","","","","","","","","","","","","","","","","","","","true","14","4","moral","435","negative","不仁","","","","","","","","","","","","","","","","",""
"null","","null","html-keyboard-response","160","178504","0.0-6.0-1.0-8.0-0.26","4","4","4","4","4","4","4","3","4","4","5","5","5","5","5","5","5","5","5","5","1","1","1","1","1","1","1","1","1","0","0","1","1","0","0","0","0","0","1","1","0","1","1","1","5","1","1","1","2","5","1","1","2","4","2","633781445638225920","刘","357","","","","","","","","","","","","","","","","","","","","","","","","","","","","","","","","","","","","","","","","","",""
"556","<p style=""color:rgb(150, 250, 100); font-size: 35px;"">他人</p>","e","categorize-html","161","179060","0.0-6.0-1.0-8.0-1.26","4","4","4","4","4","4","4","3","4","4","5","5","5","5","5","5","5","5","5","5","1","1","1","1","1","1","1","1","1","0","0","1","1","0","0","0","0","0","1","1","0","1","1","1","5","1","1","1","2","5","1","1","2","4","2","633781445638225920","刘","357","","","","","","","","","","","","","","","","","","","true","14","4","moral","556","other","他人","","","","","","","","","","","","","","","","",""
"null","","null","html-keyboard-response","162","179310","0.0-6.0-1.0-8.0-0.27","4","4","4","4","4","4","4","3","4","4","5","5","5","5","5","5","5","5","5","5","1","1","1","1","1","1","1","1","1","0","0","1","1","0","0","0","0","0","1","1","0","1","1","1","5","1","1","1","2","5","1","1","2","4","2","633781445638225920","刘","357","","","","","","","","","","","","","","","","","","","","","","","","","","","","","","","","","","","","","","","","","",""
"449","<p style=""color:white; font-size: 35px;"">高尚</p>","i","categorize-html","163","179760","0.0-6.0-1.0-8.0-1.27","4","4","4","4","4","4","4","3","4","4","5","5","5","5","5","5","5","5","5","5","1","1","1","1","1","1","1","1","1","0","0","1","1","0","0","0","0","0","1","1","0","1","1","1","5","1","1","1","2","5","1","1","2","4","2","633781445638225920","刘","357","","","","","","","","","","","","","","","","","","","true","14","4","moral","449","positive","高尚","","","","","","","","","","","","","","","","",""
"null","","null","html-keyboard-response","164","180011","0.0-6.0-1.0-8.0-0.28","4","4","4","4","4","4","4","3","4","4","5","5","5","5","5","5","5","5","5","5","1","1","1","1","1","1","1","1","1","0","0","1","1","0","0","0","0","0","1","1","0","1","1","1","5","1","1","1","2","5","1","1","2","4","2","633781445638225920","刘","357","","","","","","","","","","","","","","","","","","","","","","","","","","","","","","","","","","","","","","","","","",""
"666","<p style=""color:rgb(150, 250, 100); font-size: 35px;"">别人</p>","e","categorize-html","165","180678","0.0-6.0-1.0-8.0-1.28","4","4","4","4","4","4","4","3","4","4","5","5","5","5","5","5","5","5","5","5","1","1","1","1","1","1","1","1","1","0","0","1","1","0","0","0","0","0","1","1","0","1","1","1","5","1","1","1","2","5","1","1","2","4","2","633781445638225920","刘","357","","","","","","","","","","","","","","","","","","","true","14","4","moral","666","other","别人","","","","","","","","","","","","","","","","",""
"null","","null","html-keyboard-response","166","180929","0.0-6.0-1.0-8.0-0.29","4","4","4","4","4","4","4","3","4","4","5","5","5","5","5","5","5","5","5","5","1","1","1","1","1","1","1","1","1","0","0","1","1","0","0","0","0","0","1","1","0","1","1","1","5","1","1","1","2","5","1","1","2","4","2","633781445638225920","刘","357","","","","","","","","","","","","","","","","","","","","","","","","","","","","","","","","","","","","","","","","","",""
"906","<p style=""color:white; font-size: 35px;"">高尚</p>","i","categorize-html","167","181836","0.0-6.0-1.0-8.0-1.29","4","4","4","4","4","4","4","3","4","4","5","5","5","5","5","5","5","5","5","5","1","1","1","1","1","1","1","1","1","0","0","1","1","0","0","0","0","0","1","1","0","1","1","1","5","1","1","1","2","5","1","1","2","4","2","633781445638225920","刘","357","","","","","","","","","","","","","","","","","","","true","14","4","moral","906","positive","高尚","","","","","","","","","","","","","","","","",""
"null","","null","html-keyboard-response","168","182087","0.0-6.0-1.0-8.0-0.30","4","4","4","4","4","4","4","3","4","4","5","5","5","5","5","5","5","5","5","5","1","1","1","1","1","1","1","1","1","0","0","1","1","0","0","0","0","0","1","1","0","1","1","1","5","1","1","1","2","5","1","1","2","4","2","633781445638225920","刘","357","","","","","","","","","","","","","","","","","","","","","","","","","","","","","","","","","","","","","","","","","",""
"508","<p style=""color:rgb(150, 250, 100); font-size: 35px;"">我</p>","i","categorize-html","169","182595","0.0-6.0-1.0-8.0-1.30","4","4","4","4","4","4","4","3","4","4","5","5","5","5","5","5","5","5","5","5","1","1","1","1","1","1","1","1","1","0","0","1","1","0","0","0","0","0","1","1","0","1","1","1","5","1","1","1","2","5","1","1","2","4","2","633781445638225920","刘","357","","","","","","","","","","","","","","","","","","","true","14","4","moral","508","self","我","","","","","","","","","","","","","","","","",""
"null","","null","html-keyboard-response","170","182846","0.0-6.0-1.0-8.0-0.31","4","4","4","4","4","4","4","3","4","4","5","5","5","5","5","5","5","5","5","5","1","1","1","1","1","1","1","1","1","0","0","1","1","0","0","0","0","0","1","1","0","1","1","1","5","1","1","1","2","5","1","1","2","4","2","633781445638225920","刘","357","","","","","","","","","","","","","","","","","","","","","","","","","","","","","","","","","","","","","","","","","",""
"861","<p style=""color:white; font-size: 35px;"">卑鄙</p>","e","categorize-html","171","183707","0.0-6.0-1.0-8.0-1.31","4","4","4","4","4","4","4","3","4","4","5","5","5","5","5","5","5","5","5","5","1","1","1","1","1","1","1","1","1","0","0","1","1","0","0","0","0","0","1","1","0","1","1","1","5","1","1","1","2","5","1","1","2","4","2","633781445638225920","刘","357","","","","","","","","","","","","","","","","","","","true","14","4","moral","861","negative","卑鄙","","","","","","","","","","","","","","","","",""
"null","","null","html-keyboard-response","172","183958","0.0-6.0-1.0-8.0-0.32","4","4","4","4","4","4","4","3","4","4","5","5","5","5","5","5","5","5","5","5","1","1","1","1","1","1","1","1","1","0","0","1","1","0","0","0","0","0","1","1","0","1","1","1","5","1","1","1","2","5","1","1","2","4","2","633781445638225920","刘","357","","","","","","","","","","","","","","","","","","","","","","","","","","","","","","","","","","","","","","","","","",""
"673","<p style=""color:rgb(150, 250, 100); font-size: 35px;"">本人</p>","i","categorize-html","173","184632","0.0-6.0-1.0-8.0-1.32","4","4","4","4","4","4","4","3","4","4","5","5","5","5","5","5","5","5","5","5","1","1","1","1","1","1","1","1","1","0","0","1","1","0","0","0","0","0","1","1","0","1","1","1","5","1","1","1","2","5","1","1","2","4","2","633781445638225920","刘","357","","","","","","","","","","","","","","","","","","","true","14","4","moral","673","self","本人","","","","","","","","","","","","","","","","",""
"null","","null","html-keyboard-response","174","184882","0.0-6.0-1.0-8.0-0.33","4","4","4","4","4","4","4","3","4","4","5","5","5","5","5","5","5","5","5","5","1","1","1","1","1","1","1","1","1","0","0","1","1","0","0","0","0","0","1","1","0","1","1","1","5","1","1","1","2","5","1","1","2","4","2","633781445638225920","刘","357","","","","","","","","","","","","","","","","","","","","","","","","","","","","","","","","","","","","","","","","","",""
"757","<p style=""color:white; font-size: 35px;"">黑心</p>","e","categorize-html","175","185640","0.0-6.0-1.0-8.0-1.33","4","4","4","4","4","4","4","3","4","4","5","5","5","5","5","5","5","5","5","5","1","1","1","1","1","1","1","1","1","0","0","1","1","0","0","0","0","0","1","1","0","1","1","1","5","1","1","1","2","5","1","1","2","4","2","633781445638225920","刘","357","","","","","","","","","","","","","","","","","","","true","14","4","moral","757","negative","黑心","","","","","","","","","","","","","","","","",""
"null","","null","html-keyboard-response","176","185891","0.0-6.0-1.0-8.0-0.34","4","4","4","4","4","4","4","3","4","4","5","5","5","5","5","5","5","5","5","5","1","1","1","1","1","1","1","1","1","0","0","1","1","0","0","0","0","0","1","1","0","1","1","1","5","1","1","1","2","5","1","1","2","4","2","633781445638225920","刘","357","","","","","","","","","","","","","","","","","","","","","","","","","","","","","","","","","","","","","","","","","",""
"467","<p style=""color:rgb(150, 250, 100); font-size: 35px;"">他</p>","e","categorize-html","177","186359","0.0-6.0-1.0-8.0-1.34","4","4","4","4","4","4","4","3","4","4","5","5","5","5","5","5","5","5","5","5","1","1","1","1","1","1","1","1","1","0","0","1","1","0","0","0","0","0","1","1","0","1","1","1","5","1","1","1","2","5","1","1","2","4","2","633781445638225920","刘","357","","","","","","","","","","","","","","","","","","","true","14","4","moral","467","other","他","","","","","","","","","","","","","","","","",""
"null","","null","html-keyboard-response","178","186611","0.0-6.0-1.0-8.0-0.35","4","4","4","4","4","4","4","3","4","4","5","5","5","5","5","5","5","5","5","5","1","1","1","1","1","1","1","1","1","0","0","1","1","0","0","0","0","0","1","1","0","1","1","1","5","1","1","1","2","5","1","1","2","4","2","633781445638225920","刘","357","","","","","","","","","","","","","","","","","","","","","","","","","","","","","","","","","","","","","","","","","",""
"975","<p style=""color:white; font-size: 35px;"">诚信</p>","i","categorize-html","179","187586","0.0-6.0-1.0-8.0-1.35","4","4","4","4","4","4","4","3","4","4","5","5","5","5","5","5","5","5","5","5","1","1","1","1","1","1","1","1","1","0","0","1","1","0","0","0","0","0","1","1","0","1","1","1","5","1","1","1","2","5","1","1","2","4","2","633781445638225920","刘","357","","","","","","","","","","","","","","","","","","","true","14","4","moral","975","positive","诚信","","","","","","","","","","","","","","","","",""
"null","","null","html-keyboard-response","180","187838","0.0-6.0-1.0-8.0-0.36","4","4","4","4","4","4","4","3","4","4","5","5","5","5","5","5","5","5","5","5","1","1","1","1","1","1","1","1","1","0","0","1","1","0","0","0","0","0","1","1","0","1","1","1","5","1","1","1","2","5","1","1","2","4","2","633781445638225920","刘","357","","","","","","","","","","","","","","","","","","","","","","","","","","","","","","","","","","","","","","","","","",""
"882","<p style=""color:rgb(150, 250, 100); font-size: 35px;"">他的</p>","e","categorize-html","181","188721","0.0-6.0-1.0-8.0-1.36","4","4","4","4","4","4","4","3","4","4","5","5","5","5","5","5","5","5","5","5","1","1","1","1","1","1","1","1","1","0","0","1","1","0","0","0","0","0","1","1","0","1","1","1","5","1","1","1","2","5","1","1","2","4","2","633781445638225920","刘","357","","","","","","","","","","","","","","","","","","","true","14","4","moral","882","other","他的","","","","","","","","","","","","","","","","",""
"null","","null","html-keyboard-response","182","188973","0.0-6.0-1.0-8.0-0.37","4","4","4","4","4","4","4","3","4","4","5","5","5","5","5","5","5","5","5","5","1","1","1","1","1","1","1","1","1","0","0","1","1","0","0","0","0","0","1","1","0","1","1","1","5","1","1","1","2","5","1","1","2","4","2","633781445638225920","刘","357","","","","","","","","","","","","","","","","","","","","","","","","","","","","","","","","","","","","","","","","","",""
"824","<p style=""color:white; font-size: 35px;"">善良</p>","i","categorize-html","183","189798","0.0-6.0-1.0-8.0-1.37","4","4","4","4","4","4","4","3","4","4","5","5","5","5","5","5","5","5","5","5","1","1","1","1","1","1","1","1","1","0","0","1","1","0","0","0","0","0","1","1","0","1","1","1","5","1","1","1","2","5","1","1","2","4","2","633781445638225920","刘","357","","","","","","","","","","","","","","","","","","","true","14","4","moral","824","positive","善良","","","","","","","","","","","","","","","","",""
"null","","null","html-keyboard-response","184","190049","0.0-6.0-1.0-8.0-0.38","4","4","4","4","4","4","4","3","4","4","5","5","5","5","5","5","5","5","5","5","1","1","1","1","1","1","1","1","1","0","0","1","1","0","0","0","0","0","1","1","0","1","1","1","5","1","1","1","2","5","1","1","2","4","2","633781445638225920","刘","357","","","","","","","","","","","","","","","","","","","","","","","","","","","","","","","","","","","","","","","","","",""
"567","<p style=""color:rgb(150, 250, 100); font-size: 35px;"">自己</p>","i","categorize-html","185","190616","0.0-6.0-1.0-8.0-1.38","4","4","4","4","4","4","4","3","4","4","5","5","5","5","5","5","5","5","5","5","1","1","1","1","1","1","1","1","1","0","0","1","1","0","0","0","0","0","1","1","0","1","1","1","5","1","1","1","2","5","1","1","2","4","2","633781445638225920","刘","357","","","","","","","","","","","","","","","","","","","true","14","4","moral","567","self","自己","","","","","","","","","","","","","","","","",""
"null","","null","html-keyboard-response","186","190867","0.0-6.0-1.0-8.0-0.39","4","4","4","4","4","4","4","3","4","4","5","5","5","5","5","5","5","5","5","5","1","1","1","1","1","1","1","1","1","0","0","1","1","0","0","0","0","0","1","1","0","1","1","1","5","1","1","1","2","5","1","1","2","4","2","633781445638225920","刘","357","","","","","","","","","","","","","","","","","","","","","","","","","","","","","","","","","","","","","","","","","",""
"523","<p style=""color:white; font-size: 35px;"">不孝</p>","e","categorize-html","187","191391","0.0-6.0-1.0-8.0-1.39","4","4","4","4","4","4","4","3","4","4","5","5","5","5","5","5","5","5","5","5","1","1","1","1","1","1","1","1","1","0","0","1","1","0","0","0","0","0","1","1","0","1","1","1","5","1","1","1","2","5","1","1","2","4","2","633781445638225920","刘","357","","","","","","","","","","","","","","","","","","","true","14","4","moral","523","negative","不孝","","","","","","","","","","","","","","","","",""
"null","","null","html-keyboard-response","188","191642","0.0-6.0-1.0-8.0-0.40","4","4","4","4","4","4","4","3","4","4","5","5","5","5","5","5","5","5","5","5","1","1","1","1","1","1","1","1","1","0","0","1","1","0","0","0","0","0","1","1","0","1","1","1","5","1","1","1","2","5","1","1","2","4","2","633781445638225920","刘","357","","","","","","","","","","","","","","","","","","","","","","","","","","","","","","","","","","","","","","","","","",""
"916","<p style=""color:rgb(150, 250, 100); font-size: 35px;"">本人的</p>","i","categorize-html","189","192559","0.0-6.0-1.0-8.0-1.40","4","4","4","4","4","4","4","3","4","4","5","5","5","5","5","5","5","5","5","5","1","1","1","1","1","1","1","1","1","0","0","1","1","0","0","0","0","0","1","1","0","1","1","1","5","1","1","1","2","5","1","1","2","4","2","633781445638225920","刘","357","","","","","","","","","","","","","","","","","","","true","14","4","moral","916","self","本人的","","","","","","","","","","","","","","","","",""
"null","","null","html-keyboard-response","190","192810","0.0-6.0-1.0-8.0-0.41","4","4","4","4","4","4","4","3","4","4","5","5","5","5","5","5","5","5","5","5","1","1","1","1","1","1","1","1","1","0","0","1","1","0","0","0","0","0","1","1","0","1","1","1","5","1","1","1","2","5","1","1","2","4","2","633781445638225920","刘","357","","","","","","","","","","","","","","","","","","","","","","","","","","","","","","","","","","","","","","","","","",""
"466","<p style=""color:white; font-size: 35px;"">小人</p>","e","categorize-html","191","193277","0.0-6.0-1.0-8.0-1.41","4","4","4","4","4","4","4","3","4","4","5","5","5","5","5","5","5","5","5","5","1","1","1","1","1","1","1","1","1","0","0","1","1","0","0","0","0","0","1","1","0","1","1","1","5","1","1","1","2","5","1","1","2","4","2","633781445638225920","刘","357","","","","","","","","","","","","","","","","","","","true","14","4","moral","466","negative","小人","","","","","","","","","","","","","","","","",""
"null","","null","html-keyboard-response","192","193528","0.0-6.0-1.0-8.0-0.42","4","4","4","4","4","4","4","3","4","4","5","5","5","5","5","5","5","5","5","5","1","1","1","1","1","1","1","1","1","0","0","1","1","0","0","0","0","0","1","1","0","1","1","1","5","1","1","1","2","5","1","1","2","4","2","633781445638225920","刘","357","","","","","","","","","","","","","","","","","","","","","","","","","","","","","","","","","","","","","","","","","",""
"477","<p style=""color:rgb(150, 250, 100); font-size: 35px;"">别人</p>","e","categorize-html","193","194006","0.0-6.0-1.0-8.0-1.42","4","4","4","4","4","4","4","3","4","4","5","5","5","5","5","5","5","5","5","5","1","1","1","1","1","1","1","1","1","0","0","1","1","0","0","0","0","0","1","1","0","1","1","1","5","1","1","1","2","5","1","1","2","4","2","633781445638225920","刘","357","","","","","","","","","","","","","","","","","","","true","14","4","moral","477","other","别人","","","","","","","","","","","","","","","","",""
