"rt","stimulus","response","trial_type","trial_index","time_elapsed","internal_node_id","ses_1","ses_2","ses_3","ses_4","ses_5","ses_6","ses_7","ses_8","ses_9","ses_10","coreself_1","coreself_2","coreself_3","coreself_4","coreself_5","coreself_6","coreself_7","coreself_8","coreself_9","coreself_10","SGPS_1","SGPS_2","SGPS_3","SGPS_4","SGPS_5","SGPS_6","SGPS_7","SGPS_8","SGPS_9","NPI1","NPI2","NPI3","NPI4","NPI5","NPI6","NPI7","NPI8","NPI9","NPI10","NPI11","NPI12","NPI13","NPI14","NPI15","hsns_1","hsns_2","hsns_3","hsns_4","hsns_5","trap1","hsns_6","hsns_7","hsns_8","hsns_9","hsns_10","subj_idx","friend_name","ParticipantID","value","success","user_agent","responses","item_order","radio_event_ids","radio_event_times","key_event_times","mouse_event_times","straightlining","zigzagging","honeypot","timeout","failed_images","failed_audio","failed_video","view_history","response_type","key_press","avg_frame_time","center_x","center_y","correct_response","correct","identity","Image","word","condition","task_id","screen_id","time_stamp","version_attrib","version_target","IAT","RT","varname","summary","version_attrib2","version_target2","question_order","correct_answer","trap1_item"
"7451","
   <p><div style = ""color: white;font-size:25px;"">您好，欢迎参加本次实验。</div> </p>
   <p><div style = ""color: white;font-size:25px;"">为充分保障您的权利，请确保您已经知晓并同意《参与实验同意书》以及《数据公开知情同意书》。</div></p>
   <p><div style = ""color: white;font-size:25px;"">如果您未见过上述内容，请咨询实验员。</div></p>
   <p><div style = ""color: white;font-size:25px;"">如果您选择继续实验，则表示您已经清楚两份知情同意书的内容并同意。</div></p>
   <p><div style = ""color: pink;font-size:30px;"">请确保您记得day0的实验编号，您将在本次实验输入该编号，若您忘记，请咨询实验员后作答。</div></p>
   <p><div style = ""color: lightblue;font-size:25px;"">请您尽可能认真地作答，我们将依据您在各问卷和按键任务中的作答质量发放报酬。</div></p>
   <p> <div style = ""color: green;font-size:25px;""><按空格键至下页></div> </p>
   "," ","html-keyboard-response","0","7456","0.0-0.0","4","4","4","3","4","3","3","4","4","3","4","2","1","5","2","4","3","2","4","5","2","2","1","2","1","2","1","1","2","1","0","1","1","0","0","1","1","0","1","1","0","1","0","1","5","4","4","2","5","","3","4","4","3","2","771469560028336130","吴","696","","","","","","","","","","","","","","","","","","","","","","","","","","","","","","","","","","","","","","","","","",""
"","","","call-function","1","7461","0.0-1.0-0.0","4","4","4","3","4","3","3","4","4","3","4","2","1","5","2","4","3","2","4","5","2","2","1","2","1","2","1","1","2","1","0","1","1","0","0","1","1","0","1","1","0","1","0","1","5","4","4","2","5","","3","4","4","3","2","771469560028336130","吴","696","","","","","","","","","","","","","","","","","","","","","","","","","","","","","","","","","","","","","","","","","",""
"14838","","{""friend_name"":""吴"",""ParticipantID"":""696""}","survey-html-form","2","22302","0.0-1.0-1.0","4","4","4","3","4","3","3","4","4","3","4","2","1","5","2","4","3","2","4","5","2","2","1","2","1","2","1","1","2","1","0","1","1","0","0","1","1","0","1","1","0","1","0","1","5","4","4","2","5","","3","4","4","3","2","771469560028336130","吴","696","","","","","","","","","","","","","","","","","","","","","","","","","","","","","","","","","","","","","","","","","",""
"","","","fullscreen","3","23580","0.0-2.0","4","4","4","3","4","3","3","4","4","3","4","2","1","5","2","4","3","2","4","5","2","2","1","2","1","2","1","1","2","1","0","1","1","0","0","1","1","0","1","1","0","1","0","1","5","4","4","2","5","","3","4","4","3","2","771469560028336130","吴","696","","true","{}","","","","","","","","","","","","","","","","","","","","","","","","","","","","","","","","","","","","","","",""
"76748.69999999995","","{""Q01"":""4"",""Q02"":""4"",""Q03"":""4"",""Q04"":""3"",""Q05"":""4"",""Q06"":""3"",""Q07"":""3"",""Q08"":""4"",""Q09"":""4"",""Q10"":""3""}","survey-template","4","100339","0.0-3.0","4","4","4","3","4","3","3","4","4","3","4","2","1","5","2","4","3","2","4","5","2","2","1","2","1","2","1","1","2","1","0","1","1","0","0","1","1","0","1","1","0","1","0","1","5","4","4","2","5","","3","4","4","3","2","771469560028336130","吴","696","","","","{""Q01"":""4"",""Q02"":""4"",""Q03"":""4"",""Q04"":""3"",""Q05"":""4"",""Q06"":""3"",""Q07"":""3"",""Q08"":""4"",""Q09"":""4"",""Q10"":""3""}","[0,1,2,3,4,5,6,7,8,9]","[""Q01"",""Q02"",""Q03"",""Q04"",""Q05"",""Q06"",""Q07"",""Q08"",""Q09"",""Q10""]","[55545.90000000002,56937.59999999998,58337.5,60137.5,61729.30000000005,64289.5,65209.40000000002,67145.09999999998,69961,70841.09999999998]","[]","[55545.90000000002,56937.59999999998,58337.5,60137.5,61729.30000000005,64289.5,65209.40000000002,67145.09999999998,69625.30000000005,69961,70569.19999999995,70841.09999999998,76745.30000000005]","0.4","0.2222222222222222","0","","","","","","","","","","","","","","","","","","","","","","","","","","","","","",""
"26681.300000000047","","{""Q01"":""4"",""Q02"":""2"",""Q03"":""1"",""Q04"":""5"",""Q05"":""2"",""Q06"":""4"",""Q07"":""3"",""Q08"":""2"",""Q09"":""4"",""Q10"":""5""}","survey-template","5","127041","0.0-4.0","4","4","4","3","4","3","3","4","4","3","4","2","1","5","2","4","3","2","4","5","2","2","1","2","1","2","1","1","2","1","0","1","1","0","0","1","1","0","1","1","0","1","0","1","5","4","4","2","5","","3","4","4","3","2","771469560028336130","吴","696","","","","{""Q01"":""4"",""Q02"":""2"",""Q03"":""1"",""Q04"":""5"",""Q05"":""2"",""Q06"":""4"",""Q07"":""3"",""Q08"":""2"",""Q09"":""4"",""Q10"":""5""}","[0,1,2,3,4,5,6,7,8,9]","[""Q01"",""Q02"",""Q03"",""Q04"",""Q05"",""Q06"",""Q07"",""Q08"",""Q09"",""Q10""]","[4422.20000000007,6406.300000000047,7510.20000000007,9446.20000000007,13566.100000000093,14477.900000000023,16245.900000000023,18133.900000000023,19293.900000000023,22150]","[]","[4422.20000000007,6406.300000000047,7510.20000000007,9166.600000000093,9446.20000000007,13566.100000000093,14477.900000000023,16245.900000000023,18133.900000000023,19293.900000000023,20901.900000000023,21549.70000000007,22150,26677.900000000023]","0.6","0.4444444444444444","0","","","","","","","","","","","","","","","","","","","","","","","","","","","","","",""
"","","","preload","6","127321","0.0-5.0","4","4","4","3","4","3","3","4","4","3","4","2","1","5","2","4","3","2","4","5","2","2","1","2","1","2","1","1","2","1","0","1","1","0","0","1","1","0","1","1","0","1","0","1","5","4","4","2","5","","3","4","4","3","2","771469560028336130","吴","696","","true","","","","","","","","","","","false","[]","[]","[]","","","","","","","","","","","","","","","","","","","","","","","","","",""
"20570","","","instructions","7","147894","0.0-6.0","4","4","4","3","4","3","3","4","4","3","4","2","1","5","2","4","3","2","4","5","2","2","1","2","1","2","1","1","2","1","0","1","1","0","0","1","1","0","1","1","0","1","0","1","5","4","4","2","5","","3","4","4","3","2","771469560028336130","吴","696","","","","","","","","","","","","","","","","","[{""page_index"":0,""viewing_time"":20569}]","","","","","","","","","","","","","","","","","","","","","","","","",""
"103192","","","instructions","8","251092","0.0-7.0-1.0-0.0","4","4","4","3","4","3","3","4","4","3","4","2","1","5","2","4","3","2","4","5","2","2","1","2","1","2","1","1","2","1","0","1","1","0","0","1","1","0","1","1","0","1","0","1","5","4","4","2","5","","3","4","4","3","2","771469560028336130","吴","696","","","","","","","","","","","","","","","","","[{""page_index"":0,""viewing_time"":83744},{""page_index"":1,""viewing_time"":1288},{""page_index"":2,""viewing_time"":18160}]","","","","","","","","","","","","","","","","","","","","","","","","",""
"null","","null","psychophysics","9","253322","0.0-7.0-1.0-1.0-0.0-0.0","4","4","4","3","4","3","3","4","4","3","4","2","1","5","2","4","3","2","4","5","2","2","1","2","1","2","1","1","2","1","0","1","1","0","0","1","1","0","1","1","0","1","0","1","5","4","4","2","5","","3","4","4","3","2","771469560028336130","吴","696","","","","null","","","","","","","","","","","","","","key","null","17.32222834645677","683","380","f","false","match","img/trapezoid.png","梯形","梯形","ALT1_2","prac_ALT1_2","","","","","","","","","","","",""
"null","<span class='add_' style='color:yellow; font-size: 70px;'> 太慢! </span>","null","html-keyboard-response","10","253824","0.0-7.0-1.0-1.0-0.0-1.0","4","4","4","3","4","3","3","4","4","3","4","2","1","5","2","4","3","2","4","5","2","2","1","2","1","2","1","1","2","1","0","1","1","0","0","1","1","0","1","1","0","1","0","1","5","4","4","2","5","","3","4","4","3","2","771469560028336130","吴","696","","","","","","","","","","","","","","","","","","","","","","","","","","","","","","feedback_test","","","","","","","","","","","",""
"755","","j","psychophysics","11","255588","0.0-7.0-1.0-1.0-0.0-0.1","4","4","4","3","4","3","3","4","4","3","4","2","1","5","2","4","3","2","4","5","2","2","1","2","1","2","1","1","2","1","0","1","1","0","0","1","1","0","1","1","0","1","0","1","5","4","4","2","5","","3","4","4","3","2","771469560028336130","吴","696","","","","nonmatch","","","","","","","","","","","","","","key","j","16.659333333333155","683","380","j","true","nonmatch","img/ellipse.png","梯形","椭圆","ALT1_2","prac_ALT1_2","","","","","","","","","","","",""
"null","<span style='color:GreenYellow; font-size: 70px;'>正确! </span>","null","html-keyboard-response","12","256096","0.0-7.0-1.0-1.0-0.0-1.1","4","4","4","3","4","3","3","4","4","3","4","2","1","5","2","4","3","2","4","5","2","2","1","2","1","2","1","1","2","1","0","1","1","0","0","1","1","0","1","1","0","1","0","1","5","4","4","2","5","","3","4","4","3","2","771469560028336130","吴","696","","","","","","","","","","","","","","","","","","","","","","","","","","","","","","feedback_test","","","","","","","","","","","",""
"651","","j","psychophysics","13","257764","0.0-7.0-1.0-1.0-0.0-0.2","4","4","4","3","4","3","3","4","4","3","4","2","1","5","2","4","3","2","4","5","2","2","1","2","1","2","1","1","2","1","0","1","1","0","0","1","1","0","1","1","0","1","0","1","5","4","4","2","5","","3","4","4","3","2","771469560028336130","吴","696","","","","nonmatch","","","","","","","","","","","","","","key","j","16.836877551020365","683","380","j","true","nonmatch","img/pentagon.png","椭圆","五边","ALT1_2","prac_ALT1_2","","","","","","","","","","","",""
"null","<span style='color:GreenYellow; font-size: 70px;'>正确! </span>","null","html-keyboard-response","14","258272","0.0-7.0-1.0-1.0-0.0-1.2","4","4","4","3","4","3","3","4","4","3","4","2","1","5","2","4","3","2","4","5","2","2","1","2","1","2","1","1","2","1","0","1","1","0","0","1","1","0","1","1","0","1","0","1","5","4","4","2","5","","3","4","4","3","2","771469560028336130","吴","696","","","","","","","","","","","","","","","","","","","","","","","","","","","","","","feedback_test","","","","","","","","","","","",""
"579","","f","psychophysics","15","259859","0.0-7.0-1.0-1.0-0.0-0.3","4","4","4","3","4","3","3","4","4","3","4","2","1","5","2","4","3","2","4","5","2","2","1","2","1","2","1","1","2","1","0","1","1","0","0","1","1","0","1","1","0","1","0","1","5","4","4","2","5","","3","4","4","3","2","771469560028336130","吴","696","","","","match","","","","","","","","","","","","","","key","f","16.658531914893636","683","380","f","true","match","img/pentagon.png","五边","五边","ALT1_2","prac_ALT1_2","","","","","","","","","","","",""
"null","<span style='color:GreenYellow; font-size: 70px;'>正确! </span>","null","html-keyboard-response","16","260361","0.0-7.0-1.0-1.0-0.0-1.3","4","4","4","3","4","3","3","4","4","3","4","2","1","5","2","4","3","2","4","5","2","2","1","2","1","2","1","1","2","1","0","1","1","0","0","1","1","0","1","1","0","1","0","1","5","4","4","2","5","","3","4","4","3","2","771469560028336130","吴","696","","","","","","","","","","","","","","","","","","","","","","","","","","","","","","feedback_test","","","","","","","","","","","",""
"757","","j","psychophysics","17","262124","0.0-7.0-1.0-1.0-0.0-0.4","4","4","4","3","4","3","3","4","4","3","4","2","1","5","2","4","3","2","4","5","2","2","1","2","1","2","1","1","2","1","0","1","1","0","0","1","1","0","1","1","0","1","0","1","5","4","4","2","5","","3","4","4","3","2","771469560028336130","吴","696","","","","nonmatch","","","","","","","","","","","","","","key","j","16.660786407767148","683","380","j","true","nonmatch","img/trapezoid.png","椭圆","梯形","ALT1_2","prac_ALT1_2","","","","","","","","","","","",""
"null","<span style='color:GreenYellow; font-size: 70px;'>正确! </span>","null","html-keyboard-response","18","262633","0.0-7.0-1.0-1.0-0.0-1.4","4","4","4","3","4","3","3","4","4","3","4","2","1","5","2","4","3","2","4","5","2","2","1","2","1","2","1","1","2","1","0","1","1","0","0","1","1","0","1","1","0","1","0","1","5","4","4","2","5","","3","4","4","3","2","771469560028336130","吴","696","","","","","","","","","","","","","","","","","","","","","","","","","","","","","","feedback_test","","","","","","","","","","","",""
"687","","f","psychophysics","19","264323","0.0-7.0-1.0-1.0-0.0-0.5","4","4","4","3","4","3","3","4","4","3","4","2","1","5","2","4","3","2","4","5","2","2","1","2","1","2","1","1","2","1","0","1","1","0","0","1","1","0","1","1","0","1","0","1","5","4","4","2","5","","3","4","4","3","2","771469560028336130","吴","696","","","","match","","","","","","","","","","","","","","key","f","16.67057999999961","683","380","f","true","match","img/ellipse.png","椭圆","椭圆","ALT1_2","prac_ALT1_2","","","","","","","","","","","",""
"null","<span style='color:GreenYellow; font-size: 70px;'>正确! </span>","null","html-keyboard-response","20","264825","0.0-7.0-1.0-1.0-0.0-1.5","4","4","4","3","4","3","3","4","4","3","4","2","1","5","2","4","3","2","4","5","2","2","1","2","1","2","1","1","2","1","0","1","1","0","0","1","1","0","1","1","0","1","0","1","5","4","4","2","5","","3","4","4","3","2","771469560028336130","吴","696","","","","","","","","","","","","","","","","","","","","","","","","","","","","","","feedback_test","","","","","","","","","","","",""
"731","","j","psychophysics","21","266563","0.0-7.0-1.0-1.0-0.0-0.6","4","4","4","3","4","3","3","4","4","3","4","2","1","5","2","4","3","2","4","5","2","2","1","2","1","2","1","1","2","1","0","1","1","0","0","1","1","0","1","1","0","1","0","1","5","4","4","2","5","","3","4","4","3","2","771469560028336130","吴","696","","","","nonmatch","","","","","","","","","","","","","","key","j","16.833107843137388","683","380","j","true","nonmatch","img/ellipse.png","方形","椭圆","ALT1_2","prac_ALT1_2","","","","","","","","","","","",""
"null","<span style='color:GreenYellow; font-size: 70px;'>正确! </span>","null","html-keyboard-response","22","267065","0.0-7.0-1.0-1.0-0.0-1.6","4","4","4","3","4","3","3","4","4","3","4","2","1","5","2","4","3","2","4","5","2","2","1","2","1","2","1","1","2","1","0","1","1","0","0","1","1","0","1","1","0","1","0","1","5","4","4","2","5","","3","4","4","3","2","771469560028336130","吴","696","","","","","","","","","","","","","","","","","","","","","","","","","","","","","","feedback_test","","","","","","","","","","","",""
"735","","f","psychophysics","23","268804","0.0-7.0-1.0-1.0-0.0-0.7","4","4","4","3","4","3","3","4","4","3","4","2","1","5","2","4","3","2","4","5","2","2","1","2","1","2","1","1","2","1","0","1","1","0","0","1","1","0","1","1","0","1","0","1","5","4","4","2","5","","3","4","4","3","2","771469560028336130","吴","696","","","","match","","","","","","","","","","","","","","key","f","16.661872549019595","683","380","f","true","match","img/pentagon.png","五边","五边","ALT1_2","prac_ALT1_2","","","","","","","","","","","",""
"null","<span style='color:GreenYellow; font-size: 70px;'>正确! </span>","null","html-keyboard-response","24","269313","0.0-7.0-1.0-1.0-0.0-1.7","4","4","4","3","4","3","3","4","4","3","4","2","1","5","2","4","3","2","4","5","2","2","1","2","1","2","1","1","2","1","0","1","1","0","0","1","1","0","1","1","0","1","0","1","5","4","4","2","5","","3","4","4","3","2","771469560028336130","吴","696","","","","","","","","","","","","","","","","","","","","","","","","","","","","","","feedback_test","","","","","","","","","","","",""
"743","","f","psychophysics","25","271059","0.0-7.0-1.0-1.0-0.0-0.8","4","4","4","3","4","3","3","4","4","3","4","2","1","5","2","4","3","2","4","5","2","2","1","2","1","2","1","1","2","1","0","1","1","0","0","1","1","0","1","1","0","1","0","1","5","4","4","2","5","","3","4","4","3","2","771469560028336130","吴","696","","","","match","","","","","","","","","","","","","","key","f","16.673176470588704","683","380","f","true","match","img/square.png","方形","方形","ALT1_2","prac_ALT1_2","","","","","","","","","","","",""
"null","<span style='color:GreenYellow; font-size: 70px;'>正确! </span>","null","html-keyboard-response","26","271561","0.0-7.0-1.0-1.0-0.0-1.8","4","4","4","3","4","3","3","4","4","3","4","2","1","5","2","4","3","2","4","5","2","2","1","2","1","2","1","1","2","1","0","1","1","0","0","1","1","0","1","1","0","1","0","1","5","4","4","2","5","","3","4","4","3","2","771469560028336130","吴","696","","","","","","","","","","","","","","","","","","","","","","","","","","","","","","feedback_test","","","","","","","","","","","",""
"708","","f","psychophysics","27","273276","0.0-7.0-1.0-1.0-0.0-0.9","4","4","4","3","4","3","3","4","4","3","4","2","1","5","2","4","3","2","4","5","2","2","1","2","1","2","1","1","2","1","0","1","1","0","0","1","1","0","1","1","0","1","0","1","5","4","4","2","5","","3","4","4","3","2","771469560028336130","吴","696","","","","match","","","","","","","","","","","","","","key","f","16.6632376237626","683","380","f","true","match","img/pentagon.png","五边","五边","ALT1_2","prac_ALT1_2","","","","","","","","","","","",""
"null","<span style='color:GreenYellow; font-size: 70px;'>正确! </span>","null","html-keyboard-response","28","273785","0.0-7.0-1.0-1.0-0.0-1.9","4","4","4","3","4","3","3","4","4","3","4","2","1","5","2","4","3","2","4","5","2","2","1","2","1","2","1","1","2","1","0","1","1","0","0","1","1","0","1","1","0","1","0","1","5","4","4","2","5","","3","4","4","3","2","771469560028336130","吴","696","","","","","","","","","","","","","","","","","","","","","","","","","","","","","","feedback_test","","","","","","","","","","","",""
"634","","j","psychophysics","29","275427","0.0-7.0-1.0-1.0-0.0-0.10","4","4","4","3","4","3","3","4","4","3","4","2","1","5","2","4","3","2","4","5","2","2","1","2","1","2","1","1","2","1","0","1","1","0","0","1","1","0","1","1","0","1","0","1","5","4","4","2","5","","3","4","4","3","2","771469560028336130","吴","696","","","","nonmatch","","","","","","","","","","","","","","key","j","16.6696907216497","683","380","j","true","nonmatch","img/ellipse.png","五边","椭圆","ALT1_2","prac_ALT1_2","","","","","","","","","","","",""
"null","<span style='color:GreenYellow; font-size: 70px;'>正确! </span>","null","html-keyboard-response","30","275929","0.0-7.0-1.0-1.0-0.0-1.10","4","4","4","3","4","3","3","4","4","3","4","2","1","5","2","4","3","2","4","5","2","2","1","2","1","2","1","1","2","1","0","1","1","0","0","1","1","0","1","1","0","1","0","1","5","4","4","2","5","","3","4","4","3","2","771469560028336130","吴","696","","","","","","","","","","","","","","","","","","","","","","","","","","","","","","feedback_test","","","","","","","","","","","",""
"852","","j","psychophysics","31","277788","0.0-7.0-1.0-1.0-0.0-0.11","4","4","4","3","4","3","3","4","4","3","4","2","1","5","2","4","3","2","4","5","2","2","1","2","1","2","1","1","2","1","0","1","1","0","0","1","1","0","1","1","0","1","0","1","5","4","4","2","5","","3","4","4","3","2","771469560028336130","吴","696","","","","nonmatch","","","","","","","","","","","","","","key","j","16.66621621621632","683","380","j","true","nonmatch","img/pentagon.png","梯形","五边","ALT1_2","prac_ALT1_2","","","","","","","","","","","",""
"null","<span style='color:GreenYellow; font-size: 70px;'>正确! </span>","null","html-keyboard-response","32","278296","0.0-7.0-1.0-1.0-0.0-1.11","4","4","4","3","4","3","3","4","4","3","4","2","1","5","2","4","3","2","4","5","2","2","1","2","1","2","1","1","2","1","0","1","1","0","0","1","1","0","1","1","0","1","0","1","5","4","4","2","5","","3","4","4","3","2","771469560028336130","吴","696","","","","","","","","","","","","","","","","","","","","","","","","","","","","","","feedback_test","","","","","","","","","","","",""
"685","","f","psychophysics","33","279986","0.0-7.0-1.0-1.0-0.0-0.12","4","4","4","3","4","3","3","4","4","3","4","2","1","5","2","4","3","2","4","5","2","2","1","2","1","2","1","1","2","1","0","1","1","0","0","1","1","0","1","1","0","1","0","1","5","4","4","2","5","","3","4","4","3","2","771469560028336130","吴","696","","","","match","","","","","","","","","","","","","","key","f","16.663732673267436","683","380","f","true","match","img/trapezoid.png","梯形","梯形","ALT1_2","prac_ALT1_2","","","","","","","","","","","",""
"null","<span style='color:GreenYellow; font-size: 70px;'>正确! </span>","null","html-keyboard-response","34","280488","0.0-7.0-1.0-1.0-0.0-1.12","4","4","4","3","4","3","3","4","4","3","4","2","1","5","2","4","3","2","4","5","2","2","1","2","1","2","1","1","2","1","0","1","1","0","0","1","1","0","1","1","0","1","0","1","5","4","4","2","5","","3","4","4","3","2","771469560028336130","吴","696","","","","","","","","","","","","","","","","","","","","","","","","","","","","","","feedback_test","","","","","","","","","","","",""
"907","","j","psychophysics","35","282404","0.0-7.0-1.0-1.0-0.0-0.13","4","4","4","3","4","3","3","4","4","3","4","2","1","5","2","4","3","2","4","5","2","2","1","2","1","2","1","1","2","1","0","1","1","0","0","1","1","0","1","1","0","1","0","1","5","4","4","2","5","","3","4","4","3","2","771469560028336130","吴","696","","","","nonmatch","","","","","","","","","","","","","","key","j","16.664973451327366","683","380","j","true","nonmatch","img/trapezoid.png","方形","梯形","ALT1_2","prac_ALT1_2","","","","","","","","","","","",""
"null","<span style='color:GreenYellow; font-size: 70px;'>正确! </span>","null","html-keyboard-response","36","282912","0.0-7.0-1.0-1.0-0.0-1.13","4","4","4","3","4","3","3","4","4","3","4","2","1","5","2","4","3","2","4","5","2","2","1","2","1","2","1","1","2","1","0","1","1","0","0","1","1","0","1","1","0","1","0","1","5","4","4","2","5","","3","4","4","3","2","771469560028336130","吴","696","","","","","","","","","","","","","","","","","","","","","","","","","","","","","","feedback_test","","","","","","","","","","","",""
"633","","f","psychophysics","37","284550","0.0-7.0-1.0-1.0-0.0-0.14","4","4","4","3","4","3","3","4","4","3","4","2","1","5","2","4","3","2","4","5","2","2","1","2","1","2","1","1","2","1","0","1","1","0","0","1","1","0","1","1","0","1","0","1","5","4","4","2","5","","3","4","4","3","2","771469560028336130","吴","696","","","","match","","","","","","","","","","","","","","key","f","16.677000000000024","683","380","f","true","match","img/square.png","方形","方形","ALT1_2","prac_ALT1_2","","","","","","","","","","","",""
"null","<span style='color:GreenYellow; font-size: 70px;'>正确! </span>","null","html-keyboard-response","38","285056","0.0-7.0-1.0-1.0-0.0-1.14","4","4","4","3","4","3","3","4","4","3","4","2","1","5","2","4","3","2","4","5","2","2","1","2","1","2","1","1","2","1","0","1","1","0","0","1","1","0","1","1","0","1","0","1","5","4","4","2","5","","3","4","4","3","2","771469560028336130","吴","696","","","","","","","","","","","","","","","","","","","","","","","","","","","","","","feedback_test","","","","","","","","","","","",""
"843","","j","psychophysics","39","286906","0.0-7.0-1.0-1.0-0.0-0.15","4","4","4","3","4","3","3","4","4","3","4","2","1","5","2","4","3","2","4","5","2","2","1","2","1","2","1","1","2","1","0","1","1","0","0","1","1","0","1","1","0","1","0","1","5","4","4","2","5","","3","4","4","3","2","771469560028336130","吴","696","","","","nonmatch","","","","","","","","","","","","","","key","j","16.657790909090544","683","380","j","true","nonmatch","img/square.png","五边","方形","ALT1_2","prac_ALT1_2","","","","","","","","","","","",""
"null","<span style='color:GreenYellow; font-size: 70px;'>正确! </span>","null","html-keyboard-response","40","287408","0.0-7.0-1.0-1.0-0.0-1.15","4","4","4","3","4","3","3","4","4","3","4","2","1","5","2","4","3","2","4","5","2","2","1","2","1","2","1","1","2","1","0","1","1","0","0","1","1","0","1","1","0","1","0","1","5","4","4","2","5","","3","4","4","3","2","771469560028336130","吴","696","","","","","","","","","","","","","","","","","","","","","","","","","","","","","","feedback_test","","","","","","","","","","","",""
"703","","f","psychophysics","41","289117","0.0-7.0-1.0-1.0-0.0-0.16","4","4","4","3","4","3","3","4","4","3","4","2","1","5","2","4","3","2","4","5","2","2","1","2","1","2","1","1","2","1","0","1","1","0","0","1","1","0","1","1","0","1","0","1","5","4","4","2","5","","3","4","4","3","2","771469560028336130","吴","696","","","","match","","","","","","","","","","","","","","key","f","16.834732673267517","683","380","f","true","match","img/trapezoid.png","梯形","梯形","ALT1_2","prac_ALT1_2","","","","","","","","","","","",""
"null","<span style='color:GreenYellow; font-size: 70px;'>正确! </span>","null","html-keyboard-response","42","289625","0.0-7.0-1.0-1.0-0.0-1.16","4","4","4","3","4","3","3","4","4","3","4","2","1","5","2","4","3","2","4","5","2","2","1","2","1","2","1","1","2","1","0","1","1","0","0","1","1","0","1","1","0","1","0","1","5","4","4","2","5","","3","4","4","3","2","771469560028336130","吴","696","","","","","","","","","","","","","","","","","","","","","","","","","","","","","","feedback_test","","","","","","","","","","","",""
"719","","f","psychophysics","43","291355","0.0-7.0-1.0-1.0-0.0-0.17","4","4","4","3","4","3","3","4","4","3","4","2","1","5","2","4","3","2","4","5","2","2","1","2","1","2","1","1","2","1","0","1","1","0","0","1","1","0","1","1","0","1","0","1","5","4","4","2","5","","3","4","4","3","2","771469560028336130","吴","696","","","","match","","","","","","","","","","","","","","key","f","16.668417475727676","683","380","f","true","match","img/ellipse.png","椭圆","椭圆","ALT1_2","prac_ALT1_2","","","","","","","","","","","",""
"null","<span style='color:GreenYellow; font-size: 70px;'>正确! </span>","null","html-keyboard-response","44","291858","0.0-7.0-1.0-1.0-0.0-1.17","4","4","4","3","4","3","3","4","4","3","4","2","1","5","2","4","3","2","4","5","2","2","1","2","1","2","1","1","2","1","0","1","1","0","0","1","1","0","1","1","0","1","0","1","5","4","4","2","5","","3","4","4","3","2","771469560028336130","吴","696","","","","","","","","","","","","","","","","","","","","","","","","","","","","","","feedback_test","","","","","","","","","","","",""
"883","","j","psychophysics","45","293749","0.0-7.0-1.0-1.0-0.0-0.18","4","4","4","3","4","3","3","4","4","3","4","2","1","5","2","4","3","2","4","5","2","2","1","2","1","2","1","1","2","1","0","1","1","0","0","1","1","0","1","1","0","1","0","1","5","4","4","2","5","","3","4","4","3","2","771469560028336130","吴","696","","","","nonmatch","","","","","","","","","","","","","","key","j","16.806799999999665","683","380","j","true","nonmatch","img/trapezoid.png","五边","梯形","ALT1_2","prac_ALT1_2","","","","","","","","","","","",""
"null","<span style='color:GreenYellow; font-size: 70px;'>正确! </span>","null","html-keyboard-response","46","294258","0.0-7.0-1.0-1.0-0.0-1.18","4","4","4","3","4","3","3","4","4","3","4","2","1","5","2","4","3","2","4","5","2","2","1","2","1","2","1","1","2","1","0","1","1","0","0","1","1","0","1","1","0","1","0","1","5","4","4","2","5","","3","4","4","3","2","771469560028336130","吴","696","","","","","","","","","","","","","","","","","","","","","","","","","","","","","","feedback_test","","","","","","","","","","","",""
"680","","f","psychophysics","47","295949","0.0-7.0-1.0-1.0-0.0-0.19","4","4","4","3","4","3","3","4","4","3","4","2","1","5","2","4","3","2","4","5","2","2","1","2","1","2","1","1","2","1","0","1","1","0","0","1","1","0","1","1","0","1","0","1","5","4","4","2","5","","3","4","4","3","2","771469560028336130","吴","696","","","","match","","","","","","","","","","","","","","key","f","16.665599999999976","683","380","f","true","match","img/square.png","方形","方形","ALT1_2","prac_ALT1_2","","","","","","","","","","","",""
"null","<span style='color:GreenYellow; font-size: 70px;'>正确! </span>","null","html-keyboard-response","48","296458","0.0-7.0-1.0-1.0-0.0-1.19","4","4","4","3","4","3","3","4","4","3","4","2","1","5","2","4","3","2","4","5","2","2","1","2","1","2","1","1","2","1","0","1","1","0","0","1","1","0","1","1","0","1","0","1","5","4","4","2","5","","3","4","4","3","2","771469560028336130","吴","696","","","","","","","","","","","","","","","","","","","","","","","","","","","","","","feedback_test","","","","","","","","","","","",""
"688","","j","psychophysics","49","298155","0.0-7.0-1.0-1.0-0.0-0.20","4","4","4","3","4","3","3","4","4","3","4","2","1","5","2","4","3","2","4","5","2","2","1","2","1","2","1","1","2","1","0","1","1","0","0","1","1","0","1","1","0","1","0","1","5","4","4","2","5","","3","4","4","3","2","771469560028336130","吴","696","","","","nonmatch","","","","","","","","","","","","","","key","j","16.833020202020617","683","380","j","true","nonmatch","img/square.png","椭圆","方形","ALT1_2","prac_ALT1_2","","","","","","","","","","","",""
"null","<span style='color:GreenYellow; font-size: 70px;'>正确! </span>","null","html-keyboard-response","50","298658","0.0-7.0-1.0-1.0-0.0-1.20","4","4","4","3","4","3","3","4","4","3","4","2","1","5","2","4","3","2","4","5","2","2","1","2","1","2","1","1","2","1","0","1","1","0","0","1","1","0","1","1","0","1","0","1","5","4","4","2","5","","3","4","4","3","2","771469560028336130","吴","696","","","","","","","","","","","","","","","","","","","","","","","","","","","","","","feedback_test","","","","","","","","","","","",""
"730","","f","psychophysics","51","300395","0.0-7.0-1.0-1.0-0.0-0.21","4","4","4","3","4","3","3","4","4","3","4","2","1","5","2","4","3","2","4","5","2","2","1","2","1","2","1","1","2","1","0","1","1","0","0","1","1","0","1","1","0","1","0","1","5","4","4","2","5","","3","4","4","3","2","771469560028336130","吴","696","","","","match","","","","","","","","","","","","","","key","f","16.66644117647072","683","380","f","true","match","img/ellipse.png","椭圆","椭圆","ALT1_2","prac_ALT1_2","","","","","","","","","","","",""
"null","<span style='color:GreenYellow; font-size: 70px;'>正确! </span>","null","html-keyboard-response","52","300898","0.0-7.0-1.0-1.0-0.0-1.21","4","4","4","3","4","3","3","4","4","3","4","2","1","5","2","4","3","2","4","5","2","2","1","2","1","2","1","1","2","1","0","1","1","0","0","1","1","0","1","1","0","1","0","1","5","4","4","2","5","","3","4","4","3","2","771469560028336130","吴","696","","","","","","","","","","","","","","","","","","","","","","","","","","","","","","feedback_test","","","","","","","","","","","",""
"735","","f","psychophysics","53","302636","0.0-7.0-1.0-1.0-0.0-0.22","4","4","4","3","4","3","3","4","4","3","4","2","1","5","2","4","3","2","4","5","2","2","1","2","1","2","1","1","2","1","0","1","1","0","0","1","1","0","1","1","0","1","0","1","5","4","4","2","5","","3","4","4","3","2","771469560028336130","吴","696","","","","match","","","","","","","","","","","","","","key","f","16.668666666666933","683","380","j","false","nonmatch","img/square.png","梯形","方形","ALT1_2","prac_ALT1_2","","","","","","","","","","","",""
"null","<span style='color:red; font-size: 70px;'>错误! </span>","null","html-keyboard-response","54","303138","0.0-7.0-1.0-1.0-0.0-1.22","4","4","4","3","4","3","3","4","4","3","4","2","1","5","2","4","3","2","4","5","2","2","1","2","1","2","1","1","2","1","0","1","1","0","0","1","1","0","1","1","0","1","0","1","5","4","4","2","5","","3","4","4","3","2","771469560028336130","吴","696","","","","","","","","","","","","","","","","","","","","","","","","","","","","","","feedback_test","","","","","","","","","","","",""
"762","","j","psychophysics","55","304907","0.0-7.0-1.0-1.0-0.0-0.23","4","4","4","3","4","3","3","4","4","3","4","2","1","5","2","4","3","2","4","5","2","2","1","2","1","2","1","1","2","1","0","1","1","0","0","1","1","0","1","1","0","1","0","1","5","4","4","2","5","","3","4","4","3","2","771469560028336130","吴","696","","","","nonmatch","","","","","","","","","","","","","","key","j","16.6631428571429","683","380","j","true","nonmatch","img/pentagon.png","方形","五边","ALT1_2","prac_ALT1_2","","","","","","","","","","","",""
"null","<span style='color:GreenYellow; font-size: 70px;'>正确! </span>","null","html-keyboard-response","56","305409","0.0-7.0-1.0-1.0-0.0-1.23","4","4","4","3","4","3","3","4","4","3","4","2","1","5","2","4","3","2","4","5","2","2","1","2","1","2","1","1","2","1","0","1","1","0","0","1","1","0","1","1","0","1","0","1","5","4","4","2","5","","3","4","4","3","2","771469560028336130","吴","696","","","","","","","","","","","","","","","","","","","","","","","","","","","","","","feedback_test","","","","","","","","","","","",""
"668","","j","psychophysics","57","307086","0.0-7.0-1.0-1.0-0.0-0.24","4","4","4","3","4","3","3","4","4","3","4","2","1","5","2","4","3","2","4","5","2","2","1","2","1","2","1","1","2","1","0","1","1","0","0","1","1","0","1","1","0","1","0","1","5","4","4","2","5","","3","4","4","3","2","771469560028336130","吴","696","","","","nonmatch","","","","","","","","","","","","","","key","j","16.670193877551057","683","380","j","true","nonmatch","img/pentagon.png","方形","五边","ALT1_2","prac_ALT1_2","","","","","","","","","","","",""
"null","<span style='color:GreenYellow; font-size: 70px;'>正确! </span>","null","html-keyboard-response","58","307593","0.0-7.0-1.0-1.0-0.0-1.24","4","4","4","3","4","3","3","4","4","3","4","2","1","5","2","4","3","2","4","5","2","2","1","2","1","2","1","1","2","1","0","1","1","0","0","1","1","0","1","1","0","1","0","1","5","4","4","2","5","","3","4","4","3","2","771469560028336130","吴","696","","","","","","","","","","","","","","","","","","","","","","","","","","","","","","feedback_test","","","","","","","","","","","",""
"716","","j","psychophysics","59","309319","0.0-7.0-1.0-1.0-0.0-0.25","4","4","4","3","4","3","3","4","4","3","4","2","1","5","2","4","3","2","4","5","2","2","1","2","1","2","1","1","2","1","0","1","1","0","0","1","1","0","1","1","0","1","0","1","5","4","4","2","5","","3","4","4","3","2","771469560028336130","吴","696","","","","nonmatch","","","","","","","","","","","","","","key","j","16.669097087378795","683","380","j","true","nonmatch","img/square.png","梯形","方形","ALT1_2","prac_ALT1_2","","","","","","","","","","","",""
"null","<span style='color:GreenYellow; font-size: 70px;'>正确! </span>","null","html-keyboard-response","60","309825","0.0-7.0-1.0-1.0-0.0-1.25","4","4","4","3","4","3","3","4","4","3","4","2","1","5","2","4","3","2","4","5","2","2","1","2","1","2","1","1","2","1","0","1","1","0","0","1","1","0","1","1","0","1","0","1","5","4","4","2","5","","3","4","4","3","2","771469560028336130","吴","696","","","","","","","","","","","","","","","","","","","","","","","","","","","","","","feedback_test","","","","","","","","","","","",""
"1024","","f","psychophysics","61","311859","0.0-7.0-1.0-1.0-0.0-0.26","4","4","4","3","4","3","3","4","4","3","4","2","1","5","2","4","3","2","4","5","2","2","1","2","1","2","1","1","2","1","0","1","1","0","0","1","1","0","1","1","0","1","0","1","5","4","4","2","5","","3","4","4","3","2","771469560028336130","吴","696","","","","match","","","","","","","","","","","","","","key","f","16.808941666666456","683","380","j","false","nonmatch","img/ellipse.png","方形","椭圆","ALT1_2","prac_ALT1_2","","","","","","","","","","","",""
"null","<span style='color:red; font-size: 70px;'>错误! </span>","null","html-keyboard-response","62","312361","0.0-7.0-1.0-1.0-0.0-1.26","4","4","4","3","4","3","3","4","4","3","4","2","1","5","2","4","3","2","4","5","2","2","1","2","1","2","1","1","2","1","0","1","1","0","0","1","1","0","1","1","0","1","0","1","5","4","4","2","5","","3","4","4","3","2","771469560028336130","吴","696","","","","","","","","","","","","","","","","","","","","","","","","","","","","","","feedback_test","","","","","","","","","","","",""
"839","","j","psychophysics","63","314203","0.0-7.0-1.0-1.0-0.0-0.27","4","4","4","3","4","3","3","4","4","3","4","2","1","5","2","4","3","2","4","5","2","2","1","2","1","2","1","1","2","1","0","1","1","0","0","1","1","0","1","1","0","1","0","1","5","4","4","2","5","","3","4","4","3","2","771469560028336130","吴","696","","","","nonmatch","","","","","","","","","","","","","","key","j","16.670583333333425","683","380","j","true","nonmatch","img/trapezoid.png","方形","梯形","ALT1_2","prac_ALT1_2","","","","","","","","","","","",""
"null","<span style='color:GreenYellow; font-size: 70px;'>正确! </span>","null","html-keyboard-response","64","314706","0.0-7.0-1.0-1.0-0.0-1.27","4","4","4","3","4","3","3","4","4","3","4","2","1","5","2","4","3","2","4","5","2","2","1","2","1","2","1","1","2","1","0","1","1","0","0","1","1","0","1","1","0","1","0","1","5","4","4","2","5","","3","4","4","3","2","771469560028336130","吴","696","","","","","","","","","","","","","","","","","","","","","","","","","","","","","","feedback_test","","","","","","","","","","","",""
"842","","j","psychophysics","65","316555","0.0-7.0-1.0-1.0-0.0-0.28","4","4","4","3","4","3","3","4","4","3","4","2","1","5","2","4","3","2","4","5","2","2","1","2","1","2","1","1","2","1","0","1","1","0","0","1","1","0","1","1","0","1","0","1","5","4","4","2","5","","3","4","4","3","2","771469560028336130","吴","696","","","","nonmatch","","","","","","","","","","","","","","key","j","16.65727522935763","683","380","j","true","nonmatch","img/square.png","五边","方形","ALT1_2","prac_ALT1_2","","","","","","","","","","","",""
"null","<span style='color:GreenYellow; font-size: 70px;'>正确! </span>","null","html-keyboard-response","66","317058","0.0-7.0-1.0-1.0-0.0-1.28","4","4","4","3","4","3","3","4","4","3","4","2","1","5","2","4","3","2","4","5","2","2","1","2","1","2","1","1","2","1","0","1","1","0","0","1","1","0","1","1","0","1","0","1","5","4","4","2","5","","3","4","4","3","2","771469560028336130","吴","696","","","","","","","","","","","","","","","","","","","","","","","","","","","","","","feedback_test","","","","","","","","","","","",""
"682","","j","psychophysics","67","318749","0.0-7.0-1.0-1.0-0.0-0.29","4","4","4","3","4","3","3","4","4","3","4","2","1","5","2","4","3","2","4","5","2","2","1","2","1","2","1","1","2","1","0","1","1","0","0","1","1","0","1","1","0","1","0","1","5","4","4","2","5","","3","4","4","3","2","771469560028336130","吴","696","","","","nonmatch","","","","","","","","","","","","","","key","j","16.663279999999794","683","380","j","true","nonmatch","img/pentagon.png","梯形","五边","ALT1_2","prac_ALT1_2","","","","","","","","","","","",""
"null","<span style='color:GreenYellow; font-size: 70px;'>正确! </span>","null","html-keyboard-response","68","319258","0.0-7.0-1.0-1.0-0.0-1.29","4","4","4","3","4","3","3","4","4","3","4","2","1","5","2","4","3","2","4","5","2","2","1","2","1","2","1","1","2","1","0","1","1","0","0","1","1","0","1","1","0","1","0","1","5","4","4","2","5","","3","4","4","3","2","771469560028336130","吴","696","","","","","","","","","","","","","","","","","","","","","","","","","","","","","","feedback_test","","","","","","","","","","","",""
"727","","j","psychophysics","69","320995","0.0-7.0-1.0-1.0-0.0-0.30","4","4","4","3","4","3","3","4","4","3","4","2","1","5","2","4","3","2","4","5","2","2","1","2","1","2","1","1","2","1","0","1","1","0","0","1","1","0","1","1","0","1","0","1","5","4","4","2","5","","3","4","4","3","2","771469560028336130","吴","696","","","","nonmatch","","","","","","","","","","","","","","key","j","16.655135922330587","683","380","j","true","nonmatch","img/ellipse.png","梯形","椭圆","ALT1_2","prac_ALT1_2","","","","","","","","","","","",""
"null","<span style='color:GreenYellow; font-size: 70px;'>正确! </span>","null","html-keyboard-response","70","321498","0.0-7.0-1.0-1.0-0.0-1.30","4","4","4","3","4","3","3","4","4","3","4","2","1","5","2","4","3","2","4","5","2","2","1","2","1","2","1","1","2","1","0","1","1","0","0","1","1","0","1","1","0","1","0","1","5","4","4","2","5","","3","4","4","3","2","771469560028336130","吴","696","","","","","","","","","","","","","","","","","","","","","","","","","","","","","","feedback_test","","","","","","","","","","","",""
"682","","j","psychophysics","71","323182","0.0-7.0-1.0-1.0-0.0-0.31","4","4","4","3","4","3","3","4","4","3","4","2","1","5","2","4","3","2","4","5","2","2","1","2","1","2","1","1","2","1","0","1","1","0","0","1","1","0","1","1","0","1","0","1","5","4","4","2","5","","3","4","4","3","2","771469560028336130","吴","696","","","","nonmatch","","","","","","","","","","","","","","key","j","16.659060606060343","683","380","j","true","nonmatch","img/ellipse.png","五边","椭圆","ALT1_2","prac_ALT1_2","","","","","","","","","","","",""
"null","<span style='color:GreenYellow; font-size: 70px;'>正确! </span>","null","html-keyboard-response","72","323690","0.0-7.0-1.0-1.0-0.0-1.31","4","4","4","3","4","3","3","4","4","3","4","2","1","5","2","4","3","2","4","5","2","2","1","2","1","2","1","1","2","1","0","1","1","0","0","1","1","0","1","1","0","1","0","1","5","4","4","2","5","","3","4","4","3","2","771469560028336130","吴","696","","","","","","","","","","","","","","","","","","","","","","","","","","","","","","feedback_test","","","","","","","","","","","",""
"823","","f","psychophysics","73","325523","0.0-7.0-1.0-1.0-0.0-0.32","4","4","4","3","4","3","3","4","4","3","4","2","1","5","2","4","3","2","4","5","2","2","1","2","1","2","1","1","2","1","0","1","1","0","0","1","1","0","1","1","0","1","0","1","5","4","4","2","5","","3","4","4","3","2","771469560028336130","吴","696","","","","match","","","","","","","","","","","","","","key","f","16.825728971962643","683","380","f","true","match","img/pentagon.png","五边","五边","ALT1_2","prac_ALT1_2","","","","","","","","","","","",""
"null","<span style='color:GreenYellow; font-size: 70px;'>正确! </span>","null","html-keyboard-response","74","326026","0.0-7.0-1.0-1.0-0.0-1.32","4","4","4","3","4","3","3","4","4","3","4","2","1","5","2","4","3","2","4","5","2","2","1","2","1","2","1","1","2","1","0","1","1","0","0","1","1","0","1","1","0","1","0","1","5","4","4","2","5","","3","4","4","3","2","771469560028336130","吴","696","","","","","","","","","","","","","","","","","","","","","","","","","","","","","","feedback_test","","","","","","","","","","","",""
"860","","j","psychophysics","75","327891","0.0-7.0-1.0-1.0-0.0-0.33","4","4","4","3","4","3","3","4","4","3","4","2","1","5","2","4","3","2","4","5","2","2","1","2","1","2","1","1","2","1","0","1","1","0","0","1","1","0","1","1","0","1","0","1","5","4","4","2","5","","3","4","4","3","2","771469560028336130","吴","696","","","","nonmatch","","","","","","","","","","","","","","key","j","16.662073394495124","683","380","f","false","match","img/square.png","方形","方形","ALT1_2","prac_ALT1_2","","","","","","","","","","","",""
"null","<span style='color:red; font-size: 70px;'>错误! </span>","null","html-keyboard-response","76","328394","0.0-7.0-1.0-1.0-0.0-1.33","4","4","4","3","4","3","3","4","4","3","4","2","1","5","2","4","3","2","4","5","2","2","1","2","1","2","1","1","2","1","0","1","1","0","0","1","1","0","1","1","0","1","0","1","5","4","4","2","5","","3","4","4","3","2","771469560028336130","吴","696","","","","","","","","","","","","","","","","","","","","","","","","","","","","","","feedback_test","","","","","","","","","","","",""
"692","","f","psychophysics","77","330091","0.0-7.0-1.0-1.0-0.0-0.34","4","4","4","3","4","3","3","4","4","3","4","2","1","5","2","4","3","2","4","5","2","2","1","2","1","2","1","1","2","1","0","1","1","0","0","1","1","0","1","1","0","1","0","1","5","4","4","2","5","","3","4","4","3","2","771469560028336130","吴","696","","","","match","","","","","","","","","","","","","","key","f","16.666828282828316","683","380","f","true","match","img/square.png","方形","方形","ALT1_2","prac_ALT1_2","","","","","","","","","","","",""
"null","<span style='color:GreenYellow; font-size: 70px;'>正确! </span>","null","html-keyboard-response","78","330594","0.0-7.0-1.0-1.0-0.0-1.34","4","4","4","3","4","3","3","4","4","3","4","2","1","5","2","4","3","2","4","5","2","2","1","2","1","2","1","1","2","1","0","1","1","0","0","1","1","0","1","1","0","1","0","1","5","4","4","2","5","","3","4","4","3","2","771469560028336130","吴","696","","","","","","","","","","","","","","","","","","","","","","","","","","","","","","feedback_test","","","","","","","","","","","",""
"721","","f","psychophysics","79","332318","0.0-7.0-1.0-1.0-0.0-0.35","4","4","4","3","4","3","3","4","4","3","4","2","1","5","2","4","3","2","4","5","2","2","1","2","1","2","1","1","2","1","0","1","1","0","0","1","1","0","1","1","0","1","0","1","5","4","4","2","5","","3","4","4","3","2","771469560028336130","吴","696","","","","match","","","","","","","","","","","","","","key","f","16.67026732673253","683","380","f","true","match","img/square.png","方形","方形","ALT1_2","prac_ALT1_2","","","","","","","","","","","",""
"null","<span style='color:GreenYellow; font-size: 70px;'>正确! </span>","null","html-keyboard-response","80","332825","0.0-7.0-1.0-1.0-0.0-1.35","4","4","4","3","4","3","3","4","4","3","4","2","1","5","2","4","3","2","4","5","2","2","1","2","1","2","1","1","2","1","0","1","1","0","0","1","1","0","1","1","0","1","0","1","5","4","4","2","5","","3","4","4","3","2","771469560028336130","吴","696","","","","","","","","","","","","","","","","","","","","","","","","","","","","","","feedback_test","","","","","","","","","","","",""
"710","","f","psychophysics","81","334539","0.0-7.0-1.0-1.0-0.0-0.36","4","4","4","3","4","3","3","4","4","3","4","2","1","5","2","4","3","2","4","5","2","2","1","2","1","2","1","1","2","1","0","1","1","0","0","1","1","0","1","1","0","1","0","1","5","4","4","2","5","","3","4","4","3","2","771469560028336130","吴","696","","","","match","","","","","","","","","","","","","","key","f","16.677300000000397","683","380","j","false","nonmatch","img/trapezoid.png","五边","梯形","ALT1_2","prac_ALT1_2","","","","","","","","","","","",""
"null","<span style='color:red; font-size: 70px;'>错误! </span>","null","html-keyboard-response","82","335041","0.0-7.0-1.0-1.0-0.0-1.36","4","4","4","3","4","3","3","4","4","3","4","2","1","5","2","4","3","2","4","5","2","2","1","2","1","2","1","1","2","1","0","1","1","0","0","1","1","0","1","1","0","1","0","1","5","4","4","2","5","","3","4","4","3","2","771469560028336130","吴","696","","","","","","","","","","","","","","","","","","","","","","","","","","","","","","feedback_test","","","","","","","","","","","",""
"715","","f","psychophysics","83","336766","0.0-7.0-1.0-1.0-0.0-0.37","4","4","4","3","4","3","3","4","4","3","4","2","1","5","2","4","3","2","4","5","2","2","1","2","1","2","1","1","2","1","0","1","1","0","0","1","1","0","1","1","0","1","0","1","5","4","4","2","5","","3","4","4","3","2","771469560028336130","吴","696","","","","match","","","","","","","","","","","","","","key","f","16.836465346534727","683","380","f","true","match","img/pentagon.png","五边","五边","ALT1_2","prac_ALT1_2","","","","","","","","","","","",""
"null","<span style='color:GreenYellow; font-size: 70px;'>正确! </span>","null","html-keyboard-response","84","337273","0.0-7.0-1.0-1.0-0.0-1.37","4","4","4","3","4","3","3","4","4","3","4","2","1","5","2","4","3","2","4","5","2","2","1","2","1","2","1","1","2","1","0","1","1","0","0","1","1","0","1","1","0","1","0","1","5","4","4","2","5","","3","4","4","3","2","771469560028336130","吴","696","","","","","","","","","","","","","","","","","","","","","","","","","","","","","","feedback_test","","","","","","","","","","","",""
"823","","f","psychophysics","85","339106","0.0-7.0-1.0-1.0-0.0-0.38","4","4","4","3","4","3","3","4","4","3","4","2","1","5","2","4","3","2","4","5","2","2","1","2","1","2","1","1","2","1","0","1","1","0","0","1","1","0","1","1","0","1","0","1","5","4","4","2","5","","3","4","4","3","2","771469560028336130","吴","696","","","","match","","","","","","","","","","","","","","key","f","16.6602293577984","683","380","f","true","match","img/pentagon.png","五边","五边","ALT1_2","prac_ALT1_2","","","","","","","","","","","",""
"null","<span style='color:GreenYellow; font-size: 70px;'>正确! </span>","null","html-keyboard-response","86","339609","0.0-7.0-1.0-1.0-0.0-1.38","4","4","4","3","4","3","3","4","4","3","4","2","1","5","2","4","3","2","4","5","2","2","1","2","1","2","1","1","2","1","0","1","1","0","0","1","1","0","1","1","0","1","0","1","5","4","4","2","5","","3","4","4","3","2","771469560028336130","吴","696","","","","","","","","","","","","","","","","","","","","","","","","","","","","","","feedback_test","","","","","","","","","","","",""
"842","","f","psychophysics","87","341459","0.0-7.0-1.0-1.0-0.0-0.39","4","4","4","3","4","3","3","4","4","3","4","2","1","5","2","4","3","2","4","5","2","2","1","2","1","2","1","1","2","1","0","1","1","0","0","1","1","0","1","1","0","1","0","1","5","4","4","2","5","","3","4","4","3","2","771469560028336130","吴","696","","","","match","","","","","","","","","","","","","","key","f","16.66641818181855","683","380","f","true","match","img/trapezoid.png","梯形","梯形","ALT1_2","prac_ALT1_2","","","","","","","","","","","",""
"null","<span style='color:GreenYellow; font-size: 70px;'>正确! </span>","null","html-keyboard-response","88","341961","0.0-7.0-1.0-1.0-0.0-1.39","4","4","4","3","4","3","3","4","4","3","4","2","1","5","2","4","3","2","4","5","2","2","1","2","1","2","1","1","2","1","0","1","1","0","0","1","1","0","1","1","0","1","0","1","5","4","4","2","5","","3","4","4","3","2","771469560028336130","吴","696","","","","","","","","","","","","","","","","","","","","","","","","","","","","","","feedback_test","","","","","","","","","","","",""
"845","","j","psychophysics","89","343813","0.0-7.0-1.0-1.0-0.0-0.40","4","4","4","3","4","3","3","4","4","3","4","2","1","5","2","4","3","2","4","5","2","2","1","2","1","2","1","1","2","1","0","1","1","0","0","1","1","0","1","1","0","1","0","1","5","4","4","2","5","","3","4","4","3","2","771469560028336130","吴","696","","","","nonmatch","","","","","","","","","","","","","","key","j","16.669879629629712","683","380","j","true","nonmatch","img/square.png","椭圆","方形","ALT1_2","prac_ALT1_2","","","","","","","","","","","",""
"null","<span style='color:GreenYellow; font-size: 70px;'>正确! </span>","null","html-keyboard-response","90","344322","0.0-7.0-1.0-1.0-0.0-1.40","4","4","4","3","4","3","3","4","4","3","4","2","1","5","2","4","3","2","4","5","2","2","1","2","1","2","1","1","2","1","0","1","1","0","0","1","1","0","1","1","0","1","0","1","5","4","4","2","5","","3","4","4","3","2","771469560028336130","吴","696","","","","","","","","","","","","","","","","","","","","","","","","","","","","","","feedback_test","","","","","","","","","","","",""
"758","","f","psychophysics","91","346091","0.0-7.0-1.0-1.0-0.0-0.41","4","4","4","3","4","3","3","4","4","3","4","2","1","5","2","4","3","2","4","5","2","2","1","2","1","2","1","1","2","1","0","1","1","0","0","1","1","0","1","1","0","1","0","1","5","4","4","2","5","","3","4","4","3","2","771469560028336130","吴","696","","","","match","","","","","","","","","","","","","","key","f","16.824605769230963","683","380","f","true","match","img/ellipse.png","椭圆","椭圆","ALT1_2","prac_ALT1_2","","","","","","","","","","","",""
"null","<span style='color:GreenYellow; font-size: 70px;'>正确! </span>","null","html-keyboard-response","92","346594","0.0-7.0-1.0-1.0-0.0-1.41","4","4","4","3","4","3","3","4","4","3","4","2","1","5","2","4","3","2","4","5","2","2","1","2","1","2","1","1","2","1","0","1","1","0","0","1","1","0","1","1","0","1","0","1","5","4","4","2","5","","3","4","4","3","2","771469560028336130","吴","696","","","","","","","","","","","","","","","","","","","","","","","","","","","","","","feedback_test","","","","","","","","","","","",""
"669","","f","psychophysics","93","348267","0.0-7.0-1.0-1.0-0.0-0.42","4","4","4","3","4","3","3","4","4","3","4","2","1","5","2","4","3","2","4","5","2","2","1","2","1","2","1","1","2","1","0","1","1","0","0","1","1","0","1","1","0","1","0","1","5","4","4","2","5","","3","4","4","3","2","771469560028336130","吴","696","","","","match","","","","","","","","","","","","","","key","f","16.664193877551174","683","380","f","true","match","img/trapezoid.png","梯形","梯形","ALT1_2","prac_ALT1_2","","","","","","","","","","","",""
"null","<span style='color:GreenYellow; font-size: 70px;'>正确! </span>","null","html-keyboard-response","94","348770","0.0-7.0-1.0-1.0-0.0-1.42","4","4","4","3","4","3","3","4","4","3","4","2","1","5","2","4","3","2","4","5","2","2","1","2","1","2","1","1","2","1","0","1","1","0","0","1","1","0","1","1","0","1","0","1","5","4","4","2","5","","3","4","4","3","2","771469560028336130","吴","696","","","","","","","","","","","","","","","","","","","","","","","","","","","","","","feedback_test","","","","","","","","","","","",""
"720","","j","psychophysics","95","350501","0.0-7.0-1.0-1.0-0.0-0.43","4","4","4","3","4","3","3","4","4","3","4","2","1","5","2","4","3","2","4","5","2","2","1","2","1","2","1","1","2","1","0","1","1","0","0","1","1","0","1","1","0","1","0","1","5","4","4","2","5","","3","4","4","3","2","771469560028336130","吴","696","","","","nonmatch","","","","","","","","","","","","","","key","j","16.829059405940455","683","380","j","true","nonmatch","img/pentagon.png","椭圆","五边","ALT1_2","prac_ALT1_2","","","","","","","","","","","",""
"null","<span style='color:GreenYellow; font-size: 70px;'>正确! </span>","null","html-keyboard-response","96","351003","0.0-7.0-1.0-1.0-0.0-1.43","4","4","4","3","4","3","3","4","4","3","4","2","1","5","2","4","3","2","4","5","2","2","1","2","1","2","1","1","2","1","0","1","1","0","0","1","1","0","1","1","0","1","0","1","5","4","4","2","5","","3","4","4","3","2","771469560028336130","吴","696","","","","","","","","","","","","","","","","","","","","","","","","","","","","","","feedback_test","","","","","","","","","","","",""
"722","","f","psychophysics","97","352734","0.0-7.0-1.0-1.0-0.0-0.44","4","4","4","3","4","3","3","4","4","3","4","2","1","5","2","4","3","2","4","5","2","2","1","2","1","2","1","1","2","1","0","1","1","0","0","1","1","0","1","1","0","1","0","1","5","4","4","2","5","","3","4","4","3","2","771469560028336130","吴","696","","","","match","","","","","","","","","","","","","","key","f","16.674067961165086","683","380","f","true","match","img/trapezoid.png","梯形","梯形","ALT1_2","prac_ALT1_2","","","","","","","","","","","",""
"null","<span style='color:GreenYellow; font-size: 70px;'>正确! </span>","null","html-keyboard-response","98","353243","0.0-7.0-1.0-1.0-0.0-1.44","4","4","4","3","4","3","3","4","4","3","4","2","1","5","2","4","3","2","4","5","2","2","1","2","1","2","1","1","2","1","0","1","1","0","0","1","1","0","1","1","0","1","0","1","5","4","4","2","5","","3","4","4","3","2","771469560028336130","吴","696","","","","","","","","","","","","","","","","","","","","","","","","","","","","","","feedback_test","","","","","","","","","","","",""
"802","","j","psychophysics","99","355052","0.0-7.0-1.0-1.0-0.0-0.45","4","4","4","3","4","3","3","4","4","3","4","2","1","5","2","4","3","2","4","5","2","2","1","2","1","2","1","1","2","1","0","1","1","0","0","1","1","0","1","1","0","1","0","1","5","4","4","2","5","","3","4","4","3","2","771469560028336130","吴","696","","","","nonmatch","","","","","","","","","","","","","","key","j","16.6584339622641","683","380","j","true","nonmatch","img/trapezoid.png","椭圆","梯形","ALT1_2","prac_ALT1_2","","","","","","","","","","","",""
"null","<span style='color:GreenYellow; font-size: 70px;'>正确! </span>","null","html-keyboard-response","100","355555","0.0-7.0-1.0-1.0-0.0-1.45","4","4","4","3","4","3","3","4","4","3","4","2","1","5","2","4","3","2","4","5","2","2","1","2","1","2","1","1","2","1","0","1","1","0","0","1","1","0","1","1","0","1","0","1","5","4","4","2","5","","3","4","4","3","2","771469560028336130","吴","696","","","","","","","","","","","","","","","","","","","","","","","","","","","","","","feedback_test","","","","","","","","","","","",""
"714","","f","psychophysics","101","357276","0.0-7.0-1.0-1.0-0.0-0.46","4","4","4","3","4","3","3","4","4","3","4","2","1","5","2","4","3","2","4","5","2","2","1","2","1","2","1","1","2","1","0","1","1","0","0","1","1","0","1","1","0","1","0","1","5","4","4","2","5","","3","4","4","3","2","771469560028336130","吴","696","","","","match","","","","","","","","","","","","","","key","f","16.68204000000027","683","380","f","true","match","img/ellipse.png","椭圆","椭圆","ALT1_2","prac_ALT1_2","","","","","","","","","","","",""
"null","<span style='color:GreenYellow; font-size: 70px;'>正确! </span>","null","html-keyboard-response","102","357778","0.0-7.0-1.0-1.0-0.0-1.46","4","4","4","3","4","3","3","4","4","3","4","2","1","5","2","4","3","2","4","5","2","2","1","2","1","2","1","1","2","1","0","1","1","0","0","1","1","0","1","1","0","1","0","1","5","4","4","2","5","","3","4","4","3","2","771469560028336130","吴","696","","","","","","","","","","","","","","","","","","","","","","","","","","","","","","feedback_test","","","","","","","","","","","",""
"783","","j","psychophysics","103","359566","0.0-7.0-1.0-1.0-0.0-0.47","4","4","4","3","4","3","3","4","4","3","4","2","1","5","2","4","3","2","4","5","2","2","1","2","1","2","1","1","2","1","0","1","1","0","0","1","1","0","1","1","0","1","0","1","5","4","4","2","5","","3","4","4","3","2","771469560028336130","吴","696","","","","nonmatch","","","","","","","","","","","","","","key","j","16.66506666666662","683","380","f","false","match","img/ellipse.png","椭圆","椭圆","ALT1_2","prac_ALT1_2","","","","","","","","","","","",""
"null","<span style='color:red; font-size: 70px;'>错误! </span>","null","html-keyboard-response","104","360075","0.0-7.0-1.0-1.0-0.0-1.47","4","4","4","3","4","3","3","4","4","3","4","2","1","5","2","4","3","2","4","5","2","2","1","2","1","2","1","1","2","1","0","1","1","0","0","1","1","0","1","1","0","1","0","1","5","4","4","2","5","","3","4","4","3","2","771469560028336130","吴","696","","","","","","","","","","","","","","","","","","","","","","","","","","","","","","feedback_test","","","","","","","","","","","",""
"1411","<style>.context{color:white; font-size: 35px; line-height:40px}</style>                          <div><p class='context'>您正确回答了88% 的试次。</p><p class='context'>您的平均反应时为740毫秒。</p><p class='context'>恭喜您完成练习。按空格键进入正式实验。</p><p class='footer' style='font-size: 35px; line-height:40px;'>请在进入正式实验实验之前将您的<span style='color: lightgreen;'>食指</span>放在电脑键盘的相应键位上进行按键。</p>"," ","html-keyboard-response","105","361492","0.0-7.0-1.0-2.0","4","4","4","3","4","3","3","4","4","3","4","2","1","5","2","4","3","2","4","5","2","2","1","2","1","2","1","1","2","1","0","1","1","0","0","1","1","0","1","1","0","1","0","1","5","4","4","2","5","","3","4","4","3","2","771469560028336130","吴","696","","","","","","","","","","","","","","","","","","","","","","","","","","","","","","","","","","","","","","","","","",""
"394","
  <p style='color: white; font-size: 22px'>请您将手指放在按键上，准备进入正式的匹配任务。</p>
  <p> <div style = ""color: green""><按空格键进入下一阶段的匹配任务></div></p>
  "," ","html-keyboard-response","106","361900","0.0-7.0-1.0-3.0","4","4","4","3","4","3","3","4","4","3","4","2","1","5","2","4","3","2","4","5","2","2","1","2","1","2","1","1","2","1","0","1","1","0","0","1","1","0","1","1","0","1","0","1","5","4","4","2","5","","3","4","4","3","2","771469560028336130","吴","696","","","","","","","","","","","","","","","","","","","","","","","","","","","","","","","","","","","","","","","","","",""
"785","","j","psychophysics","107","363691","0.0-7.0-1.0-4.0-0.0-0.0","4","4","4","3","4","3","3","4","4","3","4","2","1","5","2","4","3","2","4","5","2","2","1","2","1","2","1","1","2","1","0","1","1","0","0","1","1","0","1","1","0","1","0","1","5","4","4","2","5","","3","4","4","3","2","771469560028336130","吴","696","","","","nonmatch","","","","","","","","","","","","","","key","j","16.668594339622498","683","380","j","true","nonmatch","img/ellipse.png","梯形","椭圆","ALT1","formal_ALT1_2","","","","","","","","","","","",""
"null","<span style='color:GreenYellow; font-size: 70px;'>正确! </span>","null","html-keyboard-response","108","364195","0.0-7.0-1.0-4.0-0.0-1.0","4","4","4","3","4","3","3","4","4","3","4","2","1","5","2","4","3","2","4","5","2","2","1","2","1","2","1","1","2","1","0","1","1","0","0","1","1","0","1","1","0","1","0","1","5","4","4","2","5","","3","4","4","3","2","771469560028336130","吴","696","","","","","","","","","","","","","","","","","","","","","","","","","","","","","","feedback_test","","","","","","","","","","","",""
"958","","j","psychophysics","109","366156","0.0-7.0-1.0-4.0-0.0-0.1","4","4","4","3","4","3","3","4","4","3","4","2","1","5","2","4","3","2","4","5","2","2","1","2","1","2","1","1","2","1","0","1","1","0","0","1","1","0","1","1","0","1","0","1","5","4","4","2","5","","3","4","4","3","2","771469560028336130","吴","696","","","","nonmatch","","","","","","","","","","","","","","key","j","16.665318965516956","683","380","j","true","nonmatch","img/pentagon.png","梯形","五边","ALT1","formal_ALT1_2","","","","","","","","","","","",""
"null","<span style='color:GreenYellow; font-size: 70px;'>正确! </span>","null","html-keyboard-response","110","366659","0.0-7.0-1.0-4.0-0.0-1.1","4","4","4","3","4","3","3","4","4","3","4","2","1","5","2","4","3","2","4","5","2","2","1","2","1","2","1","1","2","1","0","1","1","0","0","1","1","0","1","1","0","1","0","1","5","4","4","2","5","","3","4","4","3","2","771469560028336130","吴","696","","","","","","","","","","","","","","","","","","","","","","","","","","","","","","feedback_test","","","","","","","","","","","",""
"935","","j","psychophysics","111","368597","0.0-7.0-1.0-4.0-0.0-0.2","4","4","4","3","4","3","3","4","4","3","4","2","1","5","2","4","3","2","4","5","2","2","1","2","1","2","1","1","2","1","0","1","1","0","0","1","1","0","1","1","0","1","0","1","5","4","4","2","5","","3","4","4","3","2","771469560028336130","吴","696","","","","nonmatch","","","","","","","","","","","","","","key","j","16.659763157894638","683","380","j","true","nonmatch","img/square.png","五边","方形","ALT1","formal_ALT1_2","","","","","","","","","","","",""
"null","<span style='color:GreenYellow; font-size: 70px;'>正确! </span>","null","html-keyboard-response","112","369107","0.0-7.0-1.0-4.0-0.0-1.2","4","4","4","3","4","3","3","4","4","3","4","2","1","5","2","4","3","2","4","5","2","2","1","2","1","2","1","1","2","1","0","1","1","0","0","1","1","0","1","1","0","1","0","1","5","4","4","2","5","","3","4","4","3","2","771469560028336130","吴","696","","","","","","","","","","","","","","","","","","","","","","","","","","","","","","feedback_test","","","","","","","","","","","",""
"683","","j","psychophysics","113","370798","0.0-7.0-1.0-4.0-0.0-0.3","4","4","4","3","4","3","3","4","4","3","4","2","1","5","2","4","3","2","4","5","2","2","1","2","1","2","1","1","2","1","0","1","1","0","0","1","1","0","1","1","0","1","0","1","5","4","4","2","5","","3","4","4","3","2","771469560028336130","吴","696","","","","nonmatch","","","","","","","","","","","","","","key","j","16.656353535353457","683","380","j","true","nonmatch","img/square.png","椭圆","方形","ALT1","formal_ALT1_2","","","","","","","","","","","",""
"null","<span style='color:GreenYellow; font-size: 70px;'>正确! </span>","null","html-keyboard-response","114","371307","0.0-7.0-1.0-4.0-0.0-1.3","4","4","4","3","4","3","3","4","4","3","4","2","1","5","2","4","3","2","4","5","2","2","1","2","1","2","1","1","2","1","0","1","1","0","0","1","1","0","1","1","0","1","0","1","5","4","4","2","5","","3","4","4","3","2","771469560028336130","吴","696","","","","","","","","","","","","","","","","","","","","","","","","","","","","","","feedback_test","","","","","","","","","","","",""
"843","","j","psychophysics","115","373155","0.0-7.0-1.0-4.0-0.0-0.4","4","4","4","3","4","3","3","4","4","3","4","2","1","5","2","4","3","2","4","5","2","2","1","2","1","2","1","1","2","1","0","1","1","0","0","1","1","0","1","1","0","1","0","1","5","4","4","2","5","","3","4","4","3","2","771469560028336130","吴","696","","","","nonmatch","","","","","","","","","","","","","","key","j","16.670154545454583","683","380","j","true","nonmatch","img/trapezoid.png","五边","梯形","ALT1","formal_ALT1_2","","","","","","","","","","","",""
"null","<span style='color:GreenYellow; font-size: 70px;'>正确! </span>","null","html-keyboard-response","116","373659","0.0-7.0-1.0-4.0-0.0-1.4","4","4","4","3","4","3","3","4","4","3","4","2","1","5","2","4","3","2","4","5","2","2","1","2","1","2","1","1","2","1","0","1","1","0","0","1","1","0","1","1","0","1","0","1","5","4","4","2","5","","3","4","4","3","2","771469560028336130","吴","696","","","","","","","","","","","","","","","","","","","","","","","","","","","","","","feedback_test","","","","","","","","","","","",""
"637","","j","psychophysics","117","375301","0.0-7.0-1.0-4.0-0.0-0.5","4","4","4","3","4","3","3","4","4","3","4","2","1","5","2","4","3","2","4","5","2","2","1","2","1","2","1","1","2","1","0","1","1","0","0","1","1","0","1","1","0","1","0","1","5","4","4","2","5","","3","4","4","3","2","771469560028336130","吴","696","","","","nonmatch","","","","","","","","","","","","","","key","j","16.842281249999967","683","380","j","true","nonmatch","img/ellipse.png","方形","椭圆","ALT1","formal_ALT1_2","","","","","","","","","","","",""
"null","<span style='color:GreenYellow; font-size: 70px;'>正确! </span>","null","html-keyboard-response","118","375803","0.0-7.0-1.0-4.0-0.0-1.5","4","4","4","3","4","3","3","4","4","3","4","2","1","5","2","4","3","2","4","5","2","2","1","2","1","2","1","1","2","1","0","1","1","0","0","1","1","0","1","1","0","1","0","1","5","4","4","2","5","","3","4","4","3","2","771469560028336130","吴","696","","","","","","","","","","","","","","","","","","","","","","","","","","","","","","feedback_test","","","","","","","","","","","",""
"776","","j","psychophysics","119","377587","0.0-7.0-1.0-4.0-0.0-0.6","4","4","4","3","4","3","3","4","4","3","4","2","1","5","2","4","3","2","4","5","2","2","1","2","1","2","1","1","2","1","0","1","1","0","0","1","1","0","1","1","0","1","0","1","5","4","4","2","5","","3","4","4","3","2","771469560028336130","吴","696","","","","nonmatch","","","","","","","","","","","","","","key","j","16.677207547169672","683","380","j","true","nonmatch","img/ellipse.png","五边","椭圆","ALT1","formal_ALT1_2","","","","","","","","","","","",""
"null","<span style='color:GreenYellow; font-size: 70px;'>正确! </span>","null","html-keyboard-response","120","378091","0.0-7.0-1.0-4.0-0.0-1.6","4","4","4","3","4","3","3","4","4","3","4","2","1","5","2","4","3","2","4","5","2","2","1","2","1","2","1","1","2","1","0","1","1","0","0","1","1","0","1","1","0","1","0","1","5","4","4","2","5","","3","4","4","3","2","771469560028336130","吴","696","","","","","","","","","","","","","","","","","","","","","","","","","","","","","","feedback_test","","","","","","","","","","","",""
"845","","j","psychophysics","121","379939","0.0-7.0-1.0-4.0-0.0-0.7","4","4","4","3","4","3","3","4","4","3","4","2","1","5","2","4","3","2","4","5","2","2","1","2","1","2","1","1","2","1","0","1","1","0","0","1","1","0","1","1","0","1","0","1","5","4","4","2","5","","3","4","4","3","2","771469560028336130","吴","696","","","","nonmatch","","","","","","","","","","","","","","key","j","16.81881651376137","683","380","j","true","nonmatch","img/square.png","梯形","方形","ALT1","formal_ALT1_2","","","","","","","","","","","",""
"null","<span style='color:GreenYellow; font-size: 70px;'>正确! </span>","null","html-keyboard-response","122","380444","0.0-7.0-1.0-4.0-0.0-1.7","4","4","4","3","4","3","3","4","4","3","4","2","1","5","2","4","3","2","4","5","2","2","1","2","1","2","1","1","2","1","0","1","1","0","0","1","1","0","1","1","0","1","0","1","5","4","4","2","5","","3","4","4","3","2","771469560028336130","吴","696","","","","","","","","","","","","","","","","","","","","","","","","","","","","","","feedback_test","","","","","","","","","","","",""
"708","","f","psychophysics","123","382155","0.0-7.0-1.0-4.0-0.0-0.8","4","4","4","3","4","3","3","4","4","3","4","2","1","5","2","4","3","2","4","5","2","2","1","2","1","2","1","1","2","1","0","1","1","0","0","1","1","0","1","1","0","1","0","1","5","4","4","2","5","","3","4","4","3","2","771469560028336130","吴","696","","","","match","","","","","","","","","","","","","","key","f","16.66690099009919","683","380","f","true","match","img/trapezoid.png","梯形","梯形","ALT1","formal_ALT1_2","","","","","","","","","","","",""
"null","<span style='color:GreenYellow; font-size: 70px;'>正确! </span>","null","html-keyboard-response","124","382659","0.0-7.0-1.0-4.0-0.0-1.8","4","4","4","3","4","3","3","4","4","3","4","2","1","5","2","4","3","2","4","5","2","2","1","2","1","2","1","1","2","1","0","1","1","0","0","1","1","0","1","1","0","1","0","1","5","4","4","2","5","","3","4","4","3","2","771469560028336130","吴","696","","","","","","","","","","","","","","","","","","","","","","","","","","","","","","feedback_test","","","","","","","","","","","",""
"709","","f","psychophysics","125","384371","0.0-7.0-1.0-4.0-0.0-0.9","4","4","4","3","4","3","3","4","4","3","4","2","1","5","2","4","3","2","4","5","2","2","1","2","1","2","1","1","2","1","0","1","1","0","0","1","1","0","1","1","0","1","0","1","5","4","4","2","5","","3","4","4","3","2","771469560028336130","吴","696","","","","match","","","","","","","","","","","","","","key","f","16.836439999999712","683","380","f","true","match","img/pentagon.png","五边","五边","ALT1","formal_ALT1_2","","","","","","","","","","","",""
"null","<span style='color:GreenYellow; font-size: 70px;'>正确! </span>","null","html-keyboard-response","126","384874","0.0-7.0-1.0-4.0-0.0-1.9","4","4","4","3","4","3","3","4","4","3","4","2","1","5","2","4","3","2","4","5","2","2","1","2","1","2","1","1","2","1","0","1","1","0","0","1","1","0","1","1","0","1","0","1","5","4","4","2","5","","3","4","4","3","2","771469560028336130","吴","696","","","","","","","","","","","","","","","","","","","","","","","","","","","","","","feedback_test","","","","","","","","","","","",""
"658","","f","psychophysics","127","386539","0.0-7.0-1.0-4.0-0.0-0.10","4","4","4","3","4","3","3","4","4","3","4","2","1","5","2","4","3","2","4","5","2","2","1","2","1","2","1","1","2","1","0","1","1","0","0","1","1","0","1","1","0","1","0","1","5","4","4","2","5","","3","4","4","3","2","771469560028336130","吴","696","","","","match","","","","","","","","","","","","","","key","f","16.831030927835506","683","380","f","true","match","img/pentagon.png","五边","五边","ALT1","formal_ALT1_2","","","","","","","","","","","",""
"null","<span style='color:GreenYellow; font-size: 70px;'>正确! </span>","null","html-keyboard-response","128","387042","0.0-7.0-1.0-4.0-0.0-1.10","4","4","4","3","4","3","3","4","4","3","4","2","1","5","2","4","3","2","4","5","2","2","1","2","1","2","1","1","2","1","0","1","1","0","0","1","1","0","1","1","0","1","0","1","5","4","4","2","5","","3","4","4","3","2","771469560028336130","吴","696","","","","","","","","","","","","","","","","","","","","","","","","","","","","","","feedback_test","","","","","","","","","","","",""
"784","","f","psychophysics","129","388830","0.0-7.0-1.0-4.0-0.0-0.11","4","4","4","3","4","3","3","4","4","3","4","2","1","5","2","4","3","2","4","5","2","2","1","2","1","2","1","1","2","1","0","1","1","0","0","1","1","0","1","1","0","1","0","1","5","4","4","2","5","","3","4","4","3","2","771469560028336130","吴","696","","","","match","","","","","","","","","","","","","","key","f","16.66960000000018","683","380","f","true","match","img/square.png","方形","方形","ALT1","formal_ALT1_2","","","","","","","","","","","",""
"null","<span style='color:GreenYellow; font-size: 70px;'>正确! </span>","null","html-keyboard-response","130","389339","0.0-7.0-1.0-4.0-0.0-1.11","4","4","4","3","4","3","3","4","4","3","4","2","1","5","2","4","3","2","4","5","2","2","1","2","1","2","1","1","2","1","0","1","1","0","0","1","1","0","1","1","0","1","0","1","5","4","4","2","5","","3","4","4","3","2","771469560028336130","吴","696","","","","","","","","","","","","","","","","","","","","","","","","","","","","","","feedback_test","","","","","","","","","","","",""
"472","","f","psychophysics","131","390819","0.0-7.0-1.0-4.0-0.0-0.12","4","4","4","3","4","3","3","4","4","3","4","2","1","5","2","4","3","2","4","5","2","2","1","2","1","2","1","1","2","1","0","1","1","0","0","1","1","0","1","1","0","1","0","1","5","4","4","2","5","","3","4","4","3","2","771469560028336130","吴","696","","","","match","","","","","","","","","","","","","","key","f","16.66210227272743","683","380","f","true","match","img/pentagon.png","五边","五边","ALT1","formal_ALT1_2","","","","","","","","","","","",""
"null","<span style='color:GreenYellow; font-size: 70px;'>正确! </span>","null","html-keyboard-response","132","391323","0.0-7.0-1.0-4.0-0.0-1.12","4","4","4","3","4","3","3","4","4","3","4","2","1","5","2","4","3","2","4","5","2","2","1","2","1","2","1","1","2","1","0","1","1","0","0","1","1","0","1","1","0","1","0","1","5","4","4","2","5","","3","4","4","3","2","771469560028336130","吴","696","","","","","","","","","","","","","","","","","","","","","","","","","","","","","","feedback_test","","","","","","","","","","","",""
"704","","j","psychophysics","133","393035","0.0-7.0-1.0-4.0-0.0-0.13","4","4","4","3","4","3","3","4","4","3","4","2","1","5","2","4","3","2","4","5","2","2","1","2","1","2","1","1","2","1","0","1","1","0","0","1","1","0","1","1","0","1","0","1","5","4","4","2","5","","3","4","4","3","2","771469560028336130","吴","696","","","","nonmatch","","","","","","","","","","","","","","key","j","16.83487128712857","683","380","j","true","nonmatch","img/pentagon.png","方形","五边","ALT1","formal_ALT1_2","","","","","","","","","","","",""
"null","<span style='color:GreenYellow; font-size: 70px;'>正确! </span>","null","html-keyboard-response","134","393539","0.0-7.0-1.0-4.0-0.0-1.13","4","4","4","3","4","3","3","4","4","3","4","2","1","5","2","4","3","2","4","5","2","2","1","2","1","2","1","1","2","1","0","1","1","0","0","1","1","0","1","1","0","1","0","1","5","4","4","2","5","","3","4","4","3","2","771469560028336130","吴","696","","","","","","","","","","","","","","","","","","","","","","","","","","","","","","feedback_test","","","","","","","","","","","",""
"697","","j","psychophysics","135","395246","0.0-7.0-1.0-4.0-0.0-0.14","4","4","4","3","4","3","3","4","4","3","4","2","1","5","2","4","3","2","4","5","2","2","1","2","1","2","1","1","2","1","0","1","1","0","0","1","1","0","1","1","0","1","0","1","5","4","4","2","5","","3","4","4","3","2","771469560028336130","吴","696","","","","nonmatch","","","","","","","","","","","","","","key","j","16.66909900990068","683","380","j","true","nonmatch","img/trapezoid.png","方形","梯形","ALT1","formal_ALT1_2","","","","","","","","","","","",""
"null","<span style='color:GreenYellow; font-size: 70px;'>正确! </span>","null","html-keyboard-response","136","395755","0.0-7.0-1.0-4.0-0.0-1.14","4","4","4","3","4","3","3","4","4","3","4","2","1","5","2","4","3","2","4","5","2","2","1","2","1","2","1","1","2","1","0","1","1","0","0","1","1","0","1","1","0","1","0","1","5","4","4","2","5","","3","4","4","3","2","771469560028336130","吴","696","","","","","","","","","","","","","","","","","","","","","","","","","","","","","","feedback_test","","","","","","","","","","","",""
"718","","f","psychophysics","137","397516","0.0-7.0-1.0-4.0-0.0-0.15","4","4","4","3","4","3","3","4","4","3","4","2","1","5","2","4","3","2","4","5","2","2","1","2","1","2","1","1","2","1","0","1","1","0","0","1","1","0","1","1","0","1","0","1","5","4","4","2","5","","3","4","4","3","2","771469560028336130","吴","696","","","","match","","","","","","","","","","","","","","key","f","16.66670873786438","683","380","f","true","match","img/square.png","方形","方形","ALT1","formal_ALT1_2","","","","","","","","","","","",""
"null","<span style='color:GreenYellow; font-size: 70px;'>正确! </span>","null","html-keyboard-response","138","398019","0.0-7.0-1.0-4.0-0.0-1.15","4","4","4","3","4","3","3","4","4","3","4","2","1","5","2","4","3","2","4","5","2","2","1","2","1","2","1","1","2","1","0","1","1","0","0","1","1","0","1","1","0","1","0","1","5","4","4","2","5","","3","4","4","3","2","771469560028336130","吴","696","","","","","","","","","","","","","","","","","","","","","","","","","","","","","","feedback_test","","","","","","","","","","","",""
"886","","f","psychophysics","139","399915","0.0-7.0-1.0-4.0-0.0-0.16","4","4","4","3","4","3","3","4","4","3","4","2","1","5","2","4","3","2","4","5","2","2","1","2","1","2","1","1","2","1","0","1","1","0","0","1","1","0","1","1","0","1","0","1","5","4","4","2","5","","3","4","4","3","2","771469560028336130","吴","696","","","","match","","","","","","","","","","","","","","key","f","16.81360714285724","683","380","f","true","match","img/trapezoid.png","梯形","梯形","ALT1","formal_ALT1_2","","","","","","","","","","","",""
"null","<span style='color:GreenYellow; font-size: 70px;'>正确! </span>","null","html-keyboard-response","140","400419","0.0-7.0-1.0-4.0-0.0-1.16","4","4","4","3","4","3","3","4","4","3","4","2","1","5","2","4","3","2","4","5","2","2","1","2","1","2","1","1","2","1","0","1","1","0","0","1","1","0","1","1","0","1","0","1","5","4","4","2","5","","3","4","4","3","2","771469560028336130","吴","696","","","","","","","","","","","","","","","","","","","","","","","","","","","","","","feedback_test","","","","","","","","","","","",""
"905","","f","psychophysics","141","402331","0.0-7.0-1.0-4.0-0.0-0.17","4","4","4","3","4","3","3","4","4","3","4","2","1","5","2","4","3","2","4","5","2","2","1","2","1","2","1","1","2","1","0","1","1","0","0","1","1","0","1","1","0","1","0","1","5","4","4","2","5","","3","4","4","3","2","771469560028336130","吴","696","","","","match","","","","","","","","","","","","","","key","f","16.66621238938059","683","380","f","true","match","img/trapezoid.png","梯形","梯形","ALT1","formal_ALT1_2","","","","","","","","","","","",""
"null","<span style='color:GreenYellow; font-size: 70px;'>正确! </span>","null","html-keyboard-response","142","402835","0.0-7.0-1.0-4.0-0.0-1.17","4","4","4","3","4","3","3","4","4","3","4","2","1","5","2","4","3","2","4","5","2","2","1","2","1","2","1","1","2","1","0","1","1","0","0","1","1","0","1","1","0","1","0","1","5","4","4","2","5","","3","4","4","3","2","771469560028336130","吴","696","","","","","","","","","","","","","","","","","","","","","","","","","","","","","","feedback_test","","","","","","","","","","","",""
"655","","f","psychophysics","143","404499","0.0-7.0-1.0-4.0-0.0-0.18","4","4","4","3","4","3","3","4","4","3","4","2","1","5","2","4","3","2","4","5","2","2","1","2","1","2","1","1","2","1","0","1","1","0","0","1","1","0","1","1","0","1","0","1","5","4","4","2","5","","3","4","4","3","2","771469560028336130","吴","696","","","","match","","","","","","","","","","","","","","key","f","16.669383838383546","683","380","f","true","match","img/ellipse.png","椭圆","椭圆","ALT1","formal_ALT1_2","","","","","","","","","","","",""
"null","<span style='color:GreenYellow; font-size: 70px;'>正确! </span>","null","html-keyboard-response","144","405003","0.0-7.0-1.0-4.0-0.0-1.18","4","4","4","3","4","3","3","4","4","3","4","2","1","5","2","4","3","2","4","5","2","2","1","2","1","2","1","1","2","1","0","1","1","0","0","1","1","0","1","1","0","1","0","1","5","4","4","2","5","","3","4","4","3","2","771469560028336130","吴","696","","","","","","","","","","","","","","","","","","","","","","","","","","","","","","feedback_test","","","","","","","","","","","",""
"869","","j","psychophysics","145","406882","0.0-7.0-1.0-4.0-0.0-0.19","4","4","4","3","4","3","3","4","4","3","4","2","1","5","2","4","3","2","4","5","2","2","1","2","1","2","1","1","2","1","0","1","1","0","0","1","1","0","1","1","0","1","0","1","5","4","4","2","5","","3","4","4","3","2","771469560028336130","吴","696","","","","nonmatch","","","","","","","","","","","","","","key","j","16.66814285714281","683","380","j","true","nonmatch","img/pentagon.png","椭圆","五边","ALT1","formal_ALT1_2","","","","","","","","","","","",""
"null","<span style='color:GreenYellow; font-size: 70px;'>正确! </span>","null","html-keyboard-response","146","407387","0.0-7.0-1.0-4.0-0.0-1.19","4","4","4","3","4","3","3","4","4","3","4","2","1","5","2","4","3","2","4","5","2","2","1","2","1","2","1","1","2","1","0","1","1","0","0","1","1","0","1","1","0","1","0","1","5","4","4","2","5","","3","4","4","3","2","771469560028336130","吴","696","","","","","","","","","","","","","","","","","","","","","","","","","","","","","","feedback_test","","","","","","","","","","","",""
"707","","f","psychophysics","147","409099","0.0-7.0-1.0-4.0-0.0-0.20","4","4","4","3","4","3","3","4","4","3","4","2","1","5","2","4","3","2","4","5","2","2","1","2","1","2","1","1","2","1","0","1","1","0","0","1","1","0","1","1","0","1","0","1","5","4","4","2","5","","3","4","4","3","2","771469560028336130","吴","696","","","","match","","","","","","","","","","","","","","key","f","16.828399999999675","683","380","f","true","match","img/ellipse.png","椭圆","椭圆","ALT1","formal_ALT1_2","","","","","","","","","","","",""
"null","<span style='color:GreenYellow; font-size: 70px;'>正确! </span>","null","html-keyboard-response","148","409603","0.0-7.0-1.0-4.0-0.0-1.20","4","4","4","3","4","3","3","4","4","3","4","2","1","5","2","4","3","2","4","5","2","2","1","2","1","2","1","1","2","1","0","1","1","0","0","1","1","0","1","1","0","1","0","1","5","4","4","2","5","","3","4","4","3","2","771469560028336130","吴","696","","","","","","","","","","","","","","","","","","","","","","","","","","","","","","feedback_test","","","","","","","","","","","",""
"794","","f","psychophysics","149","411404","0.0-7.0-1.0-4.0-0.0-0.21","4","4","4","3","4","3","3","4","4","3","4","2","1","5","2","4","3","2","4","5","2","2","1","2","1","2","1","1","2","1","0","1","1","0","0","1","1","0","1","1","0","1","0","1","5","4","4","2","5","","3","4","4","3","2","771469560028336130","吴","696","","","","match","","","","","","","","","","","","","","key","f","16.668495327103166","683","380","f","true","match","img/square.png","方形","方形","ALT1","formal_ALT1_2","","","","","","","","","","","",""
"null","<span style='color:GreenYellow; font-size: 70px;'>正确! </span>","null","html-keyboard-response","150","411907","0.0-7.0-1.0-4.0-0.0-1.21","4","4","4","3","4","3","3","4","4","3","4","2","1","5","2","4","3","2","4","5","2","2","1","2","1","2","1","1","2","1","0","1","1","0","0","1","1","0","1","1","0","1","0","1","5","4","4","2","5","","3","4","4","3","2","771469560028336130","吴","696","","","","","","","","","","","","","","","","","","","","","","","","","","","","","","feedback_test","","","","","","","","","","","",""
"972","","j","psychophysics","151","413884","0.0-7.0-1.0-4.0-0.0-0.22","4","4","4","3","4","3","3","4","4","3","4","2","1","5","2","4","3","2","4","5","2","2","1","2","1","2","1","1","2","1","0","1","1","0","0","1","1","0","1","1","0","1","0","1","5","4","4","2","5","","3","4","4","3","2","771469560028336130","吴","696","","","","nonmatch","","","","","","","","","","","","","","key","j","16.666094827586143","683","380","j","true","nonmatch","img/trapezoid.png","椭圆","梯形","ALT1","formal_ALT1_2","","","","","","","","","","","",""
"null","<span style='color:GreenYellow; font-size: 70px;'>正确! </span>","null","html-keyboard-response","152","414388","0.0-7.0-1.0-4.0-0.0-1.22","4","4","4","3","4","3","3","4","4","3","4","2","1","5","2","4","3","2","4","5","2","2","1","2","1","2","1","1","2","1","0","1","1","0","0","1","1","0","1","1","0","1","0","1","5","4","4","2","5","","3","4","4","3","2","771469560028336130","吴","696","","","","","","","","","","","","","","","","","","","","","","","","","","","","","","feedback_test","","","","","","","","","","","",""
"654","","f","psychophysics","153","416047","0.0-7.0-1.0-4.0-0.0-0.23","4","4","4","3","4","3","3","4","4","3","4","2","1","5","2","4","3","2","4","5","2","2","1","2","1","2","1","1","2","1","0","1","1","0","0","1","1","0","1","1","0","1","0","1","5","4","4","2","5","","3","4","4","3","2","771469560028336130","吴","696","","","","match","","","","","","","","","","","","","","key","f","16.835804123711682","683","380","f","true","match","img/ellipse.png","椭圆","椭圆","ALT1","formal_ALT1_2","","","","","","","","","","","",""
"null","<span style='color:GreenYellow; font-size: 70px;'>正确! </span>","null","html-keyboard-response","154","416556","0.0-7.0-1.0-4.0-0.0-1.23","4","4","4","3","4","3","3","4","4","3","4","2","1","5","2","4","3","2","4","5","2","2","1","2","1","2","1","1","2","1","0","1","1","0","0","1","1","0","1","1","0","1","0","1","5","4","4","2","5","","3","4","4","3","2","771469560028336130","吴","696","","","","","","","","","","","","","","","","","","","","","","","","","","","","","","feedback_test","","","","","","","","","","","",""
"826","","f","psychophysics","155","418388","0.0-7.0-1.0-4.0-0.0-0.24","4","4","4","3","4","3","3","4","4","3","4","2","1","5","2","4","3","2","4","5","2","2","1","2","1","2","1","1","2","1","0","1","1","0","0","1","1","0","1","1","0","1","0","1","5","4","4","2","5","","3","4","4","3","2","771469560028336130","吴","696","","","","match","","","","","","","","","","","","","","key","f","16.66388785046695","683","380","f","true","match","img/trapezoid.png","梯形","梯形","ALT1","formal_ALT1_2","","","","","","","","","","","",""
"null","<span style='color:GreenYellow; font-size: 70px;'>正确! </span>","null","html-keyboard-response","156","418892","0.0-7.0-1.0-4.0-0.0-1.24","4","4","4","3","4","3","3","4","4","3","4","2","1","5","2","4","3","2","4","5","2","2","1","2","1","2","1","1","2","1","0","1","1","0","0","1","1","0","1","1","0","1","0","1","5","4","4","2","5","","3","4","4","3","2","771469560028336130","吴","696","","","","","","","","","","","","","","","","","","","","","","","","","","","","","","feedback_test","","","","","","","","","","","",""
"1037","","j","psychophysics","157","420932","0.0-7.0-1.0-4.0-0.0-0.25","4","4","4","3","4","3","3","4","4","3","4","2","1","5","2","4","3","2","4","5","2","2","1","2","1","2","1","1","2","1","0","1","1","0","0","1","1","0","1","1","0","1","0","1","5","4","4","2","5","","3","4","4","3","2","771469560028336130","吴","696","","","","nonmatch","","","","","","","","","","","","","","key","j","16.665666666666706","683","380","f","false","match","img/pentagon.png","五边","五边","ALT1","formal_ALT1_2","","","","","","","","","","","",""
"null","<span style='color:red; font-size: 70px;'>错误! </span>","null","html-keyboard-response","158","421436","0.0-7.0-1.0-4.0-0.0-1.25","4","4","4","3","4","3","3","4","4","3","4","2","1","5","2","4","3","2","4","5","2","2","1","2","1","2","1","1","2","1","0","1","1","0","0","1","1","0","1","1","0","1","0","1","5","4","4","2","5","","3","4","4","3","2","771469560028336130","吴","696","","","","","","","","","","","","","","","","","","","","","","","","","","","","","","feedback_test","","","","","","","","","","","",""
"819","","f","psychophysics","159","423268","0.0-7.0-1.0-4.0-0.0-0.26","4","4","4","3","4","3","3","4","4","3","4","2","1","5","2","4","3","2","4","5","2","2","1","2","1","2","1","1","2","1","0","1","1","0","0","1","1","0","1","1","0","1","0","1","5","4","4","2","5","","3","4","4","3","2","771469560028336130","吴","696","","","","match","","","","","","","","","","","","","","key","f","16.672036697248043","683","380","f","true","match","img/trapezoid.png","梯形","梯形","ALT1","formal_ALT1_2","","","","","","","","","","","",""
"null","<span style='color:GreenYellow; font-size: 70px;'>正确! </span>","null","html-keyboard-response","160","423772","0.0-7.0-1.0-4.0-0.0-1.26","4","4","4","3","4","3","3","4","4","3","4","2","1","5","2","4","3","2","4","5","2","2","1","2","1","2","1","1","2","1","0","1","1","0","0","1","1","0","1","1","0","1","0","1","5","4","4","2","5","","3","4","4","3","2","771469560028336130","吴","696","","","","","","","","","","","","","","","","","","","","","","","","","","","","","","feedback_test","","","","","","","","","","","",""
"792","","j","psychophysics","161","425572","0.0-7.0-1.0-4.0-0.0-0.27","4","4","4","3","4","3","3","4","4","3","4","2","1","5","2","4","3","2","4","5","2","2","1","2","1","2","1","1","2","1","0","1","1","0","0","1","1","0","1","1","0","1","0","1","5","4","4","2","5","","3","4","4","3","2","771469560028336130","吴","696","","","","nonmatch","","","","","","","","","","","","","","key","j","16.65572380952404","683","380","j","true","nonmatch","img/square.png","梯形","方形","ALT1","formal_ALT1_2","","","","","","","","","","","",""
"null","<span style='color:GreenYellow; font-size: 70px;'>正确! </span>","null","html-keyboard-response","162","426076","0.0-7.0-1.0-4.0-0.0-1.27","4","4","4","3","4","3","3","4","4","3","4","2","1","5","2","4","3","2","4","5","2","2","1","2","1","2","1","1","2","1","0","1","1","0","0","1","1","0","1","1","0","1","0","1","5","4","4","2","5","","3","4","4","3","2","771469560028336130","吴","696","","","","","","","","","","","","","","","","","","","","","","","","","","","","","","feedback_test","","","","","","","","","","","",""
"653","","f","psychophysics","163","427731","0.0-7.0-1.0-4.0-0.0-0.28","4","4","4","3","4","3","3","4","4","3","4","2","1","5","2","4","3","2","4","5","2","2","1","2","1","2","1","1","2","1","0","1","1","0","0","1","1","0","1","1","0","1","0","1","5","4","4","2","5","","3","4","4","3","2","771469560028336130","吴","696","","","","match","","","","","","","","","","","","","","key","f","16.66608163265319","683","380","f","true","match","img/square.png","方形","方形","ALT1","formal_ALT1_2","","","","","","","","","","","",""
"null","<span style='color:GreenYellow; font-size: 70px;'>正确! </span>","null","html-keyboard-response","164","428236","0.0-7.0-1.0-4.0-0.0-1.28","4","4","4","3","4","3","3","4","4","3","4","2","1","5","2","4","3","2","4","5","2","2","1","2","1","2","1","1","2","1","0","1","1","0","0","1","1","0","1","1","0","1","0","1","5","4","4","2","5","","3","4","4","3","2","771469560028336130","吴","696","","","","","","","","","","","","","","","","","","","","","","","","","","","","","","feedback_test","","","","","","","","","","","",""
"686","","f","psychophysics","165","429931","0.0-7.0-1.0-4.0-0.0-0.29","4","4","4","3","4","3","3","4","4","3","4","2","1","5","2","4","3","2","4","5","2","2","1","2","1","2","1","1","2","1","0","1","1","0","0","1","1","0","1","1","0","1","0","1","5","4","4","2","5","","3","4","4","3","2","771469560028336130","吴","696","","","","match","","","","","","","","","","","","","","key","f","16.6611515151512","683","380","j","false","nonmatch","img/ellipse.png","五边","椭圆","ALT1","formal_ALT1_2","","","","","","","","","","","",""
"null","<span style='color:red; font-size: 70px;'>错误! </span>","null","html-keyboard-response","166","430436","0.0-7.0-1.0-4.0-0.0-1.29","4","4","4","3","4","3","3","4","4","3","4","2","1","5","2","4","3","2","4","5","2","2","1","2","1","2","1","1","2","1","0","1","1","0","0","1","1","0","1","1","0","1","0","1","5","4","4","2","5","","3","4","4","3","2","771469560028336130","吴","696","","","","","","","","","","","","","","","","","","","","","","","","","","","","","","feedback_test","","","","","","","","","","","",""
"651","","f","psychophysics","167","432093","0.0-7.0-1.0-4.0-0.0-0.30","4","4","4","3","4","3","3","4","4","3","4","2","1","5","2","4","3","2","4","5","2","2","1","2","1","2","1","1","2","1","0","1","1","0","0","1","1","0","1","1","0","1","0","1","5","4","4","2","5","","3","4","4","3","2","771469560028336130","吴","696","","","","match","","","","","","","","","","","","","","key","f","16.831742268041275","683","380","f","true","match","img/ellipse.png","椭圆","椭圆","ALT1","formal_ALT1_2","","","","","","","","","","","",""
"null","<span style='color:GreenYellow; font-size: 70px;'>正确! </span>","null","html-keyboard-response","168","432596","0.0-7.0-1.0-4.0-0.0-1.30","4","4","4","3","4","3","3","4","4","3","4","2","1","5","2","4","3","2","4","5","2","2","1","2","1","2","1","1","2","1","0","1","1","0","0","1","1","0","1","1","0","1","0","1","5","4","4","2","5","","3","4","4","3","2","771469560028336130","吴","696","","","","","","","","","","","","","","","","","","","","","","","","","","","","","","feedback_test","","","","","","","","","","","",""
"727","","j","psychophysics","169","434331","0.0-7.0-1.0-4.0-0.0-0.31","4","4","4","3","4","3","3","4","4","3","4","2","1","5","2","4","3","2","4","5","2","2","1","2","1","2","1","1","2","1","0","1","1","0","0","1","1","0","1","1","0","1","0","1","5","4","4","2","5","","3","4","4","3","2","771469560028336130","吴","696","","","","nonmatch","","","","","","","","","","","","","","key","j","16.669862745098047","683","380","j","true","nonmatch","img/trapezoid.png","椭圆","梯形","ALT1","formal_ALT1_2","","","","","","","","","","","",""
"null","<span style='color:GreenYellow; font-size: 70px;'>正确! </span>","null","html-keyboard-response","170","434836","0.0-7.0-1.0-4.0-0.0-1.31","4","4","4","3","4","3","3","4","4","3","4","2","1","5","2","4","3","2","4","5","2","2","1","2","1","2","1","1","2","1","0","1","1","0","0","1","1","0","1","1","0","1","0","1","5","4","4","2","5","","3","4","4","3","2","771469560028336130","吴","696","","","","","","","","","","","","","","","","","","","","","","","","","","","","","","feedback_test","","","","","","","","","","","",""
"888","","j","psychophysics","171","436731","0.0-7.0-1.0-4.0-0.0-0.32","4","4","4","3","4","3","3","4","4","3","4","2","1","5","2","4","3","2","4","5","2","2","1","2","1","2","1","1","2","1","0","1","1","0","0","1","1","0","1","1","0","1","0","1","5","4","4","2","5","","3","4","4","3","2","771469560028336130","吴","696","","","","nonmatch","","","","","","","","","","","","","","key","j","16.66718018018045","683","380","j","true","nonmatch","img/trapezoid.png","五边","梯形","ALT1","formal_ALT1_2","","","","","","","","","","","",""
"null","<span style='color:GreenYellow; font-size: 70px;'>正确! </span>","null","html-keyboard-response","172","437236","0.0-7.0-1.0-4.0-0.0-1.32","4","4","4","3","4","3","3","4","4","3","4","2","1","5","2","4","3","2","4","5","2","2","1","2","1","2","1","1","2","1","0","1","1","0","0","1","1","0","1","1","0","1","0","1","5","4","4","2","5","","3","4","4","3","2","771469560028336130","吴","696","","","","","","","","","","","","","","","","","","","","","","","","","","","","","","feedback_test","","","","","","","","","","","",""
"835","","j","psychophysics","173","439077","0.0-7.0-1.0-4.0-0.0-0.33","4","4","4","3","4","3","3","4","4","3","4","2","1","5","2","4","3","2","4","5","2","2","1","2","1","2","1","1","2","1","0","1","1","0","0","1","1","0","1","1","0","1","0","1","5","4","4","2","5","","3","4","4","3","2","771469560028336130","吴","696","","","","nonmatch","","","","","","","","","","","","","","key","j","16.668342592592428","683","380","j","true","nonmatch","img/ellipse.png","梯形","椭圆","ALT1","formal_ALT1_2","","","","","","","","","","","",""
"null","<span style='color:GreenYellow; font-size: 70px;'>正确! </span>","null","html-keyboard-response","174","439587","0.0-7.0-1.0-4.0-0.0-1.33","4","4","4","3","4","3","3","4","4","3","4","2","1","5","2","4","3","2","4","5","2","2","1","2","1","2","1","1","2","1","0","1","1","0","0","1","1","0","1","1","0","1","0","1","5","4","4","2","5","","3","4","4","3","2","771469560028336130","吴","696","","","","","","","","","","","","","","","","","","","","","","","","","","","","","","feedback_test","","","","","","","","","","","",""
"792","","j","psychophysics","175","441387","0.0-7.0-1.0-4.0-0.0-0.34","4","4","4","3","4","3","3","4","4","3","4","2","1","5","2","4","3","2","4","5","2","2","1","2","1","2","1","1","2","1","0","1","1","0","0","1","1","0","1","1","0","1","0","1","5","4","4","2","5","","3","4","4","3","2","771469560028336130","吴","696","","","","nonmatch","","","","","","","","","","","","","","key","j","16.81832075471669","683","380","j","true","nonmatch","img/pentagon.png","方形","五边","ALT1","formal_ALT1_2","","","","","","","","","","","",""
"null","<span style='color:GreenYellow; font-size: 70px;'>正确! </span>","null","html-keyboard-response","176","441892","0.0-7.0-1.0-4.0-0.0-1.34","4","4","4","3","4","3","3","4","4","3","4","2","1","5","2","4","3","2","4","5","2","2","1","2","1","2","1","1","2","1","0","1","1","0","0","1","1","0","1","1","0","1","0","1","5","4","4","2","5","","3","4","4","3","2","771469560028336130","吴","696","","","","","","","","","","","","","","","","","","","","","","","","","","","","","","feedback_test","","","","","","","","","","","",""
"648","","f","psychophysics","177","443547","0.0-7.0-1.0-4.0-0.0-0.35","4","4","4","3","4","3","3","4","4","3","4","2","1","5","2","4","3","2","4","5","2","2","1","2","1","2","1","1","2","1","0","1","1","0","0","1","1","0","1","1","0","1","0","1","5","4","4","2","5","","3","4","4","3","2","771469560028336130","吴","696","","","","match","","","","","","","","","","","","","","key","f","16.667826530612096","683","380","j","false","nonmatch","img/square.png","五边","方形","ALT1","formal_ALT1_2","","","","","","","","","","","",""
"null","<span style='color:red; font-size: 70px;'>错误! </span>","null","html-keyboard-response","178","444052","0.0-7.0-1.0-4.0-0.0-1.35","4","4","4","3","4","3","3","4","4","3","4","2","1","5","2","4","3","2","4","5","2","2","1","2","1","2","1","1","2","1","0","1","1","0","0","1","1","0","1","1","0","1","0","1","5","4","4","2","5","","3","4","4","3","2","771469560028336130","吴","696","","","","","","","","","","","","","","","","","","","","","","","","","","","","","","feedback_test","","","","","","","","","","","",""
"742","","f","psychophysics","179","445803","0.0-7.0-1.0-4.0-0.0-0.36","4","4","4","3","4","3","3","4","4","3","4","2","1","5","2","4","3","2","4","5","2","2","1","2","1","2","1","1","2","1","0","1","1","0","0","1","1","0","1","1","0","1","0","1","5","4","4","2","5","","3","4","4","3","2","771469560028336130","吴","696","","","","match","","","","","","","","","","","","","","key","f","16.66158653846147","683","380","f","true","match","img/ellipse.png","椭圆","椭圆","ALT1","formal_ALT1_2","","","","","","","","","","","",""
"null","<span style='color:GreenYellow; font-size: 70px;'>正确! </span>","null","html-keyboard-response","180","446308","0.0-7.0-1.0-4.0-0.0-1.36","4","4","4","3","4","3","3","4","4","3","4","2","1","5","2","4","3","2","4","5","2","2","1","2","1","2","1","1","2","1","0","1","1","0","0","1","1","0","1","1","0","1","0","1","5","4","4","2","5","","3","4","4","3","2","771469560028336130","吴","696","","","","","","","","","","","","","","","","","","","","","","","","","","","","","","feedback_test","","","","","","","","","","","",""
"676","","f","psychophysics","181","447986","0.0-7.0-1.0-4.0-0.0-0.37","4","4","4","3","4","3","3","4","4","3","4","2","1","5","2","4","3","2","4","5","2","2","1","2","1","2","1","1","2","1","0","1","1","0","0","1","1","0","1","1","0","1","0","1","5","4","4","2","5","","3","4","4","3","2","771469560028336130","吴","696","","","","match","","","","","","","","","","","","","","key","f","16.690040404040534","683","380","f","true","match","img/pentagon.png","五边","五边","ALT1","formal_ALT1_2","","","","","","","","","","","",""
