"rt","stimulus","response","trial_type","trial_index","time_elapsed","internal_node_id","ses_1","ses_2","ses_3","ses_4","ses_5","ses_6","ses_7","ses_8","ses_9","ses_10","coreself_1","coreself_2","coreself_3","coreself_4","coreself_5","coreself_6","coreself_7","coreself_8","coreself_9","coreself_10","SGPS_1","SGPS_2","SGPS_3","SGPS_4","SGPS_5","SGPS_6","SGPS_7","SGPS_8","SGPS_9","NPI1","NPI2","NPI3","NPI4","NPI5","NPI6","NPI7","NPI8","NPI9","NPI10","NPI11","NPI12","NPI13","NPI14","NPI15","hsns_1","hsns_2","hsns_3","hsns_4","hsns_5","trap1","hsns_6","hsns_7","hsns_8","hsns_9","hsns_10","subj_idx","friend_name","ParticipantID","value","success","user_agent","responses","item_order","radio_event_ids","radio_event_times","key_event_times","mouse_event_times","straightlining","zigzagging","honeypot","timeout","failed_images","failed_audio","failed_video","view_history","response_type","key_press","avg_frame_time","center_x","center_y","correct_response","correct","identity","Image","word","condition","task_id","screen_id","time_stamp","version_attrib2","version_target2","IAT","RT","varname","summary","version_attrib","version_target","question_order","correct_answer","trap1_item"
"18737","
   <p><div style = ""color: white;font-size:25px;"">您好，欢迎参加本次实验。</div> </p>
   <p><div style = ""color: white;font-size:25px;"">为充分保障您的权利，请确保您已经知晓并同意《参与实验同意书》以及《数据公开知情同意书》。</div></p>
   <p><div style = ""color: white;font-size:25px;"">如果您未见过上述内容，请咨询实验员。</div></p>
   <p><div style = ""color: white;font-size:25px;"">如果您选择继续实验，则表示您已经清楚两份知情同意书的内容并同意。</div></p>
   <p><div style = ""color: pink;font-size:30px;"">请确保您记得day0的实验编号，您将在本次实验输入该编号，若您忘记，请咨询实验员后作答。</div></p>
   <p><div style = ""color: lightblue;font-size:25px;"">请您尽可能认真地作答，我们将依据您在各问卷和按键任务中的作答质量发放报酬。</div></p>
   <p> <div style = ""color: green;font-size:25px;""><按空格键至下页></div> </p>
   "," ","html-keyboard-response","0","18742","0.0-0.0","3","3","4","3","4","3","3","4","3","3","4","4","4","4","4","4","4","3","4","4","2","2","2","1","2","2","1","1","1","1","0","0","0","0","0","0","0","0","1","1","0","1","0","0","4","2","3","2","2","1","2","3","2","2","1","594948255830245376","张","422","","","","","","","","","","","","","","","","","","","","","","","","","","","","","","","","","","","","","","","","","",""
"","","","call-function","1","18745","0.0-1.0-0.0","3","3","4","3","4","3","3","4","3","3","4","4","4","4","4","4","4","3","4","4","2","2","2","1","2","2","1","1","1","1","0","0","0","0","0","0","0","0","1","1","0","1","0","0","4","2","3","2","2","1","2","3","2","2","1","594948255830245376","张","422","","","","","","","","","","","","","","","","","","","","","","","","","","","","","","","","","","","","","","","","","",""
"29162","","{""friend_name"":""张"",""ParticipantID"":""422""}","survey-html-form","2","47908","0.0-1.0-1.0","3","3","4","3","4","3","3","4","3","3","4","4","4","4","4","4","4","3","4","4","2","2","2","1","2","2","1","1","1","1","0","0","0","0","0","0","0","0","1","1","0","1","0","0","4","2","3","2","2","1","2","3","2","2","1","594948255830245376","张","422","","","","","","","","","","","","","","","","","","","","","","","","","","","","","","","","","","","","","","","","","",""
"","","","fullscreen","3","54503","0.0-2.0","3","3","4","3","4","3","3","4","3","3","4","4","4","4","4","4","4","3","4","4","2","2","2","1","2","2","1","1","1","1","0","0","0","0","0","0","0","0","1","1","0","1","0","0","4","2","3","2","2","1","2","3","2","2","1","594948255830245376","张","422","","true","{}","","","","","","","","","","","","","","","","","","","","","","","","","","","","","","","","","","","","","","",""
"71582.79999999993","","{""Q01"":""3"",""Q02"":""3"",""Q03"":""4"",""Q04"":""3"",""Q05"":""4"",""Q06"":""3"",""Q07"":""3"",""Q08"":""4"",""Q09"":""3"",""Q10"":""3""}","survey-template","4","126089","0.0-3.0","3","3","4","3","4","3","3","4","3","3","4","4","4","4","4","4","4","3","4","4","2","2","2","1","2","2","1","1","1","1","0","0","0","0","0","0","0","0","1","1","0","1","0","0","4","2","3","2","2","1","2","3","2","2","1","594948255830245376","张","422","","","","{""Q01"":""3"",""Q02"":""3"",""Q03"":""4"",""Q04"":""3"",""Q05"":""4"",""Q06"":""3"",""Q07"":""3"",""Q08"":""4"",""Q09"":""3"",""Q10"":""3""}","[0,1,2,3,4,5,6,7,8,9]","[""Q01"",""Q02"",""Q03"",""Q04"",""Q05"",""Q06"",""Q07"",""Q08"",""Q09"",""Q10"",""Q10"",""Q09""]","[15243.099999999977,18467.699999999953,21545.699999999953,23712.199999999953,30606.199999999953,35724.19999999995,38413.899999999965,43495.29999999999,56527.19999999995,63273.40000000002,68176.5,70041.5]","[]","[15243.099999999977,18467.699999999953,20292.899999999965,21545.699999999953,23712.199999999953,30606.199999999953,35724.19999999995,38413.899999999965,42209,43495.29999999999,56527.19999999995,63273.40000000002,68176.5,70041.5,71580.59999999998]","0.5","0.1111111111111111","0","","","","","","","","","","","","","","","","","","","","","","","","","","","","","",""
"72803","","{""Q01"":""4"",""Q02"":""4"",""Q03"":""4"",""Q04"":""4"",""Q05"":""4"",""Q06"":""4"",""Q07"":""4"",""Q08"":""3"",""Q09"":""4"",""Q10"":""4""}","survey-template","5","198903","0.0-4.0","3","3","4","3","4","3","3","4","3","3","4","4","4","4","4","4","4","3","4","4","2","2","2","1","2","2","1","1","1","1","0","0","0","0","0","0","0","0","1","1","0","1","0","0","4","2","3","2","2","1","2","3","2","2","1","594948255830245376","张","422","","","","{""Q01"":""4"",""Q02"":""4"",""Q03"":""4"",""Q04"":""4"",""Q05"":""4"",""Q06"":""4"",""Q07"":""4"",""Q08"":""3"",""Q09"":""4"",""Q10"":""4""}","[0,1,2,3,4,5,6,7,8,9]","[""Q01"",""Q02"",""Q03"",""Q04"",""Q05"",""Q06"",""Q07"",""Q08"",""Q09"",""Q10""]","[7447.300000000047,8908.400000000023,13559.5,19954.600000000093,35009,37600.70000000007,46049.80000000005,49386.80000000005,62620.20000000007,70186.30000000005]","[]","[5680.800000000047,7447.300000000047,8908.400000000023,12361.100000000093,13559.5,19954.600000000093,35009,37600.70000000007,46049.80000000005,49386.80000000005,62620.20000000007,70186.30000000005,72800.40000000002]","0.5","0.2222222222222222","0","","","","","","","","","","","","","","","","","","","","","","","","","","","","","",""
"","","","preload","6","199025","0.0-5.0","3","3","4","3","4","3","3","4","3","3","4","4","4","4","4","4","4","3","4","4","2","2","2","1","2","2","1","1","1","1","0","0","0","0","0","0","0","0","1","1","0","1","0","0","4","2","3","2","2","1","2","3","2","2","1","594948255830245376","张","422","","true","","","","","","","","","","","false","[]","[]","[]","","","","","","","","","","","","","","","","","","","","","","","","","",""
"43783","","","instructions","7","242810","0.0-6.0","3","3","4","3","4","3","3","4","3","3","4","4","4","4","4","4","4","3","4","4","2","2","2","1","2","2","1","1","1","1","0","0","0","0","0","0","0","0","1","1","0","1","0","0","4","2","3","2","2","1","2","3","2","2","1","594948255830245376","张","422","","","","","","","","","","","","","","","","","[{""page_index"":0,""viewing_time"":43782}]","","","","","","","","","","","","","","","","","","","","","","","","",""
"25009","","","instructions","8","267822","0.0-7.0-0.0-0.0","3","3","4","3","4","3","3","4","3","3","4","4","4","4","4","4","4","3","4","4","2","2","2","1","2","2","1","1","1","1","0","0","0","0","0","0","0","0","1","1","0","1","0","0","4","2","3","2","2","1","2","3","2","2","1","594948255830245376","张","422","","","","","","","","","","","","","","","","","[{""page_index"":0,""viewing_time"":18569},{""page_index"":1,""viewing_time"":4029},{""page_index"":2,""viewing_time"":2410}]","","","","","","","","","","","","","","","","","","","","","","","","",""
"707","","f","psychophysics","9","269536","0.0-7.0-0.0-1.0-0.0-0.0","3","3","4","3","4","3","3","4","3","3","4","4","4","4","4","4","4","3","4","4","2","2","2","1","2","2","1","1","1","1","0","0","0","0","0","0","0","0","1","1","0","1","0","0","4","2","3","2","2","1","2","3","2","2","1","594948255830245376","张","422","","","","match","","","","","","","","","","","","","","key","f","16.64901960784325","640","356","j","false","nonmatch","img/pentagon.png","圆形","五边","ALT1_1","prac_ALT1_1","","","","","","","","","","","",""
"null","<span style='color:red; font-size: 70px;'>错误! </span>","null","html-keyboard-response","10","270041","0.0-7.0-0.0-1.0-0.0-1.0","3","3","4","3","4","3","3","4","3","3","4","4","4","4","4","4","4","3","4","4","2","2","2","1","2","2","1","1","1","1","0","0","0","0","0","0","0","0","1","1","0","1","0","0","4","2","3","2","2","1","2","3","2","2","1","594948255830245376","张","422","","","","","","","","","","","","","","","","","","","","","","","","","","","","","","feedback_test","","","","","","","","","","","",""
"895","","f","psychophysics","11","271940","0.0-7.0-0.0-1.0-0.0-0.1","3","3","4","3","4","3","3","4","3","3","4","4","4","4","4","4","4","3","4","4","2","2","2","1","2","2","1","1","1","1","0","0","0","0","0","0","0","0","1","1","0","1","0","0","4","2","3","2","2","1","2","3","2","2","1","594948255830245376","张","422","","","","match","","","","","","","","","","","","","","key","f","16.651327433628627","640","356","f","true","match","img/trapezoid.png","梯形","梯形","ALT1_1","prac_ALT1_1","","","","","","","","","","","",""
"null","<span style='color:GreenYellow; font-size: 70px;'>正确! </span>","null","html-keyboard-response","12","272442","0.0-7.0-0.0-1.0-0.0-1.1","3","3","4","3","4","3","3","4","3","3","4","4","4","4","4","4","4","3","4","4","2","2","2","1","2","2","1","1","1","1","0","0","0","0","0","0","0","0","1","1","0","1","0","0","4","2","3","2","2","1","2","3","2","2","1","594948255830245376","张","422","","","","","","","","","","","","","","","","","","","","","","","","","","","","","","feedback_test","","","","","","","","","","","",""
"703","","j","psychophysics","13","274174","0.0-7.0-0.0-1.0-0.0-0.2","3","3","4","3","4","3","3","4","3","3","4","4","4","4","4","4","4","3","4","4","2","2","2","1","2","2","1","1","1","1","0","0","0","0","0","0","0","0","1","1","0","1","0","0","4","2","3","2","2","1","2","3","2","2","1","594948255830245376","张","422","","","","nonmatch","","","","","","","","","","","","","","key","j","16.645631067961165","640","356","f","false","match","img/pentagon.png","五边","五边","ALT1_1","prac_ALT1_1","","","","","","","","","","","",""
"null","<span style='color:red; font-size: 70px;'>错误! </span>","null","html-keyboard-response","14","274678","0.0-7.0-0.0-1.0-0.0-1.2","3","3","4","3","4","3","3","4","3","3","4","4","4","4","4","4","4","3","4","4","2","2","2","1","2","2","1","1","1","1","0","0","0","0","0","0","0","0","1","1","0","1","0","0","4","2","3","2","2","1","2","3","2","2","1","594948255830245376","张","422","","","","","","","","","","","","","","","","","","","","","","","","","","","","","","feedback_test","","","","","","","","","","","",""
"732","","j","psychophysics","15","276425","0.0-7.0-0.0-1.0-0.0-0.3","3","3","4","3","4","3","3","4","3","3","4","4","4","4","4","4","4","3","4","4","2","2","2","1","2","2","1","1","1","1","0","0","0","0","0","0","0","0","1","1","0","1","0","0","4","2","3","2","2","1","2","3","2","2","1","594948255830245376","张","422","","","","nonmatch","","","","","","","","","","","","","","key","j","16.649514563106457","640","356","j","true","nonmatch","img/pentagon.png","梯形","五边","ALT1_1","prac_ALT1_1","","","","","","","","","","","",""
"null","<span style='color:GreenYellow; font-size: 70px;'>正确! </span>","null","html-keyboard-response","16","276936","0.0-7.0-0.0-1.0-0.0-1.3","3","3","4","3","4","3","3","4","3","3","4","4","4","4","4","4","4","3","4","4","2","2","2","1","2","2","1","1","1","1","0","0","0","0","0","0","0","0","1","1","0","1","0","0","4","2","3","2","2","1","2","3","2","2","1","594948255830245376","张","422","","","","","","","","","","","","","","","","","","","","","","","","","","","","","","feedback_test","","","","","","","","","","","",""
"677","","j","psychophysics","17","278616","0.0-7.0-0.0-1.0-0.0-0.4","3","3","4","3","4","3","3","4","3","3","4","4","4","4","4","4","4","3","4","4","2","2","2","1","2","2","1","1","1","1","0","0","0","0","0","0","0","0","1","1","0","1","0","0","4","2","3","2","2","1","2","3","2","2","1","594948255830245376","张","422","","","","nonmatch","","","","","","","","","","","","","","key","j","16.642999999999883","640","356","j","true","nonmatch","img/diamond.png","梯形","菱形","ALT1_1","prac_ALT1_1","","","","","","","","","","","",""
"null","<span style='color:GreenYellow; font-size: 70px;'>正确! </span>","null","html-keyboard-response","18","279118","0.0-7.0-0.0-1.0-0.0-1.4","3","3","4","3","4","3","3","4","3","3","4","4","4","4","4","4","4","3","4","4","2","2","2","1","2","2","1","1","1","1","0","0","0","0","0","0","0","0","1","1","0","1","0","0","4","2","3","2","2","1","2","3","2","2","1","594948255830245376","张","422","","","","","","","","","","","","","","","","","","","","","","","","","","","","","","feedback_test","","","","","","","","","","","",""
"659","","j","psychophysics","19","280791","0.0-7.0-0.0-1.0-0.0-0.5","3","3","4","3","4","3","3","4","3","3","4","4","4","4","4","4","4","3","4","4","2","2","2","1","2","2","1","1","1","1","0","0","0","0","0","0","0","0","1","1","0","1","0","0","4","2","3","2","2","1","2","3","2","2","1","594948255830245376","张","422","","","","nonmatch","","","","","","","","","","","","","","key","j","16.652000000000115","640","356","j","true","nonmatch","img/circle.png","菱形","圆形","ALT1_1","prac_ALT1_1","","","","","","","","","","","",""
"null","<span style='color:GreenYellow; font-size: 70px;'>正确! </span>","null","html-keyboard-response","20","281297","0.0-7.0-0.0-1.0-0.0-1.5","3","3","4","3","4","3","3","4","3","3","4","4","4","4","4","4","4","3","4","4","2","2","2","1","2","2","1","1","1","1","0","0","0","0","0","0","0","0","1","1","0","1","0","0","4","2","3","2","2","1","2","3","2","2","1","594948255830245376","张","422","","","","","","","","","","","","","","","","","","","","","","","","","","","","","","feedback_test","","","","","","","","","","","",""
"731","","j","psychophysics","21","283035","0.0-7.0-0.0-1.0-0.0-0.6","3","3","4","3","4","3","3","4","3","3","4","4","4","4","4","4","4","3","4","4","2","2","2","1","2","2","1","1","1","1","0","0","0","0","0","0","0","0","1","1","0","1","0","0","4","2","3","2","2","1","2","3","2","2","1","594948255830245376","张","422","","","","nonmatch","","","","","","","","","","","","","","key","j","16.65145631067995","640","356","j","true","nonmatch","img/trapezoid.png","菱形","梯形","ALT1_1","prac_ALT1_1","","","","","","","","","","","",""
"null","<span style='color:GreenYellow; font-size: 70px;'>正确! </span>","null","html-keyboard-response","22","283543","0.0-7.0-0.0-1.0-0.0-1.6","3","3","4","3","4","3","3","4","3","3","4","4","4","4","4","4","4","3","4","4","2","2","2","1","2","2","1","1","1","1","0","0","0","0","0","0","0","0","1","1","0","1","0","0","4","2","3","2","2","1","2","3","2","2","1","594948255830245376","张","422","","","","","","","","","","","","","","","","","","","","","","","","","","","","","","feedback_test","","","","","","","","","","","",""
"545","","f","psychophysics","23","285093","0.0-7.0-0.0-1.0-0.0-0.7","3","3","4","3","4","3","3","4","3","3","4","4","4","4","4","4","4","3","4","4","2","2","2","1","2","2","1","1","1","1","0","0","0","0","0","0","0","0","1","1","0","1","0","0","4","2","3","2","2","1","2","3","2","2","1","594948255830245376","张","422","","","","match","","","","","","","","","","","","","","key","f","16.651086956521993","640","356","f","true","match","img/circle.png","圆形","圆形","ALT1_1","prac_ALT1_1","","","","","","","","","","","",""
"null","<span style='color:GreenYellow; font-size: 70px;'>正确! </span>","null","html-keyboard-response","24","285596","0.0-7.0-0.0-1.0-0.0-1.7","3","3","4","3","4","3","3","4","3","3","4","4","4","4","4","4","4","3","4","4","2","2","2","1","2","2","1","1","1","1","0","0","0","0","0","0","0","0","1","1","0","1","0","0","4","2","3","2","2","1","2","3","2","2","1","594948255830245376","张","422","","","","","","","","","","","","","","","","","","","","","","","","","","","","","","feedback_test","","","","","","","","","","","",""
"724","","f","psychophysics","25","287339","0.0-7.0-0.0-1.0-0.0-0.8","3","3","4","3","4","3","3","4","3","3","4","4","4","4","4","4","4","3","4","4","2","2","2","1","2","2","1","1","1","1","0","0","0","0","0","0","0","0","1","1","0","1","0","0","4","2","3","2","2","1","2","3","2","2","1","594948255830245376","张","422","","","","match","","","","","","","","","","","","","","key","f","16.65480769230803","640","356","f","true","match","img/diamond.png","菱形","菱形","ALT1_1","prac_ALT1_1","","","","","","","","","","","",""
"null","<span style='color:GreenYellow; font-size: 70px;'>正确! </span>","null","html-keyboard-response","26","287844","0.0-7.0-0.0-1.0-0.0-1.8","3","3","4","3","4","3","3","4","3","3","4","4","4","4","4","4","4","3","4","4","2","2","2","1","2","2","1","1","1","1","0","0","0","0","0","0","0","0","1","1","0","1","0","0","4","2","3","2","2","1","2","3","2","2","1","594948255830245376","张","422","","","","","","","","","","","","","","","","","","","","","","","","","","","","","","feedback_test","","","","","","","","","","","",""
"670","","j","psychophysics","27","289518","0.0-7.0-0.0-1.0-0.0-0.9","3","3","4","3","4","3","3","4","3","3","4","4","4","4","4","4","4","3","4","4","2","2","2","1","2","2","1","1","1","1","0","0","0","0","0","0","0","0","1","1","0","1","0","0","4","2","3","2","2","1","2","3","2","2","1","594948255830245376","张","422","","","","nonmatch","","","","","","","","","","","","","","key","j","16.655","640","356","j","true","nonmatch","img/trapezoid.png","五边","梯形","ALT1_1","prac_ALT1_1","","","","","","","","","","","",""
"null","<span style='color:GreenYellow; font-size: 70px;'>正确! </span>","null","html-keyboard-response","28","290021","0.0-7.0-0.0-1.0-0.0-1.9","3","3","4","3","4","3","3","4","3","3","4","4","4","4","4","4","4","3","4","4","2","2","2","1","2","2","1","1","1","1","0","0","0","0","0","0","0","0","1","1","0","1","0","0","4","2","3","2","2","1","2","3","2","2","1","594948255830245376","张","422","","","","","","","","","","","","","","","","","","","","","","","","","","","","","","feedback_test","","","","","","","","","","","",""
"580","","j","psychophysics","29","291602","0.0-7.0-0.0-1.0-0.0-0.10","3","3","4","3","4","3","3","4","3","3","4","4","4","4","4","4","4","3","4","4","2","2","2","1","2","2","1","1","1","1","0","0","0","0","0","0","0","0","1","1","0","1","0","0","4","2","3","2","2","1","2","3","2","2","1","594948255830245376","张","422","","","","nonmatch","","","","","","","","","","","","","","key","j","16.652127659574344","640","356","f","false","match","img/trapezoid.png","梯形","梯形","ALT1_1","prac_ALT1_1","","","","","","","","","","","",""
"null","<span style='color:red; font-size: 70px;'>错误! </span>","null","html-keyboard-response","30","292105","0.0-7.0-0.0-1.0-0.0-1.10","3","3","4","3","4","3","3","4","3","3","4","4","4","4","4","4","4","3","4","4","2","2","2","1","2","2","1","1","1","1","0","0","0","0","0","0","0","0","1","1","0","1","0","0","4","2","3","2","2","1","2","3","2","2","1","594948255830245376","张","422","","","","","","","","","","","","","","","","","","","","","","","","","","","","","","feedback_test","","","","","","","","","","","",""
"702","","j","psychophysics","31","293824","0.0-7.0-0.0-1.0-0.0-0.11","3","3","4","3","4","3","3","4","3","3","4","4","4","4","4","4","4","3","4","4","2","2","2","1","2","2","1","1","1","1","0","0","0","0","0","0","0","0","1","1","0","1","0","0","4","2","3","2","2","1","2","3","2","2","1","594948255830245376","张","422","","","","nonmatch","","","","","","","","","","","","","","key","j","16.651960784313726","640","356","j","true","nonmatch","img/diamond.png","圆形","菱形","ALT1_1","prac_ALT1_1","","","","","","","","","","","",""
"null","<span style='color:GreenYellow; font-size: 70px;'>正确! </span>","null","html-keyboard-response","32","294326","0.0-7.0-0.0-1.0-0.0-1.11","3","3","4","3","4","3","3","4","3","3","4","4","4","4","4","4","4","3","4","4","2","2","2","1","2","2","1","1","1","1","0","0","0","0","0","0","0","0","1","1","0","1","0","0","4","2","3","2","2","1","2","3","2","2","1","594948255830245376","张","422","","","","","","","","","","","","","","","","","","","","","","","","","","","","","","feedback_test","","","","","","","","","","","",""
"601","","f","psychophysics","33","295930","0.0-7.0-0.0-1.0-0.0-0.12","3","3","4","3","4","3","3","4","3","3","4","4","4","4","4","4","4","3","4","4","2","2","2","1","2","2","1","1","1","1","0","0","0","0","0","0","0","0","1","1","0","1","0","0","4","2","3","2","2","1","2","3","2","2","1","594948255830245376","张","422","","","","match","","","","","","","","","","","","","","key","f","16.653684210526684","640","356","f","true","match","img/circle.png","圆形","圆形","ALT1_1","prac_ALT1_1","","","","","","","","","","","",""
"null","<span style='color:GreenYellow; font-size: 70px;'>正确! </span>","null","html-keyboard-response","34","296434","0.0-7.0-0.0-1.0-0.0-1.12","3","3","4","3","4","3","3","4","3","3","4","4","4","4","4","4","4","3","4","4","2","2","2","1","2","2","1","1","1","1","0","0","0","0","0","0","0","0","1","1","0","1","0","0","4","2","3","2","2","1","2","3","2","2","1","594948255830245376","张","422","","","","","","","","","","","","","","","","","","","","","","","","","","","","","","feedback_test","","","","","","","","","","","",""
"660","","f","psychophysics","35","298100","0.0-7.0-0.0-1.0-0.0-0.13","3","3","4","3","4","3","3","4","3","3","4","4","4","4","4","4","4","3","4","4","2","2","2","1","2","2","1","1","1","1","0","0","0","0","0","0","0","0","1","1","0","1","0","0","4","2","3","2","2","1","2","3","2","2","1","594948255830245376","张","422","","","","match","","","","","","","","","","","","","","key","f","16.654545454545335","640","356","f","true","match","img/pentagon.png","五边","五边","ALT1_1","prac_ALT1_1","","","","","","","","","","","",""
"null","<span style='color:GreenYellow; font-size: 70px;'>正确! </span>","null","html-keyboard-response","36","298603","0.0-7.0-0.0-1.0-0.0-1.13","3","3","4","3","4","3","3","4","3","3","4","4","4","4","4","4","4","3","4","4","2","2","2","1","2","2","1","1","1","1","0","0","0","0","0","0","0","0","1","1","0","1","0","0","4","2","3","2","2","1","2","3","2","2","1","594948255830245376","张","422","","","","","","","","","","","","","","","","","","","","","","","","","","","","","","feedback_test","","","","","","","","","","","",""
"732","","f","psychophysics","37","300370","0.0-7.0-0.0-1.0-0.0-0.14","3","3","4","3","4","3","3","4","3","3","4","4","4","4","4","4","4","3","4","4","2","2","2","1","2","2","1","1","1","1","0","0","0","0","0","0","0","0","1","1","0","1","0","0","4","2","3","2","2","1","2","3","2","2","1","594948255830245376","张","422","","","","match","","","","","","","","","","","","","","key","f","16.654807692307468","640","356","f","true","match","img/diamond.png","菱形","菱形","ALT1_1","prac_ALT1_1","","","","","","","","","","","",""
"null","<span style='color:GreenYellow; font-size: 70px;'>正确! </span>","null","html-keyboard-response","38","300875","0.0-7.0-0.0-1.0-0.0-1.14","3","3","4","3","4","3","3","4","3","3","4","4","4","4","4","4","4","3","4","4","2","2","2","1","2","2","1","1","1","1","0","0","0","0","0","0","0","0","1","1","0","1","0","0","4","2","3","2","2","1","2","3","2","2","1","594948255830245376","张","422","","","","","","","","","","","","","","","","","","","","","","","","","","","","","","feedback_test","","","","","","","","","","","",""
"623","","f","psychophysics","39","302506","0.0-7.0-0.0-1.0-0.0-0.15","3","3","4","3","4","3","3","4","3","3","4","4","4","4","4","4","4","3","4","4","2","2","2","1","2","2","1","1","1","1","0","0","0","0","0","0","0","0","1","1","0","1","0","0","4","2","3","2","2","1","2","3","2","2","1","594948255830245376","张","422","","","","match","","","","","","","","","","","","","","key","f","16.65360824742232","640","356","f","true","match","img/trapezoid.png","梯形","梯形","ALT1_1","prac_ALT1_1","","","","","","","","","","","",""
"null","<span style='color:GreenYellow; font-size: 70px;'>正确! </span>","null","html-keyboard-response","40","303012","0.0-7.0-0.0-1.0-0.0-1.15","3","3","4","3","4","3","3","4","3","3","4","4","4","4","4","4","4","3","4","4","2","2","2","1","2","2","1","1","1","1","0","0","0","0","0","0","0","0","1","1","0","1","0","0","4","2","3","2","2","1","2","3","2","2","1","594948255830245376","张","422","","","","","","","","","","","","","","","","","","","","","","","","","","","","","","feedback_test","","","","","","","","","","","",""
"677","","j","psychophysics","41","304692","0.0-7.0-0.0-1.0-0.0-0.16","3","3","4","3","4","3","3","4","3","3","4","4","4","4","4","4","4","3","4","4","2","2","2","1","2","2","1","1","1","1","0","0","0","0","0","0","0","0","1","1","0","1","0","0","4","2","3","2","2","1","2","3","2","2","1","594948255830245376","张","422","","","","nonmatch","","","","","","","","","","","","","","key","j","16.654000000000234","640","356","j","true","nonmatch","img/circle.png","梯形","圆形","ALT1_1","prac_ALT1_1","","","","","","","","","","","",""
"null","<span style='color:GreenYellow; font-size: 70px;'>正确! </span>","null","html-keyboard-response","42","305194","0.0-7.0-0.0-1.0-0.0-1.16","3","3","4","3","4","3","3","4","3","3","4","4","4","4","4","4","4","3","4","4","2","2","2","1","2","2","1","1","1","1","0","0","0","0","0","0","0","0","1","1","0","1","0","0","4","2","3","2","2","1","2","3","2","2","1","594948255830245376","张","422","","","","","","","","","","","","","","","","","","","","","","","","","","","","","","feedback_test","","","","","","","","","","","",""
"645","","j","psychophysics","43","306847","0.0-7.0-0.0-1.0-0.0-0.17","3","3","4","3","4","3","3","4","3","3","4","4","4","4","4","4","4","3","4","4","2","2","2","1","2","2","1","1","1","1","0","0","0","0","0","0","0","0","1","1","0","1","0","0","4","2","3","2","2","1","2","3","2","2","1","594948255830245376","张","422","","","","nonmatch","","","","","","","","","","","","","","key","j","16.655102040816445","640","356","j","true","nonmatch","img/circle.png","五边","圆形","ALT1_1","prac_ALT1_1","","","","","","","","","","","",""
"null","<span style='color:GreenYellow; font-size: 70px;'>正确! </span>","null","html-keyboard-response","44","307350","0.0-7.0-0.0-1.0-0.0-1.17","3","3","4","3","4","3","3","4","3","3","4","4","4","4","4","4","4","3","4","4","2","2","2","1","2","2","1","1","1","1","0","0","0","0","0","0","0","0","1","1","0","1","0","0","4","2","3","2","2","1","2","3","2","2","1","594948255830245376","张","422","","","","","","","","","","","","","","","","","","","","","","","","","","","","","","feedback_test","","","","","","","","","","","",""
"691","","j","psychophysics","45","309048","0.0-7.0-0.0-1.0-0.0-0.18","3","3","4","3","4","3","3","4","3","3","4","4","4","4","4","4","4","3","4","4","2","2","2","1","2","2","1","1","1","1","0","0","0","0","0","0","0","0","1","1","0","1","0","0","4","2","3","2","2","1","2","3","2","2","1","594948255830245376","张","422","","","","nonmatch","","","","","","","","","","","","","","key","j","16.652475247524983","640","356","j","true","nonmatch","img/diamond.png","五边","菱形","ALT1_1","prac_ALT1_1","","","","","","","","","","","",""
"null","<span style='color:GreenYellow; font-size: 70px;'>正确! </span>","null","html-keyboard-response","46","309555","0.0-7.0-0.0-1.0-0.0-1.18","3","3","4","3","4","3","3","4","3","3","4","4","4","4","4","4","4","3","4","4","2","2","2","1","2","2","1","1","1","1","0","0","0","0","0","0","0","0","1","1","0","1","0","0","4","2","3","2","2","1","2","3","2","2","1","594948255830245376","张","422","","","","","","","","","","","","","","","","","","","","","","","","","","","","","","feedback_test","","","","","","","","","","","",""
"614","","f","psychophysics","47","311173","0.0-7.0-0.0-1.0-0.0-0.19","3","3","4","3","4","3","3","4","3","3","4","4","4","4","4","4","4","3","4","4","2","2","2","1","2","2","1","1","1","1","0","0","0","0","0","0","0","0","1","1","0","1","0","0","4","2","3","2","2","1","2","3","2","2","1","594948255830245376","张","422","","","","match","","","","","","","","","","","","","","key","f","16.65416666666715","640","356","f","true","match","img/pentagon.png","五边","五边","ALT1_1","prac_ALT1_1","","","","","","","","","","","",""
"null","<span style='color:GreenYellow; font-size: 70px;'>正确! </span>","null","html-keyboard-response","48","311680","0.0-7.0-0.0-1.0-0.0-1.19","3","3","4","3","4","3","3","4","3","3","4","4","4","4","4","4","4","3","4","4","2","2","2","1","2","2","1","1","1","1","0","0","0","0","0","0","0","0","1","1","0","1","0","0","4","2","3","2","2","1","2","3","2","2","1","594948255830245376","张","422","","","","","","","","","","","","","","","","","","","","","","","","","","","","","","feedback_test","","","","","","","","","","","",""
"763","","j","psychophysics","49","313475","0.0-7.0-0.0-1.0-0.0-0.20","3","3","4","3","4","3","3","4","3","3","4","4","4","4","4","4","4","3","4","4","2","2","2","1","2","2","1","1","1","1","0","0","0","0","0","0","0","0","1","1","0","1","0","0","4","2","3","2","2","1","2","3","2","2","1","594948255830245376","张","422","","","","nonmatch","","","","","","","","","","","","","","key","j","16.650943396226417","640","356","j","true","nonmatch","img/trapezoid.png","圆形","梯形","ALT1_1","prac_ALT1_1","","","","","","","","","","","",""
"null","<span style='color:GreenYellow; font-size: 70px;'>正确! </span>","null","html-keyboard-response","50","313978","0.0-7.0-0.0-1.0-0.0-1.20","3","3","4","3","4","3","3","4","3","3","4","4","4","4","4","4","4","3","4","4","2","2","2","1","2","2","1","1","1","1","0","0","0","0","0","0","0","0","1","1","0","1","0","0","4","2","3","2","2","1","2","3","2","2","1","594948255830245376","张","422","","","","","","","","","","","","","","","","","","","","","","","","","","","","","","feedback_test","","","","","","","","","","","",""
"657","","j","psychophysics","51","315638","0.0-7.0-0.0-1.0-0.0-0.21","3","3","4","3","4","3","3","4","3","3","4","4","4","4","4","4","4","3","4","4","2","2","2","1","2","2","1","1","1","1","0","0","0","0","0","0","0","0","1","1","0","1","0","0","4","2","3","2","2","1","2","3","2","2","1","594948255830245376","张","422","","","","nonmatch","","","","","","","","","","","","","","key","j","16.646938775510442","640","356","f","false","match","img/circle.png","圆形","圆形","ALT1_1","prac_ALT1_1","","","","","","","","","","","",""
"null","<span style='color:red; font-size: 70px;'>错误! </span>","null","html-keyboard-response","52","316147","0.0-7.0-0.0-1.0-0.0-1.21","3","3","4","3","4","3","3","4","3","3","4","4","4","4","4","4","4","3","4","4","2","2","2","1","2","2","1","1","1","1","0","0","0","0","0","0","0","0","1","1","0","1","0","0","4","2","3","2","2","1","2","3","2","2","1","594948255830245376","张","422","","","","","","","","","","","","","","","","","","","","","","","","","","","","","","feedback_test","","","","","","","","","","","",""
"869","","f","psychophysics","53","318022","0.0-7.0-0.0-1.0-0.0-0.22","3","3","4","3","4","3","3","4","3","3","4","4","4","4","4","4","4","3","4","4","2","2","2","1","2","2","1","1","1","1","0","0","0","0","0","0","0","0","1","1","0","1","0","0","4","2","3","2","2","1","2","3","2","2","1","594948255830245376","张","422","","","","match","","","","","","","","","","","","","","key","f","16.641964285714494","640","356","f","true","match","img/diamond.png","菱形","菱形","ALT1_1","prac_ALT1_1","","","","","","","","","","","",""
"null","<span style='color:GreenYellow; font-size: 70px;'>正确! </span>","null","html-keyboard-response","54","318535","0.0-7.0-0.0-1.0-0.0-1.22","3","3","4","3","4","3","3","4","3","3","4","4","4","4","4","4","4","3","4","4","2","2","2","1","2","2","1","1","1","1","0","0","0","0","0","0","0","0","1","1","0","1","0","0","4","2","3","2","2","1","2","3","2","2","1","594948255830245376","张","422","","","","","","","","","","","","","","","","","","","","","","","","","","","","","","feedback_test","","","","","","","","","","","",""
"873","","f","psychophysics","55","320425","0.0-7.0-0.0-1.0-0.0-0.23","3","3","4","3","4","3","3","4","3","3","4","4","4","4","4","4","4","3","4","4","2","2","2","1","2","2","1","1","1","1","0","0","0","0","0","0","0","0","1","1","0","1","0","0","4","2","3","2","2","1","2","3","2","2","1","594948255830245376","张","422","","","","match","","","","","","","","","","","","","","key","f","16.651785714285715","640","356","j","false","nonmatch","img/pentagon.png","菱形","五边","ALT1_1","prac_ALT1_1","","","","","","","","","","","",""
"null","<span style='color:red; font-size: 70px;'>错误! </span>","null","html-keyboard-response","56","320931","0.0-7.0-0.0-1.0-0.0-1.23","3","3","4","3","4","3","3","4","3","3","4","4","4","4","4","4","4","3","4","4","2","2","2","1","2","2","1","1","1","1","0","0","0","0","0","0","0","0","1","1","0","1","0","0","4","2","3","2","2","1","2","3","2","2","1","594948255830245376","张","422","","","","","","","","","","","","","","","","","","","","","","","","","","","","","","feedback_test","","","","","","","","","","","",""
"727","","j","psychophysics","57","322662","0.0-7.0-0.0-1.0-0.0-0.24","3","3","4","3","4","3","3","4","3","3","4","4","4","4","4","4","4","3","4","4","2","2","2","1","2","2","1","1","1","1","0","0","0","0","0","0","0","0","1","1","0","1","0","0","4","2","3","2","2","1","2","3","2","2","1","594948255830245376","张","422","","","","nonmatch","","","","","","","","","","","","","","key","j","16.594117647059164","640","356","j","true","nonmatch","img/circle.png","五边","圆形","ALT1_1","prac_ALT1_1","","","","","","","","","","","",""
"null","<span style='color:GreenYellow; font-size: 70px;'>正确! </span>","null","html-keyboard-response","58","323165","0.0-7.0-0.0-1.0-0.0-1.24","3","3","4","3","4","3","3","4","3","3","4","4","4","4","4","4","4","3","4","4","2","2","2","1","2","2","1","1","1","1","0","0","0","0","0","0","0","0","1","1","0","1","0","0","4","2","3","2","2","1","2","3","2","2","1","594948255830245376","张","422","","","","","","","","","","","","","","","","","","","","","","","","","","","","","","feedback_test","","","","","","","","","","","",""
"622","","f","psychophysics","59","324792","0.0-7.0-0.0-1.0-0.0-0.25","3","3","4","3","4","3","3","4","3","3","4","4","4","4","4","4","4","3","4","4","2","2","2","1","2","2","1","1","1","1","0","0","0","0","0","0","0","0","1","1","0","1","0","0","4","2","3","2","2","1","2","3","2","2","1","594948255830245376","张","422","","","","match","","","","","","","","","","","","","","key","f","16.65416666666715","640","356","f","true","match","img/circle.png","圆形","圆形","ALT1_1","prac_ALT1_1","","","","","","","","","","","",""
"null","<span style='color:GreenYellow; font-size: 70px;'>正确! </span>","null","html-keyboard-response","60","325302","0.0-7.0-0.0-1.0-0.0-1.25","3","3","4","3","4","3","3","4","3","3","4","4","4","4","4","4","4","3","4","4","2","2","2","1","2","2","1","1","1","1","0","0","0","0","0","0","0","0","1","1","0","1","0","0","4","2","3","2","2","1","2","3","2","2","1","594948255830245376","张","422","","","","","","","","","","","","","","","","","","","","","","","","","","","","","","feedback_test","","","","","","","","","","","",""
"680","","j","psychophysics","61","327012","0.0-7.0-0.0-1.0-0.0-0.26","3","3","4","3","4","3","3","4","3","3","4","4","4","4","4","4","4","3","4","4","2","2","2","1","2","2","1","1","1","1","0","0","0","0","0","0","0","0","1","1","0","1","0","0","4","2","3","2","2","1","2","3","2","2","1","594948255830245376","张","422","","","","nonmatch","","","","","","","","","","","","","","key","j","16.65098039215709","640","356","j","true","nonmatch","img/diamond.png","五边","菱形","ALT1_1","prac_ALT1_1","","","","","","","","","","","",""
"null","<span style='color:GreenYellow; font-size: 70px;'>正确! </span>","null","html-keyboard-response","62","327522","0.0-7.0-0.0-1.0-0.0-1.26","3","3","4","3","4","3","3","4","3","3","4","4","4","4","4","4","4","3","4","4","2","2","2","1","2","2","1","1","1","1","0","0","0","0","0","0","0","0","1","1","0","1","0","0","4","2","3","2","2","1","2","3","2","2","1","594948255830245376","张","422","","","","","","","","","","","","","","","","","","","","","","","","","","","","","","feedback_test","","","","","","","","","","","",""
"799","","f","psychophysics","63","329325","0.0-7.0-0.0-1.0-0.0-0.27","3","3","4","3","4","3","3","4","3","3","4","4","4","4","4","4","4","3","4","4","2","2","2","1","2","2","1","1","1","1","0","0","0","0","0","0","0","0","1","1","0","1","0","0","4","2","3","2","2","1","2","3","2","2","1","594948255830245376","张","422","","","","match","","","","","","","","","","","","","","key","f","16.653271028037057","640","356","f","true","match","img/diamond.png","菱形","菱形","ALT1_1","prac_ALT1_1","","","","","","","","","","","",""
"null","<span style='color:GreenYellow; font-size: 70px;'>正确! </span>","null","html-keyboard-response","64","329832","0.0-7.0-0.0-1.0-0.0-1.27","3","3","4","3","4","3","3","4","3","3","4","4","4","4","4","4","4","3","4","4","2","2","2","1","2","2","1","1","1","1","0","0","0","0","0","0","0","0","1","1","0","1","0","0","4","2","3","2","2","1","2","3","2","2","1","594948255830245376","张","422","","","","","","","","","","","","","","","","","","","","","","","","","","","","","","feedback_test","","","","","","","","","","","",""
"680","","j","psychophysics","65","331515","0.0-7.0-0.0-1.0-0.0-0.28","3","3","4","3","4","3","3","4","3","3","4","4","4","4","4","4","4","3","4","4","2","2","2","1","2","2","1","1","1","1","0","0","0","0","0","0","0","0","1","1","0","1","0","0","4","2","3","2","2","1","2","3","2","2","1","594948255830245376","张","422","","","","nonmatch","","","","","","","","","","","","","","key","j","16.654000000000234","640","356","j","true","nonmatch","img/diamond.png","圆形","菱形","ALT1_1","prac_ALT1_1","","","","","","","","","","","",""
"null","<span style='color:GreenYellow; font-size: 70px;'>正确! </span>","null","html-keyboard-response","66","332033","0.0-7.0-0.0-1.0-0.0-1.28","3","3","4","3","4","3","3","4","3","3","4","4","4","4","4","4","4","3","4","4","2","2","2","1","2","2","1","1","1","1","0","0","0","0","0","0","0","0","1","1","0","1","0","0","4","2","3","2","2","1","2","3","2","2","1","594948255830245376","张","422","","","","","","","","","","","","","","","","","","","","","","","","","","","","","","feedback_test","","","","","","","","","","","",""
"583","","f","psychophysics","67","333637","0.0-7.0-0.0-1.0-0.0-0.29","3","3","4","3","4","3","3","4","3","3","4","4","4","4","4","4","4","3","4","4","2","2","2","1","2","2","1","1","1","1","0","0","0","0","0","0","0","0","1","1","0","1","0","0","4","2","3","2","2","1","2","3","2","2","1","594948255830245376","张","422","","","","match","","","","","","","","","","","","","","key","f","16.654736842105386","640","356","j","false","nonmatch","img/trapezoid.png","菱形","梯形","ALT1_1","prac_ALT1_1","","","","","","","","","","","",""
"null","<span style='color:red; font-size: 70px;'>错误! </span>","null","html-keyboard-response","68","334145","0.0-7.0-0.0-1.0-0.0-1.29","3","3","4","3","4","3","3","4","3","3","4","4","4","4","4","4","4","3","4","4","2","2","2","1","2","2","1","1","1","1","0","0","0","0","0","0","0","0","1","1","0","1","0","0","4","2","3","2","2","1","2","3","2","2","1","594948255830245376","张","422","","","","","","","","","","","","","","","","","","","","","","","","","","","","","","feedback_test","","","","","","","","","","","",""
"748","","f","psychophysics","69","335896","0.0-7.0-0.0-1.0-0.0-0.30","3","3","4","3","4","3","3","4","3","3","4","4","4","4","4","4","4","3","4","4","2","2","2","1","2","2","1","1","1","1","0","0","0","0","0","0","0","0","1","1","0","1","0","0","4","2","3","2","2","1","2","3","2","2","1","594948255830245376","张","422","","","","match","","","","","","","","","","","","","","key","f","16.645192307692643","640","356","f","true","match","img/trapezoid.png","梯形","梯形","ALT1_1","prac_ALT1_1","","","","","","","","","","","",""
"null","<span style='color:GreenYellow; font-size: 70px;'>正确! </span>","null","html-keyboard-response","70","336398","0.0-7.0-0.0-1.0-0.0-1.30","3","3","4","3","4","3","3","4","3","3","4","4","4","4","4","4","4","3","4","4","2","2","2","1","2","2","1","1","1","1","0","0","0","0","0","0","0","0","1","1","0","1","0","0","4","2","3","2","2","1","2","3","2","2","1","594948255830245376","张","422","","","","","","","","","","","","","","","","","","","","","","","","","","","","","","feedback_test","","","","","","","","","","","",""
"688","","j","psychophysics","71","338088","0.0-7.0-0.0-1.0-0.0-0.31","3","3","4","3","4","3","3","4","3","3","4","4","4","4","4","4","4","3","4","4","2","2","2","1","2","2","1","1","1","1","0","0","0","0","0","0","0","0","1","1","0","1","0","0","4","2","3","2","2","1","2","3","2","2","1","594948255830245376","张","422","","","","nonmatch","","","","","","","","","","","","","","key","j","16.650495049505064","640","356","j","true","nonmatch","img/pentagon.png","梯形","五边","ALT1_1","prac_ALT1_1","","","","","","","","","","","",""
"null","<span style='color:GreenYellow; font-size: 70px;'>正确! </span>","null","html-keyboard-response","72","338593","0.0-7.0-0.0-1.0-0.0-1.31","3","3","4","3","4","3","3","4","3","3","4","4","4","4","4","4","4","3","4","4","2","2","2","1","2","2","1","1","1","1","0","0","0","0","0","0","0","0","1","1","0","1","0","0","4","2","3","2","2","1","2","3","2","2","1","594948255830245376","张","422","","","","","","","","","","","","","","","","","","","","","","","","","","","","","","feedback_test","","","","","","","","","","","",""
"611","","f","psychophysics","73","340236","0.0-7.0-0.0-1.0-0.0-0.32","3","3","4","3","4","3","3","4","3","3","4","4","4","4","4","4","4","3","4","4","2","2","2","1","2","2","1","1","1","1","0","0","0","0","0","0","0","0","1","1","0","1","0","0","4","2","3","2","2","1","2","3","2","2","1","594948255830245376","张","422","","","","match","","","","","","","","","","","","","","key","f","16.653061224489797","640","356","f","true","match","img/trapezoid.png","梯形","梯形","ALT1_1","prac_ALT1_1","","","","","","","","","","","",""
"null","<span style='color:GreenYellow; font-size: 70px;'>正确! </span>","null","html-keyboard-response","74","340743","0.0-7.0-0.0-1.0-0.0-1.32","3","3","4","3","4","3","3","4","3","3","4","4","4","4","4","4","4","3","4","4","2","2","2","1","2","2","1","1","1","1","0","0","0","0","0","0","0","0","1","1","0","1","0","0","4","2","3","2","2","1","2","3","2","2","1","594948255830245376","张","422","","","","","","","","","","","","","","","","","","","","","","","","","","","","","","feedback_test","","","","","","","","","","","",""
"728","","f","psychophysics","75","342472","0.0-7.0-0.0-1.0-0.0-0.33","3","3","4","3","4","3","3","4","3","3","4","4","4","4","4","4","4","3","4","4","2","2","2","1","2","2","1","1","1","1","0","0","0","0","0","0","0","0","1","1","0","1","0","0","4","2","3","2","2","1","2","3","2","2","1","594948255830245376","张","422","","","","match","","","","","","","","","","","","","","key","f","16.653398058252314","640","356","f","true","match","img/circle.png","圆形","圆形","ALT1_1","prac_ALT1_1","","","","","","","","","","","",""
"null","<span style='color:GreenYellow; font-size: 70px;'>正确! </span>","null","html-keyboard-response","76","342976","0.0-7.0-0.0-1.0-0.0-1.33","3","3","4","3","4","3","3","4","3","3","4","4","4","4","4","4","4","3","4","4","2","2","2","1","2","2","1","1","1","1","0","0","0","0","0","0","0","0","1","1","0","1","0","0","4","2","3","2","2","1","2","3","2","2","1","594948255830245376","张","422","","","","","","","","","","","","","","","","","","","","","","","","","","","","","","feedback_test","","","","","","","","","","","",""
"767","","j","psychophysics","77","344745","0.0-7.0-0.0-1.0-0.0-0.34","3","3","4","3","4","3","3","4","3","3","4","4","4","4","4","4","4","3","4","4","2","2","2","1","2","2","1","1","1","1","0","0","0","0","0","0","0","0","1","1","0","1","0","0","4","2","3","2","2","1","2","3","2","2","1","594948255830245376","张","422","","","","nonmatch","","","","","","","","","","","","","","key","j","16.650476190476635","640","356","j","true","nonmatch","img/pentagon.png","圆形","五边","ALT1_1","prac_ALT1_1","","","","","","","","","","","",""
"null","<span style='color:GreenYellow; font-size: 70px;'>正确! </span>","null","html-keyboard-response","78","345264","0.0-7.0-0.0-1.0-0.0-1.34","3","3","4","3","4","3","3","4","3","3","4","4","4","4","4","4","4","3","4","4","2","2","2","1","2","2","1","1","1","1","0","0","0","0","0","0","0","0","1","1","0","1","0","0","4","2","3","2","2","1","2","3","2","2","1","594948255830245376","张","422","","","","","","","","","","","","","","","","","","","","","","","","","","","","","","feedback_test","","","","","","","","","","","",""
"660","","f","psychophysics","79","346941","0.0-7.0-0.0-1.0-0.0-0.35","3","3","4","3","4","3","3","4","3","3","4","4","4","4","4","4","4","3","4","4","2","2","2","1","2","2","1","1","1","1","0","0","0","0","0","0","0","0","1","1","0","1","0","0","4","2","3","2","2","1","2","3","2","2","1","594948255830245376","张","422","","","","match","","","","","","","","","","","","","","key","f","16.65353535353547","640","356","j","false","nonmatch","img/pentagon.png","菱形","五边","ALT1_1","prac_ALT1_1","","","","","","","","","","","",""
"null","<span style='color:red; font-size: 70px;'>错误! </span>","null","html-keyboard-response","80","347455","0.0-7.0-0.0-1.0-0.0-1.35","3","3","4","3","4","3","3","4","3","3","4","4","4","4","4","4","4","3","4","4","2","2","2","1","2","2","1","1","1","1","0","0","0","0","0","0","0","0","1","1","0","1","0","0","4","2","3","2","2","1","2","3","2","2","1","594948255830245376","张","422","","","","","","","","","","","","","","","","","","","","","","","","","","","","","","feedback_test","","","","","","","","","","","",""
"619","","f","psychophysics","81","349076","0.0-7.0-0.0-1.0-0.0-0.36","3","3","4","3","4","3","3","4","3","3","4","4","4","4","4","4","4","3","4","4","2","2","2","1","2","2","1","1","1","1","0","0","0","0","0","0","0","0","1","1","0","1","0","0","4","2","3","2","2","1","2","3","2","2","1","594948255830245376","张","422","","","","match","","","","","","","","","","","","","","key","f","16.65416666666715","640","356","f","true","match","img/pentagon.png","五边","五边","ALT1_1","prac_ALT1_1","","","","","","","","","","","",""
"null","<span style='color:GreenYellow; font-size: 70px;'>正确! </span>","null","html-keyboard-response","82","349579","0.0-7.0-0.0-1.0-0.0-1.36","3","3","4","3","4","3","3","4","3","3","4","4","4","4","4","4","4","3","4","4","2","2","2","1","2","2","1","1","1","1","0","0","0","0","0","0","0","0","1","1","0","1","0","0","4","2","3","2","2","1","2","3","2","2","1","594948255830245376","张","422","","","","","","","","","","","","","","","","","","","","","","","","","","","","","","feedback_test","","","","","","","","","","","",""
"646","","j","psychophysics","83","351228","0.0-7.0-0.0-1.0-0.0-0.37","3","3","4","3","4","3","3","4","3","3","4","4","4","4","4","4","4","3","4","4","2","2","2","1","2","2","1","1","1","1","0","0","0","0","0","0","0","0","1","1","0","1","0","0","4","2","3","2","2","1","2","3","2","2","1","594948255830245376","张","422","","","","nonmatch","","","","","","","","","","","","","","key","j","16.644897959183794","640","356","j","true","nonmatch","img/trapezoid.png","五边","梯形","ALT1_1","prac_ALT1_1","","","","","","","","","","","",""
"null","<span style='color:GreenYellow; font-size: 70px;'>正确! </span>","null","html-keyboard-response","84","351728","0.0-7.0-0.0-1.0-0.0-1.37","3","3","4","3","4","3","3","4","3","3","4","4","4","4","4","4","4","3","4","4","2","2","2","1","2","2","1","1","1","1","0","0","0","0","0","0","0","0","1","1","0","1","0","0","4","2","3","2","2","1","2","3","2","2","1","594948255830245376","张","422","","","","","","","","","","","","","","","","","","","","","","","","","","","","","","feedback_test","","","","","","","","","","","",""
"705","","f","psychophysics","85","353467","0.0-7.0-0.0-1.0-0.0-0.38","3","3","4","3","4","3","3","4","3","3","4","4","4","4","4","4","4","3","4","4","2","2","2","1","2","2","1","1","1","1","0","0","0","0","0","0","0","0","1","1","0","1","0","0","4","2","3","2","2","1","2","3","2","2","1","594948255830245376","张","422","","","","match","","","","","","","","","","","","","","key","f","16.653398058252314","640","356","f","true","match","img/diamond.png","菱形","菱形","ALT1_1","prac_ALT1_1","","","","","","","","","","","",""
"null","<span style='color:GreenYellow; font-size: 70px;'>正确! </span>","null","html-keyboard-response","86","353974","0.0-7.0-0.0-1.0-0.0-1.38","3","3","4","3","4","3","3","4","3","3","4","4","4","4","4","4","4","3","4","4","2","2","2","1","2","2","1","1","1","1","0","0","0","0","0","0","0","0","1","1","0","1","0","0","4","2","3","2","2","1","2","3","2","2","1","594948255830245376","张","422","","","","","","","","","","","","","","","","","","","","","","","","","","","","","","feedback_test","","","","","","","","","","","",""
"670","","j","psychophysics","87","355651","0.0-7.0-0.0-1.0-0.0-0.39","3","3","4","3","4","3","3","4","3","3","4","4","4","4","4","4","4","3","4","4","2","2","2","1","2","2","1","1","1","1","0","0","0","0","0","0","0","0","1","1","0","1","0","0","4","2","3","2","2","1","2","3","2","2","1","594948255830245376","张","422","","","","nonmatch","","","","","","","","","","","","","","key","j","16.647000000000116","640","356","j","true","nonmatch","img/diamond.png","梯形","菱形","ALT1_1","prac_ALT1_1","","","","","","","","","","","",""
"null","<span style='color:GreenYellow; font-size: 70px;'>正确! </span>","null","html-keyboard-response","88","356160","0.0-7.0-0.0-1.0-0.0-1.39","3","3","4","3","4","3","3","4","3","3","4","4","4","4","4","4","4","3","4","4","2","2","2","1","2","2","1","1","1","1","0","0","0","0","0","0","0","0","1","1","0","1","0","0","4","2","3","2","2","1","2","3","2","2","1","594948255830245376","张","422","","","","","","","","","","","","","","","","","","","","","","","","","","","","","","feedback_test","","","","","","","","","","","",""
"705","","f","psychophysics","89","357864","0.0-7.0-0.0-1.0-0.0-0.40","3","3","4","3","4","3","3","4","3","3","4","4","4","4","4","4","4","3","4","4","2","2","2","1","2","2","1","1","1","1","0","0","0","0","0","0","0","0","1","1","0","1","0","0","4","2","3","2","2","1","2","3","2","2","1","594948255830245376","张","422","","","","match","","","","","","","","","","","","","","key","f","16.6549019607842","640","356","f","true","match","img/pentagon.png","五边","五边","ALT1_1","prac_ALT1_1","","","","","","","","","","","",""
"null","<span style='color:GreenYellow; font-size: 70px;'>正确! </span>","null","html-keyboard-response","90","358371","0.0-7.0-0.0-1.0-0.0-1.40","3","3","4","3","4","3","3","4","3","3","4","4","4","4","4","4","4","3","4","4","2","2","2","1","2","2","1","1","1","1","0","0","0","0","0","0","0","0","1","1","0","1","0","0","4","2","3","2","2","1","2","3","2","2","1","594948255830245376","张","422","","","","","","","","","","","","","","","","","","","","","","","","","","","","","","feedback_test","","","","","","","","","","","",""
"585","","j","psychophysics","91","359975","0.0-7.0-0.0-1.0-0.0-0.41","3","3","4","3","4","3","3","4","3","3","4","4","4","4","4","4","4","3","4","4","2","2","2","1","2","2","1","1","1","1","0","0","0","0","0","0","0","0","1","1","0","1","0","0","4","2","3","2","2","1","2","3","2","2","1","594948255830245376","张","422","","","","nonmatch","","","","","","","","","","","","","","key","j","16.650000000000244","640","356","j","true","nonmatch","img/trapezoid.png","圆形","梯形","ALT1_1","prac_ALT1_1","","","","","","","","","","","",""
"null","<span style='color:GreenYellow; font-size: 70px;'>正确! </span>","null","html-keyboard-response","92","360488","0.0-7.0-0.0-1.0-0.0-1.41","3","3","4","3","4","3","3","4","3","3","4","4","4","4","4","4","4","3","4","4","2","2","2","1","2","2","1","1","1","1","0","0","0","0","0","0","0","0","1","1","0","1","0","0","4","2","3","2","2","1","2","3","2","2","1","594948255830245376","张","422","","","","","","","","","","","","","","","","","","","","","","","","","","","","","","feedback_test","","","","","","","","","","","",""
"669","","f","psychophysics","93","362159","0.0-7.0-0.0-1.0-0.0-0.42","3","3","4","3","4","3","3","4","3","3","4","4","4","4","4","4","4","3","4","4","2","2","2","1","2","2","1","1","1","1","0","0","0","0","0","0","0","0","1","1","0","1","0","0","4","2","3","2","2","1","2","3","2","2","1","594948255830245376","张","422","","","","match","","","","","","","","","","","","","","key","f","16.65353535353547","640","356","f","true","match","img/pentagon.png","五边","五边","ALT1_1","prac_ALT1_1","","","","","","","","","","","",""
"null","<span style='color:GreenYellow; font-size: 70px;'>正确! </span>","null","html-keyboard-response","94","362660","0.0-7.0-0.0-1.0-0.0-1.42","3","3","4","3","4","3","3","4","3","3","4","4","4","4","4","4","4","3","4","4","2","2","2","1","2","2","1","1","1","1","0","0","0","0","0","0","0","0","1","1","0","1","0","0","4","2","3","2","2","1","2","3","2","2","1","594948255830245376","张","422","","","","","","","","","","","","","","","","","","","","","","","","","","","","","","feedback_test","","","","","","","","","","","",""
"693","","j","psychophysics","95","364362","0.0-7.0-0.0-1.0-0.0-0.43","3","3","4","3","4","3","3","4","3","3","4","4","4","4","4","4","4","3","4","4","2","2","2","1","2","2","1","1","1","1","0","0","0","0","0","0","0","0","1","1","0","1","0","0","4","2","3","2","2","1","2","3","2","2","1","594948255830245376","张","422","","","","nonmatch","","","","","","","","","","","","","","key","j","16.647524752475476","640","356","j","true","nonmatch","img/circle.png","菱形","圆形","ALT1_1","prac_ALT1_1","","","","","","","","","","","",""
"null","<span style='color:GreenYellow; font-size: 70px;'>正确! </span>","null","html-keyboard-response","96","364868","0.0-7.0-0.0-1.0-0.0-1.43","3","3","4","3","4","3","3","4","3","3","4","4","4","4","4","4","4","3","4","4","2","2","2","1","2","2","1","1","1","1","0","0","0","0","0","0","0","0","1","1","0","1","0","0","4","2","3","2","2","1","2","3","2","2","1","594948255830245376","张","422","","","","","","","","","","","","","","","","","","","","","","","","","","","","","","feedback_test","","","","","","","","","","","",""
"622","","j","psychophysics","97","366521","0.0-7.0-0.0-1.0-0.0-0.44","3","3","4","3","4","3","3","4","3","3","4","4","4","4","4","4","4","3","4","4","2","2","2","1","2","2","1","1","1","1","0","0","0","0","0","0","0","0","1","1","0","1","0","0","4","2","3","2","2","1","2","3","2","2","1","594948255830245376","张","422","","","","nonmatch","","","","","","","","","","","","","","key","j","16.647959183673468","640","356","j","true","nonmatch","img/circle.png","梯形","圆形","ALT1_1","prac_ALT1_1","","","","","","","","","","","",""
"null","<span style='color:GreenYellow; font-size: 70px;'>正确! </span>","null","html-keyboard-response","98","367030","0.0-7.0-0.0-1.0-0.0-1.44","3","3","4","3","4","3","3","4","3","3","4","4","4","4","4","4","4","3","4","4","2","2","2","1","2","2","1","1","1","1","0","0","0","0","0","0","0","0","1","1","0","1","0","0","4","2","3","2","2","1","2","3","2","2","1","594948255830245376","张","422","","","","","","","","","","","","","","","","","","","","","","","","","","","","","","feedback_test","","","","","","","","","","","",""
"674","","f","psychophysics","99","368706","0.0-7.0-0.0-1.0-0.0-0.45","3","3","4","3","4","3","3","4","3","3","4","4","4","4","4","4","4","3","4","4","2","2","2","1","2","2","1","1","1","1","0","0","0","0","0","0","0","0","1","1","0","1","0","0","4","2","3","2","2","1","2","3","2","2","1","594948255830245376","张","422","","","","match","","","","","","","","","","","","","","key","f","16.58080808080808","640","356","f","true","match","img/diamond.png","菱形","菱形","ALT1_1","prac_ALT1_1","","","","","","","","","","","",""
"null","<span style='color:GreenYellow; font-size: 70px;'>正确! </span>","null","html-keyboard-response","100","369213","0.0-7.0-0.0-1.0-0.0-1.45","3","3","4","3","4","3","3","4","3","3","4","4","4","4","4","4","4","3","4","4","2","2","2","1","2","2","1","1","1","1","0","0","0","0","0","0","0","0","1","1","0","1","0","0","4","2","3","2","2","1","2","3","2","2","1","594948255830245376","张","422","","","","","","","","","","","","","","","","","","","","","","","","","","","","","","feedback_test","","","","","","","","","","","",""
"605","","f","psychophysics","101","370831","0.0-7.0-0.0-1.0-0.0-0.46","3","3","4","3","4","3","3","4","3","3","4","4","4","4","4","4","4","3","4","4","2","2","2","1","2","2","1","1","1","1","0","0","0","0","0","0","0","0","1","1","0","1","0","0","4","2","3","2","2","1","2","3","2","2","1","594948255830245376","张","422","","","","match","","","","","","","","","","","","","","key","f","16.651041666666668","640","356","f","true","match","img/trapezoid.png","梯形","梯形","ALT1_1","prac_ALT1_1","","","","","","","","","","","",""
"null","<span style='color:GreenYellow; font-size: 70px;'>正确! </span>","null","html-keyboard-response","102","371332","0.0-7.0-0.0-1.0-0.0-1.46","3","3","4","3","4","3","3","4","3","3","4","4","4","4","4","4","4","3","4","4","2","2","2","1","2","2","1","1","1","1","0","0","0","0","0","0","0","0","1","1","0","1","0","0","4","2","3","2","2","1","2","3","2","2","1","594948255830245376","张","422","","","","","","","","","","","","","","","","","","","","","","","","","","","","","","feedback_test","","","","","","","","","","","",""
"636","","f","psychophysics","103","372981","0.0-7.0-0.0-1.0-0.0-0.47","3","3","4","3","4","3","3","4","3","3","4","4","4","4","4","4","4","3","4","4","2","2","2","1","2","2","1","1","1","1","0","0","0","0","0","0","0","0","1","1","0","1","0","0","4","2","3","2","2","1","2","3","2","2","1","594948255830245376","张","422","","","","match","","","","","","","","","","","","","","key","f","16.652040816326767","640","356","f","true","match","img/circle.png","圆形","圆形","ALT1_1","prac_ALT1_1","","","","","","","","","","","",""
"null","<span style='color:GreenYellow; font-size: 70px;'>正确! </span>","null","html-keyboard-response","104","373483","0.0-7.0-0.0-1.0-0.0-1.47","3","3","4","3","4","3","3","4","3","3","4","4","4","4","4","4","4","3","4","4","2","2","2","1","2","2","1","1","1","1","0","0","0","0","0","0","0","0","1","1","0","1","0","0","4","2","3","2","2","1","2","3","2","2","1","594948255830245376","张","422","","","","","","","","","","","","","","","","","","","","","","","","","","","","","","feedback_test","","","","","","","","","","","",""
"24999","<style>.context{color:white; font-size: 35px; line-height:40px}</style>                            <div><p class='context'>您正确回答了85% 的试次。</p><p class='context'>您的平均反应时为685毫秒。</p><p class='context'>恭喜您完成练习。按空格键进入正式实验。</p><p class='footer' style='font-size: 35px; line-height:40px;'>请在进入正式实验之前将您的<span style='color: lightgreen;'>食指</span>放在电脑键盘的相应键位上进行按键。</p>"," ","html-keyboard-response","105","398486","0.0-7.0-0.0-2.0","3","3","4","3","4","3","3","4","3","3","4","4","4","4","4","4","4","3","4","4","2","2","2","1","2","2","1","1","1","1","0","0","0","0","0","0","0","0","1","1","0","1","0","0","4","2","3","2","2","1","2","3","2","2","1","594948255830245376","张","422","","","","","","","","","","","","","","","","","","","","","","","","","","","","","","","","","","","","","","","","","",""
"2132","
    <p style='color: white; font-size: 22px'>请您将手指放在按键上，准备进入正式的匹配任务。</p>
    <p> <div style = ""color: green""><按空格键进入下一阶段的匹配任务></div></p>
    "," ","html-keyboard-response","106","400623","0.0-7.0-0.0-3.0","3","3","4","3","4","3","3","4","3","3","4","4","4","4","4","4","4","3","4","4","2","2","2","1","2","2","1","1","1","1","0","0","0","0","0","0","0","0","1","1","0","1","0","0","4","2","3","2","2","1","2","3","2","2","1","594948255830245376","张","422","","","","","","","","","","","","","","","","","","","","","","","","","","","","","","","","","","","","","","","","","",""
"673","","f","psychophysics","107","402297","0.0-7.0-0.0-4.0-0.0-0.0","3","3","4","3","4","3","3","4","3","3","4","4","4","4","4","4","4","3","4","4","2","2","2","1","2","2","1","1","1","1","0","0","0","0","0","0","0","0","1","1","0","1","0","0","4","2","3","2","2","1","2","3","2","2","1","594948255830245376","张","422","","","","match","","","","","","","","","","","","","","key","f","16.650505050505284","640","356","f","true","match","img/trapezoid.png","梯形","梯形","ALT1","formal_ALT1_1","","","","","","","","","","","",""
"null","<span style='color:GreenYellow; font-size: 70px;'>正确! </span>","null","html-keyboard-response","108","402806","0.0-7.0-0.0-4.0-0.0-1.0","3","3","4","3","4","3","3","4","3","3","4","4","4","4","4","4","4","3","4","4","2","2","2","1","2","2","1","1","1","1","0","0","0","0","0","0","0","0","1","1","0","1","0","0","4","2","3","2","2","1","2","3","2","2","1","594948255830245376","张","422","","","","","","","","","","","","","","","","","","","","","","","","","","","","","","feedback_test","","","","","","","","","","","",""
"609","","f","psychophysics","109","404433","0.0-7.0-0.0-4.0-0.0-0.1","3","3","4","3","4","3","3","4","3","3","4","4","4","4","4","4","4","3","4","4","2","2","2","1","2","2","1","1","1","1","0","0","0","0","0","0","0","0","1","1","0","1","0","0","4","2","3","2","2","1","2","3","2","2","1","594948255830245376","张","422","","","","match","","","","","","","","","","","","","","key","f","16.650515463917287","640","356","j","false","nonmatch","img/diamond.png","梯形","菱形","ALT1","formal_ALT1_1","","","","","","","","","","","",""
"null","<span style='color:red; font-size: 70px;'>错误! </span>","null","html-keyboard-response","110","404936","0.0-7.0-0.0-4.0-0.0-1.1","3","3","4","3","4","3","3","4","3","3","4","4","4","4","4","4","4","3","4","4","2","2","2","1","2","2","1","1","1","1","0","0","0","0","0","0","0","0","1","1","0","1","0","0","4","2","3","2","2","1","2","3","2","2","1","594948255830245376","张","422","","","","","","","","","","","","","","","","","","","","","","","","","","","","","","feedback_test","","","","","","","","","","","",""
"662","","f","psychophysics","111","406606","0.0-7.0-0.0-4.0-0.0-0.2","3","3","4","3","4","3","3","4","3","3","4","4","4","4","4","4","4","3","4","4","2","2","2","1","2","2","1","1","1","1","0","0","0","0","0","0","0","0","1","1","0","1","0","0","4","2","3","2","2","1","2","3","2","2","1","594948255830245376","张","422","","","","match","","","","","","","","","","","","","","key","f","16.651515151515152","640","356","f","true","match","img/diamond.png","菱形","菱形","ALT1","formal_ALT1_1","","","","","","","","","","","",""
"null","<span style='color:GreenYellow; font-size: 70px;'>正确! </span>","null","html-keyboard-response","112","407112","0.0-7.0-0.0-4.0-0.0-1.2","3","3","4","3","4","3","3","4","3","3","4","4","4","4","4","4","4","3","4","4","2","2","2","1","2","2","1","1","1","1","0","0","0","0","0","0","0","0","1","1","0","1","0","0","4","2","3","2","2","1","2","3","2","2","1","594948255830245376","张","422","","","","","","","","","","","","","","","","","","","","","","","","","","","","","","feedback_test","","","","","","","","","","","",""
"700","","j","psychophysics","113","408819","0.0-7.0-0.0-4.0-0.0-0.3","3","3","4","3","4","3","3","4","3","3","4","4","4","4","4","4","4","3","4","4","2","2","2","1","2","2","1","1","1","1","0","0","0","0","0","0","0","0","1","1","0","1","0","0","4","2","3","2","2","1","2","3","2","2","1","594948255830245376","张","422","","","","nonmatch","","","","","","","","","","","","","","key","j","16.650495049505064","640","356","j","true","nonmatch","img/circle.png","菱形","圆形","ALT1","formal_ALT1_1","","","","","","","","","","","",""
"null","<span style='color:GreenYellow; font-size: 70px;'>正确! </span>","null","html-keyboard-response","114","409325","0.0-7.0-0.0-4.0-0.0-1.3","3","3","4","3","4","3","3","4","3","3","4","4","4","4","4","4","4","3","4","4","2","2","2","1","2","2","1","1","1","1","0","0","0","0","0","0","0","0","1","1","0","1","0","0","4","2","3","2","2","1","2","3","2","2","1","594948255830245376","张","422","","","","","","","","","","","","","","","","","","","","","","","","","","","","","","feedback_test","","","","","","","","","","","",""
"815","","f","psychophysics","115","411172","0.0-7.0-0.0-4.0-0.0-0.4","3","3","4","3","4","3","3","4","3","3","4","4","4","4","4","4","4","3","4","4","2","2","2","1","2","2","1","1","1","1","0","0","0","0","0","0","0","0","1","1","0","1","0","0","4","2","3","2","2","1","2","3","2","2","1","594948255830245376","张","422","","","","match","","","","","","","","","","","","","","key","f","16.650458715596542","640","356","f","true","match","img/pentagon.png","五边","五边","ALT1","formal_ALT1_1","","","","","","","","","","","",""
"null","<span style='color:GreenYellow; font-size: 70px;'>正确! </span>","null","html-keyboard-response","116","411677","0.0-7.0-0.0-4.0-0.0-1.4","3","3","4","3","4","3","3","4","3","3","4","4","4","4","4","4","4","3","4","4","2","2","2","1","2","2","1","1","1","1","0","0","0","0","0","0","0","0","1","1","0","1","0","0","4","2","3","2","2","1","2","3","2","2","1","594948255830245376","张","422","","","","","","","","","","","","","","","","","","","","","","","","","","","","","","feedback_test","","","","","","","","","","","",""
"703","","j","psychophysics","117","413385","0.0-7.0-0.0-4.0-0.0-0.5","3","3","4","3","4","3","3","4","3","3","4","4","4","4","4","4","4","3","4","4","2","2","2","1","2","2","1","1","1","1","0","0","0","0","0","0","0","0","1","1","0","1","0","0","4","2","3","2","2","1","2","3","2","2","1","594948255830245376","张","422","","","","nonmatch","","","","","","","","","","","","","","key","j","16.650495049505064","640","356","j","true","nonmatch","img/diamond.png","圆形","菱形","ALT1","formal_ALT1_1","","","","","","","","","","","",""
"null","<span style='color:GreenYellow; font-size: 70px;'>正确! </span>","null","html-keyboard-response","118","413892","0.0-7.0-0.0-4.0-0.0-1.5","3","3","4","3","4","3","3","4","3","3","4","4","4","4","4","4","4","3","4","4","2","2","2","1","2","2","1","1","1","1","0","0","0","0","0","0","0","0","1","1","0","1","0","0","4","2","3","2","2","1","2","3","2","2","1","594948255830245376","张","422","","","","","","","","","","","","","","","","","","","","","","","","","","","","","","feedback_test","","","","","","","","","","","",""
"550","","f","psychophysics","119","415444","0.0-7.0-0.0-4.0-0.0-0.6","3","3","4","3","4","3","3","4","3","3","4","4","4","4","4","4","4","3","4","4","2","2","2","1","2","2","1","1","1","1","0","0","0","0","0","0","0","0","1","1","0","1","0","0","4","2","3","2","2","1","2","3","2","2","1","594948255830245376","张","422","","","","match","","","","","","","","","","","","","","key","f","16.648913043478387","640","356","f","true","match","img/trapezoid.png","梯形","梯形","ALT1","formal_ALT1_1","","","","","","","","","","","",""
"null","<span style='color:GreenYellow; font-size: 70px;'>正确! </span>","null","html-keyboard-response","120","415951","0.0-7.0-0.0-4.0-0.0-1.6","3","3","4","3","4","3","3","4","3","3","4","4","4","4","4","4","4","3","4","4","2","2","2","1","2","2","1","1","1","1","0","0","0","0","0","0","0","0","1","1","0","1","0","0","4","2","3","2","2","1","2","3","2","2","1","594948255830245376","张","422","","","","","","","","","","","","","","","","","","","","","","","","","","","","","","feedback_test","","","","","","","","","","","",""
"678","","j","psychophysics","121","417640","0.0-7.0-0.0-4.0-0.0-0.7","3","3","4","3","4","3","3","4","3","3","4","4","4","4","4","4","4","3","4","4","2","2","2","1","2","2","1","1","1","1","0","0","0","0","0","0","0","0","1","1","0","1","0","0","4","2","3","2","2","1","2","3","2","2","1","594948255830245376","张","422","","","","nonmatch","","","","","","","","","","","","","","key","j","16.65099999999977","640","356","j","true","nonmatch","img/trapezoid.png","圆形","梯形","ALT1","formal_ALT1_1","","","","","","","","","","","",""
"null","<span style='color:GreenYellow; font-size: 70px;'>正确! </span>","null","html-keyboard-response","122","418143","0.0-7.0-0.0-4.0-0.0-1.7","3","3","4","3","4","3","3","4","3","3","4","4","4","4","4","4","4","3","4","4","2","2","2","1","2","2","1","1","1","1","0","0","0","0","0","0","0","0","1","1","0","1","0","0","4","2","3","2","2","1","2","3","2","2","1","594948255830245376","张","422","","","","","","","","","","","","","","","","","","","","","","","","","","","","","","feedback_test","","","","","","","","","","","",""
"779","","j","psychophysics","123","419924","0.0-7.0-0.0-4.0-0.0-0.8","3","3","4","3","4","3","3","4","3","3","4","4","4","4","4","4","4","3","4","4","2","2","2","1","2","2","1","1","1","1","0","0","0","0","0","0","0","0","1","1","0","1","0","0","4","2","3","2","2","1","2","3","2","2","1","594948255830245376","张","422","","","","nonmatch","","","","","","","","","","","","","","key","j","16.65000000000022","640","356","j","true","nonmatch","img/circle.png","梯形","圆形","ALT1","formal_ALT1_1","","","","","","","","","","","",""
"null","<span style='color:GreenYellow; font-size: 70px;'>正确! </span>","null","html-keyboard-response","124","420430","0.0-7.0-0.0-4.0-0.0-1.8","3","3","4","3","4","3","3","4","3","3","4","4","4","4","4","4","4","3","4","4","2","2","2","1","2","2","1","1","1","1","0","0","0","0","0","0","0","0","1","1","0","1","0","0","4","2","3","2","2","1","2","3","2","2","1","594948255830245376","张","422","","","","","","","","","","","","","","","","","","","","","","","","","","","","","","feedback_test","","","","","","","","","","","",""
"674","","j","psychophysics","125","422109","0.0-7.0-0.0-4.0-0.0-0.9","3","3","4","3","4","3","3","4","3","3","4","4","4","4","4","4","4","3","4","4","2","2","2","1","2","2","1","1","1","1","0","0","0","0","0","0","0","0","1","1","0","1","0","0","4","2","3","2","2","1","2","3","2","2","1","594948255830245376","张","422","","","","nonmatch","","","","","","","","","","","","","","key","j","16.647999999999882","640","356","j","true","nonmatch","img/circle.png","五边","圆形","ALT1","formal_ALT1_1","","","","","","","","","","","",""
"null","<span style='color:GreenYellow; font-size: 70px;'>正确! </span>","null","html-keyboard-response","126","422612","0.0-7.0-0.0-4.0-0.0-1.9","3","3","4","3","4","3","3","4","3","3","4","4","4","4","4","4","4","3","4","4","2","2","2","1","2","2","1","1","1","1","0","0","0","0","0","0","0","0","1","1","0","1","0","0","4","2","3","2","2","1","2","3","2","2","1","594948255830245376","张","422","","","","","","","","","","","","","","","","","","","","","","","","","","","","","","feedback_test","","","","","","","","","","","",""
"816","","j","psychophysics","127","424440","0.0-7.0-0.0-4.0-0.0-0.10","3","3","4","3","4","3","3","4","3","3","4","4","4","4","4","4","4","3","4","4","2","2","2","1","2","2","1","1","1","1","0","0","0","0","0","0","0","0","1","1","0","1","0","0","4","2","3","2","2","1","2","3","2","2","1","594948255830245376","张","422","","","","nonmatch","","","","","","","","","","","","","","key","j","16.65137614678899","640","356","j","true","nonmatch","img/diamond.png","五边","菱形","ALT1","formal_ALT1_1","","","","","","","","","","","",""
"null","<span style='color:GreenYellow; font-size: 70px;'>正确! </span>","null","html-keyboard-response","128","424947","0.0-7.0-0.0-4.0-0.0-1.10","3","3","4","3","4","3","3","4","3","3","4","4","4","4","4","4","4","3","4","4","2","2","2","1","2","2","1","1","1","1","0","0","0","0","0","0","0","0","1","1","0","1","0","0","4","2","3","2","2","1","2","3","2","2","1","594948255830245376","张","422","","","","","","","","","","","","","","","","","","","","","","","","","","","","","","feedback_test","","","","","","","","","","","",""
"746","","j","psychophysics","129","426694","0.0-7.0-0.0-4.0-0.0-0.11","3","3","4","3","4","3","3","4","3","3","4","4","4","4","4","4","4","3","4","4","2","2","2","1","2","2","1","1","1","1","0","0","0","0","0","0","0","0","1","1","0","1","0","0","4","2","3","2","2","1","2","3","2","2","1","594948255830245376","张","422","","","","nonmatch","","","","","","","","","","","","","","key","j","16.651456310679386","640","356","j","true","nonmatch","img/trapezoid.png","菱形","梯形","ALT1","formal_ALT1_1","","","","","","","","","","","",""
"null","<span style='color:GreenYellow; font-size: 70px;'>正确! </span>","null","html-keyboard-response","130","427198","0.0-7.0-0.0-4.0-0.0-1.11","3","3","4","3","4","3","3","4","3","3","4","4","4","4","4","4","4","3","4","4","2","2","2","1","2","2","1","1","1","1","0","0","0","0","0","0","0","0","1","1","0","1","0","0","4","2","3","2","2","1","2","3","2","2","1","594948255830245376","张","422","","","","","","","","","","","","","","","","","","","","","","","","","","","","","","feedback_test","","","","","","","","","","","",""
"657","","f","psychophysics","131","428863","0.0-7.0-0.0-4.0-0.0-0.12","3","3","4","3","4","3","3","4","3","3","4","4","4","4","4","4","4","3","4","4","2","2","2","1","2","2","1","1","1","1","0","0","0","0","0","0","0","0","1","1","0","1","0","0","4","2","3","2","2","1","2","3","2","2","1","594948255830245376","张","422","","","","match","","","","","","","","","","","","","","key","f","16.649494949494834","640","356","f","true","match","img/pentagon.png","五边","五边","ALT1","formal_ALT1_1","","","","","","","","","","","",""
"null","<span style='color:GreenYellow; font-size: 70px;'>正确! </span>","null","html-keyboard-response","132","429368","0.0-7.0-0.0-4.0-0.0-1.12","3","3","4","3","4","3","3","4","3","3","4","4","4","4","4","4","4","3","4","4","2","2","2","1","2","2","1","1","1","1","0","0","0","0","0","0","0","0","1","1","0","1","0","0","4","2","3","2","2","1","2","3","2","2","1","594948255830245376","张","422","","","","","","","","","","","","","","","","","","","","","","","","","","","","","","feedback_test","","","","","","","","","","","",""
"602","","j","psychophysics","133","431011","0.0-7.0-0.0-4.0-0.0-0.13","3","3","4","3","4","3","3","4","3","3","4","4","4","4","4","4","4","3","4","4","2","2","2","1","2","2","1","1","1","1","0","0","0","0","0","0","0","0","1","1","0","1","0","0","4","2","3","2","2","1","2","3","2","2","1","594948255830245376","张","422","","","","nonmatch","","","","","","","","","","","","","","key","j","16.651020408163145","640","356","j","true","nonmatch","img/trapezoid.png","五边","梯形","ALT1","formal_ALT1_1","","","","","","","","","","","",""
"null","<span style='color:GreenYellow; font-size: 70px;'>正确! </span>","null","html-keyboard-response","134","431515","0.0-7.0-0.0-4.0-0.0-1.13","3","3","4","3","4","3","3","4","3","3","4","4","4","4","4","4","4","3","4","4","2","2","2","1","2","2","1","1","1","1","0","0","0","0","0","0","0","0","1","1","0","1","0","0","4","2","3","2","2","1","2","3","2","2","1","594948255830245376","张","422","","","","","","","","","","","","","","","","","","","","","","","","","","","","","","feedback_test","","","","","","","","","","","",""
"681","","f","psychophysics","135","433204","0.0-7.0-0.0-4.0-0.0-0.14","3","3","4","3","4","3","3","4","3","3","4","4","4","4","4","4","4","3","4","4","2","2","2","1","2","2","1","1","1","1","0","0","0","0","0","0","0","0","1","1","0","1","0","0","4","2","3","2","2","1","2","3","2","2","1","594948255830245376","张","422","","","","match","","","","","","","","","","","","","","key","f","16.651000000000348","640","356","f","true","match","img/circle.png","圆形","圆形","ALT1","formal_ALT1_1","","","","","","","","","","","",""
"null","<span style='color:GreenYellow; font-size: 70px;'>正确! </span>","null","html-keyboard-response","136","433708","0.0-7.0-0.0-4.0-0.0-1.14","3","3","4","3","4","3","3","4","3","3","4","4","4","4","4","4","4","3","4","4","2","2","2","1","2","2","1","1","1","1","0","0","0","0","0","0","0","0","1","1","0","1","0","0","4","2","3","2","2","1","2","3","2","2","1","594948255830245376","张","422","","","","","","","","","","","","","","","","","","","","","","","","","","","","","","feedback_test","","","","","","","","","","","",""
"648","","f","psychophysics","137","435362","0.0-7.0-0.0-4.0-0.0-0.15","3","3","4","3","4","3","3","4","3","3","4","4","4","4","4","4","4","3","4","4","2","2","2","1","2","2","1","1","1","1","0","0","0","0","0","0","0","0","1","1","0","1","0","0","4","2","3","2","2","1","2","3","2","2","1","594948255830245376","张","422","","","","match","","","","","","","","","","","","","","key","f","16.651020408163145","640","356","f","true","match","img/circle.png","圆形","圆形","ALT1","formal_ALT1_1","","","","","","","","","","","",""
"null","<span style='color:GreenYellow; font-size: 70px;'>正确! </span>","null","html-keyboard-response","138","435868","0.0-7.0-0.0-4.0-0.0-1.15","3","3","4","3","4","3","3","4","3","3","4","4","4","4","4","4","4","3","4","4","2","2","2","1","2","2","1","1","1","1","0","0","0","0","0","0","0","0","1","1","0","1","0","0","4","2","3","2","2","1","2","3","2","2","1","594948255830245376","张","422","","","","","","","","","","","","","","","","","","","","","","","","","","","","","","feedback_test","","","","","","","","","","","",""
"605","","f","psychophysics","139","437491","0.0-7.0-0.0-4.0-0.0-0.16","3","3","4","3","4","3","3","4","3","3","4","4","4","4","4","4","4","3","4","4","2","2","2","1","2","2","1","1","1","1","0","0","0","0","0","0","0","0","1","1","0","1","0","0","4","2","3","2","2","1","2","3","2","2","1","594948255830245376","张","422","","","","match","","","","","","","","","","","","","","key","f","16.555208333333212","640","356","f","true","match","img/diamond.png","菱形","菱形","ALT1","formal_ALT1_1","","","","","","","","","","","",""
"null","<span style='color:GreenYellow; font-size: 70px;'>正确! </span>","null","html-keyboard-response","140","437998","0.0-7.0-0.0-4.0-0.0-1.16","3","3","4","3","4","3","3","4","3","3","4","4","4","4","4","4","4","3","4","4","2","2","2","1","2","2","1","1","1","1","0","0","0","0","0","0","0","0","1","1","0","1","0","0","4","2","3","2","2","1","2","3","2","2","1","594948255830245376","张","422","","","","","","","","","","","","","","","","","","","","","","","","","","","","","","feedback_test","","","","","","","","","","","",""
"546","","f","psychophysics","141","439546","0.0-7.0-0.0-4.0-0.0-0.17","3","3","4","3","4","3","3","4","3","3","4","4","4","4","4","4","4","3","4","4","2","2","2","1","2","2","1","1","1","1","0","0","0","0","0","0","0","0","1","1","0","1","0","0","4","2","3","2","2","1","2","3","2","2","1","594948255830245376","张","422","","","","match","","","","","","","","","","","","","","key","f","16.651086956521993","640","356","f","true","match","img/circle.png","圆形","圆形","ALT1","formal_ALT1_1","","","","","","","","","","","",""
"null","<span style='color:GreenYellow; font-size: 70px;'>正确! </span>","null","html-keyboard-response","142","440054","0.0-7.0-0.0-4.0-0.0-1.17","3","3","4","3","4","3","3","4","3","3","4","4","4","4","4","4","4","3","4","4","2","2","2","1","2","2","1","1","1","1","0","0","0","0","0","0","0","0","1","1","0","1","0","0","4","2","3","2","2","1","2","3","2","2","1","594948255830245376","张","422","","","","","","","","","","","","","","","","","","","","","","","","","","","","","","feedback_test","","","","","","","","","","","",""
"619","","f","psychophysics","143","441682","0.0-7.0-0.0-4.0-0.0-0.18","3","3","4","3","4","3","3","4","3","3","4","4","4","4","4","4","4","3","4","4","2","2","2","1","2","2","1","1","1","1","0","0","0","0","0","0","0","0","1","1","0","1","0","0","4","2","3","2","2","1","2","3","2","2","1","594948255830245376","张","422","","","","match","","","","","","","","","","","","","","key","f","16.651041666666668","640","356","f","true","match","img/pentagon.png","五边","五边","ALT1","formal_ALT1_1","","","","","","","","","","","",""
"null","<span style='color:GreenYellow; font-size: 70px;'>正确! </span>","null","html-keyboard-response","144","442188","0.0-7.0-0.0-4.0-0.0-1.18","3","3","4","3","4","3","3","4","3","3","4","4","4","4","4","4","4","3","4","4","2","2","2","1","2","2","1","1","1","1","0","0","0","0","0","0","0","0","1","1","0","1","0","0","4","2","3","2","2","1","2","3","2","2","1","594948255830245376","张","422","","","","","","","","","","","","","","","","","","","","","","","","","","","","","","feedback_test","","","","","","","","","","","",""
"715","","j","psychophysics","145","443928","0.0-7.0-0.0-4.0-0.0-0.19","3","3","4","3","4","3","3","4","3","3","4","4","4","4","4","4","4","3","4","4","2","2","2","1","2","2","1","1","1","1","0","0","0","0","0","0","0","0","1","1","0","1","0","0","4","2","3","2","2","1","2","3","2","2","1","594948255830245376","张","422","","","","nonmatch","","","","","","","","","","","","","","key","j","16.650485436893202","640","356","j","true","nonmatch","img/pentagon.png","梯形","五边","ALT1","formal_ALT1_1","","","","","","","","","","","",""
"null","<span style='color:GreenYellow; font-size: 70px;'>正确! </span>","null","html-keyboard-response","146","444432","0.0-7.0-0.0-4.0-0.0-1.19","3","3","4","3","4","3","3","4","3","3","4","4","4","4","4","4","4","3","4","4","2","2","2","1","2","2","1","1","1","1","0","0","0","0","0","0","0","0","1","1","0","1","0","0","4","2","3","2","2","1","2","3","2","2","1","594948255830245376","张","422","","","","","","","","","","","","","","","","","","","","","","","","","","","","","","feedback_test","","","","","","","","","","","",""
"597","","j","psychophysics","147","446032","0.0-7.0-0.0-4.0-0.0-0.20","3","3","4","3","4","3","3","4","3","3","4","4","4","4","4","4","4","3","4","4","2","2","2","1","2","2","1","1","1","1","0","0","0","0","0","0","0","0","1","1","0","1","0","0","4","2","3","2","2","1","2","3","2","2","1","594948255830245376","张","422","","","","nonmatch","","","","","","","","","","","","","","key","j","16.65052631578935","640","356","j","true","nonmatch","img/pentagon.png","菱形","五边","ALT1","formal_ALT1_1","","","","","","","","","","","",""
"null","<span style='color:GreenYellow; font-size: 70px;'>正确! </span>","null","html-keyboard-response","148","446535","0.0-7.0-0.0-4.0-0.0-1.20","3","3","4","3","4","3","3","4","3","3","4","4","4","4","4","4","4","3","4","4","2","2","2","1","2","2","1","1","1","1","0","0","0","0","0","0","0","0","1","1","0","1","0","0","4","2","3","2","2","1","2","3","2","2","1","594948255830245376","张","422","","","","","","","","","","","","","","","","","","","","","","","","","","","","","","feedback_test","","","","","","","","","","","",""
"602","","f","psychophysics","149","448144","0.0-7.0-0.0-4.0-0.0-0.21","3","3","4","3","4","3","3","4","3","3","4","4","4","4","4","4","4","3","4","4","2","2","2","1","2","2","1","1","1","1","0","0","0","0","0","0","0","0","1","1","0","1","0","0","4","2","3","2","2","1","2","3","2","2","1","594948255830245376","张","422","","","","match","","","","","","","","","","","","","","key","f","16.650000000000244","640","356","f","true","match","img/trapezoid.png","梯形","梯形","ALT1","formal_ALT1_1","","","","","","","","","","","",""
"null","<span style='color:GreenYellow; font-size: 70px;'>正确! </span>","null","html-keyboard-response","150","448649","0.0-7.0-0.0-4.0-0.0-1.21","3","3","4","3","4","3","3","4","3","3","4","4","4","4","4","4","4","3","4","4","2","2","2","1","2","2","1","1","1","1","0","0","0","0","0","0","0","0","1","1","0","1","0","0","4","2","3","2","2","1","2","3","2","2","1","594948255830245376","张","422","","","","","","","","","","","","","","","","","","","","","","","","","","","","","","feedback_test","","","","","","","","","","","",""
"619","","j","psychophysics","151","450282","0.0-7.0-0.0-4.0-0.0-0.22","3","3","4","3","4","3","3","4","3","3","4","4","4","4","4","4","4","3","4","4","2","2","2","1","2","2","1","1","1","1","0","0","0","0","0","0","0","0","1","1","0","1","0","0","4","2","3","2","2","1","2","3","2","2","1","594948255830245376","张","422","","","","nonmatch","","","","","","","","","","","","","","key","j","16.650515463917884","640","356","j","true","nonmatch","img/pentagon.png","圆形","五边","ALT1","formal_ALT1_1","","","","","","","","","","","",""
"null","<span style='color:GreenYellow; font-size: 70px;'>正确! </span>","null","html-keyboard-response","152","450789","0.0-7.0-0.0-4.0-0.0-1.22","3","3","4","3","4","3","3","4","3","3","4","4","4","4","4","4","4","3","4","4","2","2","2","1","2","2","1","1","1","1","0","0","0","0","0","0","0","0","1","1","0","1","0","0","4","2","3","2","2","1","2","3","2","2","1","594948255830245376","张","422","","","","","","","","","","","","","","","","","","","","","","","","","","","","","","feedback_test","","","","","","","","","","","",""
"586","","f","psychophysics","153","452383","0.0-7.0-0.0-4.0-0.0-0.23","3","3","4","3","4","3","3","4","3","3","4","4","4","4","4","4","4","3","4","4","2","2","2","1","2","2","1","1","1","1","0","0","0","0","0","0","0","0","1","1","0","1","0","0","4","2","3","2","2","1","2","3","2","2","1","594948255830245376","张","422","","","","match","","","","","","","","","","","","","","key","f","16.65000000000037","640","356","f","true","match","img/diamond.png","菱形","菱形","ALT1","formal_ALT1_1","","","","","","","","","","","",""
"null","<span style='color:GreenYellow; font-size: 70px;'>正确! </span>","null","html-keyboard-response","154","452886","0.0-7.0-0.0-4.0-0.0-1.23","3","3","4","3","4","3","3","4","3","3","4","4","4","4","4","4","4","3","4","4","2","2","2","1","2","2","1","1","1","1","0","0","0","0","0","0","0","0","1","1","0","1","0","0","4","2","3","2","2","1","2","3","2","2","1","594948255830245376","张","422","","","","","","","","","","","","","","","","","","","","","","","","","","","","","","feedback_test","","","","","","","","","","","",""
"618","","f","psychophysics","155","454515","0.0-7.0-0.0-4.0-0.0-0.24","3","3","4","3","4","3","3","4","3","3","4","4","4","4","4","4","4","3","4","4","2","2","2","1","2","2","1","1","1","1","0","0","0","0","0","0","0","0","1","1","0","1","0","0","4","2","3","2","2","1","2","3","2","2","1","594948255830245376","张","422","","","","match","","","","","","","","","","","","","","key","f","16.650000000000244","640","356","f","true","match","img/diamond.png","菱形","菱形","ALT1","formal_ALT1_1","","","","","","","","","","","",""
"null","<span style='color:GreenYellow; font-size: 70px;'>正确! </span>","null","html-keyboard-response","156","455018","0.0-7.0-0.0-4.0-0.0-1.24","3","3","4","3","4","3","3","4","3","3","4","4","4","4","4","4","4","3","4","4","2","2","2","1","2","2","1","1","1","1","0","0","0","0","0","0","0","0","1","1","0","1","0","0","4","2","3","2","2","1","2","3","2","2","1","594948255830245376","张","422","","","","","","","","","","","","","","","","","","","","","","","","","","","","","","feedback_test","","","","","","","","","","","",""
"606","","j","psychophysics","157","456632","0.0-7.0-0.0-4.0-0.0-0.25","3","3","4","3","4","3","3","4","3","3","4","4","4","4","4","4","4","3","4","4","2","2","2","1","2","2","1","1","1","1","0","0","0","0","0","0","0","0","1","1","0","1","0","0","4","2","3","2","2","1","2","3","2","2","1","594948255830245376","张","422","","","","nonmatch","","","","","","","","","","","","","","key","j","16.65052631578935","640","356","j","true","nonmatch","img/pentagon.png","圆形","五边","ALT1","formal_ALT1_1","","","","","","","","","","","",""
"null","<span style='color:GreenYellow; font-size: 70px;'>正确! </span>","null","html-keyboard-response","158","457136","0.0-7.0-0.0-4.0-0.0-1.25","3","3","4","3","4","3","3","4","3","3","4","4","4","4","4","4","4","3","4","4","2","2","2","1","2","2","1","1","1","1","0","0","0","0","0","0","0","0","1","1","0","1","0","0","4","2","3","2","2","1","2","3","2","2","1","594948255830245376","张","422","","","","","","","","","","","","","","","","","","","","","","","","","","","","","","feedback_test","","","","","","","","","","","",""
"601","","f","psychophysics","159","458745","0.0-7.0-0.0-4.0-0.0-0.26","3","3","4","3","4","3","3","4","3","3","4","4","4","4","4","4","4","3","4","4","2","2","2","1","2","2","1","1","1","1","0","0","0","0","0","0","0","0","1","1","0","1","0","0","4","2","3","2","2","1","2","3","2","2","1","594948255830245376","张","422","","","","match","","","","","","","","","","","","","","key","f","16.65052631578935","640","356","f","true","match","img/pentagon.png","五边","五边","ALT1","formal_ALT1_1","","","","","","","","","","","",""
"null","<span style='color:GreenYellow; font-size: 70px;'>正确! </span>","null","html-keyboard-response","160","459250","0.0-7.0-0.0-4.0-0.0-1.26","3","3","4","3","4","3","3","4","3","3","4","4","4","4","4","4","4","3","4","4","2","2","2","1","2","2","1","1","1","1","0","0","0","0","0","0","0","0","1","1","0","1","0","0","4","2","3","2","2","1","2","3","2","2","1","594948255830245376","张","422","","","","","","","","","","","","","","","","","","","","","","","","","","","","","","feedback_test","","","","","","","","","","","",""
"628","","f","psychophysics","161","460886","0.0-7.0-0.0-4.0-0.0-0.27","3","3","4","3","4","3","3","4","3","3","4","4","4","4","4","4","4","3","4","4","2","2","2","1","2","2","1","1","1","1","0","0","0","0","0","0","0","0","1","1","0","1","0","0","4","2","3","2","2","1","2","3","2","2","1","594948255830245376","张","422","","","","match","","","","","","","","","","","","","","key","f","16.650515463917287","640","356","f","true","match","img/trapezoid.png","梯形","梯形","ALT1","formal_ALT1_1","","","","","","","","","","","",""
"null","<span style='color:GreenYellow; font-size: 70px;'>正确! </span>","null","html-keyboard-response","162","461394","0.0-7.0-0.0-4.0-0.0-1.27","3","3","4","3","4","3","3","4","3","3","4","4","4","4","4","4","4","3","4","4","2","2","2","1","2","2","1","1","1","1","0","0","0","0","0","0","0","0","1","1","0","1","0","0","4","2","3","2","2","1","2","3","2","2","1","594948255830245376","张","422","","","","","","","","","","","","","","","","","","","","","","","","","","","","","","feedback_test","","","","","","","","","","","",""
"808","","j","psychophysics","163","463220","0.0-7.0-0.0-4.0-0.0-0.28","3","3","4","3","4","3","3","4","3","3","4","4","4","4","4","4","4","3","4","4","2","2","2","1","2","2","1","1","1","1","0","0","0","0","0","0","0","0","1","1","0","1","0","0","4","2","3","2","2","1","2","3","2","2","1","594948255830245376","张","422","","","","nonmatch","","","","","","","","","","","","","","key","j","16.65185185185153","640","356","j","true","nonmatch","img/circle.png","五边","圆形","ALT1","formal_ALT1_1","","","","","","","","","","","",""
"null","<span style='color:GreenYellow; font-size: 70px;'>正确! </span>","null","html-keyboard-response","164","463723","0.0-7.0-0.0-4.0-0.0-1.28","3","3","4","3","4","3","3","4","3","3","4","4","4","4","4","4","4","3","4","4","2","2","2","1","2","2","1","1","1","1","0","0","0","0","0","0","0","0","1","1","0","1","0","0","4","2","3","2","2","1","2","3","2","2","1","594948255830245376","张","422","","","","","","","","","","","","","","","","","","","","","","","","","","","","","","feedback_test","","","","","","","","","","","",""
"735","","f","psychophysics","165","465460","0.0-7.0-0.0-4.0-0.0-0.29","3","3","4","3","4","3","3","4","3","3","4","4","4","4","4","4","4","3","4","4","2","2","2","1","2","2","1","1","1","1","0","0","0","0","0","0","0","0","1","1","0","1","0","0","4","2","3","2","2","1","2","3","2","2","1","594948255830245376","张","422","","","","match","","","","","","","","","","","","","","key","f","16.65096153846165","640","356","f","true","match","img/circle.png","圆形","圆形","ALT1","formal_ALT1_1","","","","","","","","","","","",""
"null","<span style='color:GreenYellow; font-size: 70px;'>正确! </span>","null","html-keyboard-response","166","465968","0.0-7.0-0.0-4.0-0.0-1.29","3","3","4","3","4","3","3","4","3","3","4","4","4","4","4","4","4","3","4","4","2","2","2","1","2","2","1","1","1","1","0","0","0","0","0","0","0","0","1","1","0","1","0","0","4","2","3","2","2","1","2","3","2","2","1","594948255830245376","张","422","","","","","","","","","","","","","","","","","","","","","","","","","","","","","","feedback_test","","","","","","","","","","","",""
"751","","j","psychophysics","167","467724","0.0-7.0-0.0-4.0-0.0-0.30","3","3","4","3","4","3","3","4","3","3","4","4","4","4","4","4","4","3","4","4","2","2","2","1","2","2","1","1","1","1","0","0","0","0","0","0","0","0","1","1","0","1","0","0","4","2","3","2","2","1","2","3","2","2","1","594948255830245376","张","422","","","","nonmatch","","","","","","","","","","","","","","key","j","16.65142857142879","640","356","j","true","nonmatch","img/trapezoid.png","五边","梯形","ALT1","formal_ALT1_1","","","","","","","","","","","",""
"null","<span style='color:GreenYellow; font-size: 70px;'>正确! </span>","null","html-keyboard-response","168","468229","0.0-7.0-0.0-4.0-0.0-1.30","3","3","4","3","4","3","3","4","3","3","4","4","4","4","4","4","4","3","4","4","2","2","2","1","2","2","1","1","1","1","0","0","0","0","0","0","0","0","1","1","0","1","0","0","4","2","3","2","2","1","2","3","2","2","1","594948255830245376","张","422","","","","","","","","","","","","","","","","","","","","","","","","","","","","","","feedback_test","","","","","","","","","","","",""
"726","","j","psychophysics","169","469980","0.0-7.0-0.0-4.0-0.0-0.31","3","3","4","3","4","3","3","4","3","3","4","4","4","4","4","4","4","3","4","4","2","2","2","1","2","2","1","1","1","1","0","0","0","0","0","0","0","0","1","1","0","1","0","0","4","2","3","2","2","1","2","3","2","2","1","594948255830245376","张","422","","","","nonmatch","","","","","","","","","","","","","","key","j","16.65096153846165","640","356","j","true","nonmatch","img/diamond.png","梯形","菱形","ALT1","formal_ALT1_1","","","","","","","","","","","",""
"null","<span style='color:GreenYellow; font-size: 70px;'>正确! </span>","null","html-keyboard-response","170","470489","0.0-7.0-0.0-4.0-0.0-1.31","3","3","4","3","4","3","3","4","3","3","4","4","4","4","4","4","4","3","4","4","2","2","2","1","2","2","1","1","1","1","0","0","0","0","0","0","0","0","1","1","0","1","0","0","4","2","3","2","2","1","2","3","2","2","1","594948255830245376","张","422","","","","","","","","","","","","","","","","","","","","","","","","","","","","","","feedback_test","","","","","","","","","","","",""
"713","","f","psychophysics","171","472209","0.0-7.0-0.0-4.0-0.0-0.32","3","3","4","3","4","3","3","4","3","3","4","4","4","4","4","4","4","3","4","4","2","2","2","1","2","2","1","1","1","1","0","0","0","0","0","0","0","0","1","1","0","1","0","0","4","2","3","2","2","1","2","3","2","2","1","594948255830245376","张","422","","","","match","","","","","","","","","","","","","","key","f","16.65098039215652","640","356","f","true","match","img/diamond.png","菱形","菱形","ALT1","formal_ALT1_1","","","","","","","","","","","",""
"null","<span style='color:GreenYellow; font-size: 70px;'>正确! </span>","null","html-keyboard-response","172","472714","0.0-7.0-0.0-4.0-0.0-1.32","3","3","4","3","4","3","3","4","3","3","4","4","4","4","4","4","4","3","4","4","2","2","2","1","2","2","1","1","1","1","0","0","0","0","0","0","0","0","1","1","0","1","0","0","4","2","3","2","2","1","2","3","2","2","1","594948255830245376","张","422","","","","","","","","","","","","","","","","","","","","","","","","","","","","","","feedback_test","","","","","","","","","","","",""
"825","","j","psychophysics","173","474543","0.0-7.0-0.0-4.0-0.0-0.33","3","3","4","3","4","3","3","4","3","3","4","4","4","4","4","4","4","3","4","4","2","2","2","1","2","2","1","1","1","1","0","0","0","0","0","0","0","0","1","1","0","1","0","0","4","2","3","2","2","1","2","3","2","2","1","594948255830245376","张","422","","","","nonmatch","","","","","","","","","","","","","","key","j","16.65045871559601","640","356","j","true","nonmatch","img/trapezoid.png","菱形","梯形","ALT1","formal_ALT1_1","","","","","","","","","","","",""
"null","<span style='color:GreenYellow; font-size: 70px;'>正确! </span>","null","html-keyboard-response","174","475078","0.0-7.0-0.0-4.0-0.0-1.33","3","3","4","3","4","3","3","4","3","3","4","4","4","4","4","4","4","3","4","4","2","2","2","1","2","2","1","1","1","1","0","0","0","0","0","0","0","0","1","1","0","1","0","0","4","2","3","2","2","1","2","3","2","2","1","594948255830245376","张","422","","","","","","","","","","","","","","","","","","","","","","","","","","","","","","feedback_test","","","","","","","","","","","",""
"776","","j","psychophysics","175","476873","0.0-7.0-0.0-4.0-0.0-0.34","3","3","4","3","4","3","3","4","3","3","4","4","4","4","4","4","4","3","4","4","2","2","2","1","2","2","1","1","1","1","0","0","0","0","0","0","0","0","1","1","0","1","0","0","4","2","3","2","2","1","2","3","2","2","1","594948255830245376","张","422","","","","nonmatch","","","","","","","","","","","","","","key","j","16.650467289719952","640","356","j","true","nonmatch","img/diamond.png","五边","菱形","ALT1","formal_ALT1_1","","","","","","","","","","","",""
"null","<span style='color:GreenYellow; font-size: 70px;'>正确! </span>","null","html-keyboard-response","176","477378","0.0-7.0-0.0-4.0-0.0-1.34","3","3","4","3","4","3","3","4","3","3","4","4","4","4","4","4","4","3","4","4","2","2","2","1","2","2","1","1","1","1","0","0","0","0","0","0","0","0","1","1","0","1","0","0","4","2","3","2","2","1","2","3","2","2","1","594948255830245376","张","422","","","","","","","","","","","","","","","","","","","","","","","","","","","","","","feedback_test","","","","","","","","","","","",""
"1137","","j","psychophysics","177","479518","0.0-7.0-0.0-4.0-0.0-0.35","3","3","4","3","4","3","3","4","3","3","4","4","4","4","4","4","4","3","4","4","2","2","2","1","2","2","1","1","1","1","0","0","0","0","0","0","0","0","1","1","0","1","0","0","4","2","3","2","2","1","2","3","2","2","1","594948255830245376","张","422","","","","nonmatch","","","","","","","","","","","","","","key","j","16.624409448818806","640","356","j","true","nonmatch","img/pentagon.png","菱形","五边","ALT1","formal_ALT1_1","","","","","","","","","","","",""
"null","<span style='color:GreenYellow; font-size: 70px;'>正确! </span>","null","html-keyboard-response","178","480020","0.0-7.0-0.0-4.0-0.0-1.35","3","3","4","3","4","3","3","4","3","3","4","4","4","4","4","4","4","3","4","4","2","2","2","1","2","2","1","1","1","1","0","0","0","0","0","0","0","0","1","1","0","1","0","0","4","2","3","2","2","1","2","3","2","2","1","594948255830245376","张","422","","","","","","","","","","","","","","","","","","","","","","","","","","","","","","feedback_test","","","","","","","","","","","",""
"588","","f","psychophysics","179","481615","0.0-7.0-0.0-4.0-0.0-0.36","3","3","4","3","4","3","3","4","3","3","4","4","4","4","4","4","4","3","4","4","2","2","2","1","2","2","1","1","1","1","0","0","0","0","0","0","0","0","1","1","0","1","0","0","4","2","3","2","2","1","2","3","2","2","1","594948255830245376","张","422","","","","match","","","","","","","","","","","","","","key","f","16.651578947368666","640","356","f","true","match","img/circle.png","圆形","圆形","ALT1","formal_ALT1_1","","","","","","","","","","","",""
"null","<span style='color:GreenYellow; font-size: 70px;'>正确! </span>","null","html-keyboard-response","180","482122","0.0-7.0-0.0-4.0-0.0-1.36","3","3","4","3","4","3","3","4","3","3","4","4","4","4","4","4","4","3","4","4","2","2","2","1","2","2","1","1","1","1","0","0","0","0","0","0","0","0","1","1","0","1","0","0","4","2","3","2","2","1","2","3","2","2","1","594948255830245376","张","422","","","","","","","","","","","","","","","","","","","","","","","","","","","","","","feedback_test","","","","","","","","","","","",""
"761","","j","psychophysics","181","483902","0.0-7.0-0.0-4.0-0.0-0.37","3","3","4","3","4","3","3","4","3","3","4","4","4","4","4","4","4","3","4","4","2","2","2","1","2","2","1","1","1","1","0","0","0","0","0","0","0","0","1","1","0","1","0","0","4","2","3","2","2","1","2","3","2","2","1","594948255830245376","张","422","","","","nonmatch","","","","","","","","","","","","","","key","j","16.64622641509434","640","356","j","true","nonmatch","img/pentagon.png","梯形","五边","ALT1","formal_ALT1_1","","","","","","","","","","","",""
