"rt","stimulus","response","trial_type","trial_index","time_elapsed","internal_node_id","ses_1","ses_2","ses_3","ses_4","ses_5","ses_6","ses_7","ses_8","ses_9","ses_10","coreself_1","coreself_2","coreself_3","coreself_4","coreself_5","coreself_6","coreself_7","coreself_8","coreself_9","coreself_10","SGPS_1","SGPS_2","SGPS_3","SGPS_4","SGPS_5","SGPS_6","SGPS_7","SGPS_8","SGPS_9","NPI1","NPI2","NPI3","NPI4","NPI5","NPI6","NPI7","NPI8","NPI9","NPI10","NPI11","NPI12","NPI13","NPI14","NPI15","hsns_1","hsns_2","hsns_3","hsns_4","hsns_5","trap1","hsns_6","hsns_7","hsns_8","hsns_9","hsns_10","subj_idx","friend_name","ParticipantID","value","success","user_agent","responses","item_order","radio_event_ids","radio_event_times","key_event_times","mouse_event_times","straightlining","zigzagging","honeypot","timeout","failed_images","failed_audio","failed_video","view_history","response_type","key_press","avg_frame_time","center_x","center_y","correct_response","correct","identity","Image","word","condition","task_id","screen_id","time_stamp","version_attrib2","version_target2","IAT","RT","varname","summary","version_attrib","version_target","question_order","correct_answer","trap1_item"
"1343","
   <p><div style = ""color: white;font-size:25px;"">您好，欢迎参加本次实验。</div> </p>
   <p><div style = ""color: white;font-size:25px;"">为充分保障您的权利，请确保您已经知晓并同意《参与实验同意书》以及《数据公开知情同意书》。</div></p>
   <p><div style = ""color: white;font-size:25px;"">如果您未见过上述内容，请咨询实验员。</div></p>
   <p><div style = ""color: white;font-size:25px;"">如果您选择继续实验，则表示您已经清楚两份知情同意书的内容并同意。</div></p>
   <p><div style = ""color: pink;font-size:30px;"">请确保您记得day0的实验编号，您将在本次实验输入该编号，若您忘记，请咨询实验员后作答。</div></p>
   <p><div style = ""color: lightblue;font-size:25px;"">请您尽可能认真地作答，我们将依据您在各问卷和按键任务中的作答质量发放报酬。</div></p>
   <p> <div style = ""color: green;font-size:25px;""><按空格键至下页></div> </p>
   "," ","html-keyboard-response","0","1350","0.0-0.0","3","3","3","3","4","3","3","3","3","4","4","2","1","4","2","5","3","3","4","5","2","1","2","2","1","2","1","2","1","1","0","1","1","0","0","1","1","0","1","1","0","1","0","1","4","4","3","1","4","1","4","4","5","5","2","797773565536641026","黄","311","","","","","","","","","","","","","","","","","","","","","","","","","","","","","","","","","","","","","","","","","",""
"","","","call-function","1","1353","0.0-1.0-0.0","3","3","3","3","4","3","3","3","3","4","4","2","1","4","2","5","3","3","4","5","2","1","2","2","1","2","1","2","1","1","0","1","1","0","0","1","1","0","1","1","0","1","0","1","4","4","3","1","4","1","4","4","5","5","2","797773565536641026","黄","311","","","","","","","","","","","","","","","","","","","","","","","","","","","","","","","","","","","","","","","","","",""
"15603","","{""friend_name"":""黄"",""ParticipantID"":""311""}","survey-html-form","2","16958","0.0-1.0-1.0","3","3","3","3","4","3","3","3","3","4","4","2","1","4","2","5","3","3","4","5","2","1","2","2","1","2","1","2","1","1","0","1","1","0","0","1","1","0","1","1","0","1","0","1","4","4","3","1","4","1","4","4","5","5","2","797773565536641026","黄","311","","","","","","","","","","","","","","","","","","","","","","","","","","","","","","","","","","","","","","","","","",""
"","","","fullscreen","3","18101","0.0-2.0","3","3","3","3","4","3","3","3","3","4","4","2","1","4","2","5","3","3","4","5","2","1","2","2","1","2","1","2","1","1","0","1","1","0","0","1","1","0","1","1","0","1","0","1","4","4","3","1","4","1","4","4","5","5","2","797773565536641026","黄","311","","true","{}","","","","","","","","","","","","","","","","","","","","","","","","","","","","","","","","","","","","","","",""
"22524.60000000149","","{""Q01"":""3"",""Q02"":""3"",""Q03"":""3"",""Q04"":""3"",""Q05"":""4"",""Q06"":""3"",""Q07"":""3"",""Q08"":""3"",""Q09"":""3"",""Q10"":""4""}","survey-template","4","40633","0.0-3.0","3","3","3","3","4","3","3","3","3","4","4","2","1","4","2","5","3","3","4","5","2","1","2","2","1","2","1","2","1","1","0","1","1","0","0","1","1","0","1","1","0","1","0","1","4","4","3","1","4","1","4","4","5","5","2","797773565536641026","黄","311","","","","{""Q01"":""3"",""Q02"":""3"",""Q03"":""3"",""Q04"":""3"",""Q05"":""4"",""Q06"":""3"",""Q07"":""3"",""Q08"":""3"",""Q09"":""3"",""Q10"":""4""}","[0,1,2,3,4,5,6,7,8,9]","[""Q01"",""Q02"",""Q03"",""Q04"",""Q05"",""Q06"",""Q07"",""Q08"",""Q09"",""Q10""]","[5281.89999999851,6633.69999999553,8218.10000000149,9313.69999999553,11049.69999999553,12297.60000000149,13585.39999999851,15121.29999999702,15761.5,17329.29999999702]","[]","[5281.89999999851,6633.69999999553,8218.10000000149,9313.69999999553,11049.69999999553,12297.60000000149,13585.39999999851,15121.29999999702,15761.5,16681.39999999851,17329.29999999702,22521.39999999851]","0.5","0.4444444444444444","0","","","","","","","","","","","","","","","","","","","","","","","","","","","","","",""
"28523.59999999404","","{""Q01"":""4"",""Q02"":""2"",""Q03"":""1"",""Q04"":""4"",""Q05"":""2"",""Q06"":""5"",""Q07"":""3"",""Q08"":""3"",""Q09"":""4"",""Q10"":""5""}","survey-template","5","69177","0.0-4.0","3","3","3","3","4","3","3","3","3","4","4","2","1","4","2","5","3","3","4","5","2","1","2","2","1","2","1","2","1","1","0","1","1","0","0","1","1","0","1","1","0","1","0","1","4","4","3","1","4","1","4","4","5","5","2","797773565536641026","黄","311","","","","{""Q01"":""4"",""Q02"":""2"",""Q03"":""1"",""Q04"":""4"",""Q05"":""2"",""Q06"":""5"",""Q07"":""3"",""Q08"":""3"",""Q09"":""4"",""Q10"":""5""}","[0,1,2,3,4,5,6,7,8,9]","[""Q01"",""Q02"",""Q03"",""Q04"",""Q05"",""Q06"",""Q07"",""Q08"",""Q08"",""Q09"",""Q10""]","[4456.69999999553,5833.5999999940395,6752.39999999851,8296.5,10664.59999999404,12112.59999999404,13504.39999999851,15400.69999999553,19832.39999999851,21216.09999999404,23912.09999999404]","[]","[4456.69999999553,5833.5999999940395,6752.39999999851,8296.5,10664.59999999404,12112.59999999404,13504.39999999851,15400.69999999553,19832.39999999851,21216.09999999404,23528.39999999851,23912.09999999404,28520.19999999553]","0.5","0.4444444444444444","0","","","","","","","","","","","","","","","","","","","","","","","","","","","","","",""
"","","","preload","6","69910","0.0-5.0","3","3","3","3","4","3","3","3","3","4","4","2","1","4","2","5","3","3","4","5","2","1","2","2","1","2","1","2","1","1","0","1","1","0","0","1","1","0","1","1","0","1","0","1","4","4","3","1","4","1","4","4","5","5","2","797773565536641026","黄","311","","true","","","","","","","","","","","false","[]","[]","[]","","","","","","","","","","","","","","","","","","","","","","","","","",""
"2260","","","instructions","7","72173","0.0-6.0","3","3","3","3","4","3","3","3","3","4","4","2","1","4","2","5","3","3","4","5","2","1","2","2","1","2","1","2","1","1","0","1","1","0","0","1","1","0","1","1","0","1","0","1","4","4","3","1","4","1","4","4","5","5","2","797773565536641026","黄","311","","","","","","","","","","","","","","","","","[{""page_index"":0,""viewing_time"":2260}]","","","","","","","","","","","","","","","","","","","","","","","","",""
"13437","","","instructions","8","85612","0.0-7.0-1.0-0.0","3","3","3","3","4","3","3","3","3","4","4","2","1","4","2","5","3","3","4","5","2","1","2","2","1","2","1","2","1","1","0","1","1","0","0","1","1","0","1","1","0","1","0","1","4","4","3","1","4","1","4","4","5","5","2","797773565536641026","黄","311","","","","","","","","","","","","","","","","","[{""page_index"":0,""viewing_time"":12141},{""page_index"":1,""viewing_time"":792},{""page_index"":2,""viewing_time"":504}]","","","","","","","","","","","","","","","","","","","","","","","","",""
"1103","","f","psychophysics","9","87735","0.0-7.0-1.0-1.0-0.0-0.0","3","3","3","3","4","3","3","3","3","4","4","2","1","4","2","5","3","3","4","5","2","1","2","2","1","2","1","2","1","1","0","1","1","0","0","1","1","0","1","1","0","1","0","1","4","4","3","1","4","1","4","4","5","5","2","797773565536641026","黄","311","","","","nonmatch","","","","","","","","","","","","","","key","f","17.07880991735531","683","380","f","true","nonmatch","img/square.png","椭圆","方形","ALT1_2","prac_ALT1_2","","","","","","","","","","","",""
"null","<span style='color:GreenYellow; font-size: 70px;'>正确! </span>","null","html-keyboard-response","10","88244","0.0-7.0-1.0-1.0-0.0-1.0","3","3","3","3","4","3","3","3","3","4","4","2","1","4","2","5","3","3","4","5","2","1","2","2","1","2","1","2","1","1","0","1","1","0","0","1","1","0","1","1","0","1","0","1","4","4","3","1","4","1","4","4","5","5","2","797773565536641026","黄","311","","","","","","","","","","","","","","","","","","","","","","","","","","","","","","feedback_test","","","","","","","","","","","",""
"713","","j","psychophysics","11","89971","0.0-7.0-1.0-1.0-0.0-0.1","3","3","3","3","4","3","3","3","3","4","4","2","1","4","2","5","3","3","4","5","2","1","2","2","1","2","1","2","1","1","0","1","1","0","0","1","1","0","1","1","0","1","0","1","4","4","3","1","4","1","4","4","5","5","2","797773565536641026","黄","311","","","","match","","","","","","","","","","","","","","key","j","16.67000970873785","683","380","j","true","match","img/ellipse.png","椭圆","椭圆","ALT1_2","prac_ALT1_2","","","","","","","","","","","",""
"null","<span style='color:GreenYellow; font-size: 70px;'>正确! </span>","null","html-keyboard-response","12","90477","0.0-7.0-1.0-1.0-0.0-1.1","3","3","3","3","4","3","3","3","3","4","4","2","1","4","2","5","3","3","4","5","2","1","2","2","1","2","1","2","1","1","0","1","1","0","0","1","1","0","1","1","0","1","0","1","4","4","3","1","4","1","4","4","5","5","2","797773565536641026","黄","311","","","","","","","","","","","","","","","","","","","","","","","","","","","","","","feedback_test","","","","","","","","","","","",""
"936","","f","psychophysics","13","92420","0.0-7.0-1.0-1.0-0.0-0.2","3","3","3","3","4","3","3","3","3","4","4","2","1","4","2","5","3","3","4","5","2","1","2","2","1","2","1","2","1","1","0","1","1","0","0","1","1","0","1","1","0","1","0","1","4","4","3","1","4","1","4","4","5","5","2","797773565536641026","黄","311","","","","nonmatch","","","","","","","","","","","","","","key","f","16.665327586206896","683","380","f","true","nonmatch","img/pentagon.png","梯形","五边","ALT1_2","prac_ALT1_2","","","","","","","","","","","",""
"null","<span style='color:GreenYellow; font-size: 70px;'>正确! </span>","null","html-keyboard-response","14","92925","0.0-7.0-1.0-1.0-0.0-1.2","3","3","3","3","4","3","3","3","3","4","4","2","1","4","2","5","3","3","4","5","2","1","2","2","1","2","1","2","1","1","0","1","1","0","0","1","1","0","1","1","0","1","0","1","4","4","3","1","4","1","4","4","5","5","2","797773565536641026","黄","311","","","","","","","","","","","","","","","","","","","","","","","","","","","","","","feedback_test","","","","","","","","","","","",""
"699","","f","psychophysics","15","94670","0.0-7.0-1.0-1.0-0.0-0.3","3","3","3","3","4","3","3","3","3","4","4","2","1","4","2","5","3","3","4","5","2","1","2","2","1","2","1","2","1","1","0","1","1","0","0","1","1","0","1","1","0","1","0","1","4","4","3","1","4","1","4","4","5","5","2","797773565536641026","黄","311","","","","nonmatch","","","","","","","","","","","","","","key","f","16.82987254901958","683","380","f","true","nonmatch","img/trapezoid.png","方形","梯形","ALT1_2","prac_ALT1_2","","","","","","","","","","","",""
"null","<span style='color:GreenYellow; font-size: 70px;'>正确! </span>","null","html-keyboard-response","16","95173","0.0-7.0-1.0-1.0-0.0-1.3","3","3","3","3","4","3","3","3","3","4","4","2","1","4","2","5","3","3","4","5","2","1","2","2","1","2","1","2","1","1","0","1","1","0","0","1","1","0","1","1","0","1","0","1","4","4","3","1","4","1","4","4","5","5","2","797773565536641026","黄","311","","","","","","","","","","","","","","","","","","","","","","","","","","","","","","feedback_test","","","","","","","","","","","",""
"751","","f","psychophysics","17","96931","0.0-7.0-1.0-1.0-0.0-0.4","3","3","3","3","4","3","3","3","3","4","4","2","1","4","2","5","3","3","4","5","2","1","2","2","1","2","1","2","1","1","0","1","1","0","0","1","1","0","1","1","0","1","0","1","4","4","3","1","4","1","4","4","5","5","2","797773565536641026","黄","311","","","","nonmatch","","","","","","","","","","","","","","key","f","16.820617647058906","683","380","f","true","nonmatch","img/square.png","梯形","方形","ALT1_2","prac_ALT1_2","","","","","","","","","","","",""
"null","<span style='color:GreenYellow; font-size: 70px;'>正确! </span>","null","html-keyboard-response","18","97436","0.0-7.0-1.0-1.0-0.0-1.4","3","3","3","3","4","3","3","3","3","4","4","2","1","4","2","5","3","3","4","5","2","1","2","2","1","2","1","2","1","1","0","1","1","0","0","1","1","0","1","1","0","1","0","1","4","4","3","1","4","1","4","4","5","5","2","797773565536641026","黄","311","","","","","","","","","","","","","","","","","","","","","","","","","","","","","","feedback_test","","","","","","","","","","","",""
"627","","j","psychophysics","19","99071","0.0-7.0-1.0-1.0-0.0-0.5","3","3","3","3","4","3","3","3","3","4","4","2","1","4","2","5","3","3","4","5","2","1","2","2","1","2","1","2","1","1","0","1","1","0","0","1","1","0","1","1","0","1","0","1","4","4","3","1","4","1","4","4","5","5","2","797773565536641026","黄","311","","","","match","","","","","","","","","","","","","","key","j","16.666875000000044","683","380","j","true","match","img/square.png","方形","方形","ALT1_2","prac_ALT1_2","","","","","","","","","","","",""
"null","<span style='color:GreenYellow; font-size: 70px;'>正确! </span>","null","html-keyboard-response","20","99580","0.0-7.0-1.0-1.0-0.0-1.5","3","3","3","3","4","3","3","3","3","4","4","2","1","4","2","5","3","3","4","5","2","1","2","2","1","2","1","2","1","1","0","1","1","0","0","1","1","0","1","1","0","1","0","1","4","4","3","1","4","1","4","4","5","5","2","797773565536641026","黄","311","","","","","","","","","","","","","","","","","","","","","","","","","","","","","","feedback_test","","","","","","","","","","","",""
"640","","f","psychophysics","21","101227","0.0-7.0-1.0-1.0-0.0-0.6","3","3","3","3","4","3","3","3","3","4","4","2","1","4","2","5","3","3","4","5","2","1","2","2","1","2","1","2","1","1","0","1","1","0","0","1","1","0","1","1","0","1","0","1","4","4","3","1","4","1","4","4","5","5","2","797773565536641026","黄","311","","","","nonmatch","","","","","","","","","","","","","","key","f","16.669112244898","683","380","f","true","nonmatch","img/trapezoid.png","椭圆","梯形","ALT1_2","prac_ALT1_2","","","","","","","","","","","",""
"null","<span style='color:GreenYellow; font-size: 70px;'>正确! </span>","null","html-keyboard-response","22","101732","0.0-7.0-1.0-1.0-0.0-1.6","3","3","3","3","4","3","3","3","3","4","4","2","1","4","2","5","3","3","4","5","2","1","2","2","1","2","1","2","1","1","0","1","1","0","0","1","1","0","1","1","0","1","0","1","4","4","3","1","4","1","4","4","5","5","2","797773565536641026","黄","311","","","","","","","","","","","","","","","","","","","","","","","","","","","","","","feedback_test","","","","","","","","","","","",""
"660","","f","psychophysics","23","103395","0.0-7.0-1.0-1.0-0.0-0.7","3","3","3","3","4","3","3","3","3","4","4","2","1","4","2","5","3","3","4","5","2","1","2","2","1","2","1","2","1","1","0","1","1","0","0","1","1","0","1","1","0","1","0","1","4","4","3","1","4","1","4","4","5","5","2","797773565536641026","黄","311","","","","nonmatch","","","","","","","","","","","","","","key","f","16.66776288659795","683","380","f","true","nonmatch","img/ellipse.png","五边","椭圆","ALT1_2","prac_ALT1_2","","","","","","","","","","","",""
"null","<span style='color:GreenYellow; font-size: 70px;'>正确! </span>","null","html-keyboard-response","24","103900","0.0-7.0-1.0-1.0-0.0-1.7","3","3","3","3","4","3","3","3","3","4","4","2","1","4","2","5","3","3","4","5","2","1","2","2","1","2","1","2","1","1","0","1","1","0","0","1","1","0","1","1","0","1","0","1","4","4","3","1","4","1","4","4","5","5","2","797773565536641026","黄","311","","","","","","","","","","","","","","","","","","","","","","","","","","","","","","feedback_test","","","","","","","","","","","",""
"663","","j","psychophysics","25","105572","0.0-7.0-1.0-1.0-0.0-0.8","3","3","3","3","4","3","3","3","3","4","4","2","1","4","2","5","3","3","4","5","2","1","2","2","1","2","1","2","1","1","0","1","1","0","0","1","1","0","1","1","0","1","0","1","4","4","3","1","4","1","4","4","5","5","2","797773565536641026","黄","311","","","","match","","","","","","","","","","","","","","key","j","16.66343434343442","683","380","j","true","match","img/pentagon.png","五边","五边","ALT1_2","prac_ALT1_2","","","","","","","","","","","",""
"null","<span style='color:GreenYellow; font-size: 70px;'>正确! </span>","null","html-keyboard-response","26","106076","0.0-7.0-1.0-1.0-0.0-1.8","3","3","3","3","4","3","3","3","3","4","4","2","1","4","2","5","3","3","4","5","2","1","2","2","1","2","1","2","1","1","0","1","1","0","0","1","1","0","1","1","0","1","0","1","4","4","3","1","4","1","4","4","5","5","2","797773565536641026","黄","311","","","","","","","","","","","","","","","","","","","","","","","","","","","","","","feedback_test","","","","","","","","","","","",""
"786","","j","psychophysics","27","107869","0.0-7.0-1.0-1.0-0.0-0.9","3","3","3","3","4","3","3","3","3","4","4","2","1","4","2","5","3","3","4","5","2","1","2","2","1","2","1","2","1","1","0","1","1","0","0","1","1","0","1","1","0","1","0","1","4","4","3","1","4","1","4","4","5","5","2","797773565536641026","黄","311","","","","match","","","","","","","","","","","","","","key","j","16.662799999999976","683","380","j","true","match","img/trapezoid.png","梯形","梯形","ALT1_2","prac_ALT1_2","","","","","","","","","","","",""
"null","<span style='color:GreenYellow; font-size: 70px;'>正确! </span>","null","html-keyboard-response","28","108372","0.0-7.0-1.0-1.0-0.0-1.9","3","3","3","3","4","3","3","3","3","4","4","2","1","4","2","5","3","3","4","5","2","1","2","2","1","2","1","2","1","1","0","1","1","0","0","1","1","0","1","1","0","1","0","1","4","4","3","1","4","1","4","4","5","5","2","797773565536641026","黄","311","","","","","","","","","","","","","","","","","","","","","","","","","","","","","","feedback_test","","","","","","","","","","","",""
"526","","j","psychophysics","29","109907","0.0-7.0-1.0-1.0-0.0-0.10","3","3","3","3","4","3","3","3","3","4","4","2","1","4","2","5","3","3","4","5","2","1","2","2","1","2","1","2","1","1","0","1","1","0","0","1","1","0","1","1","0","1","0","1","4","4","3","1","4","1","4","4","5","5","2","797773565536641026","黄","311","","","","match","","","","","","","","","","","","","","key","j","17.04280898876402","683","380","j","true","match","img/square.png","方形","方形","ALT1_2","prac_ALT1_2","","","","","","","","","","","",""
"null","<span style='color:GreenYellow; font-size: 70px;'>正确! </span>","null","html-keyboard-response","30","110412","0.0-7.0-1.0-1.0-0.0-1.10","3","3","3","3","4","3","3","3","3","4","4","2","1","4","2","5","3","3","4","5","2","1","2","2","1","2","1","2","1","1","0","1","1","0","0","1","1","0","1","1","0","1","0","1","4","4","3","1","4","1","4","4","5","5","2","797773565536641026","黄","311","","","","","","","","","","","","","","","","","","","","","","","","","","","","","","feedback_test","","","","","","","","","","","",""
"643","","f","psychophysics","31","112060","0.0-7.0-1.0-1.0-0.0-0.11","3","3","3","3","4","3","3","3","3","4","4","2","1","4","2","5","3","3","4","5","2","1","2","2","1","2","1","2","1","1","0","1","1","0","0","1","1","0","1","1","0","1","0","1","4","4","3","1","4","1","4","4","5","5","2","797773565536641026","黄","311","","","","nonmatch","","","","","","","","","","","","","","key","f","16.670447916666642","683","380","f","true","nonmatch","img/pentagon.png","方形","五边","ALT1_2","prac_ALT1_2","","","","","","","","","","","",""
"null","<span style='color:GreenYellow; font-size: 70px;'>正确! </span>","null","html-keyboard-response","32","112566","0.0-7.0-1.0-1.0-0.0-1.11","3","3","3","3","4","3","3","3","3","4","4","2","1","4","2","5","3","3","4","5","2","1","2","2","1","2","1","2","1","1","0","1","1","0","0","1","1","0","1","1","0","1","0","1","4","4","3","1","4","1","4","4","5","5","2","797773565536641026","黄","311","","","","","","","","","","","","","","","","","","","","","","","","","","","","","","feedback_test","","","","","","","","","","","",""
"724","","j","psychophysics","33","114292","0.0-7.0-1.0-1.0-0.0-0.12","3","3","3","3","4","3","3","3","3","4","4","2","1","4","2","5","3","3","4","5","2","1","2","2","1","2","1","2","1","1","0","1","1","0","0","1","1","0","1","1","0","1","0","1","4","4","3","1","4","1","4","4","5","5","2","797773565536641026","黄","311","","","","match","","","","","","","","","","","","","","key","j","16.669735294117736","683","380","j","true","match","img/trapezoid.png","梯形","梯形","ALT1_2","prac_ALT1_2","","","","","","","","","","","",""
"null","<span style='color:GreenYellow; font-size: 70px;'>正确! </span>","null","html-keyboard-response","34","114798","0.0-7.0-1.0-1.0-0.0-1.12","3","3","3","3","4","3","3","3","3","4","4","2","1","4","2","5","3","3","4","5","2","1","2","2","1","2","1","2","1","1","0","1","1","0","0","1","1","0","1","1","0","1","0","1","4","4","3","1","4","1","4","4","5","5","2","797773565536641026","黄","311","","","","","","","","","","","","","","","","","","","","","","","","","","","","","","feedback_test","","","","","","","","","","","",""
"650","","f","psychophysics","35","116453","0.0-7.0-1.0-1.0-0.0-0.13","3","3","3","3","4","3","3","3","3","4","4","2","1","4","2","5","3","3","4","5","2","1","2","2","1","2","1","2","1","1","0","1","1","0","0","1","1","0","1","1","0","1","0","1","4","4","3","1","4","1","4","4","5","5","2","797773565536641026","黄","311","","","","nonmatch","","","","","","","","","","","","","","key","f","16.65729292929293","683","380","f","true","nonmatch","img/ellipse.png","方形","椭圆","ALT1_2","prac_ALT1_2","","","","","","","","","","","",""
"null","<span style='color:GreenYellow; font-size: 70px;'>正确! </span>","null","html-keyboard-response","36","116958","0.0-7.0-1.0-1.0-0.0-1.13","3","3","3","3","4","3","3","3","3","4","4","2","1","4","2","5","3","3","4","5","2","1","2","2","1","2","1","2","1","1","0","1","1","0","0","1","1","0","1","1","0","1","0","1","4","4","3","1","4","1","4","4","5","5","2","797773565536641026","黄","311","","","","","","","","","","","","","","","","","","","","","","","","","","","","","","feedback_test","","","","","","","","","","","",""
"750","","f","psychophysics","37","118720","0.0-7.0-1.0-1.0-0.0-0.14","3","3","3","3","4","3","3","3","3","4","4","2","1","4","2","5","3","3","4","5","2","1","2","2","1","2","1","2","1","1","0","1","1","0","0","1","1","0","1","1","0","1","0","1","4","4","3","1","4","1","4","4","5","5","2","797773565536641026","黄","311","","","","nonmatch","","","","","","","","","","","","","","key","f","16.66437500000001","683","380","f","true","nonmatch","img/ellipse.png","梯形","椭圆","ALT1_2","prac_ALT1_2","","","","","","","","","","","",""
"null","<span style='color:GreenYellow; font-size: 70px;'>正确! </span>","null","html-keyboard-response","38","119222","0.0-7.0-1.0-1.0-0.0-1.14","3","3","3","3","4","3","3","3","3","4","4","2","1","4","2","5","3","3","4","5","2","1","2","2","1","2","1","2","1","1","0","1","1","0","0","1","1","0","1","1","0","1","0","1","4","4","3","1","4","1","4","4","5","5","2","797773565536641026","黄","311","","","","","","","","","","","","","","","","","","","","","","","","","","","","","","feedback_test","","","","","","","","","","","",""
"678","","j","psychophysics","39","120908","0.0-7.0-1.0-1.0-0.0-0.15","3","3","3","3","4","3","3","3","3","4","4","2","1","4","2","5","3","3","4","5","2","1","2","2","1","2","1","2","1","1","0","1","1","0","0","1","1","0","1","1","0","1","0","1","4","4","3","1","4","1","4","4","5","5","2","797773565536641026","黄","311","","","","match","","","","","","","","","","","","","","key","j","16.663259999999863","683","380","j","true","match","img/pentagon.png","五边","五边","ALT1_2","prac_ALT1_2","","","","","","","","","","","",""
"null","<span style='color:GreenYellow; font-size: 70px;'>正确! </span>","null","html-keyboard-response","40","121414","0.0-7.0-1.0-1.0-0.0-1.15","3","3","3","3","4","3","3","3","3","4","4","2","1","4","2","5","3","3","4","5","2","1","2","2","1","2","1","2","1","1","0","1","1","0","0","1","1","0","1","1","0","1","0","1","4","4","3","1","4","1","4","4","5","5","2","797773565536641026","黄","311","","","","","","","","","","","","","","","","","","","","","","","","","","","","","","feedback_test","","","","","","","","","","","",""
"682","","j","psychophysics","41","123100","0.0-7.0-1.0-1.0-0.0-0.16","3","3","3","3","4","3","3","3","3","4","4","2","1","4","2","5","3","3","4","5","2","1","2","2","1","2","1","2","1","1","0","1","1","0","0","1","1","0","1","1","0","1","0","1","4","4","3","1","4","1","4","4","5","5","2","797773565536641026","黄","311","","","","match","","","","","","","","","","","","","","key","j","16.83525252525255","683","380","j","true","match","img/ellipse.png","椭圆","椭圆","ALT1_2","prac_ALT1_2","","","","","","","","","","","",""
"null","<span style='color:GreenYellow; font-size: 70px;'>正确! </span>","null","html-keyboard-response","42","123605","0.0-7.0-1.0-1.0-0.0-1.16","3","3","3","3","4","3","3","3","3","4","4","2","1","4","2","5","3","3","4","5","2","1","2","2","1","2","1","2","1","1","0","1","1","0","0","1","1","0","1","1","0","1","0","1","4","4","3","1","4","1","4","4","5","5","2","797773565536641026","黄","311","","","","","","","","","","","","","","","","","","","","","","","","","","","","","","feedback_test","","","","","","","","","","","",""
"830","","j","psychophysics","43","125443","0.0-7.0-1.0-1.0-0.0-0.17","3","3","3","3","4","3","3","3","3","4","4","2","1","4","2","5","3","3","4","5","2","1","2","2","1","2","1","2","1","1","0","1","1","0","0","1","1","0","1","1","0","1","0","1","4","4","3","1","4","1","4","4","5","5","2","797773565536641026","黄","311","","","","match","","","","","","","","","","","","","","key","j","16.663101851851902","683","380","f","false","nonmatch","img/trapezoid.png","五边","梯形","ALT1_2","prac_ALT1_2","","","","","","","","","","","",""
"null","<span style='color:red; font-size: 70px;'>错误! </span>","null","html-keyboard-response","44","125949","0.0-7.0-1.0-1.0-0.0-1.17","3","3","3","3","4","3","3","3","3","4","4","2","1","4","2","5","3","3","4","5","2","1","2","2","1","2","1","2","1","1","0","1","1","0","0","1","1","0","1","1","0","1","0","1","4","4","3","1","4","1","4","4","5","5","2","797773565536641026","黄","311","","","","","","","","","","","","","","","","","","","","","","","","","","","","","","feedback_test","","","","","","","","","","","",""
"772","","j","psychophysics","45","127724","0.0-7.0-1.0-1.0-0.0-0.18","3","3","3","3","4","3","3","3","3","4","4","2","1","4","2","5","3","3","4","5","2","1","2","2","1","2","1","2","1","1","0","1","1","0","0","1","1","0","1","1","0","1","0","1","4","4","3","1","4","1","4","4","5","5","2","797773565536641026","黄","311","","","","match","","","","","","","","","","","","","","key","j","16.66511428571428","683","380","j","true","match","img/trapezoid.png","梯形","梯形","ALT1_2","prac_ALT1_2","","","","","","","","","","","",""
"null","<span style='color:GreenYellow; font-size: 70px;'>正确! </span>","null","html-keyboard-response","46","128229","0.0-7.0-1.0-1.0-0.0-1.18","3","3","3","3","4","3","3","3","3","4","4","2","1","4","2","5","3","3","4","5","2","1","2","2","1","2","1","2","1","1","0","1","1","0","0","1","1","0","1","1","0","1","0","1","4","4","3","1","4","1","4","4","5","5","2","797773565536641026","黄","311","","","","","","","","","","","","","","","","","","","","","","","","","","","","","","feedback_test","","","","","","","","","","","",""
"954","","f","psychophysics","47","130188","0.0-7.0-1.0-1.0-0.0-0.19","3","3","3","3","4","3","3","3","3","4","4","2","1","4","2","5","3","3","4","5","2","1","2","2","1","2","1","2","1","1","0","1","1","0","0","1","1","0","1","1","0","1","0","1","4","4","3","1","4","1","4","4","5","5","2","797773565536641026","黄","311","","","","nonmatch","","","","","","","","","","","","","","key","f","16.671586206896635","683","380","f","true","nonmatch","img/square.png","五边","方形","ALT1_2","prac_ALT1_2","","","","","","","","","","","",""
"null","<span style='color:GreenYellow; font-size: 70px;'>正确! </span>","null","html-keyboard-response","48","130693","0.0-7.0-1.0-1.0-0.0-1.19","3","3","3","3","4","3","3","3","3","4","4","2","1","4","2","5","3","3","4","5","2","1","2","2","1","2","1","2","1","1","0","1","1","0","0","1","1","0","1","1","0","1","0","1","4","4","3","1","4","1","4","4","5","5","2","797773565536641026","黄","311","","","","","","","","","","","","","","","","","","","","","","","","","","","","","","feedback_test","","","","","","","","","","","",""
"758","","j","psychophysics","49","132459","0.0-7.0-1.0-1.0-0.0-0.20","3","3","3","3","4","3","3","3","3","4","4","2","1","4","2","5","3","3","4","5","2","1","2","2","1","2","1","2","1","1","0","1","1","0","0","1","1","0","1","1","0","1","0","1","4","4","3","1","4","1","4","4","5","5","2","797773565536641026","黄","311","","","","match","","","","","","","","","","","","","","key","j","16.832961165048385","683","380","j","true","match","img/square.png","方形","方形","ALT1_2","prac_ALT1_2","","","","","","","","","","","",""
"null","<span style='color:GreenYellow; font-size: 70px;'>正确! </span>","null","html-keyboard-response","50","132965","0.0-7.0-1.0-1.0-0.0-1.20","3","3","3","3","4","3","3","3","3","4","4","2","1","4","2","5","3","3","4","5","2","1","2","2","1","2","1","2","1","1","0","1","1","0","0","1","1","0","1","1","0","1","0","1","4","4","3","1","4","1","4","4","5","5","2","797773565536641026","黄","311","","","","","","","","","","","","","","","","","","","","","","","","","","","","","","feedback_test","","","","","","","","","","","",""
"716","","j","psychophysics","51","134686","0.0-7.0-1.0-1.0-0.0-0.21","3","3","3","3","4","3","3","3","3","4","4","2","1","4","2","5","3","3","4","5","2","1","2","2","1","2","1","2","1","1","0","1","1","0","0","1","1","0","1","1","0","1","0","1","4","4","3","1","4","1","4","4","5","5","2","797773565536641026","黄","311","","","","match","","","","","","","","","","","","","","key","j","16.66940196078412","683","380","j","true","match","img/ellipse.png","椭圆","椭圆","ALT1_2","prac_ALT1_2","","","","","","","","","","","",""
"null","<span style='color:GreenYellow; font-size: 70px;'>正确! </span>","null","html-keyboard-response","52","135190","0.0-7.0-1.0-1.0-0.0-1.21","3","3","3","3","4","3","3","3","3","4","4","2","1","4","2","5","3","3","4","5","2","1","2","2","1","2","1","2","1","1","0","1","1","0","0","1","1","0","1","1","0","1","0","1","4","4","3","1","4","1","4","4","5","5","2","797773565536641026","黄","311","","","","","","","","","","","","","","","","","","","","","","","","","","","","","","feedback_test","","","","","","","","","","","",""
"667","","j","psychophysics","53","136859","0.0-7.0-1.0-1.0-0.0-0.22","3","3","3","3","4","3","3","3","3","4","4","2","1","4","2","5","3","3","4","5","2","1","2","2","1","2","1","2","1","1","0","1","1","0","0","1","1","0","1","1","0","1","0","1","4","4","3","1","4","1","4","4","5","5","2","797773565536641026","黄","311","","","","match","","","","","","","","","","","","","","key","j","16.66137373737398","683","380","j","true","match","img/pentagon.png","五边","五边","ALT1_2","prac_ALT1_2","","","","","","","","","","","",""
"null","<span style='color:GreenYellow; font-size: 70px;'>正确! </span>","null","html-keyboard-response","54","137366","0.0-7.0-1.0-1.0-0.0-1.22","3","3","3","3","4","3","3","3","3","4","4","2","1","4","2","5","3","3","4","5","2","1","2","2","1","2","1","2","1","1","0","1","1","0","0","1","1","0","1","1","0","1","0","1","4","4","3","1","4","1","4","4","5","5","2","797773565536641026","黄","311","","","","","","","","","","","","","","","","","","","","","","","","","","","","","","feedback_test","","","","","","","","","","","",""
"902","","f","psychophysics","55","139276","0.0-7.0-1.0-1.0-0.0-0.23","3","3","3","3","4","3","3","3","3","4","4","2","1","4","2","5","3","3","4","5","2","1","2","2","1","2","1","2","1","1","0","1","1","0","0","1","1","0","1","1","0","1","0","1","4","4","3","1","4","1","4","4","5","5","2","797773565536641026","黄","311","","","","nonmatch","","","","","","","","","","","","","","key","f","16.66868141592909","683","380","f","true","nonmatch","img/pentagon.png","椭圆","五边","ALT1_2","prac_ALT1_2","","","","","","","","","","","",""
"null","<span style='color:GreenYellow; font-size: 70px;'>正确! </span>","null","html-keyboard-response","56","139782","0.0-7.0-1.0-1.0-0.0-1.23","3","3","3","3","4","3","3","3","3","4","4","2","1","4","2","5","3","3","4","5","2","1","2","2","1","2","1","2","1","1","0","1","1","0","0","1","1","0","1","1","0","1","0","1","4","4","3","1","4","1","4","4","5","5","2","797773565536641026","黄","311","","","","","","","","","","","","","","","","","","","","","","","","","","","","","","feedback_test","","","","","","","","","","","",""
"765","","f","psychophysics","57","141555","0.0-7.0-1.0-1.0-0.0-0.24","3","3","3","3","4","3","3","3","3","4","4","2","1","4","2","5","3","3","4","5","2","1","2","2","1","2","1","2","1","1","0","1","1","0","0","1","1","0","1","1","0","1","0","1","4","4","3","1","4","1","4","4","5","5","2","797773565536641026","黄","311","","","","nonmatch","","","","","","","","","","","","","","key","f","16.666514285714253","683","380","f","true","nonmatch","img/trapezoid.png","五边","梯形","ALT1_2","prac_ALT1_2","","","","","","","","","","","",""
"null","<span style='color:GreenYellow; font-size: 70px;'>正确! </span>","null","html-keyboard-response","58","142062","0.0-7.0-1.0-1.0-0.0-1.24","3","3","3","3","4","3","3","3","3","4","4","2","1","4","2","5","3","3","4","5","2","1","2","2","1","2","1","2","1","1","0","1","1","0","0","1","1","0","1","1","0","1","0","1","4","4","3","1","4","1","4","4","5","5","2","797773565536641026","黄","311","","","","","","","","","","","","","","","","","","","","","","","","","","","","","","feedback_test","","","","","","","","","","","",""
"698","","j","psychophysics","59","143766","0.0-7.0-1.0-1.0-0.0-0.25","3","3","3","3","4","3","3","3","3","4","4","2","1","4","2","5","3","3","4","5","2","1","2","2","1","2","1","2","1","1","0","1","1","0","0","1","1","0","1","1","0","1","0","1","4","4","3","1","4","1","4","4","5","5","2","797773565536641026","黄","311","","","","match","","","","","","","","","","","","","","key","j","16.669500000000117","683","380","j","true","match","img/pentagon.png","五边","五边","ALT1_2","prac_ALT1_2","","","","","","","","","","","",""
"null","<span style='color:GreenYellow; font-size: 70px;'>正确! </span>","null","html-keyboard-response","60","144270","0.0-7.0-1.0-1.0-0.0-1.25","3","3","3","3","4","3","3","3","3","4","4","2","1","4","2","5","3","3","4","5","2","1","2","2","1","2","1","2","1","1","0","1","1","0","0","1","1","0","1","1","0","1","0","1","4","4","3","1","4","1","4","4","5","5","2","797773565536641026","黄","311","","","","","","","","","","","","","","","","","","","","","","","","","","","","","","feedback_test","","","","","","","","","","","",""
"904","","f","psychophysics","61","146183","0.0-7.0-1.0-1.0-0.0-0.26","3","3","3","3","4","3","3","3","3","4","4","2","1","4","2","5","3","3","4","5","2","1","2","2","1","2","1","2","1","1","0","1","1","0","0","1","1","0","1","1","0","1","0","1","4","4","3","1","4","1","4","4","5","5","2","797773565536641026","黄","311","","","","nonmatch","","","","","","","","","","","","","","key","f","16.662345132743372","683","380","f","true","nonmatch","img/trapezoid.png","方形","梯形","ALT1_2","prac_ALT1_2","","","","","","","","","","","",""
"null","<span style='color:GreenYellow; font-size: 70px;'>正确! </span>","null","html-keyboard-response","62","146694","0.0-7.0-1.0-1.0-0.0-1.26","3","3","3","3","4","3","3","3","3","4","4","2","1","4","2","5","3","3","4","5","2","1","2","2","1","2","1","2","1","1","0","1","1","0","0","1","1","0","1","1","0","1","0","1","4","4","3","1","4","1","4","4","5","5","2","797773565536641026","黄","311","","","","","","","","","","","","","","","","","","","","","","","","","","","","","","feedback_test","","","","","","","","","","","",""
"690","","f","psychophysics","63","148388","0.0-7.0-1.0-1.0-0.0-0.27","3","3","3","3","4","3","3","3","3","4","4","2","1","4","2","5","3","3","4","5","2","1","2","2","1","2","1","2","1","1","0","1","1","0","0","1","1","0","1","1","0","1","0","1","4","4","3","1","4","1","4","4","5","5","2","797773565536641026","黄","311","","","","nonmatch","","","","","","","","","","","","","","key","f","16.665554455445736","683","380","f","true","nonmatch","img/pentagon.png","方形","五边","ALT1_2","prac_ALT1_2","","","","","","","","","","","",""
"null","<span style='color:GreenYellow; font-size: 70px;'>正确! </span>","null","html-keyboard-response","64","148894","0.0-7.0-1.0-1.0-0.0-1.27","3","3","3","3","4","3","3","3","3","4","4","2","1","4","2","5","3","3","4","5","2","1","2","2","1","2","1","2","1","1","0","1","1","0","0","1","1","0","1","1","0","1","0","1","4","4","3","1","4","1","4","4","5","5","2","797773565536641026","黄","311","","","","","","","","","","","","","","","","","","","","","","","","","","","","","","feedback_test","","","","","","","","","","","",""
"599","","j","psychophysics","65","150501","0.0-7.0-1.0-1.0-0.0-0.28","3","3","3","3","4","3","3","3","3","4","4","2","1","4","2","5","3","3","4","5","2","1","2","2","1","2","1","2","1","1","0","1","1","0","0","1","1","0","1","1","0","1","0","1","4","4","3","1","4","1","4","4","5","5","2","797773565536641026","黄","311","","","","match","","","","","","","","","","","","","","key","j","16.668604166666835","683","380","j","true","match","img/square.png","方形","方形","ALT1_2","prac_ALT1_2","","","","","","","","","","","",""
"null","<span style='color:GreenYellow; font-size: 70px;'>正确! </span>","null","html-keyboard-response","66","151005","0.0-7.0-1.0-1.0-0.0-1.28","3","3","3","3","4","3","3","3","3","4","4","2","1","4","2","5","3","3","4","5","2","1","2","2","1","2","1","2","1","1","0","1","1","0","0","1","1","0","1","1","0","1","0","1","4","4","3","1","4","1","4","4","5","5","2","797773565536641026","黄","311","","","","","","","","","","","","","","","","","","","","","","","","","","","","","","feedback_test","","","","","","","","","","","",""
"637","","j","psychophysics","67","152654","0.0-7.0-1.0-1.0-0.0-0.29","3","3","3","3","4","3","3","3","3","4","4","2","1","4","2","5","3","3","4","5","2","1","2","2","1","2","1","2","1","1","0","1","1","0","0","1","1","0","1","1","0","1","0","1","4","4","3","1","4","1","4","4","5","5","2","797773565536641026","黄","311","","","","match","","","","","","","","","","","","","","key","j","16.676260416666384","683","380","j","true","match","img/trapezoid.png","梯形","梯形","ALT1_2","prac_ALT1_2","","","","","","","","","","","",""
"null","<span style='color:GreenYellow; font-size: 70px;'>正确! </span>","null","html-keyboard-response","68","153157","0.0-7.0-1.0-1.0-0.0-1.29","3","3","3","3","4","3","3","3","3","4","4","2","1","4","2","5","3","3","4","5","2","1","2","2","1","2","1","2","1","1","0","1","1","0","0","1","1","0","1","1","0","1","0","1","4","4","3","1","4","1","4","4","5","5","2","797773565536641026","黄","311","","","","","","","","","","","","","","","","","","","","","","","","","","","","","","feedback_test","","","","","","","","","","","",""
"742","","f","psychophysics","69","154907","0.0-7.0-1.0-1.0-0.0-0.30","3","3","3","3","4","3","3","3","3","4","4","2","1","4","2","5","3","3","4","5","2","1","2","2","1","2","1","2","1","1","0","1","1","0","0","1","1","0","1","1","0","1","0","1","4","4","3","1","4","1","4","4","5","5","2","797773565536641026","黄","311","","","","nonmatch","","","","","","","","","","","","","","key","f","16.675961538461706","683","380","j","false","match","img/pentagon.png","五边","五边","ALT1_2","prac_ALT1_2","","","","","","","","","","","",""
"null","<span style='color:red; font-size: 70px;'>错误! </span>","null","html-keyboard-response","70","155413","0.0-7.0-1.0-1.0-0.0-1.30","3","3","3","3","4","3","3","3","3","4","4","2","1","4","2","5","3","3","4","5","2","1","2","2","1","2","1","2","1","1","0","1","1","0","0","1","1","0","1","1","0","1","0","1","4","4","3","1","4","1","4","4","5","5","2","797773565536641026","黄","311","","","","","","","","","","","","","","","","","","","","","","","","","","","","","","feedback_test","","","","","","","","","","","",""
"701","","j","psychophysics","71","157117","0.0-7.0-1.0-1.0-0.0-0.31","3","3","3","3","4","3","3","3","3","4","4","2","1","4","2","5","3","3","4","5","2","1","2","2","1","2","1","2","1","1","0","1","1","0","0","1","1","0","1","1","0","1","0","1","4","4","3","1","4","1","4","4","5","5","2","797773565536641026","黄","311","","","","match","","","","","","","","","","","","","","key","j","16.665040000000154","683","380","j","true","match","img/pentagon.png","五边","五边","ALT1_2","prac_ALT1_2","","","","","","","","","","","",""
"null","<span style='color:GreenYellow; font-size: 70px;'>正确! </span>","null","html-keyboard-response","72","157622","0.0-7.0-1.0-1.0-0.0-1.31","3","3","3","3","4","3","3","3","3","4","4","2","1","4","2","5","3","3","4","5","2","1","2","2","1","2","1","2","1","1","0","1","1","0","0","1","1","0","1","1","0","1","0","1","4","4","3","1","4","1","4","4","5","5","2","797773565536641026","黄","311","","","","","","","","","","","","","","","","","","","","","","","","","","","","","","feedback_test","","","","","","","","","","","",""
"753","","j","psychophysics","73","159387","0.0-7.0-1.0-1.0-0.0-0.32","3","3","3","3","4","3","3","3","3","4","4","2","1","4","2","5","3","3","4","5","2","1","2","2","1","2","1","2","1","1","0","1","1","0","0","1","1","0","1","1","0","1","0","1","4","4","3","1","4","1","4","4","5","5","2","797773565536641026","黄","311","","","","match","","","","","","","","","","","","","","key","j","16.66617307692314","683","380","f","false","nonmatch","img/pentagon.png","椭圆","五边","ALT1_2","prac_ALT1_2","","","","","","","","","","","",""
"null","<span style='color:red; font-size: 70px;'>错误! </span>","null","html-keyboard-response","74","159893","0.0-7.0-1.0-1.0-0.0-1.32","3","3","3","3","4","3","3","3","3","4","4","2","1","4","2","5","3","3","4","5","2","1","2","2","1","2","1","2","1","1","0","1","1","0","0","1","1","0","1","1","0","1","0","1","4","4","3","1","4","1","4","4","5","5","2","797773565536641026","黄","311","","","","","","","","","","","","","","","","","","","","","","","","","","","","","","feedback_test","","","","","","","","","","","",""
"643","","j","psychophysics","75","161540","0.0-7.0-1.0-1.0-0.0-0.33","3","3","3","3","4","3","3","3","3","4","4","2","1","4","2","5","3","3","4","5","2","1","2","2","1","2","1","2","1","1","0","1","1","0","0","1","1","0","1","1","0","1","0","1","4","4","3","1","4","1","4","4","5","5","2","797773565536641026","黄","311","","","","match","","","","","","","","","","","","","","key","j","16.655291666666624","683","380","j","true","match","img/ellipse.png","椭圆","椭圆","ALT1_2","prac_ALT1_2","","","","","","","","","","","",""
"null","<span style='color:GreenYellow; font-size: 70px;'>正确! </span>","null","html-keyboard-response","76","162046","0.0-7.0-1.0-1.0-0.0-1.33","3","3","3","3","4","3","3","3","3","4","4","2","1","4","2","5","3","3","4","5","2","1","2","2","1","2","1","2","1","1","0","1","1","0","0","1","1","0","1","1","0","1","0","1","4","4","3","1","4","1","4","4","5","5","2","797773565536641026","黄","311","","","","","","","","","","","","","","","","","","","","","","","","","","","","","","feedback_test","","","","","","","","","","","",""
"721","","f","psychophysics","77","163771","0.0-7.0-1.0-1.0-0.0-0.34","3","3","3","3","4","3","3","3","3","4","4","2","1","4","2","5","3","3","4","5","2","1","2","2","1","2","1","2","1","1","0","1","1","0","0","1","1","0","1","1","0","1","0","1","4","4","3","1","4","1","4","4","5","5","2","797773565536641026","黄","311","","","","nonmatch","","","","","","","","","","","","","","key","f","16.66822772277208","683","380","f","true","nonmatch","img/pentagon.png","梯形","五边","ALT1_2","prac_ALT1_2","","","","","","","","","","","",""
"null","<span style='color:GreenYellow; font-size: 70px;'>正确! </span>","null","html-keyboard-response","78","164278","0.0-7.0-1.0-1.0-0.0-1.34","3","3","3","3","4","3","3","3","3","4","4","2","1","4","2","5","3","3","4","5","2","1","2","2","1","2","1","2","1","1","0","1","1","0","0","1","1","0","1","1","0","1","0","1","4","4","3","1","4","1","4","4","5","5","2","797773565536641026","黄","311","","","","","","","","","","","","","","","","","","","","","","","","","","","","","","feedback_test","","","","","","","","","","","",""
"634","","j","psychophysics","79","165917","0.0-7.0-1.0-1.0-0.0-0.35","3","3","3","3","4","3","3","3","3","4","4","2","1","4","2","5","3","3","4","5","2","1","2","2","1","2","1","2","1","1","0","1","1","0","0","1","1","0","1","1","0","1","0","1","4","4","3","1","4","1","4","4","5","5","2","797773565536641026","黄","311","","","","match","","","","","","","","","","","","","","key","j","16.668525773195967","683","380","j","true","match","img/ellipse.png","椭圆","椭圆","ALT1_2","prac_ALT1_2","","","","","","","","","","","",""
"null","<span style='color:GreenYellow; font-size: 70px;'>正确! </span>","null","html-keyboard-response","80","166422","0.0-7.0-1.0-1.0-0.0-1.35","3","3","3","3","4","3","3","3","3","4","4","2","1","4","2","5","3","3","4","5","2","1","2","2","1","2","1","2","1","1","0","1","1","0","0","1","1","0","1","1","0","1","0","1","4","4","3","1","4","1","4","4","5","5","2","797773565536641026","黄","311","","","","","","","","","","","","","","","","","","","","","","","","","","","","","","feedback_test","","","","","","","","","","","",""
"738","","f","psychophysics","81","168171","0.0-7.0-1.0-1.0-0.0-0.36","3","3","3","3","4","3","3","3","3","4","4","2","1","4","2","5","3","3","4","5","2","1","2","2","1","2","1","2","1","1","0","1","1","0","0","1","1","0","1","1","0","1","0","1","4","4","3","1","4","1","4","4","5","5","2","797773565536641026","黄","311","","","","nonmatch","","","","","","","","","","","","","","key","f","16.667854368931938","683","380","f","true","nonmatch","img/ellipse.png","梯形","椭圆","ALT1_2","prac_ALT1_2","","","","","","","","","","","",""
"null","<span style='color:GreenYellow; font-size: 70px;'>正确! </span>","null","html-keyboard-response","82","168678","0.0-7.0-1.0-1.0-0.0-1.36","3","3","3","3","4","3","3","3","3","4","4","2","1","4","2","5","3","3","4","5","2","1","2","2","1","2","1","2","1","1","0","1","1","0","0","1","1","0","1","1","0","1","0","1","4","4","3","1","4","1","4","4","5","5","2","797773565536641026","黄","311","","","","","","","","","","","","","","","","","","","","","","","","","","","","","","feedback_test","","","","","","","","","","","",""
"744","","f","psychophysics","83","170427","0.0-7.0-1.0-1.0-0.0-0.37","3","3","3","3","4","3","3","3","3","4","4","2","1","4","2","5","3","3","4","5","2","1","2","2","1","2","1","2","1","1","0","1","1","0","0","1","1","0","1","1","0","1","0","1","4","4","3","1","4","1","4","4","5","5","2","797773565536641026","黄","311","","","","nonmatch","","","","","","","","","","","","","","key","f","16.670504854368986","683","380","f","true","nonmatch","img/trapezoid.png","椭圆","梯形","ALT1_2","prac_ALT1_2","","","","","","","","","","","",""
"null","<span style='color:GreenYellow; font-size: 70px;'>正确! </span>","null","html-keyboard-response","84","170935","0.0-7.0-1.0-1.0-0.0-1.37","3","3","3","3","4","3","3","3","3","4","4","2","1","4","2","5","3","3","4","5","2","1","2","2","1","2","1","2","1","1","0","1","1","0","0","1","1","0","1","1","0","1","0","1","4","4","3","1","4","1","4","4","5","5","2","797773565536641026","黄","311","","","","","","","","","","","","","","","","","","","","","","","","","","","","","","feedback_test","","","","","","","","","","","",""
"671","","f","psychophysics","85","172615","0.0-7.0-1.0-1.0-0.0-0.38","3","3","3","3","4","3","3","3","3","4","4","2","1","4","2","5","3","3","4","5","2","1","2","2","1","2","1","2","1","1","0","1","1","0","0","1","1","0","1","1","0","1","0","1","4","4","3","1","4","1","4","4","5","5","2","797773565536641026","黄","311","","","","nonmatch","","","","","","","","","","","","","","key","f","16.670683673469227","683","380","f","true","nonmatch","img/square.png","五边","方形","ALT1_2","prac_ALT1_2","","","","","","","","","","","",""
"null","<span style='color:GreenYellow; font-size: 70px;'>正确! </span>","null","html-keyboard-response","86","173119","0.0-7.0-1.0-1.0-0.0-1.38","3","3","3","3","4","3","3","3","3","4","4","2","1","4","2","5","3","3","4","5","2","1","2","2","1","2","1","2","1","1","0","1","1","0","0","1","1","0","1","1","0","1","0","1","4","4","3","1","4","1","4","4","5","5","2","797773565536641026","黄","311","","","","","","","","","","","","","","","","","","","","","","","","","","","","","","feedback_test","","","","","","","","","","","",""
"790","","f","psychophysics","87","174918","0.0-7.0-1.0-1.0-0.0-0.39","3","3","3","3","4","3","3","3","3","4","4","2","1","4","2","5","3","3","4","5","2","1","2","2","1","2","1","2","1","1","0","1","1","0","0","1","1","0","1","1","0","1","0","1","4","4","3","1","4","1","4","4","5","5","2","797773565536641026","黄","311","","","","nonmatch","","","","","","","","","","","","","","key","f","16.67069811320766","683","380","f","true","nonmatch","img/square.png","梯形","方形","ALT1_2","prac_ALT1_2","","","","","","","","","","","",""
"null","<span style='color:GreenYellow; font-size: 70px;'>正确! </span>","null","html-keyboard-response","88","175423","0.0-7.0-1.0-1.0-0.0-1.39","3","3","3","3","4","3","3","3","3","4","4","2","1","4","2","5","3","3","4","5","2","1","2","2","1","2","1","2","1","1","0","1","1","0","0","1","1","0","1","1","0","1","0","1","4","4","3","1","4","1","4","4","5","5","2","797773565536641026","黄","311","","","","","","","","","","","","","","","","","","","","","","","","","","","","","","feedback_test","","","","","","","","","","","",""
"771","","j","psychophysics","89","177204","0.0-7.0-1.0-1.0-0.0-0.40","3","3","3","3","4","3","3","3","3","4","4","2","1","4","2","5","3","3","4","5","2","1","2","2","1","2","1","2","1","1","0","1","1","0","0","1","1","0","1","1","0","1","0","1","4","4","3","1","4","1","4","4","5","5","2","797773565536641026","黄","311","","","","match","","","","","","","","","","","","","","key","j","16.663514285714232","683","380","j","true","match","img/square.png","方形","方形","ALT1_2","prac_ALT1_2","","","","","","","","","","","",""
"null","<span style='color:GreenYellow; font-size: 70px;'>正确! </span>","null","html-keyboard-response","90","177710","0.0-7.0-1.0-1.0-0.0-1.40","3","3","3","3","4","3","3","3","3","4","4","2","1","4","2","5","3","3","4","5","2","1","2","2","1","2","1","2","1","1","0","1","1","0","0","1","1","0","1","1","0","1","0","1","4","4","3","1","4","1","4","4","5","5","2","797773565536641026","黄","311","","","","","","","","","","","","","","","","","","","","","","","","","","","","","","feedback_test","","","","","","","","","","","",""
"752","","f","psychophysics","91","179468","0.0-7.0-1.0-1.0-0.0-0.41","3","3","3","3","4","3","3","3","3","4","4","2","1","4","2","5","3","3","4","5","2","1","2","2","1","2","1","2","1","1","0","1","1","0","0","1","1","0","1","1","0","1","0","1","4","4","3","1","4","1","4","4","5","5","2","797773565536641026","黄","311","","","","nonmatch","","","","","","","","","","","","","","key","f","16.675249999999952","683","380","j","false","match","img/trapezoid.png","梯形","梯形","ALT1_2","prac_ALT1_2","","","","","","","","","","","",""
"null","<span style='color:red; font-size: 70px;'>错误! </span>","null","html-keyboard-response","92","179974","0.0-7.0-1.0-1.0-0.0-1.41","3","3","3","3","4","3","3","3","3","4","4","2","1","4","2","5","3","3","4","5","2","1","2","2","1","2","1","2","1","1","0","1","1","0","0","1","1","0","1","1","0","1","0","1","4","4","3","1","4","1","4","4","5","5","2","797773565536641026","黄","311","","","","","","","","","","","","","","","","","","","","","","","","","","","","","","feedback_test","","","","","","","","","","","",""
"804","","f","psychophysics","93","181788","0.0-7.0-1.0-1.0-0.0-0.42","3","3","3","3","4","3","3","3","3","4","4","2","1","4","2","5","3","3","4","5","2","1","2","2","1","2","1","2","1","1","0","1","1","0","0","1","1","0","1","1","0","1","0","1","4","4","3","1","4","1","4","4","5","5","2","797773565536641026","黄","311","","","","nonmatch","","","","","","","","","","","","","","key","f","16.67105607476649","683","380","f","true","nonmatch","img/ellipse.png","五边","椭圆","ALT1_2","prac_ALT1_2","","","","","","","","","","","",""
"null","<span style='color:GreenYellow; font-size: 70px;'>正确! </span>","null","html-keyboard-response","94","182294","0.0-7.0-1.0-1.0-0.0-1.42","3","3","3","3","4","3","3","3","3","4","4","2","1","4","2","5","3","3","4","5","2","1","2","2","1","2","1","2","1","1","0","1","1","0","0","1","1","0","1","1","0","1","0","1","4","4","3","1","4","1","4","4","5","5","2","797773565536641026","黄","311","","","","","","","","","","","","","","","","","","","","","","","","","","","","","","feedback_test","","","","","","","","","","","",""
"702","","f","psychophysics","95","184001","0.0-7.0-1.0-1.0-0.0-0.43","3","3","3","3","4","3","3","3","3","4","4","2","1","4","2","5","3","3","4","5","2","1","2","2","1","2","1","2","1","1","0","1","1","0","0","1","1","0","1","1","0","1","0","1","4","4","3","1","4","1","4","4","5","5","2","797773565536641026","黄","311","","","","nonmatch","","","","","","","","","","","","","","key","f","16.66961386138608","683","380","f","true","nonmatch","img/ellipse.png","方形","椭圆","ALT1_2","prac_ALT1_2","","","","","","","","","","","",""
"null","<span style='color:GreenYellow; font-size: 70px;'>正确! </span>","null","html-keyboard-response","96","184510","0.0-7.0-1.0-1.0-0.0-1.43","3","3","3","3","4","3","3","3","3","4","4","2","1","4","2","5","3","3","4","5","2","1","2","2","1","2","1","2","1","1","0","1","1","0","0","1","1","0","1","1","0","1","0","1","4","4","3","1","4","1","4","4","5","5","2","797773565536641026","黄","311","","","","","","","","","","","","","","","","","","","","","","","","","","","","","","feedback_test","","","","","","","","","","","",""
"643","","j","psychophysics","97","186156","0.0-7.0-1.0-1.0-0.0-0.44","3","3","3","3","4","3","3","3","3","4","4","2","1","4","2","5","3","3","4","5","2","1","2","2","1","2","1","2","1","1","0","1","1","0","0","1","1","0","1","1","0","1","0","1","4","4","3","1","4","1","4","4","5","5","2","797773565536641026","黄","311","","","","match","","","","","","","","","","","","","","key","j","16.675659793814326","683","380","j","true","match","img/square.png","方形","方形","ALT1_2","prac_ALT1_2","","","","","","","","","","","",""
"null","<span style='color:GreenYellow; font-size: 70px;'>正确! </span>","null","html-keyboard-response","98","186663","0.0-7.0-1.0-1.0-0.0-1.44","3","3","3","3","4","3","3","3","3","4","4","2","1","4","2","5","3","3","4","5","2","1","2","2","1","2","1","2","1","1","0","1","1","0","0","1","1","0","1","1","0","1","0","1","4","4","3","1","4","1","4","4","5","5","2","797773565536641026","黄","311","","","","","","","","","","","","","","","","","","","","","","","","","","","","","","feedback_test","","","","","","","","","","","",""
"658","","j","psychophysics","99","188356","0.0-7.0-1.0-1.0-0.0-0.45","3","3","3","3","4","3","3","3","3","4","4","2","1","4","2","5","3","3","4","5","2","1","2","2","1","2","1","2","1","1","0","1","1","0","0","1","1","0","1","1","0","1","0","1","4","4","3","1","4","1","4","4","5","5","2","797773565536641026","黄","311","","","","match","","","","","","","","","","","","","","key","j","16.65938383838364","683","380","j","true","match","img/ellipse.png","椭圆","椭圆","ALT1_2","prac_ALT1_2","","","","","","","","","","","",""
"null","<span style='color:GreenYellow; font-size: 70px;'>正确! </span>","null","html-keyboard-response","100","188863","0.0-7.0-1.0-1.0-0.0-1.45","3","3","3","3","4","3","3","3","3","4","4","2","1","4","2","5","3","3","4","5","2","1","2","2","1","2","1","2","1","1","0","1","1","0","0","1","1","0","1","1","0","1","0","1","4","4","3","1","4","1","4","4","5","5","2","797773565536641026","黄","311","","","","","","","","","","","","","","","","","","","","","","","","","","","","","","feedback_test","","","","","","","","","","","",""
"721","","f","psychophysics","101","190587","0.0-7.0-1.0-1.0-0.0-0.46","3","3","3","3","4","3","3","3","3","4","4","2","1","4","2","5","3","3","4","5","2","1","2","2","1","2","1","2","1","1","0","1","1","0","0","1","1","0","1","1","0","1","0","1","4","4","3","1","4","1","4","4","5","5","2","797773565536641026","黄","311","","","","nonmatch","","","","","","","","","","","","","","key","f","16.83301980198029","683","380","f","true","nonmatch","img/square.png","椭圆","方形","ALT1_2","prac_ALT1_2","","","","","","","","","","","",""
"null","<span style='color:GreenYellow; font-size: 70px;'>正确! </span>","null","html-keyboard-response","102","191095","0.0-7.0-1.0-1.0-0.0-1.46","3","3","3","3","4","3","3","3","3","4","4","2","1","4","2","5","3","3","4","5","2","1","2","2","1","2","1","2","1","1","0","1","1","0","0","1","1","0","1","1","0","1","0","1","4","4","3","1","4","1","4","4","5","5","2","797773565536641026","黄","311","","","","","","","","","","","","","","","","","","","","","","","","","","","","","","feedback_test","","","","","","","","","","","",""
"954","","j","psychophysics","103","193052","0.0-7.0-1.0-1.0-0.0-0.47","3","3","3","3","4","3","3","3","3","4","4","2","1","4","2","5","3","3","4","5","2","1","2","2","1","2","1","2","1","1","0","1","1","0","0","1","1","0","1","1","0","1","0","1","4","4","3","1","4","1","4","4","5","5","2","797773565536641026","黄","311","","","","match","","","","","","","","","","","","","","key","j","16.668460869565152","683","380","j","true","match","img/trapezoid.png","梯形","梯形","ALT1_2","prac_ALT1_2","","","","","","","","","","","",""
"null","<span style='color:GreenYellow; font-size: 70px;'>正确! </span>","null","html-keyboard-response","104","193559","0.0-7.0-1.0-1.0-0.0-1.47","3","3","3","3","4","3","3","3","3","4","4","2","1","4","2","5","3","3","4","5","2","1","2","2","1","2","1","2","1","1","0","1","1","0","0","1","1","0","1","1","0","1","0","1","4","4","3","1","4","1","4","4","5","5","2","797773565536641026","黄","311","","","","","","","","","","","","","","","","","","","","","","","","","","","","","","feedback_test","","","","","","","","","","","",""
"1037","<style>.context{color:white; font-size: 35px; line-height:40px}</style>                          <div><p class='context'>您正确回答了92% 的试次。</p><p class='context'>您的平均反应时为732毫秒。</p><p class='context'>恭喜您完成练习。按空格键进入正式实验。</p><p class='footer' style='font-size: 35px; line-height:40px;'>请在进入正式实验实验之前将您的<span style='color: lightgreen;'>食指</span>放在电脑键盘的相应键位上进行按键。</p>"," ","html-keyboard-response","105","194604","0.0-7.0-1.0-2.0","3","3","3","3","4","3","3","3","3","4","4","2","1","4","2","5","3","3","4","5","2","1","2","2","1","2","1","2","1","1","0","1","1","0","0","1","1","0","1","1","0","1","0","1","4","4","3","1","4","1","4","4","5","5","2","797773565536641026","黄","311","","","","","","","","","","","","","","","","","","","","","","","","","","","","","","","","","","","","","","","","","",""
"706","
  <p style='color: white; font-size: 22px'>请您将手指放在按键上，准备进入正式的匹配任务。</p>
  <p> <div style = ""color: green""><按空格键进入下一阶段的匹配任务></div></p>
  "," ","html-keyboard-response","106","195324","0.0-7.0-1.0-3.0","3","3","3","3","4","3","3","3","3","4","4","2","1","4","2","5","3","3","4","5","2","1","2","2","1","2","1","2","1","1","0","1","1","0","0","1","1","0","1","1","0","1","0","1","4","4","3","1","4","1","4","4","5","5","2","797773565536641026","黄","311","","","","","","","","","","","","","","","","","","","","","","","","","","","","","","","","","","","","","","","","","",""
"844","","f","psychophysics","107","197171","0.0-7.0-1.0-4.0-0.0-0.0","3","3","3","3","4","3","3","3","3","4","4","2","1","4","2","5","3","3","4","5","2","1","2","2","1","2","1","2","1","1","0","1","1","0","0","1","1","0","1","1","0","1","0","1","4","4","3","1","4","1","4","4","5","5","2","797773565536641026","黄","311","","","","nonmatch","","","","","","","","","","","","","","key","f","16.667281818181667","683","380","f","true","nonmatch","img/trapezoid.png","椭圆","梯形","ALT1","formal_ALT1_2","","","","","","","","","","","",""
"null","<span style='color:GreenYellow; font-size: 70px;'>正确! </span>","null","html-keyboard-response","108","197679","0.0-7.0-1.0-4.0-0.0-1.0","3","3","3","3","4","3","3","3","3","4","4","2","1","4","2","5","3","3","4","5","2","1","2","2","1","2","1","2","1","1","0","1","1","0","0","1","1","0","1","1","0","1","0","1","4","4","3","1","4","1","4","4","5","5","2","797773565536641026","黄","311","","","","","","","","","","","","","","","","","","","","","","","","","","","","","","feedback_test","","","","","","","","","","","",""
"604","","j","psychophysics","109","199292","0.0-7.0-1.0-4.0-0.0-0.1","3","3","3","3","4","3","3","3","3","4","4","2","1","4","2","5","3","3","4","5","2","1","2","2","1","2","1","2","1","1","0","1","1","0","0","1","1","0","1","1","0","1","0","1","4","4","3","1","4","1","4","4","5","5","2","797773565536641026","黄","311","","","","match","","","","","","","","","","","","","","key","j","16.66475531914887","683","380","j","true","match","img/ellipse.png","椭圆","椭圆","ALT1","formal_ALT1_2","","","","","","","","","","","",""
"null","<span style='color:GreenYellow; font-size: 70px;'>正确! </span>","null","html-keyboard-response","110","199799","0.0-7.0-1.0-4.0-0.0-1.1","3","3","3","3","4","3","3","3","3","4","4","2","1","4","2","5","3","3","4","5","2","1","2","2","1","2","1","2","1","1","0","1","1","0","0","1","1","0","1","1","0","1","0","1","4","4","3","1","4","1","4","4","5","5","2","797773565536641026","黄","311","","","","","","","","","","","","","","","","","","","","","","","","","","","","","","feedback_test","","","","","","","","","","","",""
"741","","j","psychophysics","111","201548","0.0-7.0-1.0-4.0-0.0-0.2","3","3","3","3","4","3","3","3","3","4","4","2","1","4","2","5","3","3","4","5","2","1","2","2","1","2","1","2","1","1","0","1","1","0","0","1","1","0","1","1","0","1","0","1","4","4","3","1","4","1","4","4","5","5","2","797773565536641026","黄","311","","","","match","","","","","","","","","","","","","","key","j","16.668288461538534","683","380","j","true","match","img/square.png","方形","方形","ALT1","formal_ALT1_2","","","","","","","","","","","",""
"null","<span style='color:GreenYellow; font-size: 70px;'>正确! </span>","null","html-keyboard-response","112","202055","0.0-7.0-1.0-4.0-0.0-1.2","3","3","3","3","4","3","3","3","3","4","4","2","1","4","2","5","3","3","4","5","2","1","2","2","1","2","1","2","1","1","0","1","1","0","0","1","1","0","1","1","0","1","0","1","4","4","3","1","4","1","4","4","5","5","2","797773565536641026","黄","311","","","","","","","","","","","","","","","","","","","","","","","","","","","","","","feedback_test","","","","","","","","","","","",""
"573","","j","psychophysics","113","203635","0.0-7.0-1.0-4.0-0.0-0.3","3","3","3","3","4","3","3","3","3","4","4","2","1","4","2","5","3","3","4","5","2","1","2","2","1","2","1","2","1","1","0","1","1","0","0","1","1","0","1","1","0","1","0","1","4","4","3","1","4","1","4","4","5","5","2","797773565536641026","黄","311","","","","match","","","","","","","","","","","","","","key","j","16.660333333333256","683","380","j","true","match","img/square.png","方形","方形","ALT1","formal_ALT1_2","","","","","","","","","","","",""
"null","<span style='color:GreenYellow; font-size: 70px;'>正确! </span>","null","html-keyboard-response","114","204142","0.0-7.0-1.0-4.0-0.0-1.3","3","3","3","3","4","3","3","3","3","4","4","2","1","4","2","5","3","3","4","5","2","1","2","2","1","2","1","2","1","1","0","1","1","0","0","1","1","0","1","1","0","1","0","1","4","4","3","1","4","1","4","4","5","5","2","797773565536641026","黄","311","","","","","","","","","","","","","","","","","","","","","","","","","","","","","","feedback_test","","","","","","","","","","","",""
"818","","j","psychophysics","115","205965","0.0-7.0-1.0-4.0-0.0-0.4","3","3","3","3","4","3","3","3","3","4","4","2","1","4","2","5","3","3","4","5","2","1","2","2","1","2","1","2","1","1","0","1","1","0","0","1","1","0","1","1","0","1","0","1","4","4","3","1","4","1","4","4","5","5","2","797773565536641026","黄","311","","","","match","","","","","","","","","","","","","","key","j","16.667859813083936","683","380","j","true","match","img/pentagon.png","五边","五边","ALT1","formal_ALT1_2","","","","","","","","","","","",""
"null","<span style='color:GreenYellow; font-size: 70px;'>正确! </span>","null","html-keyboard-response","116","206470","0.0-7.0-1.0-4.0-0.0-1.4","3","3","3","3","4","3","3","3","3","4","4","2","1","4","2","5","3","3","4","5","2","1","2","2","1","2","1","2","1","1","0","1","1","0","0","1","1","0","1","1","0","1","0","1","4","4","3","1","4","1","4","4","5","5","2","797773565536641026","黄","311","","","","","","","","","","","","","","","","","","","","","","","","","","","","","","feedback_test","","","","","","","","","","","",""
"614","","j","psychophysics","117","208091","0.0-7.0-1.0-4.0-0.0-0.5","3","3","3","3","4","3","3","3","3","4","4","2","1","4","2","5","3","3","4","5","2","1","2","2","1","2","1","2","1","1","0","1","1","0","0","1","1","0","1","1","0","1","0","1","4","4","3","1","4","1","4","4","5","5","2","797773565536641026","黄","311","","","","match","","","","","","","","","","","","","","key","j","16.667625000000044","683","380","j","true","match","img/ellipse.png","椭圆","椭圆","ALT1","formal_ALT1_2","","","","","","","","","","","",""
"null","<span style='color:GreenYellow; font-size: 70px;'>正确! </span>","null","html-keyboard-response","118","208598","0.0-7.0-1.0-4.0-0.0-1.5","3","3","3","3","4","3","3","3","3","4","4","2","1","4","2","5","3","3","4","5","2","1","2","2","1","2","1","2","1","1","0","1","1","0","0","1","1","0","1","1","0","1","0","1","4","4","3","1","4","1","4","4","5","5","2","797773565536641026","黄","311","","","","","","","","","","","","","","","","","","","","","","","","","","","","","","feedback_test","","","","","","","","","","","",""
"709","","f","psychophysics","119","210316","0.0-7.0-1.0-4.0-0.0-0.6","3","3","3","3","4","3","3","3","3","4","4","2","1","4","2","5","3","3","4","5","2","1","2","2","1","2","1","2","1","1","0","1","1","0","0","1","1","0","1","1","0","1","0","1","4","4","3","1","4","1","4","4","5","5","2","797773565536641026","黄","311","","","","nonmatch","","","","","","","","","","","","","","key","f","16.656774509803725","683","380","f","true","nonmatch","img/pentagon.png","椭圆","五边","ALT1","formal_ALT1_2","","","","","","","","","","","",""
"null","<span style='color:GreenYellow; font-size: 70px;'>正确! </span>","null","html-keyboard-response","120","210823","0.0-7.0-1.0-4.0-0.0-1.6","3","3","3","3","4","3","3","3","3","4","4","2","1","4","2","5","3","3","4","5","2","1","2","2","1","2","1","2","1","1","0","1","1","0","0","1","1","0","1","1","0","1","0","1","4","4","3","1","4","1","4","4","5","5","2","797773565536641026","黄","311","","","","","","","","","","","","","","","","","","","","","","","","","","","","","","feedback_test","","","","","","","","","","","",""
"872","","f","psychophysics","121","212700","0.0-7.0-1.0-4.0-0.0-0.7","3","3","3","3","4","3","3","3","3","4","4","2","1","4","2","5","3","3","4","5","2","1","2","2","1","2","1","2","1","1","0","1","1","0","0","1","1","0","1","1","0","1","0","1","4","4","3","1","4","1","4","4","5","5","2","797773565536641026","黄","311","","","","nonmatch","","","","","","","","","","","","","","key","f","16.66850000000003","683","380","f","true","nonmatch","img/square.png","梯形","方形","ALT1","formal_ALT1_2","","","","","","","","","","","",""
"null","<span style='color:GreenYellow; font-size: 70px;'>正确! </span>","null","html-keyboard-response","122","213207","0.0-7.0-1.0-4.0-0.0-1.7","3","3","3","3","4","3","3","3","3","4","4","2","1","4","2","5","3","3","4","5","2","1","2","2","1","2","1","2","1","1","0","1","1","0","0","1","1","0","1","1","0","1","0","1","4","4","3","1","4","1","4","4","5","5","2","797773565536641026","黄","311","","","","","","","","","","","","","","","","","","","","","","","","","","","","","","feedback_test","","","","","","","","","","","",""
"734","","f","psychophysics","123","214948","0.0-7.0-1.0-4.0-0.0-0.8","3","3","3","3","4","3","3","3","3","4","4","2","1","4","2","5","3","3","4","5","2","1","2","2","1","2","1","2","1","1","0","1","1","0","0","1","1","0","1","1","0","1","0","1","4","4","3","1","4","1","4","4","5","5","2","797773565536641026","黄","311","","","","nonmatch","","","","","","","","","","","","","","key","f","16.662413461538492","683","380","f","true","nonmatch","img/trapezoid.png","方形","梯形","ALT1","formal_ALT1_2","","","","","","","","","","","",""
"null","<span style='color:GreenYellow; font-size: 70px;'>正确! </span>","null","html-keyboard-response","124","215455","0.0-7.0-1.0-4.0-0.0-1.8","3","3","3","3","4","3","3","3","3","4","4","2","1","4","2","5","3","3","4","5","2","1","2","2","1","2","1","2","1","1","0","1","1","0","0","1","1","0","1","1","0","1","0","1","4","4","3","1","4","1","4","4","5","5","2","797773565536641026","黄","311","","","","","","","","","","","","","","","","","","","","","","","","","","","","","","feedback_test","","","","","","","","","","","",""
"647","","j","psychophysics","125","217107","0.0-7.0-1.0-4.0-0.0-0.9","3","3","3","3","4","3","3","3","3","4","4","2","1","4","2","5","3","3","4","5","2","1","2","2","1","2","1","2","1","1","0","1","1","0","0","1","1","0","1","1","0","1","0","1","4","4","3","1","4","1","4","4","5","5","2","797773565536641026","黄","311","","","","match","","","","","","","","","","","","","","key","j","16.669739583333467","683","380","j","true","match","img/trapezoid.png","梯形","梯形","ALT1","formal_ALT1_2","","","","","","","","","","","",""
"null","<span style='color:GreenYellow; font-size: 70px;'>正确! </span>","null","html-keyboard-response","126","217615","0.0-7.0-1.0-4.0-0.0-1.9","3","3","3","3","4","3","3","3","3","4","4","2","1","4","2","5","3","3","4","5","2","1","2","2","1","2","1","2","1","1","0","1","1","0","0","1","1","0","1","1","0","1","0","1","4","4","3","1","4","1","4","4","5","5","2","797773565536641026","黄","311","","","","","","","","","","","","","","","","","","","","","","","","","","","","","","feedback_test","","","","","","","","","","","",""
"700","","j","psychophysics","127","219323","0.0-7.0-1.0-4.0-0.0-0.10","3","3","3","3","4","3","3","3","3","4","4","2","1","4","2","5","3","3","4","5","2","1","2","2","1","2","1","2","1","1","0","1","1","0","0","1","1","0","1","1","0","1","0","1","4","4","3","1","4","1","4","4","5","5","2","797773565536641026","黄","311","","","","match","","","","","","","","","","","","","","key","j","16.668520000000136","683","380","j","true","match","img/ellipse.png","椭圆","椭圆","ALT1","formal_ALT1_2","","","","","","","","","","","",""
"null","<span style='color:GreenYellow; font-size: 70px;'>正确! </span>","null","html-keyboard-response","128","219831","0.0-7.0-1.0-4.0-0.0-1.10","3","3","3","3","4","3","3","3","3","4","4","2","1","4","2","5","3","3","4","5","2","1","2","2","1","2","1","2","1","1","0","1","1","0","0","1","1","0","1","1","0","1","0","1","4","4","3","1","4","1","4","4","5","5","2","797773565536641026","黄","311","","","","","","","","","","","","","","","","","","","","","","","","","","","","","","feedback_test","","","","","","","","","","","",""
"822","","j","psychophysics","129","221661","0.0-7.0-1.0-4.0-0.0-0.11","3","3","3","3","4","3","3","3","3","4","4","2","1","4","2","5","3","3","4","5","2","1","2","2","1","2","1","2","1","1","0","1","1","0","0","1","1","0","1","1","0","1","0","1","4","4","3","1","4","1","4","4","5","5","2","797773565536641026","黄","311","","","","match","","","","","","","","","","","","","","key","j","16.659379629629797","683","380","j","true","match","img/pentagon.png","五边","五边","ALT1","formal_ALT1_2","","","","","","","","","","","",""
"null","<span style='color:GreenYellow; font-size: 70px;'>正确! </span>","null","html-keyboard-response","130","222167","0.0-7.0-1.0-4.0-0.0-1.11","3","3","3","3","4","3","3","3","3","4","4","2","1","4","2","5","3","3","4","5","2","1","2","2","1","2","1","2","1","1","0","1","1","0","0","1","1","0","1","1","0","1","0","1","4","4","3","1","4","1","4","4","5","5","2","797773565536641026","黄","311","","","","","","","","","","","","","","","","","","","","","","","","","","","","","","feedback_test","","","","","","","","","","","",""
"644","","j","psychophysics","131","223819","0.0-7.0-1.0-4.0-0.0-0.12","3","3","3","3","4","3","3","3","3","4","4","2","1","4","2","5","3","3","4","5","2","1","2","2","1","2","1","2","1","1","0","1","1","0","0","1","1","0","1","1","0","1","0","1","4","4","3","1","4","1","4","4","5","5","2","797773565536641026","黄","311","","","","match","","","","","","","","","","","","","","key","j","16.846701030927882","683","380","j","true","match","img/pentagon.png","五边","五边","ALT1","formal_ALT1_2","","","","","","","","","","","",""
"null","<span style='color:GreenYellow; font-size: 70px;'>正确! </span>","null","html-keyboard-response","132","224327","0.0-7.0-1.0-4.0-0.0-1.12","3","3","3","3","4","3","3","3","3","4","4","2","1","4","2","5","3","3","4","5","2","1","2","2","1","2","1","2","1","1","0","1","1","0","0","1","1","0","1","1","0","1","0","1","4","4","3","1","4","1","4","4","5","5","2","797773565536641026","黄","311","","","","","","","","","","","","","","","","","","","","","","","","","","","","","","feedback_test","","","","","","","","","","","",""
"672","","f","psychophysics","133","226003","0.0-7.0-1.0-4.0-0.0-0.13","3","3","3","3","4","3","3","3","3","4","4","2","1","4","2","5","3","3","4","5","2","1","2","2","1","2","1","2","1","1","0","1","1","0","0","1","1","0","1","1","0","1","0","1","4","4","3","1","4","1","4","4","5","5","2","797773565536641026","黄","311","","","","nonmatch","","","","","","","","","","","","","","key","f","16.670434343434266","683","380","f","true","nonmatch","img/square.png","五边","方形","ALT1","formal_ALT1_2","","","","","","","","","","","",""
"null","<span style='color:GreenYellow; font-size: 70px;'>正确! </span>","null","html-keyboard-response","134","226511","0.0-7.0-1.0-4.0-0.0-1.13","3","3","3","3","4","3","3","3","3","4","4","2","1","4","2","5","3","3","4","5","2","1","2","2","1","2","1","2","1","1","0","1","1","0","0","1","1","0","1","1","0","1","0","1","4","4","3","1","4","1","4","4","5","5","2","797773565536641026","黄","311","","","","","","","","","","","","","","","","","","","","","","","","","","","","","","feedback_test","","","","","","","","","","","",""
"612","","j","psychophysics","135","228131","0.0-7.0-1.0-4.0-0.0-0.14","3","3","3","3","4","3","3","3","3","4","4","2","1","4","2","5","3","3","4","5","2","1","2","2","1","2","1","2","1","1","0","1","1","0","0","1","1","0","1","1","0","1","0","1","4","4","3","1","4","1","4","4","5","5","2","797773565536641026","黄","311","","","","match","","","","","","","","","","","","","","key","j","16.670468749999902","683","380","j","true","match","img/trapezoid.png","梯形","梯形","ALT1","formal_ALT1_2","","","","","","","","","","","",""
"null","<span style='color:GreenYellow; font-size: 70px;'>正确! </span>","null","html-keyboard-response","136","228639","0.0-7.0-1.0-4.0-0.0-1.14","3","3","3","3","4","3","3","3","3","4","4","2","1","4","2","5","3","3","4","5","2","1","2","2","1","2","1","2","1","1","0","1","1","0","0","1","1","0","1","1","0","1","0","1","4","4","3","1","4","1","4","4","5","5","2","797773565536641026","黄","311","","","","","","","","","","","","","","","","","","","","","","","","","","","","","","feedback_test","","","","","","","","","","","",""
"693","","f","psychophysics","137","230339","0.0-7.0-1.0-4.0-0.0-0.15","3","3","3","3","4","3","3","3","3","4","4","2","1","4","2","5","3","3","4","5","2","1","2","2","1","2","1","2","1","1","0","1","1","0","0","1","1","0","1","1","0","1","0","1","4","4","3","1","4","1","4","4","5","5","2","797773565536641026","黄","311","","","","nonmatch","","","","","","","","","","","","","","key","f","16.667890000000188","683","380","f","true","nonmatch","img/square.png","椭圆","方形","ALT1","formal_ALT1_2","","","","","","","","","","","",""
"null","<span style='color:GreenYellow; font-size: 70px;'>正确! </span>","null","html-keyboard-response","138","230846","0.0-7.0-1.0-4.0-0.0-1.15","3","3","3","3","4","3","3","3","3","4","4","2","1","4","2","5","3","3","4","5","2","1","2","2","1","2","1","2","1","1","0","1","1","0","0","1","1","0","1","1","0","1","0","1","4","4","3","1","4","1","4","4","5","5","2","797773565536641026","黄","311","","","","","","","","","","","","","","","","","","","","","","","","","","","","","","feedback_test","","","","","","","","","","","",""
"652","","f","psychophysics","139","232508","0.0-7.0-1.0-4.0-0.0-0.16","3","3","3","3","4","3","3","3","3","4","4","2","1","4","2","5","3","3","4","5","2","1","2","2","1","2","1","2","1","1","0","1","1","0","0","1","1","0","1","1","0","1","0","1","4","4","3","1","4","1","4","4","5","5","2","797773565536641026","黄","311","","","","nonmatch","","","","","","","","","","","","","","key","f","16.667081632653172","683","380","f","true","nonmatch","img/ellipse.png","梯形","椭圆","ALT1","formal_ALT1_2","","","","","","","","","","","",""
"null","<span style='color:GreenYellow; font-size: 70px;'>正确! </span>","null","html-keyboard-response","140","233016","0.0-7.0-1.0-4.0-0.0-1.16","3","3","3","3","4","3","3","3","3","4","4","2","1","4","2","5","3","3","4","5","2","1","2","2","1","2","1","2","1","1","0","1","1","0","0","1","1","0","1","1","0","1","0","1","4","4","3","1","4","1","4","4","5","5","2","797773565536641026","黄","311","","","","","","","","","","","","","","","","","","","","","","","","","","","","","","feedback_test","","","","","","","","","","","",""
"676","","f","psychophysics","141","234700","0.0-7.0-1.0-4.0-0.0-0.17","3","3","3","3","4","3","3","3","3","4","4","2","1","4","2","5","3","3","4","5","2","1","2","2","1","2","1","2","1","1","0","1","1","0","0","1","1","0","1","1","0","1","0","1","4","4","3","1","4","1","4","4","5","5","2","797773565536641026","黄","311","","","","nonmatch","","","","","","","","","","","","","","key","f","16.657150000000257","683","380","f","true","nonmatch","img/ellipse.png","五边","椭圆","ALT1","formal_ALT1_2","","","","","","","","","","","",""
"null","<span style='color:GreenYellow; font-size: 70px;'>正确! </span>","null","html-keyboard-response","142","235208","0.0-7.0-1.0-4.0-0.0-1.17","3","3","3","3","4","3","3","3","3","4","4","2","1","4","2","5","3","3","4","5","2","1","2","2","1","2","1","2","1","1","0","1","1","0","0","1","1","0","1","1","0","1","0","1","4","4","3","1","4","1","4","4","5","5","2","797773565536641026","黄","311","","","","","","","","","","","","","","","","","","","","","","","","","","","","","","feedback_test","","","","","","","","","","","",""
"738","","f","psychophysics","143","236949","0.0-7.0-1.0-4.0-0.0-0.18","3","3","3","3","4","3","3","3","3","4","4","2","1","4","2","5","3","3","4","5","2","1","2","2","1","2","1","2","1","1","0","1","1","0","0","1","1","0","1","1","0","1","0","1","4","4","3","1","4","1","4","4","5","5","2","797773565536641026","黄","311","","","","nonmatch","","","","","","","","","","","","","","key","f","16.672902912621442","683","380","f","true","nonmatch","img/ellipse.png","方形","椭圆","ALT1","formal_ALT1_2","","","","","","","","","","","",""
"null","<span style='color:GreenYellow; font-size: 70px;'>正确! </span>","null","html-keyboard-response","144","237456","0.0-7.0-1.0-4.0-0.0-1.18","3","3","3","3","4","3","3","3","3","4","4","2","1","4","2","5","3","3","4","5","2","1","2","2","1","2","1","2","1","1","0","1","1","0","0","1","1","0","1","1","0","1","0","1","4","4","3","1","4","1","4","4","5","5","2","797773565536641026","黄","311","","","","","","","","","","","","","","","","","","","","","","","","","","","","","","feedback_test","","","","","","","","","","","",""
"661","","f","psychophysics","145","239124","0.0-7.0-1.0-4.0-0.0-0.19","3","3","3","3","4","3","3","3","3","4","4","2","1","4","2","5","3","3","4","5","2","1","2","2","1","2","1","2","1","1","0","1","1","0","0","1","1","0","1","1","0","1","0","1","4","4","3","1","4","1","4","4","5","5","2","797773565536641026","黄","311","","","","nonmatch","","","","","","","","","","","","","","key","f","16.843216494845223","683","380","f","true","nonmatch","img/pentagon.png","方形","五边","ALT1","formal_ALT1_2","","","","","","","","","","","",""
"null","<span style='color:GreenYellow; font-size: 70px;'>正确! </span>","null","html-keyboard-response","146","239632","0.0-7.0-1.0-4.0-0.0-1.19","3","3","3","3","4","3","3","3","3","4","4","2","1","4","2","5","3","3","4","5","2","1","2","2","1","2","1","2","1","1","0","1","1","0","0","1","1","0","1","1","0","1","0","1","4","4","3","1","4","1","4","4","5","5","2","797773565536641026","黄","311","","","","","","","","","","","","","","","","","","","","","","","","","","","","","","feedback_test","","","","","","","","","","","",""
"607","","j","psychophysics","147","241247","0.0-7.0-1.0-4.0-0.0-0.20","3","3","3","3","4","3","3","3","3","4","4","2","1","4","2","5","3","3","4","5","2","1","2","2","1","2","1","2","1","1","0","1","1","0","0","1","1","0","1","1","0","1","0","1","4","4","3","1","4","1","4","4","5","5","2","797773565536641026","黄","311","","","","match","","","","","","","","","","","","","","key","j","16.659562499999993","683","380","j","true","match","img/square.png","方形","方形","ALT1","formal_ALT1_2","","","","","","","","","","","",""
"null","<span style='color:GreenYellow; font-size: 70px;'>正确! </span>","null","html-keyboard-response","148","241752","0.0-7.0-1.0-4.0-0.0-1.20","3","3","3","3","4","3","3","3","3","4","4","2","1","4","2","5","3","3","4","5","2","1","2","2","1","2","1","2","1","1","0","1","1","0","0","1","1","0","1","1","0","1","0","1","4","4","3","1","4","1","4","4","5","5","2","797773565536641026","黄","311","","","","","","","","","","","","","","","","","","","","","","","","","","","","","","feedback_test","","","","","","","","","","","",""
"683","","f","psychophysics","149","243447","0.0-7.0-1.0-4.0-0.0-0.21","3","3","3","3","4","3","3","3","3","4","4","2","1","4","2","5","3","3","4","5","2","1","2","2","1","2","1","2","1","1","0","1","1","0","0","1","1","0","1","1","0","1","0","1","4","4","3","1","4","1","4","4","5","5","2","797773565536641026","黄","311","","","","nonmatch","","","","","","","","","","","","","","key","f","16.668399999999966","683","380","f","true","nonmatch","img/trapezoid.png","五边","梯形","ALT1","formal_ALT1_2","","","","","","","","","","","",""
"null","<span style='color:GreenYellow; font-size: 70px;'>正确! </span>","null","html-keyboard-response","150","243952","0.0-7.0-1.0-4.0-0.0-1.21","3","3","3","3","4","3","3","3","3","4","4","2","1","4","2","5","3","3","4","5","2","1","2","2","1","2","1","2","1","1","0","1","1","0","0","1","1","0","1","1","0","1","0","1","4","4","3","1","4","1","4","4","5","5","2","797773565536641026","黄","311","","","","","","","","","","","","","","","","","","","","","","","","","","","","","","feedback_test","","","","","","","","","","","",""
"707","","f","psychophysics","151","245668","0.0-7.0-1.0-4.0-0.0-0.22","3","3","3","3","4","3","3","3","3","4","4","2","1","4","2","5","3","3","4","5","2","1","2","2","1","2","1","2","1","1","0","1","1","0","0","1","1","0","1","1","0","1","0","1","4","4","3","1","4","1","4","4","5","5","2","797773565536641026","黄","311","","","","nonmatch","","","","","","","","","","","","","","key","f","16.651588235294113","683","380","f","true","nonmatch","img/pentagon.png","梯形","五边","ALT1","formal_ALT1_2","","","","","","","","","","","",""
"null","<span style='color:GreenYellow; font-size: 70px;'>正确! </span>","null","html-keyboard-response","152","246176","0.0-7.0-1.0-4.0-0.0-1.22","3","3","3","3","4","3","3","3","3","4","4","2","1","4","2","5","3","3","4","5","2","1","2","2","1","2","1","2","1","1","0","1","1","0","0","1","1","0","1","1","0","1","0","1","4","4","3","1","4","1","4","4","5","5","2","797773565536641026","黄","311","","","","","","","","","","","","","","","","","","","","","","","","","","","","","","feedback_test","","","","","","","","","","","",""
"776","","f","psychophysics","153","247956","0.0-7.0-1.0-4.0-0.0-0.23","3","3","3","3","4","3","3","3","3","4","4","2","1","4","2","5","3","3","4","5","2","1","2","2","1","2","1","2","1","1","0","1","1","0","0","1","1","0","1","1","0","1","0","1","4","4","3","1","4","1","4","4","5","5","2","797773565536641026","黄","311","","","","nonmatch","","","","","","","","","","","","","","key","f","16.668990476190533","683","380","j","false","match","img/trapezoid.png","梯形","梯形","ALT1","formal_ALT1_2","","","","","","","","","","","",""
"null","<span style='color:red; font-size: 70px;'>错误! </span>","null","html-keyboard-response","154","248464","0.0-7.0-1.0-4.0-0.0-1.23","3","3","3","3","4","3","3","3","3","4","4","2","1","4","2","5","3","3","4","5","2","1","2","2","1","2","1","2","1","1","0","1","1","0","0","1","1","0","1","1","0","1","0","1","4","4","3","1","4","1","4","4","5","5","2","797773565536641026","黄","311","","","","","","","","","","","","","","","","","","","","","","","","","","","","","","feedback_test","","","","","","","","","","","",""
"659","","f","psychophysics","155","250131","0.0-7.0-1.0-4.0-0.0-0.24","3","3","3","3","4","3","3","3","3","4","4","2","1","4","2","5","3","3","4","5","2","1","2","2","1","2","1","2","1","1","0","1","1","0","0","1","1","0","1","1","0","1","0","1","4","4","3","1","4","1","4","4","5","5","2","797773565536641026","黄","311","","","","nonmatch","","","","","","","","","","","","","","key","f","16.66724242424243","683","380","f","true","nonmatch","img/ellipse.png","五边","椭圆","ALT1","formal_ALT1_2","","","","","","","","","","","",""
"null","<span style='color:GreenYellow; font-size: 70px;'>正确! </span>","null","html-keyboard-response","156","250640","0.0-7.0-1.0-4.0-0.0-1.24","3","3","3","3","4","3","3","3","3","4","4","2","1","4","2","5","3","3","4","5","2","1","2","2","1","2","1","2","1","1","0","1","1","0","0","1","1","0","1","1","0","1","0","1","4","4","3","1","4","1","4","4","5","5","2","797773565536641026","黄","311","","","","","","","","","","","","","","","","","","","","","","","","","","","","","","feedback_test","","","","","","","","","","","",""
"687","","j","psychophysics","157","252332","0.0-7.0-1.0-4.0-0.0-0.25","3","3","3","3","4","3","3","3","3","4","4","2","1","4","2","5","3","3","4","5","2","1","2","2","1","2","1","2","1","1","0","1","1","0","0","1","1","0","1","1","0","1","0","1","4","4","3","1","4","1","4","4","5","5","2","797773565536641026","黄","311","","","","match","","","","","","","","","","","","","","key","j","16.657474747475007","683","380","j","true","match","img/pentagon.png","五边","五边","ALT1","formal_ALT1_2","","","","","","","","","","","",""
"null","<span style='color:GreenYellow; font-size: 70px;'>正确! </span>","null","html-keyboard-response","158","252840","0.0-7.0-1.0-4.0-0.0-1.25","3","3","3","3","4","3","3","3","3","4","4","2","1","4","2","5","3","3","4","5","2","1","2","2","1","2","1","2","1","1","0","1","1","0","0","1","1","0","1","1","0","1","0","1","4","4","3","1","4","1","4","4","5","5","2","797773565536641026","黄","311","","","","","","","","","","","","","","","","","","","","","","","","","","","","","","feedback_test","","","","","","","","","","","",""
"639","","f","psychophysics","159","254484","0.0-7.0-1.0-4.0-0.0-0.26","3","3","3","3","4","3","3","3","3","4","4","2","1","4","2","5","3","3","4","5","2","1","2","2","1","2","1","2","1","1","0","1","1","0","0","1","1","0","1","1","0","1","0","1","4","4","3","1","4","1","4","4","5","5","2","797773565536641026","黄","311","","","","nonmatch","","","","","","","","","","","","","","key","f","16.669474226804258","683","380","f","true","nonmatch","img/square.png","梯形","方形","ALT1","formal_ALT1_2","","","","","","","","","","","",""
"null","<span style='color:GreenYellow; font-size: 70px;'>正确! </span>","null","html-keyboard-response","160","254992","0.0-7.0-1.0-4.0-0.0-1.26","3","3","3","3","4","3","3","3","3","4","4","2","1","4","2","5","3","3","4","5","2","1","2","2","1","2","1","2","1","1","0","1","1","0","0","1","1","0","1","1","0","1","0","1","4","4","3","1","4","1","4","4","5","5","2","797773565536641026","黄","311","","","","","","","","","","","","","","","","","","","","","","","","","","","","","","feedback_test","","","","","","","","","","","",""
"657","","j","psychophysics","161","256652","0.0-7.0-1.0-4.0-0.0-0.27","3","3","3","3","4","3","3","3","3","4","4","2","1","4","2","5","3","3","4","5","2","1","2","2","1","2","1","2","1","1","0","1","1","0","0","1","1","0","1","1","0","1","0","1","4","4","3","1","4","1","4","4","5","5","2","797773565536641026","黄","311","","","","match","","","","","","","","","","","","","","key","j","16.66703061224496","683","380","j","true","match","img/trapezoid.png","梯形","梯形","ALT1","formal_ALT1_2","","","","","","","","","","","",""
"null","<span style='color:GreenYellow; font-size: 70px;'>正确! </span>","null","html-keyboard-response","162","257160","0.0-7.0-1.0-4.0-0.0-1.27","3","3","3","3","4","3","3","3","3","4","4","2","1","4","2","5","3","3","4","5","2","1","2","2","1","2","1","2","1","1","0","1","1","0","0","1","1","0","1","1","0","1","0","1","4","4","3","1","4","1","4","4","5","5","2","797773565536641026","黄","311","","","","","","","","","","","","","","","","","","","","","","","","","","","","","","feedback_test","","","","","","","","","","","",""
"667","","j","psychophysics","163","258829","0.0-7.0-1.0-4.0-0.0-0.28","3","3","3","3","4","3","3","3","3","4","4","2","1","4","2","5","3","3","4","5","2","1","2","2","1","2","1","2","1","1","0","1","1","0","0","1","1","0","1","1","0","1","0","1","4","4","3","1","4","1","4","4","5","5","2","797773565536641026","黄","311","","","","match","","","","","","","","","","","","","","key","j","16.65909090909091","683","380","j","true","match","img/trapezoid.png","梯形","梯形","ALT1","formal_ALT1_2","","","","","","","","","","","",""
"null","<span style='color:GreenYellow; font-size: 70px;'>正确! </span>","null","html-keyboard-response","164","259336","0.0-7.0-1.0-4.0-0.0-1.28","3","3","3","3","4","3","3","3","3","4","4","2","1","4","2","5","3","3","4","5","2","1","2","2","1","2","1","2","1","1","0","1","1","0","0","1","1","0","1","1","0","1","0","1","4","4","3","1","4","1","4","4","5","5","2","797773565536641026","黄","311","","","","","","","","","","","","","","","","","","","","","","","","","","","","","","feedback_test","","","","","","","","","","","",""
"801","","f","psychophysics","165","261148","0.0-7.0-1.0-4.0-0.0-0.29","3","3","3","3","4","3","3","3","3","4","4","2","1","4","2","5","3","3","4","5","2","1","2","2","1","2","1","2","1","1","0","1","1","0","0","1","1","0","1","1","0","1","0","1","4","4","3","1","4","1","4","4","5","5","2","797773565536641026","黄","311","","","","nonmatch","","","","","","","","","","","","","","key","f","16.659401869158714","683","380","f","true","nonmatch","img/trapezoid.png","椭圆","梯形","ALT1","formal_ALT1_2","","","","","","","","","","","",""
"null","<span style='color:GreenYellow; font-size: 70px;'>正确! </span>","null","html-keyboard-response","166","261656","0.0-7.0-1.0-4.0-0.0-1.29","3","3","3","3","4","3","3","3","3","4","4","2","1","4","2","5","3","3","4","5","2","1","2","2","1","2","1","2","1","1","0","1","1","0","0","1","1","0","1","1","0","1","0","1","4","4","3","1","4","1","4","4","5","5","2","797773565536641026","黄","311","","","","","","","","","","","","","","","","","","","","","","","","","","","","","","feedback_test","","","","","","","","","","","",""
"692","","j","psychophysics","167","263355","0.0-7.0-1.0-4.0-0.0-0.30","3","3","3","3","4","3","3","3","3","4","4","2","1","4","2","5","3","3","4","5","2","1","2","2","1","2","1","2","1","1","0","1","1","0","0","1","1","0","1","1","0","1","0","1","4","4","3","1","4","1","4","4","5","5","2","797773565536641026","黄","311","","","","match","","","","","","","","","","","","","","key","j","16.66997029702986","683","380","j","true","match","img/pentagon.png","五边","五边","ALT1","formal_ALT1_2","","","","","","","","","","","",""
"null","<span style='color:GreenYellow; font-size: 70px;'>正确! </span>","null","html-keyboard-response","168","263864","0.0-7.0-1.0-4.0-0.0-1.30","3","3","3","3","4","3","3","3","3","4","4","2","1","4","2","5","3","3","4","5","2","1","2","2","1","2","1","2","1","1","0","1","1","0","0","1","1","0","1","1","0","1","0","1","4","4","3","1","4","1","4","4","5","5","2","797773565536641026","黄","311","","","","","","","","","","","","","","","","","","","","","","","","","","","","","","feedback_test","","","","","","","","","","","",""
"892","","f","psychophysics","169","265764","0.0-7.0-1.0-4.0-0.0-0.31","3","3","3","3","4","3","3","3","3","4","4","2","1","4","2","5","3","3","4","5","2","1","2","2","1","2","1","2","1","1","0","1","1","0","0","1","1","0","1","1","0","1","0","1","4","4","3","1","4","1","4","4","5","5","2","797773565536641026","黄","311","","","","nonmatch","","","","","","","","","","","","","","key","f","16.669178571428347","683","380","f","true","nonmatch","img/pentagon.png","方形","五边","ALT1","formal_ALT1_2","","","","","","","","","","","",""
"null","<span style='color:GreenYellow; font-size: 70px;'>正确! </span>","null","html-keyboard-response","170","266272","0.0-7.0-1.0-4.0-0.0-1.31","3","3","3","3","4","3","3","3","3","4","4","2","1","4","2","5","3","3","4","5","2","1","2","2","1","2","1","2","1","1","0","1","1","0","0","1","1","0","1","1","0","1","0","1","4","4","3","1","4","1","4","4","5","5","2","797773565536641026","黄","311","","","","","","","","","","","","","","","","","","","","","","","","","","","","","","feedback_test","","","","","","","","","","","",""
"709","","f","psychophysics","171","267987","0.0-7.0-1.0-4.0-0.0-0.32","3","3","3","3","4","3","3","3","3","4","4","2","1","4","2","5","3","3","4","5","2","1","2","2","1","2","1","2","1","1","0","1","1","0","0","1","1","0","1","1","0","1","0","1","4","4","3","1","4","1","4","4","5","5","2","797773565536641026","黄","311","","","","nonmatch","","","","","","","","","","","","","","key","f","16.839178217821615","683","380","f","true","nonmatch","img/trapezoid.png","方形","梯形","ALT1","formal_ALT1_2","","","","","","","","","","","",""
"null","<span style='color:GreenYellow; font-size: 70px;'>正确! </span>","null","html-keyboard-response","172","268496","0.0-7.0-1.0-4.0-0.0-1.32","3","3","3","3","4","3","3","3","3","4","4","2","1","4","2","5","3","3","4","5","2","1","2","2","1","2","1","2","1","1","0","1","1","0","0","1","1","0","1","1","0","1","0","1","4","4","3","1","4","1","4","4","5","5","2","797773565536641026","黄","311","","","","","","","","","","","","","","","","","","","","","","","","","","","","","","feedback_test","","","","","","","","","","","",""
"835","","f","psychophysics","173","270339","0.0-7.0-1.0-4.0-0.0-0.33","3","3","3","3","4","3","3","3","3","4","4","2","1","4","2","5","3","3","4","5","2","1","2","2","1","2","1","2","1","1","0","1","1","0","0","1","1","0","1","1","0","1","0","1","4","4","3","1","4","1","4","4","5","5","2","797773565536641026","黄","311","","","","nonmatch","","","","","","","","","","","","","","key","f","16.67283333333358","683","380","f","true","nonmatch","img/square.png","五边","方形","ALT1","formal_ALT1_2","","","","","","","","","","","",""
"null","<span style='color:GreenYellow; font-size: 70px;'>正确! </span>","null","html-keyboard-response","174","270848","0.0-7.0-1.0-4.0-0.0-1.33","3","3","3","3","4","3","3","3","3","4","4","2","1","4","2","5","3","3","4","5","2","1","2","2","1","2","1","2","1","1","0","1","1","0","0","1","1","0","1","1","0","1","0","1","4","4","3","1","4","1","4","4","5","5","2","797773565536641026","黄","311","","","","","","","","","","","","","","","","","","","","","","","","","","","","","","feedback_test","","","","","","","","","","","",""
"796","","f","psychophysics","175","272652","0.0-7.0-1.0-4.0-0.0-0.34","3","3","3","3","4","3","3","3","3","4","4","2","1","4","2","5","3","3","4","5","2","1","2","2","1","2","1","2","1","1","0","1","1","0","0","1","1","0","1","1","0","1","0","1","4","4","3","1","4","1","4","4","5","5","2","797773565536641026","黄","311","","","","nonmatch","","","","","","","","","","","","","","key","f","16.670037383177736","683","380","f","true","nonmatch","img/pentagon.png","梯形","五边","ALT1","formal_ALT1_2","","","","","","","","","","","",""
"null","<span style='color:GreenYellow; font-size: 70px;'>正确! </span>","null","html-keyboard-response","176","273160","0.0-7.0-1.0-4.0-0.0-1.34","3","3","3","3","4","3","3","3","3","4","4","2","1","4","2","5","3","3","4","5","2","1","2","2","1","2","1","2","1","1","0","1","1","0","0","1","1","0","1","1","0","1","0","1","4","4","3","1","4","1","4","4","5","5","2","797773565536641026","黄","311","","","","","","","","","","","","","","","","","","","","","","","","","","","","","","feedback_test","","","","","","","","","","","",""
"708","","f","psychophysics","177","274877","0.0-7.0-1.0-4.0-0.0-0.35","3","3","3","3","4","3","3","3","3","4","4","2","1","4","2","5","3","3","4","5","2","1","2","2","1","2","1","2","1","1","0","1","1","0","0","1","1","0","1","1","0","1","0","1","4","4","3","1","4","1","4","4","5","5","2","797773565536641026","黄","311","","","","nonmatch","","","","","","","","","","","","","","key","f","16.83678217821796","683","380","f","true","nonmatch","img/pentagon.png","椭圆","五边","ALT1","formal_ALT1_2","","","","","","","","","","","",""
"null","<span style='color:GreenYellow; font-size: 70px;'>正确! </span>","null","html-keyboard-response","178","275384","0.0-7.0-1.0-4.0-0.0-1.35","3","3","3","3","4","3","3","3","3","4","4","2","1","4","2","5","3","3","4","5","2","1","2","2","1","2","1","2","1","1","0","1","1","0","0","1","1","0","1","1","0","1","0","1","4","4","3","1","4","1","4","4","5","5","2","797773565536641026","黄","311","","","","","","","","","","","","","","","","","","","","","","","","","","","","","","feedback_test","","","","","","","","","","","",""
"705","","f","psychophysics","179","277099","0.0-7.0-1.0-4.0-0.0-0.36","3","3","3","3","4","3","3","3","3","4","4","2","1","4","2","5","3","3","4","5","2","1","2","2","1","2","1","2","1","1","0","1","1","0","0","1","1","0","1","1","0","1","0","1","4","4","3","1","4","1","4","4","5","5","2","797773565536641026","黄","311","","","","nonmatch","","","","","","","","","","","","","","key","f","16.657009803921706","683","380","f","true","nonmatch","img/ellipse.png","方形","椭圆","ALT1","formal_ALT1_2","","","","","","","","","","","",""
"null","<span style='color:GreenYellow; font-size: 70px;'>正确! </span>","null","html-keyboard-response","180","277600","0.0-7.0-1.0-4.0-0.0-1.36","3","3","3","3","4","3","3","3","3","4","4","2","1","4","2","5","3","3","4","5","2","1","2","2","1","2","1","2","1","1","0","1","1","0","0","1","1","0","1","1","0","1","0","1","4","4","3","1","4","1","4","4","5","5","2","797773565536641026","黄","311","","","","","","","","","","","","","","","","","","","","","","","","","","","","","","feedback_test","","","","","","","","","","","",""
"704","","j","psychophysics","181","279311","0.0-7.0-1.0-4.0-0.0-0.37","3","3","3","3","4","3","3","3","3","4","4","2","1","4","2","5","3","3","4","5","2","1","2","2","1","2","1","2","1","1","0","1","1","0","0","1","1","0","1","1","0","1","0","1","4","4","3","1","4","1","4","4","5","5","2","797773565536641026","黄","311","","","","match","","","","","","","","","","","","","","key","j","16.66479411764714","683","380","j","true","match","img/pentagon.png","五边","五边","ALT1","formal_ALT1_2","","","","","","","","","","","",""
