"rt","stimulus","response","trial_type","trial_index","time_elapsed","internal_node_id","ses_1","ses_2","ses_3","ses_4","ses_5","ses_6","ses_7","ses_8","ses_9","ses_10","coreself_1","coreself_2","coreself_3","coreself_4","coreself_5","coreself_6","coreself_7","coreself_8","coreself_9","coreself_10","SGPS_1","SGPS_2","SGPS_3","SGPS_4","SGPS_5","SGPS_6","SGPS_7","SGPS_8","SGPS_9","NPI1","NPI2","NPI3","NPI4","NPI5","NPI6","NPI7","NPI8","NPI9","NPI10","NPI11","NPI12","NPI13","NPI14","NPI15","hsns_1","hsns_2","hsns_3","hsns_4","hsns_5","trap1","hsns_6","hsns_7","hsns_8","hsns_9","hsns_10","subj_idx","friend_name","ParticipantID","value","success","user_agent","responses","item_order","radio_event_ids","radio_event_times","key_event_times","mouse_event_times","straightlining","zigzagging","honeypot","timeout","failed_images","failed_audio","failed_video","view_history","response_type","key_press","avg_frame_time","center_x","center_y","correct_response","correct","identity","Image","word","condition","task_id","screen_id","time_stamp","version_attrib","version_target","IAT","RT","varname","summary","version_attrib2","version_target2","question_order","correct_answer","trap1_item"
"5093","
   <p><div style = ""color: white;font-size:25px;"">您好，欢迎参加本次实验。</div> </p>
   <p><div style = ""color: white;font-size:25px;"">为充分保障您的权利，请确保您已经知晓并同意《参与实验同意书》以及《数据公开知情同意书》。</div></p>
   <p><div style = ""color: white;font-size:25px;"">如果您未见过上述内容，请咨询实验员。</div></p>
   <p><div style = ""color: white;font-size:25px;"">如果您选择继续实验，则表示您已经清楚两份知情同意书的内容并同意。</div></p>
   <p><div style = ""color: pink;font-size:30px;"">请确保您记得day0的实验编号，您将在本次实验输入该编号，若您忘记，请咨询实验员后作答。</div></p>
   <p><div style = ""color: lightblue;font-size:25px;"">请您尽可能认真地作答，我们将依据您在各问卷和按键任务中的作答质量发放报酬。</div></p>
   <p> <div style = ""color: green;font-size:25px;""><按空格键至下页></div> </p>
   "," ","html-keyboard-response","0","5095","0.0-0.0","4","4","4","4","3","4","4","4","4","4","4","4","4","5","4","4","5","4","5","4","1","2","1","1","2","2","2","2","1","1","0","1","1","0","0","0","1","0","1","1","0","1","0","1","4","2","4","2","3","1","2","4","2","2","1","753363750240915458","韩","132","","","","","","","","","","","","","","","","","","","","","","","","","","","","","","","","","","","","","","","","","",""
"","","","call-function","1","5098","0.0-1.0-0.0","4","4","4","4","3","4","4","4","4","4","4","4","4","5","4","4","5","4","5","4","1","2","1","1","2","2","2","2","1","1","0","1","1","0","0","0","1","0","1","1","0","1","0","1","4","2","4","2","3","1","2","4","2","2","1","753363750240915458","韩","132","","","","","","","","","","","","","","","","","","","","","","","","","","","","","","","","","","","","","","","","","",""
"27042","","{""friend_name"":""韩"",""ParticipantID"":""132""}","survey-html-form","2","32140","0.0-1.0-1.0","4","4","4","4","3","4","4","4","4","4","4","4","4","5","4","4","5","4","5","4","1","2","1","1","2","2","2","2","1","1","0","1","1","0","0","0","1","0","1","1","0","1","0","1","4","2","4","2","3","1","2","4","2","2","1","753363750240915458","韩","132","","","","","","","","","","","","","","","","","","","","","","","","","","","","","","","","","","","","","","","","","",""
"","","","fullscreen","3","37635","0.0-2.0","4","4","4","4","3","4","4","4","4","4","4","4","4","5","4","4","5","4","5","4","1","2","1","1","2","2","2","2","1","1","0","1","1","0","0","0","1","0","1","1","0","1","0","1","4","2","4","2","3","1","2","4","2","2","1","753363750240915458","韩","132","","true","{}","","","","","","","","","","","","","","","","","","","","","","","","","","","","","","","","","","","","","","",""
"31111.80000001192","","{""Q01"":""4"",""Q02"":""4"",""Q03"":""4"",""Q04"":""4"",""Q05"":""3"",""Q06"":""4"",""Q07"":""4"",""Q08"":""4"",""Q09"":""4"",""Q10"":""4""}","survey-template","4","68750","0.0-3.0","4","4","4","4","3","4","4","4","4","4","4","4","4","5","4","4","5","4","5","4","1","2","1","1","2","2","2","2","1","1","0","1","1","0","0","0","1","0","1","1","0","1","0","1","4","2","4","2","3","1","2","4","2","2","1","753363750240915458","韩","132","","","","{""Q01"":""4"",""Q02"":""4"",""Q03"":""4"",""Q04"":""4"",""Q05"":""3"",""Q06"":""4"",""Q07"":""4"",""Q08"":""4"",""Q09"":""4"",""Q10"":""4""}","[0,1,2,3,4,5,6,7,8,9]","[""Q01"",""Q02"",""Q04"",""Q03"",""Q03"",""Q05"",""Q06"",""Q07"",""Q08"",""Q09"",""Q10""]","[3423.699999988079,6214.900000035763,11513.400000035763,12215.400000035763,12510.800000011921,15544,17434,18887.100000023842,22798.600000023842,23678.80000001192,25319.30000001192]","[]","[3423.699999988079,5598.800000011921,6214.900000035763,9233.800000011921,9952.699999988079,10967.400000035763,11513.400000035763,12215.400000035763,12510.800000011921,15544,17434,18887.100000023842,22798.600000023842,23279.5,23678.80000001192,24423.80000001192,25319.30000001192,31110.80000001192]","0.5","0.3333333333333333","0","","","","","","","","","","","","","","","","","","","","","","","","","","","","","",""
"34224.69999998808","","{""Q01"":""4"",""Q02"":""4"",""Q03"":""4"",""Q04"":""5"",""Q05"":""4"",""Q06"":""4"",""Q07"":""5"",""Q08"":""4"",""Q09"":""5"",""Q10"":""4""}","survey-template","5","102982","0.0-4.0","4","4","4","4","3","4","4","4","4","4","4","4","4","5","4","4","5","4","5","4","1","2","1","1","2","2","2","2","1","1","0","1","1","0","0","0","1","0","1","1","0","1","0","1","4","2","4","2","3","1","2","4","2","2","1","753363750240915458","韩","132","","","","{""Q01"":""4"",""Q02"":""4"",""Q03"":""4"",""Q04"":""5"",""Q05"":""4"",""Q06"":""4"",""Q07"":""5"",""Q08"":""4"",""Q09"":""5"",""Q10"":""4""}","[0,1,2,3,4,5,6,7,8,9]","[""Q01"",""Q02"",""Q03"",""Q04"",""Q04"",""Q05"",""Q06"",""Q07"",""Q08"",""Q09"",""Q10"",""Q10""]","[4415.299999952316,9943.399999976158,12288,13921.899999976158,14743.5,17072.099999964237,18751.399999976158,20911.799999952316,24376.399999976158,26167.599999964237,32567.599999964237,33495.59999996424]","[]","[4415.299999952316,9943.399999976158,12288,13921.899999976158,14743.5,17072.099999964237,18751.399999976158,20911.799999952316,24376.399999976158,26167.599999964237,32567.599999964237,33097.09999996424,33495.59999996424,34223.799999952316]","0.5","0.1111111111111111","0","","","","","","","","","","","","","","","","","","","","","","","","","","","","","",""
"","","","preload","6","103431","0.0-5.0","4","4","4","4","3","4","4","4","4","4","4","4","4","5","4","4","5","4","5","4","1","2","1","1","2","2","2","2","1","1","0","1","1","0","0","0","1","0","1","1","0","1","0","1","4","2","4","2","3","1","2","4","2","2","1","753363750240915458","韩","132","","true","","","","","","","","","","","false","[]","[]","[]","","","","","","","","","","","","","","","","","","","","","","","","","",""
"21469","","","instructions","7","124901","0.0-6.0","4","4","4","4","3","4","4","4","4","4","4","4","4","5","4","4","5","4","5","4","1","2","1","1","2","2","2","2","1","1","0","1","1","0","0","0","1","0","1","1","0","1","0","1","4","2","4","2","3","1","2","4","2","2","1","753363750240915458","韩","132","","","","","","","","","","","","","","","","","[{""page_index"":0,""viewing_time"":21468}]","","","","","","","","","","","","","","","","","","","","","","","","",""
"36557","","","instructions","8","161459","0.0-7.0-1.0-0.0","4","4","4","4","3","4","4","4","4","4","4","4","4","5","4","4","5","4","5","4","1","2","1","1","2","2","2","2","1","1","0","1","1","0","0","0","1","0","1","1","0","1","0","1","4","2","4","2","3","1","2","4","2","2","1","753363750240915458","韩","132","","","","","","","","","","","","","","","","","[{""page_index"":0,""viewing_time"":24694},{""page_index"":1,""viewing_time"":9784},{""page_index"":2,""viewing_time"":2079}]","","","","","","","","","","","","","","","","","","","","","","","","",""
"1016","","f","psychophysics","9","163485","0.0-7.0-1.0-1.0-0.0-0.0","4","4","4","4","3","4","4","4","4","4","4","4","4","5","4","4","5","4","5","4","1","2","1","1","2","2","2","2","1","1","0","1","1","0","0","0","1","0","1","1","0","1","0","1","4","2","4","2","3","1","2","4","2","2","1","753363750240915458","韩","132","","","","match","","","","","","","","","","","","","","key","f","16.6660743801653","768","428","j","false","nonmatch","img/trapezoid.png","圆形","梯形","ALT1_2","prac_ALT1_2","","","","","","","","","","","",""
"null","<span style='color:red; font-size: 70px;'>错误! </span>","null","html-keyboard-response","10","163998","0.0-7.0-1.0-1.0-0.0-1.0","4","4","4","4","3","4","4","4","4","4","4","4","4","5","4","4","5","4","5","4","1","2","1","1","2","2","2","2","1","1","0","1","1","0","0","0","1","0","1","1","0","1","0","1","4","2","4","2","3","1","2","4","2","2","1","753363750240915458","韩","132","","","","","","","","","","","","","","","","","","","","","","","","","","","","","","feedback_test","","","","","","","","","","","",""
"735","","f","psychophysics","11","165747","0.0-7.0-1.0-1.0-0.0-0.1","4","4","4","4","3","4","4","4","4","4","4","4","4","5","4","4","5","4","5","4","1","2","1","1","2","2","2","2","1","1","0","1","1","0","0","0","1","0","1","1","0","1","0","1","4","2","4","2","3","1","2","4","2","2","1","753363750240915458","韩","132","","","","match","","","","","","","","","","","","","","key","f","16.668115384615355","768","428","j","false","nonmatch","img/trapezoid.png","菱形","梯形","ALT1_2","prac_ALT1_2","","","","","","","","","","","",""
"null","<span style='color:red; font-size: 70px;'>错误! </span>","null","html-keyboard-response","12","166257","0.0-7.0-1.0-1.0-0.0-1.1","4","4","4","4","3","4","4","4","4","4","4","4","4","5","4","4","5","4","5","4","1","2","1","1","2","2","2","2","1","1","0","1","1","0","0","0","1","0","1","1","0","1","0","1","4","2","4","2","3","1","2","4","2","2","1","753363750240915458","韩","132","","","","","","","","","","","","","","","","","","","","","","","","","","","","","","feedback_test","","","","","","","","","","","",""
"714","","f","psychophysics","13","167979","0.0-7.0-1.0-1.0-0.0-0.2","4","4","4","4","3","4","4","4","4","4","4","4","4","5","4","4","5","4","5","4","1","2","1","1","2","2","2","2","1","1","0","1","1","0","0","0","1","0","1","1","0","1","0","1","4","2","4","2","3","1","2","4","2","2","1","753363750240915458","韩","132","","","","match","","","","","","","","","","","","","","key","f","16.666277227722716","768","428","j","false","nonmatch","img/diamond.png","梯形","菱形","ALT1_2","prac_ALT1_2","","","","","","","","","","","",""
"null","<span style='color:red; font-size: 70px;'>错误! </span>","null","html-keyboard-response","14","168482","0.0-7.0-1.0-1.0-0.0-1.2","4","4","4","4","3","4","4","4","4","4","4","4","4","5","4","4","5","4","5","4","1","2","1","1","2","2","2","2","1","1","0","1","1","0","0","0","1","0","1","1","0","1","0","1","4","2","4","2","3","1","2","4","2","2","1","753363750240915458","韩","132","","","","","","","","","","","","","","","","","","","","","","","","","","","","","","feedback_test","","","","","","","","","","","",""
"822","","j","psychophysics","15","170308","0.0-7.0-1.0-1.0-0.0-0.3","4","4","4","4","3","4","4","4","4","4","4","4","4","5","4","4","5","4","5","4","1","2","1","1","2","2","2","2","1","1","0","1","1","0","0","0","1","0","1","1","0","1","0","1","4","2","4","2","3","1","2","4","2","2","1","753363750240915458","韩","132","","","","nonmatch","","","","","","","","","","","","","","key","j","16.666712962962738","768","428","f","false","match","img/pentagon.png","五边","五边","ALT1_2","prac_ALT1_2","","","","","","","","","","","",""
"null","<span style='color:red; font-size: 70px;'>错误! </span>","null","html-keyboard-response","16","170819","0.0-7.0-1.0-1.0-0.0-1.3","4","4","4","4","3","4","4","4","4","4","4","4","4","5","4","4","5","4","5","4","1","2","1","1","2","2","2","2","1","1","0","1","1","0","0","0","1","0","1","1","0","1","0","1","4","2","4","2","3","1","2","4","2","2","1","753363750240915458","韩","132","","","","","","","","","","","","","","","","","","","","","","","","","","","","","","feedback_test","","","","","","","","","","","",""
"700","","j","psychophysics","17","172524","0.0-7.0-1.0-1.0-0.0-0.4","4","4","4","4","3","4","4","4","4","4","4","4","4","5","4","4","5","4","5","4","1","2","1","1","2","2","2","2","1","1","0","1","1","0","0","0","1","0","1","1","0","1","0","1","4","2","4","2","3","1","2","4","2","2","1","753363750240915458","韩","132","","","","nonmatch","","","","","","","","","","","","","","key","j","16.664346534653628","768","428","f","false","match","img/pentagon.png","五边","五边","ALT1_2","prac_ALT1_2","","","","","","","","","","","",""
"null","<span style='color:red; font-size: 70px;'>错误! </span>","null","html-keyboard-response","18","173030","0.0-7.0-1.0-1.0-0.0-1.4","4","4","4","4","3","4","4","4","4","4","4","4","4","5","4","4","5","4","5","4","1","2","1","1","2","2","2","2","1","1","0","1","1","0","0","0","1","0","1","1","0","1","0","1","4","2","4","2","3","1","2","4","2","2","1","753363750240915458","韩","132","","","","","","","","","","","","","","","","","","","","","","","","","","","","","","feedback_test","","","","","","","","","","","",""
"868","","f","psychophysics","19","174908","0.0-7.0-1.0-1.0-0.0-0.5","4","4","4","4","3","4","4","4","4","4","4","4","4","5","4","4","5","4","5","4","1","2","1","1","2","2","2","2","1","1","0","1","1","0","0","0","1","0","1","1","0","1","0","1","4","2","4","2","3","1","2","4","2","2","1","753363750240915458","韩","132","","","","match","","","","","","","","","","","","","","key","f","16.667486486486357","768","428","f","true","match","img/diamond.png","菱形","菱形","ALT1_2","prac_ALT1_2","","","","","","","","","","","",""
"null","<span style='color:GreenYellow; font-size: 70px;'>正确! </span>","null","html-keyboard-response","20","175414","0.0-7.0-1.0-1.0-0.0-1.5","4","4","4","4","3","4","4","4","4","4","4","4","4","5","4","4","5","4","5","4","1","2","1","1","2","2","2","2","1","1","0","1","1","0","0","0","1","0","1","1","0","1","0","1","4","2","4","2","3","1","2","4","2","2","1","753363750240915458","韩","132","","","","","","","","","","","","","","","","","","","","","","","","","","","","","","feedback_test","","","","","","","","","","","",""
"823","","f","psychophysics","21","177244","0.0-7.0-1.0-1.0-0.0-0.6","4","4","4","4","3","4","4","4","4","4","4","4","4","5","4","4","5","4","5","4","1","2","1","1","2","2","2","2","1","1","0","1","1","0","0","0","1","0","1","1","0","1","0","1","4","2","4","2","3","1","2","4","2","2","1","753363750240915458","韩","132","","","","match","","","","","","","","","","","","","","key","f","16.668064814814663","768","428","j","false","nonmatch","img/pentagon.png","圆形","五边","ALT1_2","prac_ALT1_2","","","","","","","","","","","",""
"null","<span style='color:red; font-size: 70px;'>错误! </span>","null","html-keyboard-response","22","177752","0.0-7.0-1.0-1.0-0.0-1.6","4","4","4","4","3","4","4","4","4","4","4","4","4","5","4","4","5","4","5","4","1","2","1","1","2","2","2","2","1","1","0","1","1","0","0","0","1","0","1","1","0","1","0","1","4","2","4","2","3","1","2","4","2","2","1","753363750240915458","韩","132","","","","","","","","","","","","","","","","","","","","","","","","","","","","","","feedback_test","","","","","","","","","","","",""
"819","","f","psychophysics","23","179580","0.0-7.0-1.0-1.0-0.0-0.7","4","4","4","4","3","4","4","4","4","4","4","4","4","5","4","4","5","4","5","4","1","2","1","1","2","2","2","2","1","1","0","1","1","0","0","0","1","0","1","1","0","1","0","1","4","2","4","2","3","1","2","4","2","2","1","753363750240915458","韩","132","","","","match","","","","","","","","","","","","","","key","f","16.66637037037031","768","428","j","false","nonmatch","img/circle.png","五边","圆形","ALT1_2","prac_ALT1_2","","","","","","","","","","","",""
"null","<span style='color:red; font-size: 70px;'>错误! </span>","null","html-keyboard-response","24","180091","0.0-7.0-1.0-1.0-0.0-1.7","4","4","4","4","3","4","4","4","4","4","4","4","4","5","4","4","5","4","5","4","1","2","1","1","2","2","2","2","1","1","0","1","1","0","0","0","1","0","1","1","0","1","0","1","4","2","4","2","3","1","2","4","2","2","1","753363750240915458","韩","132","","","","","","","","","","","","","","","","","","","","","","","","","","","","","","feedback_test","","","","","","","","","","","",""
"769","","f","psychophysics","25","181867","0.0-7.0-1.0-1.0-0.0-0.8","4","4","4","4","3","4","4","4","4","4","4","4","4","5","4","4","5","4","5","4","1","2","1","1","2","2","2","2","1","1","0","1","1","0","0","0","1","0","1","1","0","1","0","1","4","2","4","2","3","1","2","4","2","2","1","753363750240915458","韩","132","","","","match","","","","","","","","","","","","","","key","f","16.667400000000185","768","428","j","false","nonmatch","img/pentagon.png","菱形","五边","ALT1_2","prac_ALT1_2","","","","","","","","","","","",""
"null","<span style='color:red; font-size: 70px;'>错误! </span>","null","html-keyboard-response","26","182370","0.0-7.0-1.0-1.0-0.0-1.8","4","4","4","4","3","4","4","4","4","4","4","4","4","5","4","4","5","4","5","4","1","2","1","1","2","2","2","2","1","1","0","1","1","0","0","0","1","0","1","1","0","1","0","1","4","2","4","2","3","1","2","4","2","2","1","753363750240915458","韩","132","","","","","","","","","","","","","","","","","","","","","","","","","","","","","","feedback_test","","","","","","","","","","","",""
"1147","","j","psychophysics","27","184532","0.0-7.0-1.0-1.0-0.0-0.9","4","4","4","4","3","4","4","4","4","4","4","4","4","5","4","4","5","4","5","4","1","2","1","1","2","2","2","2","1","1","0","1","1","0","0","0","1","0","1","1","0","1","0","1","4","2","4","2","3","1","2","4","2","2","1","753363750240915458","韩","132","","","","nonmatch","","","","","","","","","","","","","","key","j","16.666710937500056","768","428","j","true","nonmatch","img/circle.png","菱形","圆形","ALT1_2","prac_ALT1_2","","","","","","","","","","","",""
"null","<span style='color:GreenYellow; font-size: 70px;'>正确! </span>","null","html-keyboard-response","28","185042","0.0-7.0-1.0-1.0-0.0-1.9","4","4","4","4","3","4","4","4","4","4","4","4","4","5","4","4","5","4","5","4","1","2","1","1","2","2","2","2","1","1","0","1","1","0","0","0","1","0","1","1","0","1","0","1","4","2","4","2","3","1","2","4","2","2","1","753363750240915458","韩","132","","","","","","","","","","","","","","","","","","","","","","","","","","","","","","feedback_test","","","","","","","","","","","",""
"872","","j","psychophysics","29","186916","0.0-7.0-1.0-1.0-0.0-0.10","4","4","4","4","3","4","4","4","4","4","4","4","4","5","4","4","5","4","5","4","1","2","1","1","2","2","2","2","1","1","0","1","1","0","0","0","1","0","1","1","0","1","0","1","4","2","4","2","3","1","2","4","2","2","1","753363750240915458","韩","132","","","","nonmatch","","","","","","","","","","","","","","key","j","16.667963636363858","768","428","j","true","nonmatch","img/diamond.png","圆形","菱形","ALT1_2","prac_ALT1_2","","","","","","","","","","","",""
"null","<span style='color:GreenYellow; font-size: 70px;'>正确! </span>","null","html-keyboard-response","30","187426","0.0-7.0-1.0-1.0-0.0-1.10","4","4","4","4","3","4","4","4","4","4","4","4","4","5","4","4","5","4","5","4","1","2","1","1","2","2","2","2","1","1","0","1","1","0","0","0","1","0","1","1","0","1","0","1","4","2","4","2","3","1","2","4","2","2","1","753363750240915458","韩","132","","","","","","","","","","","","","","","","","","","","","","","","","","","","","","feedback_test","","","","","","","","","","","",""
"857","","f","psychophysics","31","189292","0.0-7.0-1.0-1.0-0.0-0.11","4","4","4","4","3","4","4","4","4","4","4","4","4","5","4","4","5","4","5","4","1","2","1","1","2","2","2","2","1","1","0","1","1","0","0","0","1","0","1","1","0","1","0","1","4","2","4","2","3","1","2","4","2","2","1","753363750240915458","韩","132","","","","match","","","","","","","","","","","","","","key","f","16.818587155963257","768","428","j","false","nonmatch","img/diamond.png","五边","菱形","ALT1_2","prac_ALT1_2","","","","","","","","","","","",""
"null","<span style='color:red; font-size: 70px;'>错误! </span>","null","html-keyboard-response","32","189800","0.0-7.0-1.0-1.0-0.0-1.11","4","4","4","4","3","4","4","4","4","4","4","4","4","5","4","4","5","4","5","4","1","2","1","1","2","2","2","2","1","1","0","1","1","0","0","0","1","0","1","1","0","1","0","1","4","2","4","2","3","1","2","4","2","2","1","753363750240915458","韩","132","","","","","","","","","","","","","","","","","","","","","","","","","","","","","","feedback_test","","","","","","","","","","","",""
"824","","j","psychophysics","33","191636","0.0-7.0-1.0-1.0-0.0-0.12","4","4","4","4","3","4","4","4","4","4","4","4","4","5","4","4","5","4","5","4","1","2","1","1","2","2","2","2","1","1","0","1","1","0","0","0","1","0","1","1","0","1","0","1","4","2","4","2","3","1","2","4","2","2","1","753363750240915458","韩","132","","","","nonmatch","","","","","","","","","","","","","","key","j","16.666669724770788","768","428","f","false","match","img/circle.png","圆形","圆形","ALT1_2","prac_ALT1_2","","","","","","","","","","","",""
"null","<span style='color:red; font-size: 70px;'>错误! </span>","null","html-keyboard-response","34","192137","0.0-7.0-1.0-1.0-0.0-1.12","4","4","4","4","3","4","4","4","4","4","4","4","4","5","4","4","5","4","5","4","1","2","1","1","2","2","2","2","1","1","0","1","1","0","0","0","1","0","1","1","0","1","0","1","4","2","4","2","3","1","2","4","2","2","1","753363750240915458","韩","132","","","","","","","","","","","","","","","","","","","","","","","","","","","","","","feedback_test","","","","","","","","","","","",""
"815","","f","psychophysics","35","193963","0.0-7.0-1.0-1.0-0.0-0.13","4","4","4","4","3","4","4","4","4","4","4","4","4","5","4","4","5","4","5","4","1","2","1","1","2","2","2","2","1","1","0","1","1","0","0","0","1","0","1","1","0","1","0","1","4","2","4","2","3","1","2","4","2","2","1","753363750240915458","韩","132","","","","match","","","","","","","","","","","","","","key","f","16.665916666666615","768","428","f","true","match","img/trapezoid.png","梯形","梯形","ALT1_2","prac_ALT1_2","","","","","","","","","","","",""
"null","<span style='color:GreenYellow; font-size: 70px;'>正确! </span>","null","html-keyboard-response","36","194464","0.0-7.0-1.0-1.0-0.0-1.13","4","4","4","4","3","4","4","4","4","4","4","4","4","5","4","4","5","4","5","4","1","2","1","1","2","2","2","2","1","1","0","1","1","0","0","0","1","0","1","1","0","1","0","1","4","2","4","2","3","1","2","4","2","2","1","753363750240915458","韩","132","","","","","","","","","","","","","","","","","","","","","","","","","","","","","","feedback_test","","","","","","","","","","","",""
"856","","f","psychophysics","37","196324","0.0-7.0-1.0-1.0-0.0-0.14","4","4","4","4","3","4","4","4","4","4","4","4","4","5","4","4","5","4","5","4","1","2","1","1","2","2","2","2","1","1","0","1","1","0","0","0","1","0","1","1","0","1","0","1","4","2","4","2","3","1","2","4","2","2","1","753363750240915458","韩","132","","","","match","","","","","","","","","","","","","","key","f","16.666290909090787","768","428","f","true","match","img/diamond.png","菱形","菱形","ALT1_2","prac_ALT1_2","","","","","","","","","","","",""
"null","<span style='color:GreenYellow; font-size: 70px;'>正确! </span>","null","html-keyboard-response","38","196830","0.0-7.0-1.0-1.0-0.0-1.14","4","4","4","4","3","4","4","4","4","4","4","4","4","5","4","4","5","4","5","4","1","2","1","1","2","2","2","2","1","1","0","1","1","0","0","0","1","0","1","1","0","1","0","1","4","2","4","2","3","1","2","4","2","2","1","753363750240915458","韩","132","","","","","","","","","","","","","","","","","","","","","","","","","","","","","","feedback_test","","","","","","","","","","","",""
"877","","f","psychophysics","39","198708","0.0-7.0-1.0-1.0-0.0-0.15","4","4","4","4","3","4","4","4","4","4","4","4","4","5","4","4","5","4","5","4","1","2","1","1","2","2","2","2","1","1","0","1","1","0","0","0","1","0","1","1","0","1","0","1","4","2","4","2","3","1","2","4","2","2","1","753363750240915458","韩","132","","","","match","","","","","","","","","","","","","","key","f","16.665846846846712","768","428","j","false","nonmatch","img/trapezoid.png","五边","梯形","ALT1_2","prac_ALT1_2","","","","","","","","","","","",""
"null","<span style='color:red; font-size: 70px;'>错误! </span>","null","html-keyboard-response","40","199209","0.0-7.0-1.0-1.0-0.0-1.15","4","4","4","4","3","4","4","4","4","4","4","4","4","5","4","4","5","4","5","4","1","2","1","1","2","2","2","2","1","1","0","1","1","0","0","0","1","0","1","1","0","1","0","1","4","2","4","2","3","1","2","4","2","2","1","753363750240915458","韩","132","","","","","","","","","","","","","","","","","","","","","","","","","","","","","","feedback_test","","","","","","","","","","","",""
"936","","f","psychophysics","41","201156","0.0-7.0-1.0-1.0-0.0-0.16","4","4","4","4","3","4","4","4","4","4","4","4","4","5","4","4","5","4","5","4","1","2","1","1","2","2","2","2","1","1","0","1","1","0","0","0","1","0","1","1","0","1","0","1","4","2","4","2","3","1","2","4","2","2","1","753363750240915458","韩","132","","","","match","","","","","","","","","","","","","","key","f","16.667478260869647","768","428","f","true","match","img/pentagon.png","五边","五边","ALT1_2","prac_ALT1_2","","","","","","","","","","","",""
"null","<span style='color:GreenYellow; font-size: 70px;'>正确! </span>","null","html-keyboard-response","42","201658","0.0-7.0-1.0-1.0-0.0-1.16","4","4","4","4","3","4","4","4","4","4","4","4","4","5","4","4","5","4","5","4","1","2","1","1","2","2","2","2","1","1","0","1","1","0","0","0","1","0","1","1","0","1","0","1","4","2","4","2","3","1","2","4","2","2","1","753363750240915458","韩","132","","","","","","","","","","","","","","","","","","","","","","","","","","","","","","feedback_test","","","","","","","","","","","",""
"738","","f","psychophysics","43","203399","0.0-7.0-1.0-1.0-0.0-0.17","4","4","4","4","3","4","4","4","4","4","4","4","4","5","4","4","5","4","5","4","1","2","1","1","2","2","2","2","1","1","0","1","1","0","0","0","1","0","1","1","0","1","0","1","4","2","4","2","3","1","2","4","2","2","1","753363750240915458","韩","132","","","","match","","","","","","","","","","","","","","key","f","16.668048543689117","768","428","j","false","nonmatch","img/pentagon.png","梯形","五边","ALT1_2","prac_ALT1_2","","","","","","","","","","","",""
"null","<span style='color:red; font-size: 70px;'>错误! </span>","null","html-keyboard-response","44","203900","0.0-7.0-1.0-1.0-0.0-1.17","4","4","4","4","3","4","4","4","4","4","4","4","4","5","4","4","5","4","5","4","1","2","1","1","2","2","2","2","1","1","0","1","1","0","0","0","1","0","1","1","0","1","0","1","4","2","4","2","3","1","2","4","2","2","1","753363750240915458","韩","132","","","","","","","","","","","","","","","","","","","","","","","","","","","","","","feedback_test","","","","","","","","","","","",""
"656","","f","psychophysics","45","205563","0.0-7.0-1.0-1.0-0.0-0.18","4","4","4","4","3","4","4","4","4","4","4","4","4","5","4","4","5","4","5","4","1","2","1","1","2","2","2","2","1","1","0","1","1","0","0","0","1","0","1","1","0","1","0","1","4","2","4","2","3","1","2","4","2","2","1","753363750240915458","韩","132","","","","match","","","","","","","","","","","","","","key","f","16.665020408163475","768","428","f","true","match","img/circle.png","圆形","圆形","ALT1_2","prac_ALT1_2","","","","","","","","","","","",""
"null","<span style='color:GreenYellow; font-size: 70px;'>正确! </span>","null","html-keyboard-response","46","206074","0.0-7.0-1.0-1.0-0.0-1.18","4","4","4","4","3","4","4","4","4","4","4","4","4","5","4","4","5","4","5","4","1","2","1","1","2","2","2","2","1","1","0","1","1","0","0","0","1","0","1","1","0","1","0","1","4","2","4","2","3","1","2","4","2","2","1","753363750240915458","韩","132","","","","","","","","","","","","","","","","","","","","","","","","","","","","","","feedback_test","","","","","","","","","","","",""
"1126","","j","psychophysics","47","208212","0.0-7.0-1.0-1.0-0.0-0.19","4","4","4","4","3","4","4","4","4","4","4","4","4","5","4","4","5","4","5","4","1","2","1","1","2","2","2","2","1","1","0","1","1","0","0","0","1","0","1","1","0","1","0","1","4","2","4","2","3","1","2","4","2","2","1","753363750240915458","韩","132","","","","nonmatch","","","","","","","","","","","","","","key","j","16.665936507936475","768","428","f","false","match","img/trapezoid.png","梯形","梯形","ALT1_2","prac_ALT1_2","","","","","","","","","","","",""
"null","<span style='color:red; font-size: 70px;'>错误! </span>","null","html-keyboard-response","48","208725","0.0-7.0-1.0-1.0-0.0-1.19","4","4","4","4","3","4","4","4","4","4","4","4","4","5","4","4","5","4","5","4","1","2","1","1","2","2","2","2","1","1","0","1","1","0","0","0","1","0","1","1","0","1","0","1","4","2","4","2","3","1","2","4","2","2","1","753363750240915458","韩","132","","","","","","","","","","","","","","","","","","","","","","","","","","","","","","feedback_test","","","","","","","","","","","",""
"761","","f","psychophysics","49","210493","0.0-7.0-1.0-1.0-0.0-0.20","4","4","4","4","3","4","4","4","4","4","4","4","4","5","4","4","5","4","5","4","1","2","1","1","2","2","2","2","1","1","0","1","1","0","0","0","1","0","1","1","0","1","0","1","4","2","4","2","3","1","2","4","2","2","1","753363750240915458","韩","132","","","","match","","","","","","","","","","","","","","key","f","16.668298076923048","768","428","f","true","match","img/trapezoid.png","梯形","梯形","ALT1_2","prac_ALT1_2","","","","","","","","","","","",""
"null","<span style='color:GreenYellow; font-size: 70px;'>正确! </span>","null","html-keyboard-response","50","211007","0.0-7.0-1.0-1.0-0.0-1.20","4","4","4","4","3","4","4","4","4","4","4","4","4","5","4","4","5","4","5","4","1","2","1","1","2","2","2","2","1","1","0","1","1","0","0","0","1","0","1","1","0","1","0","1","4","2","4","2","3","1","2","4","2","2","1","753363750240915458","韩","132","","","","","","","","","","","","","","","","","","","","","","","","","","","","","","feedback_test","","","","","","","","","","","",""
"1008","","f","psychophysics","51","213023","0.0-7.0-1.0-1.0-0.0-0.21","4","4","4","4","3","4","4","4","4","4","4","4","4","5","4","4","5","4","5","4","1","2","1","1","2","2","2","2","1","1","0","1","1","0","0","0","1","0","1","1","0","1","0","1","4","2","4","2","3","1","2","4","2","2","1","753363750240915458","韩","132","","","","match","","","","","","","","","","","","","","key","f","16.665983193277132","768","428","f","true","match","img/diamond.png","菱形","菱形","ALT1_2","prac_ALT1_2","","","","","","","","","","","",""
"null","<span style='color:GreenYellow; font-size: 70px;'>正确! </span>","null","html-keyboard-response","52","213529","0.0-7.0-1.0-1.0-0.0-1.21","4","4","4","4","3","4","4","4","4","4","4","4","4","5","4","4","5","4","5","4","1","2","1","1","2","2","2","2","1","1","0","1","1","0","0","0","1","0","1","1","0","1","0","1","4","2","4","2","3","1","2","4","2","2","1","753363750240915458","韩","132","","","","","","","","","","","","","","","","","","","","","","","","","","","","","","feedback_test","","","","","","","","","","","",""
"683","","f","psychophysics","53","215221","0.0-7.0-1.0-1.0-0.0-0.22","4","4","4","4","3","4","4","4","4","4","4","4","4","5","4","4","5","4","5","4","1","2","1","1","2","2","2","2","1","1","0","1","1","0","0","0","1","0","1","1","0","1","0","1","4","2","4","2","3","1","2","4","2","2","1","753363750240915458","韩","132","","","","match","","","","","","","","","","","","","","key","f","16.668589999999966","768","428","f","true","match","img/circle.png","圆形","圆形","ALT1_2","prac_ALT1_2","","","","","","","","","","","",""
"null","<span style='color:GreenYellow; font-size: 70px;'>正确! </span>","null","html-keyboard-response","54","215732","0.0-7.0-1.0-1.0-0.0-1.22","4","4","4","4","3","4","4","4","4","4","4","4","4","5","4","4","5","4","5","4","1","2","1","1","2","2","2","2","1","1","0","1","1","0","0","0","1","0","1","1","0","1","0","1","4","2","4","2","3","1","2","4","2","2","1","753363750240915458","韩","132","","","","","","","","","","","","","","","","","","","","","","","","","","","","","","feedback_test","","","","","","","","","","","",""
"765","","f","psychophysics","55","217501","0.0-7.0-1.0-1.0-0.0-0.23","4","4","4","4","3","4","4","4","4","4","4","4","4","5","4","4","5","4","5","4","1","2","1","1","2","2","2","2","1","1","0","1","1","0","0","0","1","0","1","1","0","1","0","1","4","2","4","2","3","1","2","4","2","2","1","753363750240915458","韩","132","","","","match","","","","","","","","","","","","","","key","f","16.666666666666668","768","428","j","false","nonmatch","img/circle.png","梯形","圆形","ALT1_2","prac_ALT1_2","","","","","","","","","","","",""
"null","<span style='color:red; font-size: 70px;'>错误! </span>","null","html-keyboard-response","56","218008","0.0-7.0-1.0-1.0-0.0-1.23","4","4","4","4","3","4","4","4","4","4","4","4","4","5","4","4","5","4","5","4","1","2","1","1","2","2","2","2","1","1","0","1","1","0","0","0","1","0","1","1","0","1","0","1","4","2","4","2","3","1","2","4","2","2","1","753363750240915458","韩","132","","","","","","","","","","","","","","","","","","","","","","","","","","","","","","feedback_test","","","","","","","","","","","",""
"729","","j","psychophysics","57","219748","0.0-7.0-1.0-1.0-0.0-0.24","4","4","4","4","3","4","4","4","4","4","4","4","4","5","4","4","5","4","5","4","1","2","1","1","2","2","2","2","1","1","0","1","1","0","0","0","1","0","1","1","0","1","0","1","4","2","4","2","3","1","2","4","2","2","1","753363750240915458","韩","132","","","","nonmatch","","","","","","","","","","","","","","key","j","16.665679611650226","768","428","j","true","nonmatch","img/circle.png","五边","圆形","ALT1_2","prac_ALT1_2","","","","","","","","","","","",""
"null","<span style='color:GreenYellow; font-size: 70px;'>正确! </span>","null","html-keyboard-response","58","220253","0.0-7.0-1.0-1.0-0.0-1.24","4","4","4","4","3","4","4","4","4","4","4","4","4","5","4","4","5","4","5","4","1","2","1","1","2","2","2","2","1","1","0","1","1","0","0","0","1","0","1","1","0","1","0","1","4","2","4","2","3","1","2","4","2","2","1","753363750240915458","韩","132","","","","","","","","","","","","","","","","","","","","","","","","","","","","","","feedback_test","","","","","","","","","","","",""
"725","","f","psychophysics","59","221982","0.0-7.0-1.0-1.0-0.0-0.25","4","4","4","4","3","4","4","4","4","4","4","4","4","5","4","4","5","4","5","4","1","2","1","1","2","2","2","2","1","1","0","1","1","0","0","0","1","0","1","1","0","1","0","1","4","2","4","2","3","1","2","4","2","2","1","753363750240915458","韩","132","","","","match","","","","","","","","","","","","","","key","f","16.666689320388294","768","428","f","true","match","img/diamond.png","菱形","菱形","ALT1_2","prac_ALT1_2","","","","","","","","","","","",""
"null","<span style='color:GreenYellow; font-size: 70px;'>正确! </span>","null","html-keyboard-response","60","222491","0.0-7.0-1.0-1.0-0.0-1.25","4","4","4","4","3","4","4","4","4","4","4","4","4","5","4","4","5","4","5","4","1","2","1","1","2","2","2","2","1","1","0","1","1","0","0","0","1","0","1","1","0","1","0","1","4","2","4","2","3","1","2","4","2","2","1","753363750240915458","韩","132","","","","","","","","","","","","","","","","","","","","","","","","","","","","","","feedback_test","","","","","","","","","","","",""
"720","","f","psychophysics","61","224220","0.0-7.0-1.0-1.0-0.0-0.26","4","4","4","4","3","4","4","4","4","4","4","4","4","5","4","4","5","4","5","4","1","2","1","1","2","2","2","2","1","1","0","1","1","0","0","0","1","0","1","1","0","1","0","1","4","2","4","2","3","1","2","4","2","2","1","753363750240915458","韩","132","","","","match","","","","","","","","","","","","","","key","f","16.66728431372544","768","428","j","false","nonmatch","img/pentagon.png","菱形","五边","ALT1_2","prac_ALT1_2","","","","","","","","","","","",""
"null","<span style='color:red; font-size: 70px;'>错误! </span>","null","html-keyboard-response","62","224722","0.0-7.0-1.0-1.0-0.0-1.26","4","4","4","4","3","4","4","4","4","4","4","4","4","5","4","4","5","4","5","4","1","2","1","1","2","2","2","2","1","1","0","1","1","0","0","0","1","0","1","1","0","1","0","1","4","2","4","2","3","1","2","4","2","2","1","753363750240915458","韩","132","","","","","","","","","","","","","","","","","","","","","","","","","","","","","","feedback_test","","","","","","","","","","","",""
"879","","j","psychophysics","63","226605","0.0-7.0-1.0-1.0-0.0-0.27","4","4","4","4","3","4","4","4","4","4","4","4","4","5","4","4","5","4","5","4","1","2","1","1","2","2","2","2","1","1","0","1","1","0","0","0","1","0","1","1","0","1","0","1","4","2","4","2","3","1","2","4","2","2","1","753363750240915458","韩","132","","","","nonmatch","","","","","","","","","","","","","","key","j","16.666107142857072","768","428","j","true","nonmatch","img/trapezoid.png","菱形","梯形","ALT1_2","prac_ALT1_2","","","","","","","","","","","",""
"null","<span style='color:GreenYellow; font-size: 70px;'>正确! </span>","null","html-keyboard-response","64","227106","0.0-7.0-1.0-1.0-0.0-1.27","4","4","4","4","3","4","4","4","4","4","4","4","4","5","4","4","5","4","5","4","1","2","1","1","2","2","2","2","1","1","0","1","1","0","0","0","1","0","1","1","0","1","0","1","4","2","4","2","3","1","2","4","2","2","1","753363750240915458","韩","132","","","","","","","","","","","","","","","","","","","","","","","","","","","","","","feedback_test","","","","","","","","","","","",""
"789","","j","psychophysics","65","228900","0.0-7.0-1.0-1.0-0.0-0.28","4","4","4","4","3","4","4","4","4","4","4","4","4","5","4","4","5","4","5","4","1","2","1","1","2","2","2","2","1","1","0","1","1","0","0","0","1","0","1","1","0","1","0","1","4","2","4","2","3","1","2","4","2","2","1","753363750240915458","韩","132","","","","nonmatch","","","","","","","","","","","","","","key","j","16.666308411215073","768","428","f","false","match","img/diamond.png","菱形","菱形","ALT1_2","prac_ALT1_2","","","","","","","","","","","",""
"null","<span style='color:red; font-size: 70px;'>错误! </span>","null","html-keyboard-response","66","229405","0.0-7.0-1.0-1.0-0.0-1.28","4","4","4","4","3","4","4","4","4","4","4","4","4","5","4","4","5","4","5","4","1","2","1","1","2","2","2","2","1","1","0","1","1","0","0","0","1","0","1","1","0","1","0","1","4","2","4","2","3","1","2","4","2","2","1","753363750240915458","韩","132","","","","","","","","","","","","","","","","","","","","","","","","","","","","","","feedback_test","","","","","","","","","","","",""
"813","","f","psychophysics","67","231229","0.0-7.0-1.0-1.0-0.0-0.29","4","4","4","4","3","4","4","4","4","4","4","4","4","5","4","4","5","4","5","4","1","2","1","1","2","2","2","2","1","1","0","1","1","0","0","0","1","0","1","1","0","1","0","1","4","2","4","2","3","1","2","4","2","2","1","753363750240915458","韩","132","","","","match","","","","","","","","","","","","","","key","f","16.82258878504666","768","428","j","false","nonmatch","img/trapezoid.png","五边","梯形","ALT1_2","prac_ALT1_2","","","","","","","","","","","",""
"null","<span style='color:red; font-size: 70px;'>错误! </span>","null","html-keyboard-response","68","231736","0.0-7.0-1.0-1.0-0.0-1.29","4","4","4","4","3","4","4","4","4","4","4","4","4","5","4","4","5","4","5","4","1","2","1","1","2","2","2","2","1","1","0","1","1","0","0","0","1","0","1","1","0","1","0","1","4","2","4","2","3","1","2","4","2","2","1","753363750240915458","韩","132","","","","","","","","","","","","","","","","","","","","","","","","","","","","","","feedback_test","","","","","","","","","","","",""
"939","","j","psychophysics","69","233677","0.0-7.0-1.0-1.0-0.0-0.30","4","4","4","4","3","4","4","4","4","4","4","4","4","5","4","4","5","4","5","4","1","2","1","1","2","2","2","2","1","1","0","1","1","0","0","0","1","0","1","1","0","1","0","1","4","2","4","2","3","1","2","4","2","2","1","753363750240915458","韩","132","","","","nonmatch","","","","","","","","","","","","","","key","j","16.66662931034481","768","428","j","true","nonmatch","img/diamond.png","梯形","菱形","ALT1_2","prac_ALT1_2","","","","","","","","","","","",""
"null","<span style='color:GreenYellow; font-size: 70px;'>正确! </span>","null","html-keyboard-response","70","234178","0.0-7.0-1.0-1.0-0.0-1.30","4","4","4","4","3","4","4","4","4","4","4","4","4","5","4","4","5","4","5","4","1","2","1","1","2","2","2","2","1","1","0","1","1","0","0","0","1","0","1","1","0","1","0","1","4","2","4","2","3","1","2","4","2","2","1","753363750240915458","韩","132","","","","","","","","","","","","","","","","","","","","","","","","","","","","","","feedback_test","","","","","","","","","","","",""
"778","","f","psychophysics","71","235965","0.0-7.0-1.0-1.0-0.0-0.31","4","4","4","4","3","4","4","4","4","4","4","4","4","5","4","4","5","4","5","4","1","2","1","1","2","2","2","2","1","1","0","1","1","0","0","0","1","0","1","1","0","1","0","1","4","2","4","2","3","1","2","4","2","2","1","753363750240915458","韩","132","","","","match","","","","","","","","","","","","","","key","f","16.665142857142826","768","428","f","true","match","img/pentagon.png","五边","五边","ALT1_2","prac_ALT1_2","","","","","","","","","","","",""
"null","<span style='color:GreenYellow; font-size: 70px;'>正确! </span>","null","html-keyboard-response","72","236478","0.0-7.0-1.0-1.0-0.0-1.31","4","4","4","4","3","4","4","4","4","4","4","4","4","5","4","4","5","4","5","4","1","2","1","1","2","2","2","2","1","1","0","1","1","0","0","0","1","0","1","1","0","1","0","1","4","2","4","2","3","1","2","4","2","2","1","753363750240915458","韩","132","","","","","","","","","","","","","","","","","","","","","","","","","","","","","","feedback_test","","","","","","","","","","","",""
"732","","j","psychophysics","73","238213","0.0-7.0-1.0-1.0-0.0-0.32","4","4","4","4","3","4","4","4","4","4","4","4","4","5","4","4","5","4","5","4","1","2","1","1","2","2","2","2","1","1","0","1","1","0","0","0","1","0","1","1","0","1","0","1","4","2","4","2","3","1","2","4","2","2","1","753363750240915458","韩","132","","","","nonmatch","","","","","","","","","","","","","","key","j","16.66633333333348","768","428","j","true","nonmatch","img/circle.png","梯形","圆形","ALT1_2","prac_ALT1_2","","","","","","","","","","","",""
"null","<span style='color:GreenYellow; font-size: 70px;'>正确! </span>","null","html-keyboard-response","74","238727","0.0-7.0-1.0-1.0-0.0-1.32","4","4","4","4","3","4","4","4","4","4","4","4","4","5","4","4","5","4","5","4","1","2","1","1","2","2","2","2","1","1","0","1","1","0","0","0","1","0","1","1","0","1","0","1","4","2","4","2","3","1","2","4","2","2","1","753363750240915458","韩","132","","","","","","","","","","","","","","","","","","","","","","","","","","","","","","feedback_test","","","","","","","","","","","",""
"685","","f","psychophysics","75","240420","0.0-7.0-1.0-1.0-0.0-0.33","4","4","4","4","3","4","4","4","4","4","4","4","4","5","4","4","5","4","5","4","1","2","1","1","2","2","2","2","1","1","0","1","1","0","0","0","1","0","1","1","0","1","0","1","4","2","4","2","3","1","2","4","2","2","1","753363750240915458","韩","132","","","","match","","","","","","","","","","","","","","key","f","16.66600999999995","768","428","f","true","match","img/pentagon.png","五边","五边","ALT1_2","prac_ALT1_2","","","","","","","","","","","",""
"null","<span style='color:GreenYellow; font-size: 70px;'>正确! </span>","null","html-keyboard-response","76","240933","0.0-7.0-1.0-1.0-0.0-1.33","4","4","4","4","3","4","4","4","4","4","4","4","4","5","4","4","5","4","5","4","1","2","1","1","2","2","2","2","1","1","0","1","1","0","0","0","1","0","1","1","0","1","0","1","4","2","4","2","3","1","2","4","2","2","1","753363750240915458","韩","132","","","","","","","","","","","","","","","","","","","","","","","","","","","","","","feedback_test","","","","","","","","","","","",""
"655","","f","psychophysics","77","242589","0.0-7.0-1.0-1.0-0.0-0.34","4","4","4","4","3","4","4","4","4","4","4","4","4","5","4","4","5","4","5","4","1","2","1","1","2","2","2","2","1","1","0","1","1","0","0","0","1","0","1","1","0","1","0","1","4","2","4","2","3","1","2","4","2","2","1","753363750240915458","韩","132","","","","match","","","","","","","","","","","","","","key","f","16.66725510204085","768","428","f","true","match","img/circle.png","圆形","圆形","ALT1_2","prac_ALT1_2","","","","","","","","","","","",""
"null","<span style='color:GreenYellow; font-size: 70px;'>正确! </span>","null","html-keyboard-response","78","243091","0.0-7.0-1.0-1.0-0.0-1.34","4","4","4","4","3","4","4","4","4","4","4","4","4","5","4","4","5","4","5","4","1","2","1","1","2","2","2","2","1","1","0","1","1","0","0","0","1","0","1","1","0","1","0","1","4","2","4","2","3","1","2","4","2","2","1","753363750240915458","韩","132","","","","","","","","","","","","","","","","","","","","","","","","","","","","","","feedback_test","","","","","","","","","","","",""
"639","","f","psychophysics","79","244741","0.0-7.0-1.0-1.0-0.0-0.35","4","4","4","4","3","4","4","4","4","4","4","4","4","5","4","4","5","4","5","4","1","2","1","1","2","2","2","2","1","1","0","1","1","0","0","0","1","0","1","1","0","1","0","1","4","2","4","2","3","1","2","4","2","2","1","753363750240915458","韩","132","","","","match","","","","","","","","","","","","","","key","f","16.667814432989598","768","428","f","true","match","img/diamond.png","菱形","菱形","ALT1_2","prac_ALT1_2","","","","","","","","","","","",""
"null","<span style='color:GreenYellow; font-size: 70px;'>正确! </span>","null","html-keyboard-response","80","245244","0.0-7.0-1.0-1.0-0.0-1.35","4","4","4","4","3","4","4","4","4","4","4","4","4","5","4","4","5","4","5","4","1","2","1","1","2","2","2","2","1","1","0","1","1","0","0","0","1","0","1","1","0","1","0","1","4","2","4","2","3","1","2","4","2","2","1","753363750240915458","韩","132","","","","","","","","","","","","","","","","","","","","","","","","","","","","","","feedback_test","","","","","","","","","","","",""
"872","","j","psychophysics","81","247126","0.0-7.0-1.0-1.0-0.0-0.36","4","4","4","4","3","4","4","4","4","4","4","4","4","5","4","4","5","4","5","4","1","2","1","1","2","2","2","2","1","1","0","1","1","0","0","0","1","0","1","1","0","1","0","1","4","2","4","2","3","1","2","4","2","2","1","753363750240915458","韩","132","","","","nonmatch","","","","","","","","","","","","","","key","j","16.672909909909905","768","428","j","true","nonmatch","img/trapezoid.png","圆形","梯形","ALT1_2","prac_ALT1_2","","","","","","","","","","","",""
"null","<span style='color:GreenYellow; font-size: 70px;'>正确! </span>","null","html-keyboard-response","82","247634","0.0-7.0-1.0-1.0-0.0-1.36","4","4","4","4","3","4","4","4","4","4","4","4","4","5","4","4","5","4","5","4","1","2","1","1","2","2","2","2","1","1","0","1","1","0","0","0","1","0","1","1","0","1","0","1","4","2","4","2","3","1","2","4","2","2","1","753363750240915458","韩","132","","","","","","","","","","","","","","","","","","","","","","","","","","","","","","feedback_test","","","","","","","","","","","",""
"659","","f","psychophysics","83","249301","0.0-7.0-1.0-1.0-0.0-0.37","4","4","4","4","3","4","4","4","4","4","4","4","4","5","4","4","5","4","5","4","1","2","1","1","2","2","2","2","1","1","0","1","1","0","0","0","1","0","1","1","0","1","0","1","4","2","4","2","3","1","2","4","2","2","1","753363750240915458","韩","132","","","","match","","","","","","","","","","","","","","key","f","16.666646464646387","768","428","f","true","match","img/trapezoid.png","梯形","梯形","ALT1_2","prac_ALT1_2","","","","","","","","","","","",""
"null","<span style='color:GreenYellow; font-size: 70px;'>正确! </span>","null","html-keyboard-response","84","249806","0.0-7.0-1.0-1.0-0.0-1.37","4","4","4","4","3","4","4","4","4","4","4","4","4","5","4","4","5","4","5","4","1","2","1","1","2","2","2","2","1","1","0","1","1","0","0","0","1","0","1","1","0","1","0","1","4","2","4","2","3","1","2","4","2","2","1","753363750240915458","韩","132","","","","","","","","","","","","","","","","","","","","","","","","","","","","","","feedback_test","","","","","","","","","","","",""
"789","","j","psychophysics","85","251598","0.0-7.0-1.0-1.0-0.0-0.38","4","4","4","4","3","4","4","4","4","4","4","4","4","5","4","4","5","4","5","4","1","2","1","1","2","2","2","2","1","1","0","1","1","0","0","0","1","0","1","1","0","1","0","1","4","2","4","2","3","1","2","4","2","2","1","753363750240915458","韩","132","","","","nonmatch","","","","","","","","","","","","","","key","j","16.66760747663559","768","428","j","true","nonmatch","img/diamond.png","圆形","菱形","ALT1_2","prac_ALT1_2","","","","","","","","","","","",""
"null","<span style='color:GreenYellow; font-size: 70px;'>正确! </span>","null","html-keyboard-response","86","252109","0.0-7.0-1.0-1.0-0.0-1.38","4","4","4","4","3","4","4","4","4","4","4","4","4","5","4","4","5","4","5","4","1","2","1","1","2","2","2","2","1","1","0","1","1","0","0","0","1","0","1","1","0","1","0","1","4","2","4","2","3","1","2","4","2","2","1","753363750240915458","韩","132","","","","","","","","","","","","","","","","","","","","","","","","","","","","","","feedback_test","","","","","","","","","","","",""
"684","","f","psychophysics","87","253805","0.0-7.0-1.0-1.0-0.0-0.39","4","4","4","4","3","4","4","4","4","4","4","4","4","5","4","4","5","4","5","4","1","2","1","1","2","2","2","2","1","1","0","1","1","0","0","0","1","0","1","1","0","1","0","1","4","2","4","2","3","1","2","4","2","2","1","753363750240915458","韩","132","","","","match","","","","","","","","","","","","","","key","f","16.666119999999935","768","428","j","false","nonmatch","img/pentagon.png","梯形","五边","ALT1_2","prac_ALT1_2","","","","","","","","","","","",""
"null","<span style='color:red; font-size: 70px;'>错误! </span>","null","html-keyboard-response","88","254308","0.0-7.0-1.0-1.0-0.0-1.39","4","4","4","4","3","4","4","4","4","4","4","4","4","5","4","4","5","4","5","4","1","2","1","1","2","2","2","2","1","1","0","1","1","0","0","0","1","0","1","1","0","1","0","1","4","2","4","2","3","1","2","4","2","2","1","753363750240915458","韩","132","","","","","","","","","","","","","","","","","","","","","","","","","","","","","","feedback_test","","","","","","","","","","","",""
"751","","j","psychophysics","89","256063","0.0-7.0-1.0-1.0-0.0-0.40","4","4","4","4","3","4","4","4","4","4","4","4","4","5","4","4","5","4","5","4","1","2","1","1","2","2","2","2","1","1","0","1","1","0","0","0","1","0","1","1","0","1","0","1","4","2","4","2","3","1","2","4","2","2","1","753363750240915458","韩","132","","","","nonmatch","","","","","","","","","","","","","","key","j","16.667766990291252","768","428","j","true","nonmatch","img/circle.png","菱形","圆形","ALT1_2","prac_ALT1_2","","","","","","","","","","","",""
"null","<span style='color:GreenYellow; font-size: 70px;'>正确! </span>","null","html-keyboard-response","90","256566","0.0-7.0-1.0-1.0-0.0-1.40","4","4","4","4","3","4","4","4","4","4","4","4","4","5","4","4","5","4","5","4","1","2","1","1","2","2","2","2","1","1","0","1","1","0","0","0","1","0","1","1","0","1","0","1","4","2","4","2","3","1","2","4","2","2","1","753363750240915458","韩","132","","","","","","","","","","","","","","","","","","","","","","","","","","","","","","feedback_test","","","","","","","","","","","",""
"674","","f","psychophysics","91","258254","0.0-7.0-1.0-1.0-0.0-0.41","4","4","4","4","3","4","4","4","4","4","4","4","4","5","4","4","5","4","5","4","1","2","1","1","2","2","2","2","1","1","0","1","1","0","0","0","1","0","1","1","0","1","0","1","4","2","4","2","3","1","2","4","2","2","1","753363750240915458","韩","132","","","","match","","","","","","","","","","","","","","key","f","16.667060000000056","768","428","j","false","nonmatch","img/diamond.png","五边","菱形","ALT1_2","prac_ALT1_2","","","","","","","","","","","",""
"null","<span style='color:red; font-size: 70px;'>错误! </span>","null","html-keyboard-response","92","258767","0.0-7.0-1.0-1.0-0.0-1.41","4","4","4","4","3","4","4","4","4","4","4","4","4","5","4","4","5","4","5","4","1","2","1","1","2","2","2","2","1","1","0","1","1","0","0","0","1","0","1","1","0","1","0","1","4","2","4","2","3","1","2","4","2","2","1","753363750240915458","韩","132","","","","","","","","","","","","","","","","","","","","","","","","","","","","","","feedback_test","","","","","","","","","","","",""
"717","","f","psychophysics","93","260485","0.0-7.0-1.0-1.0-0.0-0.42","4","4","4","4","3","4","4","4","4","4","4","4","4","5","4","4","5","4","5","4","1","2","1","1","2","2","2","2","1","1","0","1","1","0","0","0","1","0","1","1","0","1","0","1","4","2","4","2","3","1","2","4","2","2","1","753363750240915458","韩","132","","","","match","","","","","","","","","","","","","","key","f","16.665931372548904","768","428","f","true","match","img/pentagon.png","五边","五边","ALT1_2","prac_ALT1_2","","","","","","","","","","","",""
"null","<span style='color:GreenYellow; font-size: 70px;'>正确! </span>","null","html-keyboard-response","94","260997","0.0-7.0-1.0-1.0-0.0-1.42","4","4","4","4","3","4","4","4","4","4","4","4","4","5","4","4","5","4","5","4","1","2","1","1","2","2","2","2","1","1","0","1","1","0","0","0","1","0","1","1","0","1","0","1","4","2","4","2","3","1","2","4","2","2","1","753363750240915458","韩","132","","","","","","","","","","","","","","","","","","","","","","","","","","","","","","feedback_test","","","","","","","","","","","",""
"675","","f","psychophysics","95","262677","0.0-7.0-1.0-1.0-0.0-0.43","4","4","4","4","3","4","4","4","4","4","4","4","4","5","4","4","5","4","5","4","1","2","1","1","2","2","2","2","1","1","0","1","1","0","0","0","1","0","1","1","0","1","0","1","4","2","4","2","3","1","2","4","2","2","1","753363750240915458","韩","132","","","","match","","","","","","","","","","","","","","key","f","16.666242424242263","768","428","f","true","match","img/circle.png","圆形","圆形","ALT1_2","prac_ALT1_2","","","","","","","","","","","",""
"null","<span style='color:GreenYellow; font-size: 70px;'>正确! </span>","null","html-keyboard-response","96","263186","0.0-7.0-1.0-1.0-0.0-1.43","4","4","4","4","3","4","4","4","4","4","4","4","4","5","4","4","5","4","5","4","1","2","1","1","2","2","2","2","1","1","0","1","1","0","0","0","1","0","1","1","0","1","0","1","4","2","4","2","3","1","2","4","2","2","1","753363750240915458","韩","132","","","","","","","","","","","","","","","","","","","","","","","","","","","","","","feedback_test","","","","","","","","","","","",""
"799","","f","psychophysics","97","264989","0.0-7.0-1.0-1.0-0.0-0.44","4","4","4","4","3","4","4","4","4","4","4","4","4","5","4","4","5","4","5","4","1","2","1","1","2","2","2","2","1","1","0","1","1","0","0","0","1","0","1","1","0","1","0","1","4","2","4","2","3","1","2","4","2","2","1","753363750240915458","韩","132","","","","match","","","","","","","","","","","","","","key","f","16.66749532710245","768","428","f","true","match","img/trapezoid.png","梯形","梯形","ALT1_2","prac_ALT1_2","","","","","","","","","","","",""
"null","<span style='color:GreenYellow; font-size: 70px;'>正确! </span>","null","html-keyboard-response","98","265495","0.0-7.0-1.0-1.0-0.0-1.44","4","4","4","4","3","4","4","4","4","4","4","4","4","5","4","4","5","4","5","4","1","2","1","1","2","2","2","2","1","1","0","1","1","0","0","0","1","0","1","1","0","1","0","1","4","2","4","2","3","1","2","4","2","2","1","753363750240915458","韩","132","","","","","","","","","","","","","","","","","","","","","","","","","","","","","","feedback_test","","","","","","","","","","","",""
"963","","f","psychophysics","99","267470","0.0-7.0-1.0-1.0-0.0-0.45","4","4","4","4","3","4","4","4","4","4","4","4","4","5","4","4","5","4","5","4","1","2","1","1","2","2","2","2","1","1","0","1","1","0","0","0","1","0","1","1","0","1","0","1","4","2","4","2","3","1","2","4","2","2","1","753363750240915458","韩","132","","","","match","","","","","","","","","","","","","","key","f","16.66799999999965","768","428","f","true","match","img/trapezoid.png","梯形","梯形","ALT1_2","prac_ALT1_2","","","","","","","","","","","",""
"null","<span style='color:GreenYellow; font-size: 70px;'>正确! </span>","null","html-keyboard-response","100","267982","0.0-7.0-1.0-1.0-0.0-1.45","4","4","4","4","3","4","4","4","4","4","4","4","4","5","4","4","5","4","5","4","1","2","1","1","2","2","2","2","1","1","0","1","1","0","0","0","1","0","1","1","0","1","0","1","4","2","4","2","3","1","2","4","2","2","1","753363750240915458","韩","132","","","","","","","","","","","","","","","","","","","","","","","","","","","","","","feedback_test","","","","","","","","","","","",""
"633","","f","psychophysics","101","269616","0.0-7.0-1.0-1.0-0.0-0.46","4","4","4","4","3","4","4","4","4","4","4","4","4","5","4","4","5","4","5","4","1","2","1","1","2","2","2","2","1","1","0","1","1","0","0","0","1","0","1","1","0","1","0","1","4","2","4","2","3","1","2","4","2","2","1","753363750240915458","韩","132","","","","match","","","","","","","","","","","","","","key","f","16.666226804123223","768","428","f","true","match","img/circle.png","圆形","圆形","ALT1_2","prac_ALT1_2","","","","","","","","","","","",""
"null","<span style='color:GreenYellow; font-size: 70px;'>正确! </span>","null","html-keyboard-response","102","270126","0.0-7.0-1.0-1.0-0.0-1.46","4","4","4","4","3","4","4","4","4","4","4","4","4","5","4","4","5","4","5","4","1","2","1","1","2","2","2","2","1","1","0","1","1","0","0","0","1","0","1","1","0","1","0","1","4","2","4","2","3","1","2","4","2","2","1","753363750240915458","韩","132","","","","","","","","","","","","","","","","","","","","","","","","","","","","","","feedback_test","","","","","","","","","","","",""
"811","","j","psychophysics","103","271941","0.0-7.0-1.0-1.0-0.0-0.47","4","4","4","4","3","4","4","4","4","4","4","4","4","5","4","4","5","4","5","4","1","2","1","1","2","2","2","2","1","1","0","1","1","0","0","0","1","0","1","1","0","1","0","1","4","2","4","2","3","1","2","4","2","2","1","753363750240915458","韩","132","","","","nonmatch","","","","","","","","","","","","","","key","j","16.66709345794407","768","428","j","true","nonmatch","img/pentagon.png","圆形","五边","ALT1_2","prac_ALT1_2","","","","","","","","","","","",""
"null","<span style='color:GreenYellow; font-size: 70px;'>正确! </span>","null","html-keyboard-response","104","272450","0.0-7.0-1.0-1.0-0.0-1.47","4","4","4","4","3","4","4","4","4","4","4","4","4","5","4","4","5","4","5","4","1","2","1","1","2","2","2","2","1","1","0","1","1","0","0","0","1","0","1","1","0","1","0","1","4","2","4","2","3","1","2","4","2","2","1","753363750240915458","韩","132","","","","","","","","","","","","","","","","","","","","","","","","","","","","","","feedback_test","","","","","","","","","","","",""
"6384","<style>.context{color:white; font-size: 35px; line-height:40px}</style>                          <div><p class='context'>您正确回答了60% 的试次。</p><p class='context'>您的平均反应时为794毫秒。</p><p class='context'>恭喜您完成练习。按空格键进入正式实验。</p><p class='footer' style='font-size: 35px; line-height:40px;'>请在进入正式实验实验之前将您的<span style='color: lightgreen;'>食指</span>放在电脑键盘的相应键位上进行按键。</p>"," ","html-keyboard-response","105","278837","0.0-7.0-1.0-2.0","4","4","4","4","3","4","4","4","4","4","4","4","4","5","4","4","5","4","5","4","1","2","1","1","2","2","2","2","1","1","0","1","1","0","0","0","1","0","1","1","0","1","0","1","4","2","4","2","3","1","2","4","2","2","1","753363750240915458","韩","132","","","","","","","","","","","","","","","","","","","","","","","","","","","","","","","","","","","","","","","","","",""
"2411","
  <p style='color: white; font-size: 22px'>请您将手指放在按键上，准备进入正式的匹配任务。</p>
  <p> <div style = ""color: green""><按空格键进入下一阶段的匹配任务></div></p>
  "," ","html-keyboard-response","106","281252","0.0-7.0-1.0-3.0","4","4","4","4","3","4","4","4","4","4","4","4","4","5","4","4","5","4","5","4","1","2","1","1","2","2","2","2","1","1","0","1","1","0","0","0","1","0","1","1","0","1","0","1","4","2","4","2","3","1","2","4","2","2","1","753363750240915458","韩","132","","","","","","","","","","","","","","","","","","","","","","","","","","","","","","","","","","","","","","","","","",""
"715","","f","psychophysics","107","282972","0.0-7.0-1.0-4.0-0.0-0.0","4","4","4","4","3","4","4","4","4","4","4","4","4","5","4","4","5","4","5","4","1","2","1","1","2","2","2","2","1","1","0","1","1","0","0","0","1","0","1","1","0","1","0","1","4","2","4","2","3","1","2","4","2","2","1","753363750240915458","韩","132","","","","match","","","","","","","","","","","","","","key","f","16.830227722772303","768","428","f","true","match","img/diamond.png","菱形","菱形","ALT1","formal_ALT1_2","","","","","","","","","","","",""
"null","<span style='color:GreenYellow; font-size: 70px;'>正确! </span>","null","html-keyboard-response","108","283474","0.0-7.0-1.0-4.0-0.0-1.0","4","4","4","4","3","4","4","4","4","4","4","4","4","5","4","4","5","4","5","4","1","2","1","1","2","2","2","2","1","1","0","1","1","0","0","0","1","0","1","1","0","1","0","1","4","2","4","2","3","1","2","4","2","2","1","753363750240915458","韩","132","","","","","","","","","","","","","","","","","","","","","","","","","","","","","","feedback_test","","","","","","","","","","","",""
"730","","f","psychophysics","109","285213","0.0-7.0-1.0-4.0-0.0-0.1","4","4","4","4","3","4","4","4","4","4","4","4","4","5","4","4","5","4","5","4","1","2","1","1","2","2","2","2","1","1","0","1","1","0","0","0","1","0","1","1","0","1","0","1","4","2","4","2","3","1","2","4","2","2","1","753363750240915458","韩","132","","","","match","","","","","","","","","","","","","","key","f","16.666352941176406","768","428","f","true","match","img/circle.png","圆形","圆形","ALT1","formal_ALT1_2","","","","","","","","","","","",""
"null","<span style='color:GreenYellow; font-size: 70px;'>正确! </span>","null","html-keyboard-response","110","285719","0.0-7.0-1.0-4.0-0.0-1.1","4","4","4","4","3","4","4","4","4","4","4","4","4","5","4","4","5","4","5","4","1","2","1","1","2","2","2","2","1","1","0","1","1","0","0","0","1","0","1","1","0","1","0","1","4","2","4","2","3","1","2","4","2","2","1","753363750240915458","韩","132","","","","","","","","","","","","","","","","","","","","","","","","","","","","","","feedback_test","","","","","","","","","","","",""
"839","","j","psychophysics","111","287567","0.0-7.0-1.0-4.0-0.0-0.2","4","4","4","4","3","4","4","4","4","4","4","4","4","5","4","4","5","4","5","4","1","2","1","1","2","2","2","2","1","1","0","1","1","0","0","0","1","0","1","1","0","1","0","1","4","2","4","2","3","1","2","4","2","2","1","753363750240915458","韩","132","","","","nonmatch","","","","","","","","","","","","","","key","j","16.666945454545466","768","428","j","true","nonmatch","img/pentagon.png","圆形","五边","ALT1","formal_ALT1_2","","","","","","","","","","","",""
"null","<span style='color:GreenYellow; font-size: 70px;'>正确! </span>","null","html-keyboard-response","112","288077","0.0-7.0-1.0-4.0-0.0-1.2","4","4","4","4","3","4","4","4","4","4","4","4","4","5","4","4","5","4","5","4","1","2","1","1","2","2","2","2","1","1","0","1","1","0","0","0","1","0","1","1","0","1","0","1","4","2","4","2","3","1","2","4","2","2","1","753363750240915458","韩","132","","","","","","","","","","","","","","","","","","","","","","","","","","","","","","feedback_test","","","","","","","","","","","",""
"936","","j","psychophysics","113","290028","0.0-7.0-1.0-4.0-0.0-0.3","4","4","4","4","3","4","4","4","4","4","4","4","4","5","4","4","5","4","5","4","1","2","1","1","2","2","2","2","1","1","0","1","1","0","0","0","1","0","1","1","0","1","0","1","4","2","4","2","3","1","2","4","2","2","1","753363750240915458","韩","132","","","","nonmatch","","","","","","","","","","","","","","key","j","16.66671304347844","768","428","j","true","nonmatch","img/trapezoid.png","五边","梯形","ALT1","formal_ALT1_2","","","","","","","","","","","",""
"null","<span style='color:GreenYellow; font-size: 70px;'>正确! </span>","null","html-keyboard-response","114","290530","0.0-7.0-1.0-4.0-0.0-1.3","4","4","4","4","3","4","4","4","4","4","4","4","4","5","4","4","5","4","5","4","1","2","1","1","2","2","2","2","1","1","0","1","1","0","0","0","1","0","1","1","0","1","0","1","4","2","4","2","3","1","2","4","2","2","1","753363750240915458","韩","132","","","","","","","","","","","","","","","","","","","","","","","","","","","","","","feedback_test","","","","","","","","","","","",""
"788","","f","psychophysics","115","292318","0.0-7.0-1.0-4.0-0.0-0.4","4","4","4","4","3","4","4","4","4","4","4","4","4","5","4","4","5","4","5","4","1","2","1","1","2","2","2","2","1","1","0","1","1","0","0","0","1","0","1","1","0","1","0","1","4","2","4","2","3","1","2","4","2","2","1","753363750240915458","韩","132","","","","match","","","","","","","","","","","","","","key","f","16.667849056603924","768","428","j","false","nonmatch","img/pentagon.png","菱形","五边","ALT1","formal_ALT1_2","","","","","","","","","","","",""
"null","<span style='color:red; font-size: 70px;'>错误! </span>","null","html-keyboard-response","116","292830","0.0-7.0-1.0-4.0-0.0-1.4","4","4","4","4","3","4","4","4","4","4","4","4","4","5","4","4","5","4","5","4","1","2","1","1","2","2","2","2","1","1","0","1","1","0","0","0","1","0","1","1","0","1","0","1","4","2","4","2","3","1","2","4","2","2","1","753363750240915458","韩","132","","","","","","","","","","","","","","","","","","","","","","","","","","","","","","feedback_test","","","","","","","","","","","",""
"826","","j","psychophysics","117","294660","0.0-7.0-1.0-4.0-0.0-0.5","4","4","4","4","3","4","4","4","4","4","4","4","4","5","4","4","5","4","5","4","1","2","1","1","2","2","2","2","1","1","0","1","1","0","0","0","1","0","1","1","0","1","0","1","4","2","4","2","3","1","2","4","2","2","1","753363750240915458","韩","132","","","","nonmatch","","","","","","","","","","","","","","key","j","16.664879629629905","768","428","j","true","nonmatch","img/diamond.png","五边","菱形","ALT1","formal_ALT1_2","","","","","","","","","","","",""
"null","<span style='color:GreenYellow; font-size: 70px;'>正确! </span>","null","html-keyboard-response","118","295162","0.0-7.0-1.0-4.0-0.0-1.5","4","4","4","4","3","4","4","4","4","4","4","4","4","5","4","4","5","4","5","4","1","2","1","1","2","2","2","2","1","1","0","1","1","0","0","0","1","0","1","1","0","1","0","1","4","2","4","2","3","1","2","4","2","2","1","753363750240915458","韩","132","","","","","","","","","","","","","","","","","","","","","","","","","","","","","","feedback_test","","","","","","","","","","","",""
"748","","f","psychophysics","119","296918","0.0-7.0-1.0-4.0-0.0-0.6","4","4","4","4","3","4","4","4","4","4","4","4","4","5","4","4","5","4","5","4","1","2","1","1","2","2","2","2","1","1","0","1","1","0","0","0","1","0","1","1","0","1","0","1","4","2","4","2","3","1","2","4","2","2","1","753363750240915458","韩","132","","","","match","","","","","","","","","","","","","","key","f","18.053666666666686","768","428","f","true","match","img/trapezoid.png","梯形","梯形","ALT1","formal_ALT1_2","","","","","","","","","","","",""
"null","<span style='color:GreenYellow; font-size: 70px;'>正确! </span>","null","html-keyboard-response","120","297430","0.0-7.0-1.0-4.0-0.0-1.6","4","4","4","4","3","4","4","4","4","4","4","4","4","5","4","4","5","4","5","4","1","2","1","1","2","2","2","2","1","1","0","1","1","0","0","0","1","0","1","1","0","1","0","1","4","2","4","2","3","1","2","4","2","2","1","753363750240915458","韩","132","","","","","","","","","","","","","","","","","","","","","","","","","","","","","","feedback_test","","","","","","","","","","","",""
"802","","j","psychophysics","121","299236","0.0-7.0-1.0-4.0-0.0-0.7","4","4","4","4","3","4","4","4","4","4","4","4","4","5","4","4","5","4","5","4","1","2","1","1","2","2","2","2","1","1","0","1","1","0","0","0","1","0","1","1","0","1","0","1","4","2","4","2","3","1","2","4","2","2","1","753363750240915458","韩","132","","","","nonmatch","","","","","","","","","","","","","","key","j","16.6666355140183","768","428","j","true","nonmatch","img/diamond.png","梯形","菱形","ALT1","formal_ALT1_2","","","","","","","","","","","",""
"null","<span style='color:GreenYellow; font-size: 70px;'>正确! </span>","null","html-keyboard-response","122","299751","0.0-7.0-1.0-4.0-0.0-1.7","4","4","4","4","3","4","4","4","4","4","4","4","4","5","4","4","5","4","5","4","1","2","1","1","2","2","2","2","1","1","0","1","1","0","0","0","1","0","1","1","0","1","0","1","4","2","4","2","3","1","2","4","2","2","1","753363750240915458","韩","132","","","","","","","","","","","","","","","","","","","","","","","","","","","","","","feedback_test","","","","","","","","","","","",""
"725","","f","psychophysics","123","301492","0.0-7.0-1.0-4.0-0.0-0.8","4","4","4","4","3","4","4","4","4","4","4","4","4","5","4","4","5","4","5","4","1","2","1","1","2","2","2","2","1","1","0","1","1","0","0","0","1","0","1","1","0","1","0","1","4","2","4","2","3","1","2","4","2","2","1","753363750240915458","韩","132","","","","match","","","","","","","","","","","","","","key","f","16.667446601941496","768","428","f","true","match","img/diamond.png","菱形","菱形","ALT1","formal_ALT1_2","","","","","","","","","","","",""
"null","<span style='color:GreenYellow; font-size: 70px;'>正确! </span>","null","html-keyboard-response","124","301995","0.0-7.0-1.0-4.0-0.0-1.8","4","4","4","4","3","4","4","4","4","4","4","4","4","5","4","4","5","4","5","4","1","2","1","1","2","2","2","2","1","1","0","1","1","0","0","0","1","0","1","1","0","1","0","1","4","2","4","2","3","1","2","4","2","2","1","753363750240915458","韩","132","","","","","","","","","","","","","","","","","","","","","","","","","","","","","","feedback_test","","","","","","","","","","","",""
"678","","f","psychophysics","125","303685","0.0-7.0-1.0-4.0-0.0-0.9","4","4","4","4","3","4","4","4","4","4","4","4","4","5","4","4","5","4","5","4","1","2","1","1","2","2","2","2","1","1","0","1","1","0","0","0","1","0","1","1","0","1","0","1","4","2","4","2","3","1","2","4","2","2","1","753363750240915458","韩","132","","","","match","","","","","","","","","","","","","","key","f","16.83579797979804","768","428","f","true","match","img/pentagon.png","五边","五边","ALT1","formal_ALT1_2","","","","","","","","","","","",""
"null","<span style='color:GreenYellow; font-size: 70px;'>正确! </span>","null","html-keyboard-response","126","304187","0.0-7.0-1.0-4.0-0.0-1.9","4","4","4","4","3","4","4","4","4","4","4","4","4","5","4","4","5","4","5","4","1","2","1","1","2","2","2","2","1","1","0","1","1","0","0","0","1","0","1","1","0","1","0","1","4","2","4","2","3","1","2","4","2","2","1","753363750240915458","韩","132","","","","","","","","","","","","","","","","","","","","","","","","","","","","","","feedback_test","","","","","","","","","","","",""
"680","","f","psychophysics","127","305877","0.0-7.0-1.0-4.0-0.0-0.10","4","4","4","4","3","4","4","4","4","4","4","4","4","5","4","4","5","4","5","4","1","2","1","1","2","2","2","2","1","1","0","1","1","0","0","0","1","0","1","1","0","1","0","1","4","2","4","2","3","1","2","4","2","2","1","753363750240915458","韩","132","","","","match","","","","","","","","","","","","","","key","f","16.666749999999883","768","428","f","true","match","img/pentagon.png","五边","五边","ALT1","formal_ALT1_2","","","","","","","","","","","",""
"null","<span style='color:GreenYellow; font-size: 70px;'>正确! </span>","null","html-keyboard-response","128","306381","0.0-7.0-1.0-4.0-0.0-1.10","4","4","4","4","3","4","4","4","4","4","4","4","4","5","4","4","5","4","5","4","1","2","1","1","2","2","2","2","1","1","0","1","1","0","0","0","1","0","1","1","0","1","0","1","4","2","4","2","3","1","2","4","2","2","1","753363750240915458","韩","132","","","","","","","","","","","","","","","","","","","","","","","","","","","","","","feedback_test","","","","","","","","","","","",""
"691","","f","psychophysics","129","308076","0.0-7.0-1.0-4.0-0.0-0.11","4","4","4","4","3","4","4","4","4","4","4","4","4","5","4","4","5","4","5","4","1","2","1","1","2","2","2","2","1","1","0","1","1","0","0","0","1","0","1","1","0","1","0","1","4","2","4","2","3","1","2","4","2","2","1","753363750240915458","韩","132","","","","match","","","","","","","","","","","","","","key","f","16.66759999999951","768","428","f","true","match","img/trapezoid.png","梯形","梯形","ALT1","formal_ALT1_2","","","","","","","","","","","",""
"null","<span style='color:GreenYellow; font-size: 70px;'>正确! </span>","null","html-keyboard-response","130","308584","0.0-7.0-1.0-4.0-0.0-1.11","4","4","4","4","3","4","4","4","4","4","4","4","4","5","4","4","5","4","5","4","1","2","1","1","2","2","2","2","1","1","0","1","1","0","0","0","1","0","1","1","0","1","0","1","4","2","4","2","3","1","2","4","2","2","1","753363750240915458","韩","132","","","","","","","","","","","","","","","","","","","","","","","","","","","","","","feedback_test","","","","","","","","","","","",""
"563","","f","psychophysics","131","310157","0.0-7.0-1.0-4.0-0.0-0.12","4","4","4","4","3","4","4","4","4","4","4","4","4","5","4","4","5","4","5","4","1","2","1","1","2","2","2","2","1","1","0","1","1","0","0","0","1","0","1","1","0","1","0","1","4","2","4","2","3","1","2","4","2","2","1","753363750240915458","韩","132","","","","match","","","","","","","","","","","","","","key","f","16.667387096774615","768","428","j","false","nonmatch","img/pentagon.png","梯形","五边","ALT1","formal_ALT1_2","","","","","","","","","","","",""
"null","<span style='color:red; font-size: 70px;'>错误! </span>","null","html-keyboard-response","132","310673","0.0-7.0-1.0-4.0-0.0-1.12","4","4","4","4","3","4","4","4","4","4","4","4","4","5","4","4","5","4","5","4","1","2","1","1","2","2","2","2","1","1","0","1","1","0","0","0","1","0","1","1","0","1","0","1","4","2","4","2","3","1","2","4","2","2","1","753363750240915458","韩","132","","","","","","","","","","","","","","","","","","","","","","","","","","","","","","feedback_test","","","","","","","","","","","",""
"640","","f","psychophysics","133","312318","0.0-7.0-1.0-4.0-0.0-0.13","4","4","4","4","3","4","4","4","4","4","4","4","4","5","4","4","5","4","5","4","1","2","1","1","2","2","2","2","1","1","0","1","1","0","0","0","1","0","1","1","0","1","0","1","4","2","4","2","3","1","2","4","2","2","1","753363750240915458","韩","132","","","","match","","","","","","","","","","","","","","key","f","16.66794845360792","768","428","f","true","match","img/circle.png","圆形","圆形","ALT1","formal_ALT1_2","","","","","","","","","","","",""
"null","<span style='color:GreenYellow; font-size: 70px;'>正确! </span>","null","html-keyboard-response","134","312831","0.0-7.0-1.0-4.0-0.0-1.13","4","4","4","4","3","4","4","4","4","4","4","4","4","5","4","4","5","4","5","4","1","2","1","1","2","2","2","2","1","1","0","1","1","0","0","0","1","0","1","1","0","1","0","1","4","2","4","2","3","1","2","4","2","2","1","753363750240915458","韩","132","","","","","","","","","","","","","","","","","","","","","","","","","","","","","","feedback_test","","","","","","","","","","","",""
"705","","f","psychophysics","135","314540","0.0-7.0-1.0-4.0-0.0-0.14","4","4","4","4","3","4","4","4","4","4","4","4","4","5","4","4","5","4","5","4","1","2","1","1","2","2","2","2","1","1","0","1","1","0","0","0","1","0","1","1","0","1","0","1","4","2","4","2","3","1","2","4","2","2","1","753363750240915458","韩","132","","","","match","","","","","","","","","","","","","","key","f","16.6665544554454","768","428","f","true","match","img/pentagon.png","五边","五边","ALT1","formal_ALT1_2","","","","","","","","","","","",""
"null","<span style='color:GreenYellow; font-size: 70px;'>正确! </span>","null","html-keyboard-response","136","315053","0.0-7.0-1.0-4.0-0.0-1.14","4","4","4","4","3","4","4","4","4","4","4","4","4","5","4","4","5","4","5","4","1","2","1","1","2","2","2","2","1","1","0","1","1","0","0","0","1","0","1","1","0","1","0","1","4","2","4","2","3","1","2","4","2","2","1","753363750240915458","韩","132","","","","","","","","","","","","","","","","","","","","","","","","","","","","","","feedback_test","","","","","","","","","","","",""
"783","","f","psychophysics","137","316838","0.0-7.0-1.0-4.0-0.0-0.15","4","4","4","4","3","4","4","4","4","4","4","4","4","5","4","4","5","4","5","4","1","2","1","1","2","2","2","2","1","1","0","1","1","0","0","0","1","0","1","1","0","1","0","1","4","2","4","2","3","1","2","4","2","2","1","753363750240915458","韩","132","","","","match","","","","","","","","","","","","","","key","f","16.666216981132134","768","428","f","true","match","img/circle.png","圆形","圆形","ALT1","formal_ALT1_2","","","","","","","","","","","",""
"null","<span style='color:GreenYellow; font-size: 70px;'>正确! </span>","null","html-keyboard-response","138","317343","0.0-7.0-1.0-4.0-0.0-1.15","4","4","4","4","3","4","4","4","4","4","4","4","4","5","4","4","5","4","5","4","1","2","1","1","2","2","2","2","1","1","0","1","1","0","0","0","1","0","1","1","0","1","0","1","4","2","4","2","3","1","2","4","2","2","1","753363750240915458","韩","132","","","","","","","","","","","","","","","","","","","","","","","","","","","","","","feedback_test","","","","","","","","","","","",""
"642","","f","psychophysics","139","318997","0.0-7.0-1.0-4.0-0.0-0.16","4","4","4","4","3","4","4","4","4","4","4","4","4","5","4","4","5","4","5","4","1","2","1","1","2","2","2","2","1","1","0","1","1","0","0","0","1","0","1","1","0","1","0","1","4","2","4","2","3","1","2","4","2","2","1","753363750240915458","韩","132","","","","match","","","","","","","","","","","","","","key","f","16.667309278350434","768","428","f","true","match","img/diamond.png","菱形","菱形","ALT1","formal_ALT1_2","","","","","","","","","","","",""
"null","<span style='color:GreenYellow; font-size: 70px;'>正确! </span>","null","html-keyboard-response","140","319498","0.0-7.0-1.0-4.0-0.0-1.16","4","4","4","4","3","4","4","4","4","4","4","4","4","5","4","4","5","4","5","4","1","2","1","1","2","2","2","2","1","1","0","1","1","0","0","0","1","0","1","1","0","1","0","1","4","2","4","2","3","1","2","4","2","2","1","753363750240915458","韩","132","","","","","","","","","","","","","","","","","","","","","","","","","","","","","","feedback_test","","","","","","","","","","","",""
"927","","j","psychophysics","141","321428","0.0-7.0-1.0-4.0-0.0-0.17","4","4","4","4","3","4","4","4","4","4","4","4","4","5","4","4","5","4","5","4","1","2","1","1","2","2","2","2","1","1","0","1","1","0","0","0","1","0","1","1","0","1","0","1","4","2","4","2","3","1","2","4","2","2","1","753363750240915458","韩","132","","","","nonmatch","","","","","","","","","","","","","","key","j","16.668026086956303","768","428","j","true","nonmatch","img/trapezoid.png","菱形","梯形","ALT1","formal_ALT1_2","","","","","","","","","","","",""
"null","<span style='color:GreenYellow; font-size: 70px;'>正确! </span>","null","html-keyboard-response","142","321939","0.0-7.0-1.0-4.0-0.0-1.17","4","4","4","4","3","4","4","4","4","4","4","4","4","5","4","4","5","4","5","4","1","2","1","1","2","2","2","2","1","1","0","1","1","0","0","0","1","0","1","1","0","1","0","1","4","2","4","2","3","1","2","4","2","2","1","753363750240915458","韩","132","","","","","","","","","","","","","","","","","","","","","","","","","","","","","","feedback_test","","","","","","","","","","","",""
"966","","f","psychophysics","143","323917","0.0-7.0-1.0-4.0-0.0-0.18","4","4","4","4","3","4","4","4","4","4","4","4","4","5","4","4","5","4","5","4","1","2","1","1","2","2","2","2","1","1","0","1","1","0","0","0","1","0","1","1","0","1","0","1","4","2","4","2","3","1","2","4","2","2","1","753363750240915458","韩","132","","","","match","","","","","","","","","","","","","","key","f","16.66638461538465","768","428","f","true","match","img/trapezoid.png","梯形","梯形","ALT1","formal_ALT1_2","","","","","","","","","","","",""
"null","<span style='color:GreenYellow; font-size: 70px;'>正确! </span>","null","html-keyboard-response","144","324421","0.0-7.0-1.0-4.0-0.0-1.18","4","4","4","4","3","4","4","4","4","4","4","4","4","5","4","4","5","4","5","4","1","2","1","1","2","2","2","2","1","1","0","1","1","0","0","0","1","0","1","1","0","1","0","1","4","2","4","2","3","1","2","4","2","2","1","753363750240915458","韩","132","","","","","","","","","","","","","","","","","","","","","","","","","","","","","","feedback_test","","","","","","","","","","","",""
"714","","j","psychophysics","145","326142","0.0-7.0-1.0-4.0-0.0-0.19","4","4","4","4","3","4","4","4","4","4","4","4","4","5","4","4","5","4","5","4","1","2","1","1","2","2","2","2","1","1","0","1","1","0","0","0","1","0","1","1","0","1","0","1","4","2","4","2","3","1","2","4","2","2","1","753363750240915458","韩","132","","","","nonmatch","","","","","","","","","","","","","","key","j","16.667450980392317","768","428","j","true","nonmatch","img/circle.png","五边","圆形","ALT1","formal_ALT1_2","","","","","","","","","","","",""
"null","<span style='color:GreenYellow; font-size: 70px;'>正确! </span>","null","html-keyboard-response","146","326648","0.0-7.0-1.0-4.0-0.0-1.19","4","4","4","4","3","4","4","4","4","4","4","4","4","5","4","4","5","4","5","4","1","2","1","1","2","2","2","2","1","1","0","1","1","0","0","0","1","0","1","1","0","1","0","1","4","2","4","2","3","1","2","4","2","2","1","753363750240915458","韩","132","","","","","","","","","","","","","","","","","","","","","","","","","","","","","","feedback_test","","","","","","","","","","","",""
"689","","j","psychophysics","147","328351","0.0-7.0-1.0-4.0-0.0-0.20","4","4","4","4","3","4","4","4","4","4","4","4","4","5","4","4","5","4","5","4","1","2","1","1","2","2","2","2","1","1","0","1","1","0","0","0","1","0","1","1","0","1","0","1","4","2","4","2","3","1","2","4","2","2","1","753363750240915458","韩","132","","","","nonmatch","","","","","","","","","","","","","","key","j","16.666059405940565","768","428","j","true","nonmatch","img/diamond.png","圆形","菱形","ALT1","formal_ALT1_2","","","","","","","","","","","",""
"null","<span style='color:GreenYellow; font-size: 70px;'>正确! </span>","null","html-keyboard-response","148","328856","0.0-7.0-1.0-4.0-0.0-1.20","4","4","4","4","3","4","4","4","4","4","4","4","4","5","4","4","5","4","5","4","1","2","1","1","2","2","2","2","1","1","0","1","1","0","0","0","1","0","1","1","0","1","0","1","4","2","4","2","3","1","2","4","2","2","1","753363750240915458","韩","132","","","","","","","","","","","","","","","","","","","","","","","","","","","","","","feedback_test","","","","","","","","","","","",""
"796","","j","psychophysics","149","330653","0.0-7.0-1.0-4.0-0.0-0.21","4","4","4","4","3","4","4","4","4","4","4","4","4","5","4","4","5","4","5","4","1","2","1","1","2","2","2","2","1","1","0","1","1","0","0","0","1","0","1","1","0","1","0","1","4","2","4","2","3","1","2","4","2","2","1","753363750240915458","韩","132","","","","nonmatch","","","","","","","","","","","","","","key","j","16.666320754717024","768","428","j","true","nonmatch","img/circle.png","梯形","圆形","ALT1","formal_ALT1_2","","","","","","","","","","","",""
"null","<span style='color:GreenYellow; font-size: 70px;'>正确! </span>","null","html-keyboard-response","150","331155","0.0-7.0-1.0-4.0-0.0-1.21","4","4","4","4","3","4","4","4","4","4","4","4","4","5","4","4","5","4","5","4","1","2","1","1","2","2","2","2","1","1","0","1","1","0","0","0","1","0","1","1","0","1","0","1","4","2","4","2","3","1","2","4","2","2","1","753363750240915458","韩","132","","","","","","","","","","","","","","","","","","","","","","","","","","","","","","feedback_test","","","","","","","","","","","",""
"740","","j","psychophysics","151","332896","0.0-7.0-1.0-4.0-0.0-0.22","4","4","4","4","3","4","4","4","4","4","4","4","4","5","4","4","5","4","5","4","1","2","1","1","2","2","2","2","1","1","0","1","1","0","0","0","1","0","1","1","0","1","0","1","4","2","4","2","3","1","2","4","2","2","1","753363750240915458","韩","132","","","","nonmatch","","","","","","","","","","","","","","key","j","16.667538461538452","768","428","j","true","nonmatch","img/circle.png","菱形","圆形","ALT1","formal_ALT1_2","","","","","","","","","","","",""
"null","<span style='color:GreenYellow; font-size: 70px;'>正确! </span>","null","html-keyboard-response","152","333401","0.0-7.0-1.0-4.0-0.0-1.22","4","4","4","4","3","4","4","4","4","4","4","4","4","5","4","4","5","4","5","4","1","2","1","1","2","2","2","2","1","1","0","1","1","0","0","0","1","0","1","1","0","1","0","1","4","2","4","2","3","1","2","4","2","2","1","753363750240915458","韩","132","","","","","","","","","","","","","","","","","","","","","","","","","","","","","","feedback_test","","","","","","","","","","","",""
"696","","j","psychophysics","153","335110","0.0-7.0-1.0-4.0-0.0-0.23","4","4","4","4","3","4","4","4","4","4","4","4","4","5","4","4","5","4","5","4","1","2","1","1","2","2","2","2","1","1","0","1","1","0","0","0","1","0","1","1","0","1","0","1","4","2","4","2","3","1","2","4","2","2","1","753363750240915458","韩","132","","","","nonmatch","","","","","","","","","","","","","","key","j","16.6668118811881","768","428","j","true","nonmatch","img/trapezoid.png","圆形","梯形","ALT1","formal_ALT1_2","","","","","","","","","","","",""
"null","<span style='color:GreenYellow; font-size: 70px;'>正确! </span>","null","html-keyboard-response","154","335614","0.0-7.0-1.0-4.0-0.0-1.23","4","4","4","4","3","4","4","4","4","4","4","4","4","5","4","4","5","4","5","4","1","2","1","1","2","2","2","2","1","1","0","1","1","0","0","0","1","0","1","1","0","1","0","1","4","2","4","2","3","1","2","4","2","2","1","753363750240915458","韩","132","","","","","","","","","","","","","","","","","","","","","","","","","","","","","","feedback_test","","","","","","","","","","","",""
"638","","f","psychophysics","155","337256","0.0-7.0-1.0-4.0-0.0-0.24","4","4","4","4","3","4","4","4","4","4","4","4","4","5","4","4","5","4","5","4","1","2","1","1","2","2","2","2","1","1","0","1","1","0","0","0","1","0","1","1","0","1","0","1","4","2","4","2","3","1","2","4","2","2","1","753363750240915458","韩","132","","","","match","","","","","","","","","","","","","","key","f","16.667103092783233","768","428","f","true","match","img/circle.png","圆形","圆形","ALT1","formal_ALT1_2","","","","","","","","","","","",""
"null","<span style='color:GreenYellow; font-size: 70px;'>正确! </span>","null","html-keyboard-response","156","337760","0.0-7.0-1.0-4.0-0.0-1.24","4","4","4","4","3","4","4","4","4","4","4","4","4","5","4","4","5","4","5","4","1","2","1","1","2","2","2","2","1","1","0","1","1","0","0","0","1","0","1","1","0","1","0","1","4","2","4","2","3","1","2","4","2","2","1","753363750240915458","韩","132","","","","","","","","","","","","","","","","","","","","","","","","","","","","","","feedback_test","","","","","","","","","","","",""
"788","","f","psychophysics","157","339549","0.0-7.0-1.0-4.0-0.0-0.25","4","4","4","4","3","4","4","4","4","4","4","4","4","5","4","4","5","4","5","4","1","2","1","1","2","2","2","2","1","1","0","1","1","0","0","0","1","0","1","1","0","1","0","1","4","2","4","2","3","1","2","4","2","2","1","753363750240915458","韩","132","","","","match","","","","","","","","","","","","","","key","f","16.827365384615685","768","428","f","true","match","img/circle.png","圆形","圆形","ALT1","formal_ALT1_2","","","","","","","","","","","",""
"null","<span style='color:GreenYellow; font-size: 70px;'>正确! </span>","null","html-keyboard-response","158","340054","0.0-7.0-1.0-4.0-0.0-1.25","4","4","4","4","3","4","4","4","4","4","4","4","4","5","4","4","5","4","5","4","1","2","1","1","2","2","2","2","1","1","0","1","1","0","0","0","1","0","1","1","0","1","0","1","4","2","4","2","3","1","2","4","2","2","1","753363750240915458","韩","132","","","","","","","","","","","","","","","","","","","","","","","","","","","","","","feedback_test","","","","","","","","","","","",""
"600","","f","psychophysics","159","341669","0.0-7.0-1.0-4.0-0.0-0.26","4","4","4","4","3","4","4","4","4","4","4","4","4","5","4","4","5","4","5","4","1","2","1","1","2","2","2","2","1","1","0","1","1","0","0","0","1","0","1","1","0","1","0","1","4","2","4","2","3","1","2","4","2","2","1","753363750240915458","韩","132","","","","match","","","","","","","","","","","","","","key","f","16.6662291666665","768","428","f","true","match","img/pentagon.png","五边","五边","ALT1","formal_ALT1_2","","","","","","","","","","","",""
"null","<span style='color:GreenYellow; font-size: 70px;'>正确! </span>","null","html-keyboard-response","160","342172","0.0-7.0-1.0-4.0-0.0-1.26","4","4","4","4","3","4","4","4","4","4","4","4","4","5","4","4","5","4","5","4","1","2","1","1","2","2","2","2","1","1","0","1","1","0","0","0","1","0","1","1","0","1","0","1","4","2","4","2","3","1","2","4","2","2","1","753363750240915458","韩","132","","","","","","","","","","","","","","","","","","","","","","","","","","","","","","feedback_test","","","","","","","","","","","",""
"812","","j","psychophysics","161","343990","0.0-7.0-1.0-4.0-0.0-0.27","4","4","4","4","3","4","4","4","4","4","4","4","4","5","4","4","5","4","5","4","1","2","1","1","2","2","2","2","1","1","0","1","1","0","0","0","1","0","1","1","0","1","0","1","4","2","4","2","3","1","2","4","2","2","1","753363750240915458","韩","132","","","","nonmatch","","","","","","","","","","","","","","key","j","16.667252336448673","768","428","j","true","nonmatch","img/diamond.png","五边","菱形","ALT1","formal_ALT1_2","","","","","","","","","","","",""
"null","<span style='color:GreenYellow; font-size: 70px;'>正确! </span>","null","html-keyboard-response","162","344495","0.0-7.0-1.0-4.0-0.0-1.27","4","4","4","4","3","4","4","4","4","4","4","4","4","5","4","4","5","4","5","4","1","2","1","1","2","2","2","2","1","1","0","1","1","0","0","0","1","0","1","1","0","1","0","1","4","2","4","2","3","1","2","4","2","2","1","753363750240915458","韩","132","","","","","","","","","","","","","","","","","","","","","","","","","","","","","","feedback_test","","","","","","","","","","","",""
"684","","f","psychophysics","163","346190","0.0-7.0-1.0-4.0-0.0-0.28","4","4","4","4","3","4","4","4","4","4","4","4","4","5","4","4","5","4","5","4","1","2","1","1","2","2","2","2","1","1","0","1","1","0","0","0","1","0","1","1","0","1","0","1","4","2","4","2","3","1","2","4","2","2","1","753363750240915458","韩","132","","","","match","","","","","","","","","","","","","","key","f","16.667360000000336","768","428","f","true","match","img/pentagon.png","五边","五边","ALT1","formal_ALT1_2","","","","","","","","","","","",""
"null","<span style='color:GreenYellow; font-size: 70px;'>正确! </span>","null","html-keyboard-response","164","346703","0.0-7.0-1.0-4.0-0.0-1.28","4","4","4","4","3","4","4","4","4","4","4","4","4","5","4","4","5","4","5","4","1","2","1","1","2","2","2","2","1","1","0","1","1","0","0","0","1","0","1","1","0","1","0","1","4","2","4","2","3","1","2","4","2","2","1","753363750240915458","韩","132","","","","","","","","","","","","","","","","","","","","","","","","","","","","","","feedback_test","","","","","","","","","","","",""
"686","","j","psychophysics","165","348397","0.0-7.0-1.0-4.0-0.0-0.29","4","4","4","4","3","4","4","4","4","4","4","4","4","5","4","4","5","4","5","4","1","2","1","1","2","2","2","2","1","1","0","1","1","0","0","0","1","0","1","1","0","1","0","1","4","2","4","2","3","1","2","4","2","2","1","753363750240915458","韩","132","","","","nonmatch","","","","","","","","","","","","","","key","j","16.66716000000015","768","428","j","true","nonmatch","img/circle.png","菱形","圆形","ALT1","formal_ALT1_2","","","","","","","","","","","",""
"null","<span style='color:GreenYellow; font-size: 70px;'>正确! </span>","null","html-keyboard-response","166","348901","0.0-7.0-1.0-4.0-0.0-1.29","4","4","4","4","3","4","4","4","4","4","4","4","4","5","4","4","5","4","5","4","1","2","1","1","2","2","2","2","1","1","0","1","1","0","0","0","1","0","1","1","0","1","0","1","4","2","4","2","3","1","2","4","2","2","1","753363750240915458","韩","132","","","","","","","","","","","","","","","","","","","","","","","","","","","","","","feedback_test","","","","","","","","","","","",""
"772","","f","psychophysics","167","350678","0.0-7.0-1.0-4.0-0.0-0.30","4","4","4","4","3","4","4","4","4","4","4","4","4","5","4","4","5","4","5","4","1","2","1","1","2","2","2","2","1","1","0","1","1","0","0","0","1","0","1","1","0","1","0","1","4","2","4","2","3","1","2","4","2","2","1","753363750240915458","韩","132","","","","match","","","","","","","","","","","","","","key","f","16.667339622641624","768","428","f","true","match","img/pentagon.png","五边","五边","ALT1","formal_ALT1_2","","","","","","","","","","","",""
"null","<span style='color:GreenYellow; font-size: 70px;'>正确! </span>","null","html-keyboard-response","168","351189","0.0-7.0-1.0-4.0-0.0-1.30","4","4","4","4","3","4","4","4","4","4","4","4","4","5","4","4","5","4","5","4","1","2","1","1","2","2","2","2","1","1","0","1","1","0","0","0","1","0","1","1","0","1","0","1","4","2","4","2","3","1","2","4","2","2","1","753363750240915458","韩","132","","","","","","","","","","","","","","","","","","","","","","","","","","","","","","feedback_test","","","","","","","","","","","",""
"677","","f","psychophysics","169","352877","0.0-7.0-1.0-4.0-0.0-0.31","4","4","4","4","3","4","4","4","4","4","4","4","4","5","4","4","5","4","5","4","1","2","1","1","2","2","2","2","1","1","0","1","1","0","0","0","1","0","1","1","0","1","0","1","4","2","4","2","3","1","2","4","2","2","1","753363750240915458","韩","132","","","","match","","","","","","","","","","","","","","key","f","16.66553535353571","768","428","f","true","match","img/circle.png","圆形","圆形","ALT1","formal_ALT1_2","","","","","","","","","","","",""
"null","<span style='color:GreenYellow; font-size: 70px;'>正确! </span>","null","html-keyboard-response","170","353381","0.0-7.0-1.0-4.0-0.0-1.31","4","4","4","4","3","4","4","4","4","4","4","4","4","5","4","4","5","4","5","4","1","2","1","1","2","2","2","2","1","1","0","1","1","0","0","0","1","0","1","1","0","1","0","1","4","2","4","2","3","1","2","4","2","2","1","753363750240915458","韩","132","","","","","","","","","","","","","","","","","","","","","","","","","","","","","","feedback_test","","","","","","","","","","","",""
"625","","j","psychophysics","171","355015","0.0-7.0-1.0-4.0-0.0-0.32","4","4","4","4","3","4","4","4","4","4","4","4","4","5","4","4","5","4","5","4","1","2","1","1","2","2","2","2","1","1","0","1","1","0","0","0","1","0","1","1","0","1","0","1","4","2","4","2","3","1","2","4","2","2","1","753363750240915458","韩","132","","","","nonmatch","","","","","","","","","","","","","","key","j","16.667041237113192","768","428","f","false","match","img/diamond.png","菱形","菱形","ALT1","formal_ALT1_2","","","","","","","","","","","",""
"null","<span style='color:red; font-size: 70px;'>错误! </span>","null","html-keyboard-response","172","355519","0.0-7.0-1.0-4.0-0.0-1.32","4","4","4","4","3","4","4","4","4","4","4","4","4","5","4","4","5","4","5","4","1","2","1","1","2","2","2","2","1","1","0","1","1","0","0","0","1","0","1","1","0","1","0","1","4","2","4","2","3","1","2","4","2","2","1","753363750240915458","韩","132","","","","","","","","","","","","","","","","","","","","","","","","","","","","","","feedback_test","","","","","","","","","","","",""
"627","","f","psychophysics","173","357157","0.0-7.0-1.0-4.0-0.0-0.33","4","4","4","4","3","4","4","4","4","4","4","4","4","5","4","4","5","4","5","4","1","2","1","1","2","2","2","2","1","1","0","1","1","0","0","0","1","0","1","1","0","1","0","1","4","2","4","2","3","1","2","4","2","2","1","753363750240915458","韩","132","","","","match","","","","","","","","","","","","","","key","f","16.667793814433118","768","428","f","true","match","img/trapezoid.png","梯形","梯形","ALT1","formal_ALT1_2","","","","","","","","","","","",""
"null","<span style='color:GreenYellow; font-size: 70px;'>正确! </span>","null","html-keyboard-response","174","357669","0.0-7.0-1.0-4.0-0.0-1.33","4","4","4","4","3","4","4","4","4","4","4","4","4","5","4","4","5","4","5","4","1","2","1","1","2","2","2","2","1","1","0","1","1","0","0","0","1","0","1","1","0","1","0","1","4","2","4","2","3","1","2","4","2","2","1","753363750240915458","韩","132","","","","","","","","","","","","","","","","","","","","","","","","","","","","","","feedback_test","","","","","","","","","","","",""
"721","","j","psychophysics","175","359398","0.0-7.0-1.0-4.0-0.0-0.34","4","4","4","4","3","4","4","4","4","4","4","4","4","5","4","4","5","4","5","4","1","2","1","1","2","2","2","2","1","1","0","1","1","0","0","0","1","0","1","1","0","1","0","1","4","2","4","2","3","1","2","4","2","2","1","753363750240915458","韩","132","","","","nonmatch","","","","","","","","","","","","","","key","j","16.664490196078344","768","428","j","true","nonmatch","img/circle.png","五边","圆形","ALT1","formal_ALT1_2","","","","","","","","","","","",""
"null","<span style='color:GreenYellow; font-size: 70px;'>正确! </span>","null","html-keyboard-response","176","359905","0.0-7.0-1.0-4.0-0.0-1.34","4","4","4","4","3","4","4","4","4","4","4","4","4","5","4","4","5","4","5","4","1","2","1","1","2","2","2","2","1","1","0","1","1","0","0","0","1","0","1","1","0","1","0","1","4","2","4","2","3","1","2","4","2","2","1","753363750240915458","韩","132","","","","","","","","","","","","","","","","","","","","","","","","","","","","","","feedback_test","","","","","","","","","","","",""
"643","","f","psychophysics","177","361549","0.0-7.0-1.0-4.0-0.0-0.35","4","4","4","4","3","4","4","4","4","4","4","4","4","5","4","4","5","4","5","4","1","2","1","1","2","2","2","2","1","1","0","1","1","0","0","0","1","0","1","1","0","1","0","1","4","2","4","2","3","1","2","4","2","2","1","753363750240915458","韩","132","","","","match","","","","","","","","","","","","","","key","f","16.66624489795875","768","428","f","true","match","img/diamond.png","菱形","菱形","ALT1","formal_ALT1_2","","","","","","","","","","","",""
"null","<span style='color:GreenYellow; font-size: 70px;'>正确! </span>","null","html-keyboard-response","178","362061","0.0-7.0-1.0-4.0-0.0-1.35","4","4","4","4","3","4","4","4","4","4","4","4","4","5","4","4","5","4","5","4","1","2","1","1","2","2","2","2","1","1","0","1","1","0","0","0","1","0","1","1","0","1","0","1","4","2","4","2","3","1","2","4","2","2","1","753363750240915458","韩","132","","","","","","","","","","","","","","","","","","","","","","","","","","","","","","feedback_test","","","","","","","","","","","",""
"1049","","f","psychophysics","179","364112","0.0-7.0-1.0-4.0-0.0-0.36","4","4","4","4","3","4","4","4","4","4","4","4","4","5","4","4","5","4","5","4","1","2","1","1","2","2","2","2","1","1","0","1","1","0","0","0","1","0","1","1","0","1","0","1","4","2","4","2","3","1","2","4","2","2","1","753363750240915458","韩","132","","","","match","","","","","","","","","","","","","","key","f","16.667303278688703","768","428","j","false","nonmatch","img/pentagon.png","梯形","五边","ALT1","formal_ALT1_2","","","","","","","","","","","",""
"null","<span style='color:red; font-size: 70px;'>错误! </span>","null","html-keyboard-response","180","364616","0.0-7.0-1.0-4.0-0.0-1.36","4","4","4","4","3","4","4","4","4","4","4","4","4","5","4","4","5","4","5","4","1","2","1","1","2","2","2","2","1","1","0","1","1","0","0","0","1","0","1","1","0","1","0","1","4","2","4","2","3","1","2","4","2","2","1","753363750240915458","韩","132","","","","","","","","","","","","","","","","","","","","","","","","","","","","","","feedback_test","","","","","","","","","","","",""
"876","","j","psychophysics","181","366503","0.0-7.0-1.0-4.0-0.0-0.37","4","4","4","4","3","4","4","4","4","4","4","4","4","5","4","4","5","4","5","4","1","2","1","1","2","2","2","2","1","1","0","1","1","0","0","0","1","0","1","1","0","1","0","1","4","2","4","2","3","1","2","4","2","2","1","753363750240915458","韩","132","","","","nonmatch","","","","","","","","","","","","","","key","j","16.66835714285688","768","428","j","true","nonmatch","img/trapezoid.png","五边","梯形","ALT1","formal_ALT1_2","","","","","","","","","","","",""
