"rt","stimulus","response","trial_type","trial_index","time_elapsed","internal_node_id","ses_1","ses_2","ses_3","ses_4","ses_5","ses_6","ses_7","ses_8","ses_9","ses_10","coreself_1","coreself_2","coreself_3","coreself_4","coreself_5","coreself_6","coreself_7","coreself_8","coreself_9","coreself_10","SGPS_1","SGPS_2","SGPS_3","SGPS_4","SGPS_5","SGPS_6","SGPS_7","SGPS_8","SGPS_9","NPI1","NPI2","NPI3","NPI4","NPI5","NPI6","NPI7","NPI8","NPI9","NPI10","NPI11","NPI12","NPI13","NPI14","NPI15","hsns_1","hsns_2","hsns_3","hsns_4","hsns_5","trap1","hsns_6","hsns_7","hsns_8","hsns_9","hsns_10","subj_idx","friend_name","ParticipantID","value","success","user_agent","responses","item_order","radio_event_ids","radio_event_times","key_event_times","mouse_event_times","straightlining","zigzagging","honeypot","timeout","failed_images","failed_audio","failed_video","view_history","response_type","key_press","avg_frame_time","center_x","center_y","correct_response","correct","identity","Image","word","condition","task_id","screen_id","time_stamp","version_attrib2","version_target2","IAT","RT","varname","summary","version_attrib","version_target","question_order","correct_answer","trap1_item"
"1663","
   <p><div style = ""color: white;font-size:25px;"">您好，欢迎参加本次实验。</div> </p>
   <p><div style = ""color: white;font-size:25px;"">为充分保障您的权利，请确保您已经知晓并同意《参与实验同意书》以及《数据公开知情同意书》。</div></p>
   <p><div style = ""color: white;font-size:25px;"">如果您未见过上述内容，请咨询实验员。</div></p>
   <p><div style = ""color: white;font-size:25px;"">如果您选择继续实验，则表示您已经清楚两份知情同意书的内容并同意。</div></p>
   <p><div style = ""color: pink;font-size:30px;"">请确保您记得day0的实验编号，您将在本次实验输入该编号，若您忘记，请咨询实验员后作答。</div></p>
   <p><div style = ""color: lightblue;font-size:25px;"">请您尽可能认真地作答，我们将依据您在各问卷和按键任务中的作答质量发放报酬。</div></p>
   <p> <div style = ""color: green;font-size:25px;""><按空格键至下页></div> </p>
   "," ","html-keyboard-response","0","1663","0.0-0.0","4","4","4","4","2","4","3","4","4","4","5","5","2","4","3","5","3","2","4","4","4","3","2","2","4","4","4","4","3","0","0","1","1","1","1","1","0","0","1","0","0","1","0","1","5","2","3","1","2","5","2","3","4","1","3","798933752469397506","马","325","","","","","","","","","","","","","","","","","","","","","","","","","","","","","","","","","","","","","","","","","",""
"","","","call-function","1","1663","0.0-1.0-0.0","4","4","4","4","2","4","3","4","4","4","5","5","2","4","3","5","3","2","4","4","4","3","2","2","4","4","4","4","3","0","0","1","1","1","1","1","0","0","1","0","0","1","0","1","5","2","3","1","2","5","2","3","4","1","3","798933752469397506","马","325","","","","","","","","","","","","","","","","","","","","","","","","","","","","","","","","","","","","","","","","","",""
"59740","","{""friend_name"":""马"",""ParticipantID"":""325""}","survey-html-form","2","61405","0.0-1.0-1.0","4","4","4","4","2","4","3","4","4","4","5","5","2","4","3","5","3","2","4","4","4","3","2","2","4","4","4","4","3","0","0","1","1","1","1","1","0","0","1","0","0","1","0","1","5","2","3","1","2","5","2","3","4","1","3","798933752469397506","马","325","","","","","","","","","","","","","","","","","","","","","","","","","","","","","","","","","","","","","","","","","",""
"","","","fullscreen","3","62534","0.0-2.0","4","4","4","4","2","4","3","4","4","4","5","5","2","4","3","5","3","2","4","4","4","3","2","2","4","4","4","4","3","0","0","1","1","1","1","1","0","0","1","0","0","1","0","1","5","2","3","1","2","5","2","3","4","1","3","798933752469397506","马","325","","true","","","","","","","","","","","","","","","","","","","","","","","","","","","","","","","","","","","","","","","",""
"19459","","{""Q01"":""4"",""Q02"":""4"",""Q03"":""4"",""Q04"":""4"",""Q05"":""2"",""Q06"":""4"",""Q07"":""3"",""Q08"":""4"",""Q09"":""4"",""Q10"":""4""}","survey-template","4","81996","0.0-3.0","4","4","4","4","2","4","3","4","4","4","5","5","2","4","3","5","3","2","4","4","4","3","2","2","4","4","4","4","3","0","0","1","1","1","1","1","0","0","1","0","0","1","0","1","5","2","3","1","2","5","2","3","4","1","3","798933752469397506","马","325","","","","{""Q01"":""4"",""Q02"":""4"",""Q03"":""4"",""Q04"":""4"",""Q05"":""2"",""Q06"":""4"",""Q07"":""3"",""Q08"":""4"",""Q09"":""4"",""Q10"":""4""}","[0,1,2,3,4,5,6,7,8,9]","[""Q01"",""Q02"",""Q03"",""Q04"",""Q05"",""Q06"",""Q07"",""Q08"",""Q08"",""Q09"",""Q10""]","[3878,4887,6567,9510,10525,11969,14333,16682,17073,17931,18594]","[]","[2887,3878,4887,6567,7951,8986,9510,10525,11969,14333,15897,16682,17073,17931,18594,19459]","0.4","0.5555555555555556","0","","","","","","","","","","","","","","","","","","","","","","","","","","","","","",""
"62307","","{""Q01"":""5"",""Q02"":""5"",""Q03"":""2"",""Q04"":""4"",""Q05"":""3"",""Q06"":""5"",""Q07"":""3"",""Q08"":""2"",""Q09"":""4"",""Q10"":""4""}","survey-template","5","144304","0.0-4.0","4","4","4","4","2","4","3","4","4","4","5","5","2","4","3","5","3","2","4","4","4","3","2","2","4","4","4","4","3","0","0","1","1","1","1","1","0","0","1","0","0","1","0","1","5","2","3","1","2","5","2","3","4","1","3","798933752469397506","马","325","","","","{""Q01"":""5"",""Q02"":""5"",""Q03"":""2"",""Q04"":""4"",""Q05"":""3"",""Q06"":""5"",""Q07"":""3"",""Q08"":""2"",""Q09"":""4"",""Q10"":""4""}","[0,1,2,3,4,5,6,7,8,9]","[""Q01"",""Q02"",""Q03"",""Q04"",""Q05"",""Q06"",""Q07"",""Q08"",""Q05"",""Q09"",""Q10"",""Q10""]","[32998,36555,38747,39536,40991,43970,47169,50400,54231,57530,59730,61262]","[]","[32998,35916,36555,37960,38747,39536,40991,43241,43970,47169,50400,54231,57530,59215,59730,60730,61262,62307]","0.4","0.3333333333333333","0","","","","","","","","","","","","","","","","","","","","","","","","","","","","","",""
"","","","preload","6","144580","0.0-5.0","4","4","4","4","2","4","3","4","4","4","5","5","2","4","3","5","3","2","4","4","4","3","2","2","4","4","4","4","3","0","0","1","1","1","1","1","0","0","1","0","0","1","0","1","5","2","3","1","2","5","2","3","4","1","3","798933752469397506","马","325","","true","","","","","","","","","","","false","[]","[]","[]","","","","","","","","","","","","","","","","","","","","","","","","","",""
"1525","","","instructions","7","146106","0.0-6.0","4","4","4","4","2","4","3","4","4","4","5","5","2","4","3","5","3","2","4","4","4","3","2","2","4","4","4","4","3","0","0","1","1","1","1","1","0","0","1","0","0","1","0","1","5","2","3","1","2","5","2","3","4","1","3","798933752469397506","马","325","","","","","","","","","","","","","","","","","[{""page_index"":0,""viewing_time"":1525}]","","","","","","","","","","","","","","","","","","","","","","","","",""
"81840","","","instructions","8","227947","0.0-7.0-1.0-0.0","4","4","4","4","2","4","3","4","4","4","5","5","2","4","3","5","3","2","4","4","4","3","2","2","4","4","4","4","3","0","0","1","1","1","1","1","0","0","1","0","0","1","0","1","5","2","3","1","2","5","2","3","4","1","3","798933752469397506","马","325","","","","","","","","","","","","","","","","","[{""page_index"":0,""viewing_time"":4898},{""page_index"":1,""viewing_time"":73817},{""page_index"":2,""viewing_time"":3125}]","","","","","","","","","","","","","","","","","","","","","","","","",""
"490","","j","psychophysics","9","229448","0.0-7.0-1.0-1.0-0.0-0.0","4","4","4","4","2","4","3","4","4","4","5","5","2","4","3","5","3","2","4","4","4","3","2","2","4","4","4","4","3","0","0","1","1","1","1","1","0","0","1","0","0","1","0","1","5","2","3","1","2","5","2","3","4","1","3","798933752469397506","马","325","","","","match","","","","","","","","","","","","","","key","j","16.665681818182005","848","472.58333333333337","f","false","nonmatch","img/pentagon.png","菱形","五边","ALT1_2","prac_ALT1_2","","","","","","","","","","","",""
"null","<span style='color:red; font-size: 70px;'>错误! </span>","null","html-keyboard-response","10","229993","0.0-7.0-1.0-1.0-0.0-1.0","4","4","4","4","2","4","3","4","4","4","5","5","2","4","3","5","3","2","4","4","4","3","2","2","4","4","4","4","3","0","0","1","1","1","1","1","0","0","1","0","0","1","0","1","5","2","3","1","2","5","2","3","4","1","3","798933752469397506","马","325","","","","","","","","","","","","","","","","","","","","","","","","","","","","","","feedback_test","","","","","","","","","","","",""
"532","","j","psychophysics","11","231540","0.0-7.0-1.0-1.0-0.0-0.1","4","4","4","4","2","4","3","4","4","4","5","5","2","4","3","5","3","2","4","4","4","3","2","2","4","4","4","4","3","0","0","1","1","1","1","1","0","0","1","0","0","1","0","1","5","2","3","1","2","5","2","3","4","1","3","798933752469397506","马","325","","","","match","","","","","","","","","","","","","","key","j","16.665434782608394","848","472.58333333333337","j","true","match","img/diamond.png","菱形","菱形","ALT1_2","prac_ALT1_2","","","","","","","","","","","",""
"null","<span style='color:GreenYellow; font-size: 70px;'>正确! </span>","null","html-keyboard-response","12","232044","0.0-7.0-1.0-1.0-0.0-1.1","4","4","4","4","2","4","3","4","4","4","5","5","2","4","3","5","3","2","4","4","4","3","2","2","4","4","4","4","3","0","0","1","1","1","1","1","0","0","1","0","0","1","0","1","5","2","3","1","2","5","2","3","4","1","3","798933752469397506","马","325","","","","","","","","","","","","","","","","","","","","","","","","","","","","","","feedback_test","","","","","","","","","","","",""
"606","","j","psychophysics","13","233665","0.0-7.0-1.0-1.0-0.0-0.2","4","4","4","4","2","4","3","4","4","4","5","5","2","4","3","5","3","2","4","4","4","3","2","2","4","4","4","4","3","0","0","1","1","1","1","1","0","0","1","0","0","1","0","1","5","2","3","1","2","5","2","3","4","1","3","798933752469397506","马","325","","","","match","","","","","","","","","","","","","","key","j","16.664999999999964","848","472.58333333333337","j","true","match","img/ellipse.png","椭圆","椭圆","ALT1_2","prac_ALT1_2","","","","","","","","","","","",""
"null","<span style='color:GreenYellow; font-size: 70px;'>正确! </span>","null","html-keyboard-response","14","234168","0.0-7.0-1.0-1.0-0.0-1.2","4","4","4","4","2","4","3","4","4","4","5","5","2","4","3","5","3","2","4","4","4","3","2","2","4","4","4","4","3","0","0","1","1","1","1","1","0","0","1","0","0","1","0","1","5","2","3","1","2","5","2","3","4","1","3","798933752469397506","马","325","","","","","","","","","","","","","","","","","","","","","","","","","","","","","","feedback_test","","","","","","","","","","","",""
"601","","j","psychophysics","15","235773","0.0-7.0-1.0-1.0-0.0-0.3","4","4","4","4","2","4","3","4","4","4","5","5","2","4","3","5","3","2","4","4","4","3","2","2","4","4","4","4","3","0","0","1","1","1","1","1","0","0","1","0","0","1","0","1","5","2","3","1","2","5","2","3","4","1","3","798933752469397506","马","325","","","","match","","","","","","","","","","","","","","key","j","16.66547368421054","848","472.58333333333337","j","true","match","img/trapezoid.png","梯形","梯形","ALT1_2","prac_ALT1_2","","","","","","","","","","","",""
"null","<span style='color:GreenYellow; font-size: 70px;'>正确! </span>","null","html-keyboard-response","16","236287","0.0-7.0-1.0-1.0-0.0-1.3","4","4","4","4","2","4","3","4","4","4","5","5","2","4","3","5","3","2","4","4","4","3","2","2","4","4","4","4","3","0","0","1","1","1","1","1","0","0","1","0","0","1","0","1","5","2","3","1","2","5","2","3","4","1","3","798933752469397506","马","325","","","","","","","","","","","","","","","","","","","","","","","","","","","","","","feedback_test","","","","","","","","","","","",""
"557","","j","psychophysics","17","237844","0.0-7.0-1.0-1.0-0.0-0.4","4","4","4","4","2","4","3","4","4","4","5","5","2","4","3","5","3","2","4","4","4","3","2","2","4","4","4","4","3","0","0","1","1","1","1","1","0","0","1","0","0","1","0","1","5","2","3","1","2","5","2","3","4","1","3","798933752469397506","马","325","","","","match","","","","","","","","","","","","","","key","j","16.665217391304473","848","472.58333333333337","f","false","nonmatch","img/diamond.png","梯形","菱形","ALT1_2","prac_ALT1_2","","","","","","","","","","","",""
"null","<span style='color:red; font-size: 70px;'>错误! </span>","null","html-keyboard-response","18","238355","0.0-7.0-1.0-1.0-0.0-1.4","4","4","4","4","2","4","3","4","4","4","5","5","2","4","3","5","3","2","4","4","4","3","2","2","4","4","4","4","3","0","0","1","1","1","1","1","0","0","1","0","0","1","0","1","5","2","3","1","2","5","2","3","4","1","3","798933752469397506","马","325","","","","","","","","","","","","","","","","","","","","","","","","","","","","","","feedback_test","","","","","","","","","","","",""
"795","","f","psychophysics","19","240157","0.0-7.0-1.0-1.0-0.0-0.5","4","4","4","4","2","4","3","4","4","4","5","5","2","4","3","5","3","2","4","4","4","3","2","2","4","4","4","4","3","0","0","1","1","1","1","1","0","0","1","0","0","1","0","1","5","2","3","1","2","5","2","3","4","1","3","798933752469397506","马","325","","","","nonmatch","","","","","","","","","","","","","","key","f","16.665607476635525","848","472.58333333333337","f","true","nonmatch","img/ellipse.png","菱形","椭圆","ALT1_2","prac_ALT1_2","","","","","","","","","","","",""
"null","<span style='color:GreenYellow; font-size: 70px;'>正确! </span>","null","html-keyboard-response","20","240660","0.0-7.0-1.0-1.0-0.0-1.5","4","4","4","4","2","4","3","4","4","4","5","5","2","4","3","5","3","2","4","4","4","3","2","2","4","4","4","4","3","0","0","1","1","1","1","1","0","0","1","0","0","1","0","1","5","2","3","1","2","5","2","3","4","1","3","798933752469397506","马","325","","","","","","","","","","","","","","","","","","","","","","","","","","","","","","feedback_test","","","","","","","","","","","",""
"587","","j","psychophysics","21","242252","0.0-7.0-1.0-1.0-0.0-0.6","4","4","4","4","2","4","3","4","4","4","5","5","2","4","3","5","3","2","4","4","4","3","2","2","4","4","4","4","3","0","0","1","1","1","1","1","0","0","1","0","0","1","0","1","5","2","3","1","2","5","2","3","4","1","3","798933752469397506","马","325","","","","match","","","","","","","","","","","","","","key","j","16.66568421052622","848","472.58333333333337","j","true","match","img/diamond.png","菱形","菱形","ALT1_2","prac_ALT1_2","","","","","","","","","","","",""
"null","<span style='color:GreenYellow; font-size: 70px;'>正确! </span>","null","html-keyboard-response","22","242762","0.0-7.0-1.0-1.0-0.0-1.6","4","4","4","4","2","4","3","4","4","4","5","5","2","4","3","5","3","2","4","4","4","3","2","2","4","4","4","4","3","0","0","1","1","1","1","1","0","0","1","0","0","1","0","1","5","2","3","1","2","5","2","3","4","1","3","798933752469397506","马","325","","","","","","","","","","","","","","","","","","","","","","","","","","","","","","feedback_test","","","","","","","","","","","",""
"598","","j","psychophysics","23","244362","0.0-7.0-1.0-1.0-0.0-0.7","4","4","4","4","2","4","3","4","4","4","5","5","2","4","3","5","3","2","4","4","4","3","2","2","4","4","4","4","3","0","0","1","1","1","1","1","0","0","1","0","0","1","0","1","5","2","3","1","2","5","2","3","4","1","3","798933752469397506","马","325","","","","match","","","","","","","","","","","","","","key","j","16.665319148935946","848","472.58333333333337","j","true","match","img/trapezoid.png","梯形","梯形","ALT1_2","prac_ALT1_2","","","","","","","","","","","",""
"null","<span style='color:GreenYellow; font-size: 70px;'>正确! </span>","null","html-keyboard-response","24","244910","0.0-7.0-1.0-1.0-0.0-1.7","4","4","4","4","2","4","3","4","4","4","5","5","2","4","3","5","3","2","4","4","4","3","2","2","4","4","4","4","3","0","0","1","1","1","1","1","0","0","1","0","0","1","0","1","5","2","3","1","2","5","2","3","4","1","3","798933752469397506","马","325","","","","","","","","","","","","","","","","","","","","","","","","","","","","","","feedback_test","","","","","","","","","","","",""
"665","","j","psychophysics","25","246581","0.0-7.0-1.0-1.0-0.0-0.8","4","4","4","4","2","4","3","4","4","4","5","5","2","4","3","5","3","2","4","4","4","3","2","2","4","4","4","4","3","0","0","1","1","1","1","1","0","0","1","0","0","1","0","1","5","2","3","1","2","5","2","3","4","1","3","798933752469397506","马","325","","","","match","","","","","","","","","","","","","","key","j","16.665454545454594","848","472.58333333333337","j","true","match","img/pentagon.png","五边","五边","ALT1_2","prac_ALT1_2","","","","","","","","","","","",""
"null","<span style='color:GreenYellow; font-size: 70px;'>正确! </span>","null","html-keyboard-response","26","247094","0.0-7.0-1.0-1.0-0.0-1.8","4","4","4","4","2","4","3","4","4","4","5","5","2","4","3","5","3","2","4","4","4","3","2","2","4","4","4","4","3","0","0","1","1","1","1","1","0","0","1","0","0","1","0","1","5","2","3","1","2","5","2","3","4","1","3","798933752469397506","马","325","","","","","","","","","","","","","","","","","","","","","","","","","","","","","","feedback_test","","","","","","","","","","","",""
"542","","j","psychophysics","27","248638","0.0-7.0-1.0-1.0-0.0-0.9","4","4","4","4","2","4","3","4","4","4","5","5","2","4","3","5","3","2","4","4","4","3","2","2","4","4","4","4","3","0","0","1","1","1","1","1","0","0","1","0","0","1","0","1","5","2","3","1","2","5","2","3","4","1","3","798933752469397506","马","325","","","","match","","","","","","","","","","","","","","key","j","16.664565217391456","848","472.58333333333337","j","true","match","img/ellipse.png","椭圆","椭圆","ALT1_2","prac_ALT1_2","","","","","","","","","","","",""
"null","<span style='color:GreenYellow; font-size: 70px;'>正确! </span>","null","html-keyboard-response","28","249146","0.0-7.0-1.0-1.0-0.0-1.9","4","4","4","4","2","4","3","4","4","4","5","5","2","4","3","5","3","2","4","4","4","3","2","2","4","4","4","4","3","0","0","1","1","1","1","1","0","0","1","0","0","1","0","1","5","2","3","1","2","5","2","3","4","1","3","798933752469397506","马","325","","","","","","","","","","","","","","","","","","","","","","","","","","","","","","feedback_test","","","","","","","","","","","",""
"646","","j","psychophysics","29","250797","0.0-7.0-1.0-1.0-0.0-0.10","4","4","4","4","2","4","3","4","4","4","5","5","2","4","3","5","3","2","4","4","4","3","2","2","4","4","4","4","3","0","0","1","1","1","1","1","0","0","1","0","0","1","0","1","5","2","3","1","2","5","2","3","4","1","3","798933752469397506","马","325","","","","match","","","","","","","","","","","","","","key","j","16.665773195876156","848","472.58333333333337","j","true","match","img/pentagon.png","五边","五边","ALT1_2","prac_ALT1_2","","","","","","","","","","","",""
"null","<span style='color:GreenYellow; font-size: 70px;'>正确! </span>","null","html-keyboard-response","30","251311","0.0-7.0-1.0-1.0-0.0-1.10","4","4","4","4","2","4","3","4","4","4","5","5","2","4","3","5","3","2","4","4","4","3","2","2","4","4","4","4","3","0","0","1","1","1","1","1","0","0","1","0","0","1","0","1","5","2","3","1","2","5","2","3","4","1","3","798933752469397506","马","325","","","","","","","","","","","","","","","","","","","","","","","","","","","","","","feedback_test","","","","","","","","","","","",""
"626","","f","psychophysics","31","253053","0.0-7.0-1.0-1.0-0.0-0.11","4","4","4","4","2","4","3","4","4","4","5","5","2","4","3","5","3","2","4","4","4","3","2","2","4","4","4","4","3","0","0","1","1","1","1","1","0","0","1","0","0","1","0","1","5","2","3","1","2","5","2","3","4","1","3","798933752469397506","马","325","","","","nonmatch","","","","","","","","","","","","","","key","f","16.664230769230645","848","472.58333333333337","f","true","nonmatch","img/pentagon.png","梯形","五边","ALT1_2","prac_ALT1_2","","","","","","","","","","","",""
"null","<span style='color:GreenYellow; font-size: 70px;'>正确! </span>","null","html-keyboard-response","32","253560","0.0-7.0-1.0-1.0-0.0-1.11","4","4","4","4","2","4","3","4","4","4","5","5","2","4","3","5","3","2","4","4","4","3","2","2","4","4","4","4","3","0","0","1","1","1","1","1","0","0","1","0","0","1","0","1","5","2","3","1","2","5","2","3","4","1","3","798933752469397506","马","325","","","","","","","","","","","","","","","","","","","","","","","","","","","","","","feedback_test","","","","","","","","","","","",""
"535","","f","psychophysics","33","255104","0.0-7.0-1.0-1.0-0.0-0.12","4","4","4","4","2","4","3","4","4","4","5","5","2","4","3","5","3","2","4","4","4","3","2","2","4","4","4","4","3","0","0","1","1","1","1","1","0","0","1","0","0","1","0","1","5","2","3","1","2","5","2","3","4","1","3","798933752469397506","马","325","","","","nonmatch","","","","","","","","","","","","","","key","f","16.665652173912942","848","472.58333333333337","f","true","nonmatch","img/diamond.png","五边","菱形","ALT1_2","prac_ALT1_2","","","","","","","","","","","",""
"null","<span style='color:GreenYellow; font-size: 70px;'>正确! </span>","null","html-keyboard-response","34","255617","0.0-7.0-1.0-1.0-0.0-1.12","4","4","4","4","2","4","3","4","4","4","5","5","2","4","3","5","3","2","4","4","4","3","2","2","4","4","4","4","3","0","0","1","1","1","1","1","0","0","1","0","0","1","0","1","5","2","3","1","2","5","2","3","4","1","3","798933752469397506","马","325","","","","","","","","","","","","","","","","","","","","","","","","","","","","","","feedback_test","","","","","","","","","","","",""
"600","","j","psychophysics","35","257222","0.0-7.0-1.0-1.0-0.0-0.13","4","4","4","4","2","4","3","4","4","4","5","5","2","4","3","5","3","2","4","4","4","3","2","2","4","4","4","4","3","0","0","1","1","1","1","1","0","0","1","0","0","1","0","1","5","2","3","1","2","5","2","3","4","1","3","798933752469397506","马","325","","","","match","","","","","","","","","","","","","","key","j","16.664842105263194","848","472.58333333333337","j","true","match","img/ellipse.png","椭圆","椭圆","ALT1_2","prac_ALT1_2","","","","","","","","","","","",""
"null","<span style='color:GreenYellow; font-size: 70px;'>正确! </span>","null","html-keyboard-response","36","257730","0.0-7.0-1.0-1.0-0.0-1.13","4","4","4","4","2","4","3","4","4","4","5","5","2","4","3","5","3","2","4","4","4","3","2","2","4","4","4","4","3","0","0","1","1","1","1","1","0","0","1","0","0","1","0","1","5","2","3","1","2","5","2","3","4","1","3","798933752469397506","马","325","","","","","","","","","","","","","","","","","","","","","","","","","","","","","","feedback_test","","","","","","","","","","","",""
"737","","j","psychophysics","37","259482","0.0-7.0-1.0-1.0-0.0-0.14","4","4","4","4","2","4","3","4","4","4","5","5","2","4","3","5","3","2","4","4","4","3","2","2","4","4","4","4","3","0","0","1","1","1","1","1","0","0","1","0","0","1","0","1","5","2","3","1","2","5","2","3","4","1","3","798933752469397506","马","325","","","","match","","","","","","","","","","","","","","key","j","16.664807692307548","848","472.58333333333337","j","true","match","img/diamond.png","菱形","菱形","ALT1_2","prac_ALT1_2","","","","","","","","","","","",""
"null","<span style='color:GreenYellow; font-size: 70px;'>正确! </span>","null","html-keyboard-response","38","259995","0.0-7.0-1.0-1.0-0.0-1.14","4","4","4","4","2","4","3","4","4","4","5","5","2","4","3","5","3","2","4","4","4","3","2","2","4","4","4","4","3","0","0","1","1","1","1","1","0","0","1","0","0","1","0","1","5","2","3","1","2","5","2","3","4","1","3","798933752469397506","马","325","","","","","","","","","","","","","","","","","","","","","","","","","","","","","","feedback_test","","","","","","","","","","","",""
"601","","j","psychophysics","39","261601","0.0-7.0-1.0-1.0-0.0-0.15","4","4","4","4","2","4","3","4","4","4","5","5","2","4","3","5","3","2","4","4","4","3","2","2","4","4","4","4","3","0","0","1","1","1","1","1","0","0","1","0","0","1","0","1","5","2","3","1","2","5","2","3","4","1","3","798933752469397506","马","325","","","","match","","","","","","","","","","","","","","key","j","16.66505263157857","848","472.58333333333337","j","true","match","img/trapezoid.png","梯形","梯形","ALT1_2","prac_ALT1_2","","","","","","","","","","","",""
"null","<span style='color:GreenYellow; font-size: 70px;'>正确! </span>","null","html-keyboard-response","40","262111","0.0-7.0-1.0-1.0-0.0-1.15","4","4","4","4","2","4","3","4","4","4","5","5","2","4","3","5","3","2","4","4","4","3","2","2","4","4","4","4","3","0","0","1","1","1","1","1","0","0","1","0","0","1","0","1","5","2","3","1","2","5","2","3","4","1","3","798933752469397506","马","325","","","","","","","","","","","","","","","","","","","","","","","","","","","","","","feedback_test","","","","","","","","","","","",""
"573","","j","psychophysics","41","263687","0.0-7.0-1.0-1.0-0.0-0.16","4","4","4","4","2","4","3","4","4","4","5","5","2","4","3","5","3","2","4","4","4","3","2","2","4","4","4","4","3","0","0","1","1","1","1","1","0","0","1","0","0","1","0","1","5","2","3","1","2","5","2","3","4","1","3","798933752469397506","马","325","","","","match","","","","","","","","","","","","","","key","j","16.66574468085062","848","472.58333333333337","j","true","match","img/pentagon.png","五边","五边","ALT1_2","prac_ALT1_2","","","","","","","","","","","",""
"null","<span style='color:GreenYellow; font-size: 70px;'>正确! </span>","null","html-keyboard-response","42","264200","0.0-7.0-1.0-1.0-0.0-1.16","4","4","4","4","2","4","3","4","4","4","5","5","2","4","3","5","3","2","4","4","4","3","2","2","4","4","4","4","3","0","0","1","1","1","1","1","0","0","1","0","0","1","0","1","5","2","3","1","2","5","2","3","4","1","3","798933752469397506","马","325","","","","","","","","","","","","","","","","","","","","","","","","","","","","","","feedback_test","","","","","","","","","","","",""
"701","","f","psychophysics","43","265904","0.0-7.0-1.0-1.0-0.0-0.17","4","4","4","4","2","4","3","4","4","4","5","5","2","4","3","5","3","2","4","4","4","3","2","2","4","4","4","4","3","0","0","1","1","1","1","1","0","0","1","0","0","1","0","1","5","2","3","1","2","5","2","3","4","1","3","798933752469397506","马","325","","","","nonmatch","","","","","","","","","","","","","","key","f","16.66534653465358","848","472.58333333333337","f","true","nonmatch","img/ellipse.png","五边","椭圆","ALT1_2","prac_ALT1_2","","","","","","","","","","","",""
"null","<span style='color:GreenYellow; font-size: 70px;'>正确! </span>","null","html-keyboard-response","44","266410","0.0-7.0-1.0-1.0-0.0-1.17","4","4","4","4","2","4","3","4","4","4","5","5","2","4","3","5","3","2","4","4","4","3","2","2","4","4","4","4","3","0","0","1","1","1","1","1","0","0","1","0","0","1","0","1","5","2","3","1","2","5","2","3","4","1","3","798933752469397506","马","325","","","","","","","","","","","","","","","","","","","","","","","","","","","","","","feedback_test","","","","","","","","","","","",""
"707","","f","psychophysics","45","268120","0.0-7.0-1.0-1.0-0.0-0.18","4","4","4","4","2","4","3","4","4","4","5","5","2","4","3","5","3","2","4","4","4","3","2","2","4","4","4","4","3","0","0","1","1","1","1","1","0","0","1","0","0","1","0","1","5","2","3","1","2","5","2","3","4","1","3","798933752469397506","马","325","","","","nonmatch","","","","","","","","","","","","","","key","f","16.665294117646923","848","472.58333333333337","f","true","nonmatch","img/trapezoid.png","椭圆","梯形","ALT1_2","prac_ALT1_2","","","","","","","","","","","",""
"null","<span style='color:GreenYellow; font-size: 70px;'>正确! </span>","null","html-keyboard-response","46","268622","0.0-7.0-1.0-1.0-0.0-1.18","4","4","4","4","2","4","3","4","4","4","5","5","2","4","3","5","3","2","4","4","4","3","2","2","4","4","4","4","3","0","0","1","1","1","1","1","0","0","1","0","0","1","0","1","5","2","3","1","2","5","2","3","4","1","3","798933752469397506","马","325","","","","","","","","","","","","","","","","","","","","","","","","","","","","","","feedback_test","","","","","","","","","","","",""
"461","","j","psychophysics","47","270164","0.0-7.0-1.0-1.0-0.0-0.19","4","4","4","4","2","4","3","4","4","4","5","5","2","4","3","5","3","2","4","4","4","3","2","2","4","4","4","4","3","0","0","1","1","1","1","1","0","0","1","0","0","1","0","1","5","2","3","1","2","5","2","3","4","1","3","798933752469397506","马","325","","","","match","","","","","","","","","","","","","","key","j","16.66586956521749","848","472.58333333333337","f","false","nonmatch","img/ellipse.png","梯形","椭圆","ALT1_2","prac_ALT1_2","","","","","","","","","","","",""
"null","<span style='color:red; font-size: 70px;'>错误! </span>","null","html-keyboard-response","48","270710","0.0-7.0-1.0-1.0-0.0-1.19","4","4","4","4","2","4","3","4","4","4","5","5","2","4","3","5","3","2","4","4","4","3","2","2","4","4","4","4","3","0","0","1","1","1","1","1","0","0","1","0","0","1","0","1","5","2","3","1","2","5","2","3","4","1","3","798933752469397506","马","325","","","","","","","","","","","","","","","","","","","","","","","","","","","","","","feedback_test","","","","","","","","","","","",""
"603","","f","psychophysics","49","272330","0.0-7.0-1.0-1.0-0.0-0.20","4","4","4","4","2","4","3","4","4","4","5","5","2","4","3","5","3","2","4","4","4","3","2","2","4","4","4","4","3","0","0","1","1","1","1","1","0","0","1","0","0","1","0","1","5","2","3","1","2","5","2","3","4","1","3","798933752469397506","马","325","","","","nonmatch","","","","","","","","","","","","","","key","f","16.665000000000266","848","472.58333333333337","f","true","nonmatch","img/pentagon.png","椭圆","五边","ALT1_2","prac_ALT1_2","","","","","","","","","","","",""
"null","<span style='color:GreenYellow; font-size: 70px;'>正确! </span>","null","html-keyboard-response","50","272842","0.0-7.0-1.0-1.0-0.0-1.20","4","4","4","4","2","4","3","4","4","4","5","5","2","4","3","5","3","2","4","4","4","3","2","2","4","4","4","4","3","0","0","1","1","1","1","1","0","0","1","0","0","1","0","1","5","2","3","1","2","5","2","3","4","1","3","798933752469397506","马","325","","","","","","","","","","","","","","","","","","","","","","","","","","","","","","feedback_test","","","","","","","","","","","",""
"657","","f","psychophysics","51","274500","0.0-7.0-1.0-1.0-0.0-0.21","4","4","4","4","2","4","3","4","4","4","5","5","2","4","3","5","3","2","4","4","4","3","2","2","4","4","4","4","3","0","0","1","1","1","1","1","0","0","1","0","0","1","0","1","5","2","3","1","2","5","2","3","4","1","3","798933752469397506","马","325","","","","nonmatch","","","","","","","","","","","","","","key","f","16.66585858585842","848","472.58333333333337","f","true","nonmatch","img/trapezoid.png","菱形","梯形","ALT1_2","prac_ALT1_2","","","","","","","","","","","",""
"null","<span style='color:GreenYellow; font-size: 70px;'>正确! </span>","null","html-keyboard-response","52","275012","0.0-7.0-1.0-1.0-0.0-1.21","4","4","4","4","2","4","3","4","4","4","5","5","2","4","3","5","3","2","4","4","4","3","2","2","4","4","4","4","3","0","0","1","1","1","1","1","0","0","1","0","0","1","0","1","5","2","3","1","2","5","2","3","4","1","3","798933752469397506","马","325","","","","","","","","","","","","","","","","","","","","","","","","","","","","","","feedback_test","","","","","","","","","","","",""
"618","","f","psychophysics","53","276633","0.0-7.0-1.0-1.0-0.0-0.22","4","4","4","4","2","4","3","4","4","4","5","5","2","4","3","5","3","2","4","4","4","3","2","2","4","4","4","4","3","0","0","1","1","1","1","1","0","0","1","0","0","1","0","1","5","2","3","1","2","5","2","3","4","1","3","798933752469397506","马","325","","","","nonmatch","","","","","","","","","","","","","","key","f","16.66499999999966","848","472.58333333333337","f","true","nonmatch","img/diamond.png","椭圆","菱形","ALT1_2","prac_ALT1_2","","","","","","","","","","","",""
"null","<span style='color:GreenYellow; font-size: 70px;'>正确! </span>","null","html-keyboard-response","54","277149","0.0-7.0-1.0-1.0-0.0-1.22","4","4","4","4","2","4","3","4","4","4","5","5","2","4","3","5","3","2","4","4","4","3","2","2","4","4","4","4","3","0","0","1","1","1","1","1","0","0","1","0","0","1","0","1","5","2","3","1","2","5","2","3","4","1","3","798933752469397506","马","325","","","","","","","","","","","","","","","","","","","","","","","","","","","","","","feedback_test","","","","","","","","","","","",""
"654","","f","psychophysics","55","278809","0.0-7.0-1.0-1.0-0.0-0.23","4","4","4","4","2","4","3","4","4","4","5","5","2","4","3","5","3","2","4","4","4","3","2","2","4","4","4","4","3","0","0","1","1","1","1","1","0","0","1","0","0","1","0","1","5","2","3","1","2","5","2","3","4","1","3","798933752469397506","马","325","","","","nonmatch","","","","","","","","","","","","","","key","f","16.66551020408194","848","472.58333333333337","f","true","nonmatch","img/trapezoid.png","五边","梯形","ALT1_2","prac_ALT1_2","","","","","","","","","","","",""
"null","<span style='color:GreenYellow; font-size: 70px;'>正确! </span>","null","html-keyboard-response","56","279315","0.0-7.0-1.0-1.0-0.0-1.23","4","4","4","4","2","4","3","4","4","4","5","5","2","4","3","5","3","2","4","4","4","3","2","2","4","4","4","4","3","0","0","1","1","1","1","1","0","0","1","0","0","1","0","1","5","2","3","1","2","5","2","3","4","1","3","798933752469397506","马","325","","","","","","","","","","","","","","","","","","","","","","","","","","","","","","feedback_test","","","","","","","","","","","",""
"633","","j","psychophysics","57","280949","0.0-7.0-1.0-1.0-0.0-0.24","4","4","4","4","2","4","3","4","4","4","5","5","2","4","3","5","3","2","4","4","4","3","2","2","4","4","4","4","3","0","0","1","1","1","1","1","0","0","1","0","0","1","0","1","5","2","3","1","2","5","2","3","4","1","3","798933752469397506","马","325","","","","match","","","","","","","","","","","","","","key","j","16.665773195876458","848","472.58333333333337","j","true","match","img/ellipse.png","椭圆","椭圆","ALT1_2","prac_ALT1_2","","","","","","","","","","","",""
"null","<span style='color:GreenYellow; font-size: 70px;'>正确! </span>","null","html-keyboard-response","58","281459","0.0-7.0-1.0-1.0-0.0-1.24","4","4","4","4","2","4","3","4","4","4","5","5","2","4","3","5","3","2","4","4","4","3","2","2","4","4","4","4","3","0","0","1","1","1","1","1","0","0","1","0","0","1","0","1","5","2","3","1","2","5","2","3","4","1","3","798933752469397506","马","325","","","","","","","","","","","","","","","","","","","","","","","","","","","","","","feedback_test","","","","","","","","","","","",""
"636","","j","psychophysics","59","283102","0.0-7.0-1.0-1.0-0.0-0.25","4","4","4","4","2","4","3","4","4","4","5","5","2","4","3","5","3","2","4","4","4","3","2","2","4","4","4","4","3","0","0","1","1","1","1","1","0","0","1","0","0","1","0","1","5","2","3","1","2","5","2","3","4","1","3","798933752469397506","马","325","","","","match","","","","","","","","","","","","","","key","j","16.66571428571419","848","472.58333333333337","j","true","match","img/diamond.png","菱形","菱形","ALT1_2","prac_ALT1_2","","","","","","","","","","","",""
"null","<span style='color:GreenYellow; font-size: 70px;'>正确! </span>","null","html-keyboard-response","60","283612","0.0-7.0-1.0-1.0-0.0-1.25","4","4","4","4","2","4","3","4","4","4","5","5","2","4","3","5","3","2","4","4","4","3","2","2","4","4","4","4","3","0","0","1","1","1","1","1","0","0","1","0","0","1","0","1","5","2","3","1","2","5","2","3","4","1","3","798933752469397506","马","325","","","","","","","","","","","","","","","","","","","","","","","","","","","","","","feedback_test","","","","","","","","","","","",""
"703","","f","psychophysics","61","285321","0.0-7.0-1.0-1.0-0.0-0.26","4","4","4","4","2","4","3","4","4","4","5","5","2","4","3","5","3","2","4","4","4","3","2","2","4","4","4","4","3","0","0","1","1","1","1","1","0","0","1","0","0","1","0","1","5","2","3","1","2","5","2","3","4","1","3","798933752469397506","马","325","","","","nonmatch","","","","","","","","","","","","","","key","f","16.665346534653004","848","472.58333333333337","f","true","nonmatch","img/ellipse.png","菱形","椭圆","ALT1_2","prac_ALT1_2","","","","","","","","","","","",""
"null","<span style='color:GreenYellow; font-size: 70px;'>正确! </span>","null","html-keyboard-response","62","285835","0.0-7.0-1.0-1.0-0.0-1.26","4","4","4","4","2","4","3","4","4","4","5","5","2","4","3","5","3","2","4","4","4","3","2","2","4","4","4","4","3","0","0","1","1","1","1","1","0","0","1","0","0","1","0","1","5","2","3","1","2","5","2","3","4","1","3","798933752469397506","马","325","","","","","","","","","","","","","","","","","","","","","","","","","","","","","","feedback_test","","","","","","","","","","","",""
"593","","f","psychophysics","63","287509","0.0-7.0-1.0-1.0-0.0-0.27","4","4","4","4","2","4","3","4","4","4","5","5","2","4","3","5","3","2","4","4","4","3","2","2","4","4","4","4","3","0","0","1","1","1","1","1","0","0","1","0","0","1","0","1","5","2","3","1","2","5","2","3","4","1","3","798933752469397506","马","325","","","","nonmatch","","","","","","","","","","","","","","key","f","16.6656565656568","848","472.58333333333337","f","true","nonmatch","img/pentagon.png","梯形","五边","ALT1_2","prac_ALT1_2","","","","","","","","","","","",""
"null","<span style='color:GreenYellow; font-size: 70px;'>正确! </span>","null","html-keyboard-response","64","288014","0.0-7.0-1.0-1.0-0.0-1.27","4","4","4","4","2","4","3","4","4","4","5","5","2","4","3","5","3","2","4","4","4","3","2","2","4","4","4","4","3","0","0","1","1","1","1","1","0","0","1","0","0","1","0","1","5","2","3","1","2","5","2","3","4","1","3","798933752469397506","马","325","","","","","","","","","","","","","","","","","","","","","","","","","","","","","","feedback_test","","","","","","","","","","","",""
"653","","f","psychophysics","65","289672","0.0-7.0-1.0-1.0-0.0-0.28","4","4","4","4","2","4","3","4","4","4","5","5","2","4","3","5","3","2","4","4","4","3","2","2","4","4","4","4","3","0","0","1","1","1","1","1","0","0","1","0","0","1","0","1","5","2","3","1","2","5","2","3","4","1","3","798933752469397506","马","325","","","","nonmatch","","","","","","","","","","","","","","key","f","16.665510204081347","848","472.58333333333337","f","true","nonmatch","img/diamond.png","五边","菱形","ALT1_2","prac_ALT1_2","","","","","","","","","","","",""
"null","<span style='color:GreenYellow; font-size: 70px;'>正确! </span>","null","html-keyboard-response","66","290174","0.0-7.0-1.0-1.0-0.0-1.28","4","4","4","4","2","4","3","4","4","4","5","5","2","4","3","5","3","2","4","4","4","3","2","2","4","4","4","4","3","0","0","1","1","1","1","1","0","0","1","0","0","1","0","1","5","2","3","1","2","5","2","3","4","1","3","798933752469397506","马","325","","","","","","","","","","","","","","","","","","","","","","","","","","","","","","feedback_test","","","","","","","","","","","",""
"585","","j","psychophysics","67","291777","0.0-7.0-1.0-1.0-0.0-0.29","4","4","4","4","2","4","3","4","4","4","5","5","2","4","3","5","3","2","4","4","4","3","2","2","4","4","4","4","3","0","0","1","1","1","1","1","0","0","1","0","0","1","0","1","5","2","3","1","2","5","2","3","4","1","3","798933752469397506","马","325","","","","match","","","","","","","","","","","","","","key","j","16.66526315789486","848","472.58333333333337","j","true","match","img/trapezoid.png","梯形","梯形","ALT1_2","prac_ALT1_2","","","","","","","","","","","",""
"null","<span style='color:GreenYellow; font-size: 70px;'>正确! </span>","null","html-keyboard-response","68","292289","0.0-7.0-1.0-1.0-0.0-1.29","4","4","4","4","2","4","3","4","4","4","5","5","2","4","3","5","3","2","4","4","4","3","2","2","4","4","4","4","3","0","0","1","1","1","1","1","0","0","1","0","0","1","0","1","5","2","3","1","2","5","2","3","4","1","3","798933752469397506","马","325","","","","","","","","","","","","","","","","","","","","","","","","","","","","","","feedback_test","","","","","","","","","","","",""
"539","","j","psychophysics","69","293909","0.0-7.0-1.0-1.0-0.0-0.30","4","4","4","4","2","4","3","4","4","4","5","5","2","4","3","5","3","2","4","4","4","3","2","2","4","4","4","4","3","0","0","1","1","1","1","1","0","0","1","0","0","1","0","1","5","2","3","1","2","5","2","3","4","1","3","798933752469397506","马","325","","","","match","","","","","","","","","","","","","","key","j","16.664583333333212","848","472.58333333333337","j","true","match","img/diamond.png","菱形","菱形","ALT1_2","prac_ALT1_2","","","","","","","","","","","",""
"null","<span style='color:GreenYellow; font-size: 70px;'>正确! </span>","null","html-keyboard-response","70","294412","0.0-7.0-1.0-1.0-0.0-1.30","4","4","4","4","2","4","3","4","4","4","5","5","2","4","3","5","3","2","4","4","4","3","2","2","4","4","4","4","3","0","0","1","1","1","1","1","0","0","1","0","0","1","0","1","5","2","3","1","2","5","2","3","4","1","3","798933752469397506","马","325","","","","","","","","","","","","","","","","","","","","","","","","","","","","","","feedback_test","","","","","","","","","","","",""
"542","","f","psychophysics","71","295957","0.0-7.0-1.0-1.0-0.0-0.31","4","4","4","4","2","4","3","4","4","4","5","5","2","4","3","5","3","2","4","4","4","3","2","2","4","4","4","4","3","0","0","1","1","1","1","1","0","0","1","0","0","1","0","1","5","2","3","1","2","5","2","3","4","1","3","798933752469397506","马","325","","","","nonmatch","","","","","","","","","","","","","","key","f","16.66593406593445","848","472.58333333333337","f","true","nonmatch","img/diamond.png","椭圆","菱形","ALT1_2","prac_ALT1_2","","","","","","","","","","","",""
"null","<span style='color:GreenYellow; font-size: 70px;'>正确! </span>","null","html-keyboard-response","72","296466","0.0-7.0-1.0-1.0-0.0-1.31","4","4","4","4","2","4","3","4","4","4","5","5","2","4","3","5","3","2","4","4","4","3","2","2","4","4","4","4","3","0","0","1","1","1","1","1","0","0","1","0","0","1","0","1","5","2","3","1","2","5","2","3","4","1","3","798933752469397506","马","325","","","","","","","","","","","","","","","","","","","","","","","","","","","","","","feedback_test","","","","","","","","","","","",""
"633","","j","psychophysics","73","298104","0.0-7.0-1.0-1.0-0.0-0.32","4","4","4","4","2","4","3","4","4","4","5","5","2","4","3","5","3","2","4","4","4","3","2","2","4","4","4","4","3","0","0","1","1","1","1","1","0","0","1","0","0","1","0","1","5","2","3","1","2","5","2","3","4","1","3","798933752469397506","马","325","","","","match","","","","","","","","","","","","","","key","j","16.66597938144306","848","472.58333333333337","f","false","nonmatch","img/ellipse.png","梯形","椭圆","ALT1_2","prac_ALT1_2","","","","","","","","","","","",""
"null","<span style='color:red; font-size: 70px;'>错误! </span>","null","html-keyboard-response","74","298613","0.0-7.0-1.0-1.0-0.0-1.32","4","4","4","4","2","4","3","4","4","4","5","5","2","4","3","5","3","2","4","4","4","3","2","2","4","4","4","4","3","0","0","1","1","1","1","1","0","0","1","0","0","1","0","1","5","2","3","1","2","5","2","3","4","1","3","798933752469397506","马","325","","","","","","","","","","","","","","","","","","","","","","","","","","","","","","feedback_test","","","","","","","","","","","",""
"648","","f","psychophysics","75","300276","0.0-7.0-1.0-1.0-0.0-0.33","4","4","4","4","2","4","3","4","4","4","5","5","2","4","3","5","3","2","4","4","4","3","2","2","4","4","4","4","3","0","0","1","1","1","1","1","0","0","1","0","0","1","0","1","5","2","3","1","2","5","2","3","4","1","3","798933752469397506","马","325","","","","nonmatch","","","","","","","","","","","","","","key","f","16.65999999999993","848","472.58333333333337","f","true","nonmatch","img/trapezoid.png","椭圆","梯形","ALT1_2","prac_ALT1_2","","","","","","","","","","","",""
"null","<span style='color:GreenYellow; font-size: 70px;'>正确! </span>","null","html-keyboard-response","76","300790","0.0-7.0-1.0-1.0-0.0-1.33","4","4","4","4","2","4","3","4","4","4","5","5","2","4","3","5","3","2","4","4","4","3","2","2","4","4","4","4","3","0","0","1","1","1","1","1","0","0","1","0","0","1","0","1","5","2","3","1","2","5","2","3","4","1","3","798933752469397506","马","325","","","","","","","","","","","","","","","","","","","","","","","","","","","","","","feedback_test","","","","","","","","","","","",""
"696","","f","psychophysics","77","302496","0.0-7.0-1.0-1.0-0.0-0.34","4","4","4","4","2","4","3","4","4","4","5","5","2","4","3","5","3","2","4","4","4","3","2","2","4","4","4","4","3","0","0","1","1","1","1","1","0","0","1","0","0","1","0","1","5","2","3","1","2","5","2","3","4","1","3","798933752469397506","马","325","","","","nonmatch","","","","","","","","","","","","","","key","f","16.66529411764749","848","472.58333333333337","f","true","nonmatch","img/ellipse.png","五边","椭圆","ALT1_2","prac_ALT1_2","","","","","","","","","","","",""
"null","<span style='color:GreenYellow; font-size: 70px;'>正确! </span>","null","html-keyboard-response","78","303006","0.0-7.0-1.0-1.0-0.0-1.34","4","4","4","4","2","4","3","4","4","4","5","5","2","4","3","5","3","2","4","4","4","3","2","2","4","4","4","4","3","0","0","1","1","1","1","1","0","0","1","0","0","1","0","1","5","2","3","1","2","5","2","3","4","1","3","798933752469397506","马","325","","","","","","","","","","","","","","","","","","","","","","","","","","","","","","feedback_test","","","","","","","","","","","",""
"650","","j","psychophysics","79","304657","0.0-7.0-1.0-1.0-0.0-0.35","4","4","4","4","2","4","3","4","4","4","5","5","2","4","3","5","3","2","4","4","4","3","2","2","4","4","4","4","3","0","0","1","1","1","1","1","0","0","1","0","0","1","0","1","5","2","3","1","2","5","2","3","4","1","3","798933752469397506","马","325","","","","match","","","","","","","","","","","","","","key","j","16.665102040816254","848","472.58333333333337","j","true","match","img/pentagon.png","五边","五边","ALT1_2","prac_ALT1_2","","","","","","","","","","","",""
"null","<span style='color:GreenYellow; font-size: 70px;'>正确! </span>","null","html-keyboard-response","80","305215","0.0-7.0-1.0-1.0-0.0-1.35","4","4","4","4","2","4","3","4","4","4","5","5","2","4","3","5","3","2","4","4","4","3","2","2","4","4","4","4","3","0","0","1","1","1","1","1","0","0","1","0","0","1","0","1","5","2","3","1","2","5","2","3","4","1","3","798933752469397506","马","325","","","","","","","","","","","","","","","","","","","","","","","","","","","","","","feedback_test","","","","","","","","","","","",""
"712","","j","psychophysics","81","306963","0.0-7.0-1.0-1.0-0.0-0.36","4","4","4","4","2","4","3","4","4","4","5","5","2","4","3","5","3","2","4","4","4","3","2","2","4","4","4","4","3","0","0","1","1","1","1","1","0","0","1","0","0","1","0","1","5","2","3","1","2","5","2","3","4","1","3","798933752469397506","马","325","","","","match","","","","","","","","","","","","","","key","j","16.665576923077214","848","472.58333333333337","j","true","match","img/pentagon.png","五边","五边","ALT1_2","prac_ALT1_2","","","","","","","","","","","",""
"null","<span style='color:GreenYellow; font-size: 70px;'>正确! </span>","null","html-keyboard-response","82","307520","0.0-7.0-1.0-1.0-0.0-1.36","4","4","4","4","2","4","3","4","4","4","5","5","2","4","3","5","3","2","4","4","4","3","2","2","4","4","4","4","3","0","0","1","1","1","1","1","0","0","1","0","0","1","0","1","5","2","3","1","2","5","2","3","4","1","3","798933752469397506","马","325","","","","","","","","","","","","","","","","","","","","","","","","","","","","","","feedback_test","","","","","","","","","","","",""
"666","","j","psychophysics","83","309201","0.0-7.0-1.0-1.0-0.0-0.37","4","4","4","4","2","4","3","4","4","4","5","5","2","4","3","5","3","2","4","4","4","3","2","2","4","4","4","4","3","0","0","1","1","1","1","1","0","0","1","0","0","1","0","1","5","2","3","1","2","5","2","3","4","1","3","798933752469397506","马","325","","","","match","","","","","","","","","","","","","","key","j","16.665","848","472.58333333333337","j","true","match","img/trapezoid.png","梯形","梯形","ALT1_2","prac_ALT1_2","","","","","","","","","","","",""
"null","<span style='color:GreenYellow; font-size: 70px;'>正确! </span>","null","html-keyboard-response","84","309708","0.0-7.0-1.0-1.0-0.0-1.37","4","4","4","4","2","4","3","4","4","4","5","5","2","4","3","5","3","2","4","4","4","3","2","2","4","4","4","4","3","0","0","1","1","1","1","1","0","0","1","0","0","1","0","1","5","2","3","1","2","5","2","3","4","1","3","798933752469397506","马","325","","","","","","","","","","","","","","","","","","","","","","","","","","","","","","feedback_test","","","","","","","","","","","",""
"713","","j","psychophysics","85","311424","0.0-7.0-1.0-1.0-0.0-0.38","4","4","4","4","2","4","3","4","4","4","5","5","2","4","3","5","3","2","4","4","4","3","2","2","4","4","4","4","3","0","0","1","1","1","1","1","0","0","1","0","0","1","0","1","5","2","3","1","2","5","2","3","4","1","3","798933752469397506","马","325","","","","match","","","","","","","","","","","","","","key","j","16.66411764705873","848","472.58333333333337","j","true","match","img/trapezoid.png","梯形","梯形","ALT1_2","prac_ALT1_2","","","","","","","","","","","",""
"null","<span style='color:GreenYellow; font-size: 70px;'>正确! </span>","null","html-keyboard-response","86","311937","0.0-7.0-1.0-1.0-0.0-1.38","4","4","4","4","2","4","3","4","4","4","5","5","2","4","3","5","3","2","4","4","4","3","2","2","4","4","4","4","3","0","0","1","1","1","1","1","0","0","1","0","0","1","0","1","5","2","3","1","2","5","2","3","4","1","3","798933752469397506","马","325","","","","","","","","","","","","","","","","","","","","","","","","","","","","","","feedback_test","","","","","","","","","","","",""
"579","","j","psychophysics","87","313529","0.0-7.0-1.0-1.0-0.0-0.39","4","4","4","4","2","4","3","4","4","4","5","5","2","4","3","5","3","2","4","4","4","3","2","2","4","4","4","4","3","0","0","1","1","1","1","1","0","0","1","0","0","1","0","1","5","2","3","1","2","5","2","3","4","1","3","798933752469397506","马","325","","","","match","","","","","","","","","","","","","","key","j","16.66568421052622","848","472.58333333333337","f","false","nonmatch","img/pentagon.png","菱形","五边","ALT1_2","prac_ALT1_2","","","","","","","","","","","",""
"null","<span style='color:red; font-size: 70px;'>错误! </span>","null","html-keyboard-response","88","314031","0.0-7.0-1.0-1.0-0.0-1.39","4","4","4","4","2","4","3","4","4","4","5","5","2","4","3","5","3","2","4","4","4","3","2","2","4","4","4","4","3","0","0","1","1","1","1","1","0","0","1","0","0","1","0","1","5","2","3","1","2","5","2","3","4","1","3","798933752469397506","马","325","","","","","","","","","","","","","","","","","","","","","","","","","","","","","","feedback_test","","","","","","","","","","","",""
"583","","j","psychophysics","89","315628","0.0-7.0-1.0-1.0-0.0-0.40","4","4","4","4","2","4","3","4","4","4","5","5","2","4","3","5","3","2","4","4","4","3","2","2","4","4","4","4","3","0","0","1","1","1","1","1","0","0","1","0","0","1","0","1","5","2","3","1","2","5","2","3","4","1","3","798933752469397506","马","325","","","","match","","","","","","","","","","","","","","key","j","16.665894736842205","848","472.58333333333337","j","true","match","img/ellipse.png","椭圆","椭圆","ALT1_2","prac_ALT1_2","","","","","","","","","","","",""
"null","<span style='color:GreenYellow; font-size: 70px;'>正确! </span>","null","html-keyboard-response","90","316134","0.0-7.0-1.0-1.0-0.0-1.40","4","4","4","4","2","4","3","4","4","4","5","5","2","4","3","5","3","2","4","4","4","3","2","2","4","4","4","4","3","0","0","1","1","1","1","1","0","0","1","0","0","1","0","1","5","2","3","1","2","5","2","3","4","1","3","798933752469397506","马","325","","","","","","","","","","","","","","","","","","","","","","","","","","","","","","feedback_test","","","","","","","","","","","",""
"629","","j","psychophysics","91","317764","0.0-7.0-1.0-1.0-0.0-0.41","4","4","4","4","2","4","3","4","4","4","5","5","2","4","3","5","3","2","4","4","4","3","2","2","4","4","4","4","3","0","0","1","1","1","1","1","0","0","1","0","0","1","0","1","5","2","3","1","2","5","2","3","4","1","3","798933752469397506","马","325","","","","match","","","","","","","","","","","","","","key","j","16.665567010309253","848","472.58333333333337","j","true","match","img/pentagon.png","五边","五边","ALT1_2","prac_ALT1_2","","","","","","","","","","","",""
"null","<span style='color:GreenYellow; font-size: 70px;'>正确! </span>","null","html-keyboard-response","92","318295","0.0-7.0-1.0-1.0-0.0-1.41","4","4","4","4","2","4","3","4","4","4","5","5","2","4","3","5","3","2","4","4","4","3","2","2","4","4","4","4","3","0","0","1","1","1","1","1","0","0","1","0","0","1","0","1","5","2","3","1","2","5","2","3","4","1","3","798933752469397506","马","325","","","","","","","","","","","","","","","","","","","","","","","","","","","","","","feedback_test","","","","","","","","","","","",""
"567","","j","psychophysics","93","319869","0.0-7.0-1.0-1.0-0.0-0.42","4","4","4","4","2","4","3","4","4","4","5","5","2","4","3","5","3","2","4","4","4","3","2","2","4","4","4","4","3","0","0","1","1","1","1","1","0","0","1","0","0","1","0","1","5","2","3","1","2","5","2","3","4","1","3","798933752469397506","马","325","","","","match","","","","","","","","","","","","","","key","j","16.665806451612728","848","472.58333333333337","j","true","match","img/ellipse.png","椭圆","椭圆","ALT1_2","prac_ALT1_2","","","","","","","","","","","",""
"null","<span style='color:GreenYellow; font-size: 70px;'>正确! </span>","null","html-keyboard-response","94","320384","0.0-7.0-1.0-1.0-0.0-1.42","4","4","4","4","2","4","3","4","4","4","5","5","2","4","3","5","3","2","4","4","4","3","2","2","4","4","4","4","3","0","0","1","1","1","1","1","0","0","1","0","0","1","0","1","5","2","3","1","2","5","2","3","4","1","3","798933752469397506","马","325","","","","","","","","","","","","","","","","","","","","","","","","","","","","","","feedback_test","","","","","","","","","","","",""
"644","","f","psychophysics","95","322032","0.0-7.0-1.0-1.0-0.0-0.43","4","4","4","4","2","4","3","4","4","4","5","5","2","4","3","5","3","2","4","4","4","3","2","2","4","4","4","4","3","0","0","1","1","1","1","1","0","0","1","0","0","1","0","1","5","2","3","1","2","5","2","3","4","1","3","798933752469397506","马","325","","","","nonmatch","","","","","","","","","","","","","","key","f","16.664897959183413","848","472.58333333333337","f","true","nonmatch","img/pentagon.png","椭圆","五边","ALT1_2","prac_ALT1_2","","","","","","","","","","","",""
"null","<span style='color:GreenYellow; font-size: 70px;'>正确! </span>","null","html-keyboard-response","96","322598","0.0-7.0-1.0-1.0-0.0-1.43","4","4","4","4","2","4","3","4","4","4","5","5","2","4","3","5","3","2","4","4","4","3","2","2","4","4","4","4","3","0","0","1","1","1","1","1","0","0","1","0","0","1","0","1","5","2","3","1","2","5","2","3","4","1","3","798933752469397506","马","325","","","","","","","","","","","","","","","","","","","","","","","","","","","","","","feedback_test","","","","","","","","","","","",""
"593","","j","psychophysics","97","324208","0.0-7.0-1.0-1.0-0.0-0.44","4","4","4","4","2","4","3","4","4","4","5","5","2","4","3","5","3","2","4","4","4","3","2","2","4","4","4","4","3","0","0","1","1","1","1","1","0","0","1","0","0","1","0","1","5","2","3","1","2","5","2","3","4","1","3","798933752469397506","马","325","","","","match","","","","","","","","","","","","","","key","j","16.665473684210234","848","472.58333333333337","j","true","match","img/diamond.png","菱形","菱形","ALT1_2","prac_ALT1_2","","","","","","","","","","","",""
"null","<span style='color:GreenYellow; font-size: 70px;'>正确! </span>","null","html-keyboard-response","98","324715","0.0-7.0-1.0-1.0-0.0-1.44","4","4","4","4","2","4","3","4","4","4","5","5","2","4","3","5","3","2","4","4","4","3","2","2","4","4","4","4","3","0","0","1","1","1","1","1","0","0","1","0","0","1","0","1","5","2","3","1","2","5","2","3","4","1","3","798933752469397506","马","325","","","","","","","","","","","","","","","","","","","","","","","","","","","","","","feedback_test","","","","","","","","","","","",""
"574","","f","psychophysics","99","326293","0.0-7.0-1.0-1.0-0.0-0.45","4","4","4","4","2","4","3","4","4","4","5","5","2","4","3","5","3","2","4","4","4","3","2","2","4","4","4","4","3","0","0","1","1","1","1","1","0","0","1","0","0","1","0","1","5","2","3","1","2","5","2","3","4","1","3","798933752469397506","马","325","","","","nonmatch","","","","","","","","","","","","","","key","f","16.66516129032243","848","472.58333333333337","f","true","nonmatch","img/trapezoid.png","五边","梯形","ALT1_2","prac_ALT1_2","","","","","","","","","","","",""
"null","<span style='color:GreenYellow; font-size: 70px;'>正确! </span>","null","html-keyboard-response","100","326803","0.0-7.0-1.0-1.0-0.0-1.45","4","4","4","4","2","4","3","4","4","4","5","5","2","4","3","5","3","2","4","4","4","3","2","2","4","4","4","4","3","0","0","1","1","1","1","1","0","0","1","0","0","1","0","1","5","2","3","1","2","5","2","3","4","1","3","798933752469397506","马","325","","","","","","","","","","","","","","","","","","","","","","","","","","","","","","feedback_test","","","","","","","","","","","",""
"524","","f","psychophysics","101","328328","0.0-7.0-1.0-1.0-0.0-0.46","4","4","4","4","2","4","3","4","4","4","5","5","2","4","3","5","3","2","4","4","4","3","2","2","4","4","4","4","3","0","0","1","1","1","1","1","0","0","1","0","0","1","0","1","5","2","3","1","2","5","2","3","4","1","3","798933752469397506","马","325","","","","nonmatch","","","","","","","","","","","","","","key","f","16.66549450549448","848","472.58333333333337","f","true","nonmatch","img/trapezoid.png","菱形","梯形","ALT1_2","prac_ALT1_2","","","","","","","","","","","",""
"null","<span style='color:GreenYellow; font-size: 70px;'>正确! </span>","null","html-keyboard-response","102","328841","0.0-7.0-1.0-1.0-0.0-1.46","4","4","4","4","2","4","3","4","4","4","5","5","2","4","3","5","3","2","4","4","4","3","2","2","4","4","4","4","3","0","0","1","1","1","1","1","0","0","1","0","0","1","0","1","5","2","3","1","2","5","2","3","4","1","3","798933752469397506","马","325","","","","","","","","","","","","","","","","","","","","","","","","","","","","","","feedback_test","","","","","","","","","","","",""
"695","","f","psychophysics","103","330537","0.0-7.0-1.0-1.0-0.0-0.47","4","4","4","4","2","4","3","4","4","4","5","5","2","4","3","5","3","2","4","4","4","3","2","2","4","4","4","4","3","0","0","1","1","1","1","1","0","0","1","0","0","1","0","1","5","2","3","1","2","5","2","3","4","1","3","798933752469397506","马","325","","","","nonmatch","","","","","","","","","","","","","","key","f","16.664950495049826","848","472.58333333333337","f","true","nonmatch","img/diamond.png","梯形","菱形","ALT1_2","prac_ALT1_2","","","","","","","","","","","",""
"null","<span style='color:GreenYellow; font-size: 70px;'>正确! </span>","null","html-keyboard-response","104","331051","0.0-7.0-1.0-1.0-0.0-1.47","4","4","4","4","2","4","3","4","4","4","5","5","2","4","3","5","3","2","4","4","4","3","2","2","4","4","4","4","3","0","0","1","1","1","1","1","0","0","1","0","0","1","0","1","5","2","3","1","2","5","2","3","4","1","3","798933752469397506","马","325","","","","","","","","","","","","","","","","","","","","","","","","","","","","","","feedback_test","","","","","","","","","","","",""
"113566","<style>.context{color:white; font-size: 35px; line-height:40px}</style>                          <div><p class='context'>您正确回答了90% 的试次。</p><p class='context'>您的平均反应时为627毫秒。</p><p class='context'>恭喜您完成练习。按空格键进入正式实验。</p><p class='footer' style='font-size: 35px; line-height:40px;'>请在进入正式实验实验之前将您的<span style='color: lightgreen;'>食指</span>放在电脑键盘的相应键位上进行按键。</p>"," ","html-keyboard-response","105","444618","0.0-7.0-1.0-2.0","4","4","4","4","2","4","3","4","4","4","5","5","2","4","3","5","3","2","4","4","4","3","2","2","4","4","4","4","3","0","0","1","1","1","1","1","0","0","1","0","0","1","0","1","5","2","3","1","2","5","2","3","4","1","3","798933752469397506","马","325","","","","","","","","","","","","","","","","","","","","","","","","","","","","","","","","","","","","","","","","","",""
"1008","
  <p style='color: white; font-size: 22px'>请您将手指放在按键上，准备进入正式的匹配任务。</p>
  <p> <div style = ""color: green""><按空格键进入下一阶段的匹配任务></div></p>
  "," ","html-keyboard-response","106","445626","0.0-7.0-1.0-3.0","4","4","4","4","2","4","3","4","4","4","5","5","2","4","3","5","3","2","4","4","4","3","2","2","4","4","4","4","3","0","0","1","1","1","1","1","0","0","1","0","0","1","0","1","5","2","3","1","2","5","2","3","4","1","3","798933752469397506","马","325","","","","","","","","","","","","","","","","","","","","","","","","","","","","","","","","","","","","","","","","","",""
"652","","j","psychophysics","107","447284","0.0-7.0-1.0-4.0-0.0-0.0","4","4","4","4","2","4","3","4","4","4","5","5","2","4","3","5","3","2","4","4","4","3","2","2","4","4","4","4","3","0","0","1","1","1","1","1","0","0","1","0","0","1","0","1","5","2","3","1","2","5","2","3","4","1","3","798933752469397506","马","325","","","","match","","","","","","","","","","","","","","key","j","16.665102040816254","848","472.58333333333337","j","true","match","img/diamond.png","菱形","菱形","ALT1","formal_ALT1_2","","","","","","","","","","","",""
"null","<span style='color:GreenYellow; font-size: 70px;'>正确! </span>","null","html-keyboard-response","108","447794","0.0-7.0-1.0-4.0-0.0-1.0","4","4","4","4","2","4","3","4","4","4","5","5","2","4","3","5","3","2","4","4","4","3","2","2","4","4","4","4","3","0","0","1","1","1","1","1","0","0","1","0","0","1","0","1","5","2","3","1","2","5","2","3","4","1","3","798933752469397506","马","325","","","","","","","","","","","","","","","","","","","","","","","","","","","","","","feedback_test","","","","","","","","","","","",""
"582","","j","psychophysics","109","449461","0.0-7.0-1.0-4.0-0.0-0.1","4","4","4","4","2","4","3","4","4","4","5","5","2","4","3","5","3","2","4","4","4","3","2","2","4","4","4","4","3","0","0","1","1","1","1","1","0","0","1","0","0","1","0","1","5","2","3","1","2","5","2","3","4","1","3","798933752469397506","马","325","","","","match","","","","","","","","","","","","","","key","j","16.665454545454594","848","472.58333333333337","j","true","match","img/trapezoid.png","梯形","梯形","ALT1","formal_ALT1_2","","","","","","","","","","","",""
"null","<span style='color:GreenYellow; font-size: 70px;'>正确! </span>","null","html-keyboard-response","110","449963","0.0-7.0-1.0-4.0-0.0-1.1","4","4","4","4","2","4","3","4","4","4","5","5","2","4","3","5","3","2","4","4","4","3","2","2","4","4","4","4","3","0","0","1","1","1","1","1","0","0","1","0","0","1","0","1","5","2","3","1","2","5","2","3","4","1","3","798933752469397506","马","325","","","","","","","","","","","","","","","","","","","","","","","","","","","","","","feedback_test","","","","","","","","","","","",""
"508","","f","psychophysics","111","451478","0.0-7.0-1.0-4.0-0.0-0.2","4","4","4","4","2","4","3","4","4","4","5","5","2","4","3","5","3","2","4","4","4","3","2","2","4","4","4","4","3","0","0","1","1","1","1","1","0","0","1","0","0","1","0","1","5","2","3","1","2","5","2","3","4","1","3","798933752469397506","马","325","","","","nonmatch","","","","","","","","","","","","","","key","f","16.665111111111603","848","472.58333333333337","f","true","nonmatch","img/diamond.png","梯形","菱形","ALT1","formal_ALT1_2","","","","","","","","","","","",""
"null","<span style='color:GreenYellow; font-size: 70px;'>正确! </span>","null","html-keyboard-response","112","451979","0.0-7.0-1.0-4.0-0.0-1.2","4","4","4","4","2","4","3","4","4","4","5","5","2","4","3","5","3","2","4","4","4","3","2","2","4","4","4","4","3","0","0","1","1","1","1","1","0","0","1","0","0","1","0","1","5","2","3","1","2","5","2","3","4","1","3","798933752469397506","马","325","","","","","","","","","","","","","","","","","","","","","","","","","","","","","","feedback_test","","","","","","","","","","","",""
"629","","f","psychophysics","113","453612","0.0-7.0-1.0-4.0-0.0-0.3","4","4","4","4","2","4","3","4","4","4","5","5","2","4","3","5","3","2","4","4","4","3","2","2","4","4","4","4","3","0","0","1","1","1","1","1","0","0","1","0","0","1","0","1","5","2","3","1","2","5","2","3","4","1","3","798933752469397506","马","325","","","","nonmatch","","","","","","","","","","","","","","key","f","16.665360824742653","848","472.58333333333337","f","true","nonmatch","img/pentagon.png","菱形","五边","ALT1","formal_ALT1_2","","","","","","","","","","","",""
"null","<span style='color:GreenYellow; font-size: 70px;'>正确! </span>","null","html-keyboard-response","114","454115","0.0-7.0-1.0-4.0-0.0-1.3","4","4","4","4","2","4","3","4","4","4","5","5","2","4","3","5","3","2","4","4","4","3","2","2","4","4","4","4","3","0","0","1","1","1","1","1","0","0","1","0","0","1","0","1","5","2","3","1","2","5","2","3","4","1","3","798933752469397506","马","325","","","","","","","","","","","","","","","","","","","","","","","","","","","","","","feedback_test","","","","","","","","","","","",""
"637","","j","psychophysics","115","455760","0.0-7.0-1.0-4.0-0.0-0.4","4","4","4","4","2","4","3","4","4","4","5","5","2","4","3","5","3","2","4","4","4","3","2","2","4","4","4","4","3","0","0","1","1","1","1","1","0","0","1","0","0","1","0","1","5","2","3","1","2","5","2","3","4","1","3","798933752469397506","马","325","","","","match","","","","","","","","","","","","","","key","j","16.665510204081347","848","472.58333333333337","j","true","match","img/ellipse.png","椭圆","椭圆","ALT1","formal_ALT1_2","","","","","","","","","","","",""
"null","<span style='color:GreenYellow; font-size: 70px;'>正确! </span>","null","html-keyboard-response","116","456267","0.0-7.0-1.0-4.0-0.0-1.4","4","4","4","4","2","4","3","4","4","4","5","5","2","4","3","5","3","2","4","4","4","3","2","2","4","4","4","4","3","0","0","1","1","1","1","1","0","0","1","0","0","1","0","1","5","2","3","1","2","5","2","3","4","1","3","798933752469397506","马","325","","","","","","","","","","","","","","","","","","","","","","","","","","","","","","feedback_test","","","","","","","","","","","",""
"605","","j","psychophysics","117","457873","0.0-7.0-1.0-4.0-0.0-0.5","4","4","4","4","2","4","3","4","4","4","5","5","2","4","3","5","3","2","4","4","4","3","2","2","4","4","4","4","3","0","0","1","1","1","1","1","0","0","1","0","0","1","0","1","5","2","3","1","2","5","2","3","4","1","3","798933752469397506","马","325","","","","match","","","","","","","","","","","","","","key","j","16.665833333333165","848","472.58333333333337","j","true","match","img/pentagon.png","五边","五边","ALT1","formal_ALT1_2","","","","","","","","","","","",""
"null","<span style='color:GreenYellow; font-size: 70px;'>正确! </span>","null","html-keyboard-response","118","458383","0.0-7.0-1.0-4.0-0.0-1.5","4","4","4","4","2","4","3","4","4","4","5","5","2","4","3","5","3","2","4","4","4","3","2","2","4","4","4","4","3","0","0","1","1","1","1","1","0","0","1","0","0","1","0","1","5","2","3","1","2","5","2","3","4","1","3","798933752469397506","马","325","","","","","","","","","","","","","","","","","","","","","","","","","","","","","","feedback_test","","","","","","","","","","","",""
"498","","j","psychophysics","119","459885","0.0-7.0-1.0-4.0-0.0-0.6","4","4","4","4","2","4","3","4","4","4","5","5","2","4","3","5","3","2","4","4","4","3","2","2","4","4","4","4","3","0","0","1","1","1","1","1","0","0","1","0","0","1","0","1","5","2","3","1","2","5","2","3","4","1","3","798933752469397506","马","325","","","","match","","","","","","","","","","","","","","key","j","16.66539325842665","848","472.58333333333337","f","false","nonmatch","img/pentagon.png","梯形","五边","ALT1","formal_ALT1_2","","","","","","","","","","","",""
"null","<span style='color:red; font-size: 70px;'>错误! </span>","null","html-keyboard-response","120","460396","0.0-7.0-1.0-4.0-0.0-1.6","4","4","4","4","2","4","3","4","4","4","5","5","2","4","3","5","3","2","4","4","4","3","2","2","4","4","4","4","3","0","0","1","1","1","1","1","0","0","1","0","0","1","0","1","5","2","3","1","2","5","2","3","4","1","3","798933752469397506","马","325","","","","","","","","","","","","","","","","","","","","","","","","","","","","","","feedback_test","","","","","","","","","","","",""
"579","","f","psychophysics","121","461976","0.0-7.0-1.0-4.0-0.0-0.7","4","4","4","4","2","4","3","4","4","4","5","5","2","4","3","5","3","2","4","4","4","3","2","2","4","4","4","4","3","0","0","1","1","1","1","1","0","0","1","0","0","1","0","1","5","2","3","1","2","5","2","3","4","1","3","798933752469397506","马","325","","","","nonmatch","","","","","","","","","","","","","","key","f","16.664893617021278","848","472.58333333333337","f","true","nonmatch","img/trapezoid.png","五边","梯形","ALT1","formal_ALT1_2","","","","","","","","","","","",""
"null","<span style='color:GreenYellow; font-size: 70px;'>正确! </span>","null","html-keyboard-response","122","462484","0.0-7.0-1.0-4.0-0.0-1.7","4","4","4","4","2","4","3","4","4","4","5","5","2","4","3","5","3","2","4","4","4","3","2","2","4","4","4","4","3","0","0","1","1","1","1","1","0","0","1","0","0","1","0","1","5","2","3","1","2","5","2","3","4","1","3","798933752469397506","马","325","","","","","","","","","","","","","","","","","","","","","","","","","","","","","","feedback_test","","","","","","","","","","","",""
"583","","j","psychophysics","123","464072","0.0-7.0-1.0-4.0-0.0-0.8","4","4","4","4","2","4","3","4","4","4","5","5","2","4","3","5","3","2","4","4","4","3","2","2","4","4","4","4","3","0","0","1","1","1","1","1","0","0","1","0","0","1","0","1","5","2","3","1","2","5","2","3","4","1","3","798933752469397506","马","325","","","","match","","","","","","","","","","","","","","key","j","16.66568421052683","848","472.58333333333337","j","true","match","img/diamond.png","菱形","菱形","ALT1","formal_ALT1_2","","","","","","","","","","","",""
"null","<span style='color:GreenYellow; font-size: 70px;'>正确! </span>","null","html-keyboard-response","124","464574","0.0-7.0-1.0-4.0-0.0-1.8","4","4","4","4","2","4","3","4","4","4","5","5","2","4","3","5","3","2","4","4","4","3","2","2","4","4","4","4","3","0","0","1","1","1","1","1","0","0","1","0","0","1","0","1","5","2","3","1","2","5","2","3","4","1","3","798933752469397506","马","325","","","","","","","","","","","","","","","","","","","","","","","","","","","","","","feedback_test","","","","","","","","","","","",""
"585","","j","psychophysics","125","466164","0.0-7.0-1.0-4.0-0.0-0.9","4","4","4","4","2","4","3","4","4","4","5","5","2","4","3","5","3","2","4","4","4","3","2","2","4","4","4","4","3","0","0","1","1","1","1","1","0","0","1","0","0","1","0","1","5","2","3","1","2","5","2","3","4","1","3","798933752469397506","马","325","","","","match","","","","","","","","","","","","","","key","j","16.664893617021278","848","472.58333333333337","j","true","match","img/ellipse.png","椭圆","椭圆","ALT1","formal_ALT1_2","","","","","","","","","","","",""
"null","<span style='color:GreenYellow; font-size: 70px;'>正确! </span>","null","html-keyboard-response","126","466677","0.0-7.0-1.0-4.0-0.0-1.9","4","4","4","4","2","4","3","4","4","4","5","5","2","4","3","5","3","2","4","4","4","3","2","2","4","4","4","4","3","0","0","1","1","1","1","1","0","0","1","0","0","1","0","1","5","2","3","1","2","5","2","3","4","1","3","798933752469397506","马","325","","","","","","","","","","","","","","","","","","","","","","","","","","","","","","feedback_test","","","","","","","","","","","",""
"604","","j","psychophysics","127","468285","0.0-7.0-1.0-4.0-0.0-0.10","4","4","4","4","2","4","3","4","4","4","5","5","2","4","3","5","3","2","4","4","4","3","2","2","4","4","4","4","3","0","0","1","1","1","1","1","0","0","1","0","0","1","0","1","5","2","3","1","2","5","2","3","4","1","3","798933752469397506","马","325","","","","match","","","","","","","","","","","","","","key","j","16.66526315789486","848","472.58333333333337","j","true","match","img/pentagon.png","五边","五边","ALT1","formal_ALT1_2","","","","","","","","","","","",""
"null","<span style='color:GreenYellow; font-size: 70px;'>正确! </span>","null","html-keyboard-response","128","468841","0.0-7.0-1.0-4.0-0.0-1.10","4","4","4","4","2","4","3","4","4","4","5","5","2","4","3","5","3","2","4","4","4","3","2","2","4","4","4","4","3","0","0","1","1","1","1","1","0","0","1","0","0","1","0","1","5","2","3","1","2","5","2","3","4","1","3","798933752469397506","马","325","","","","","","","","","","","","","","","","","","","","","","","","","","","","","","feedback_test","","","","","","","","","","","",""
"523","","j","psychophysics","129","470369","0.0-7.0-1.0-4.0-0.0-0.11","4","4","4","4","2","4","3","4","4","4","5","5","2","4","3","5","3","2","4","4","4","3","2","2","4","4","4","4","3","0","0","1","1","1","1","1","0","0","1","0","0","1","0","1","5","2","3","1","2","5","2","3","4","1","3","798933752469397506","马","325","","","","match","","","","","","","","","","","","","","key","j","16.665777777777596","848","472.58333333333337","j","true","match","img/pentagon.png","五边","五边","ALT1","formal_ALT1_2","","","","","","","","","","","",""
"null","<span style='color:GreenYellow; font-size: 70px;'>正确! </span>","null","html-keyboard-response","130","470885","0.0-7.0-1.0-4.0-0.0-1.11","4","4","4","4","2","4","3","4","4","4","5","5","2","4","3","5","3","2","4","4","4","3","2","2","4","4","4","4","3","0","0","1","1","1","1","1","0","0","1","0","0","1","0","1","5","2","3","1","2","5","2","3","4","1","3","798933752469397506","马","325","","","","","","","","","","","","","","","","","","","","","","","","","","","","","","feedback_test","","","","","","","","","","","",""
"693","","j","psychophysics","131","472584","0.0-7.0-1.0-4.0-0.0-0.12","4","4","4","4","2","4","3","4","4","4","5","5","2","4","3","5","3","2","4","4","4","3","2","2","4","4","4","4","3","0","0","1","1","1","1","1","0","0","1","0","0","1","0","1","5","2","3","1","2","5","2","3","4","1","3","798933752469397506","马","325","","","","match","","","","","","","","","","","","","","key","j","16.665399999999792","848","472.58333333333337","j","true","match","img/trapezoid.png","梯形","梯形","ALT1","formal_ALT1_2","","","","","","","","","","","",""
"null","<span style='color:GreenYellow; font-size: 70px;'>正确! </span>","null","html-keyboard-response","132","473119","0.0-7.0-1.0-4.0-0.0-1.12","4","4","4","4","2","4","3","4","4","4","5","5","2","4","3","5","3","2","4","4","4","3","2","2","4","4","4","4","3","0","0","1","1","1","1","1","0","0","1","0","0","1","0","1","5","2","3","1","2","5","2","3","4","1","3","798933752469397506","马","325","","","","","","","","","","","","","","","","","","","","","","","","","","","","","","feedback_test","","","","","","","","","","","",""
"605","","f","psychophysics","133","474732","0.0-7.0-1.0-4.0-0.0-0.13","4","4","4","4","2","4","3","4","4","4","5","5","2","4","3","5","3","2","4","4","4","3","2","2","4","4","4","4","3","0","0","1","1","1","1","1","0","0","1","0","0","1","0","1","5","2","3","1","2","5","2","3","4","1","3","798933752469397506","马","325","","","","nonmatch","","","","","","","","","","","","","","key","f","16.665473684210845","848","472.58333333333337","f","true","nonmatch","img/pentagon.png","椭圆","五边","ALT1","formal_ALT1_2","","","","","","","","","","","",""
"null","<span style='color:GreenYellow; font-size: 70px;'>正确! </span>","null","html-keyboard-response","134","475244","0.0-7.0-1.0-4.0-0.0-1.13","4","4","4","4","2","4","3","4","4","4","5","5","2","4","3","5","3","2","4","4","4","3","2","2","4","4","4","4","3","0","0","1","1","1","1","1","0","0","1","0","0","1","0","1","5","2","3","1","2","5","2","3","4","1","3","798933752469397506","马","325","","","","","","","","","","","","","","","","","","","","","","","","","","","","","","feedback_test","","","","","","","","","","","",""
"761","","f","psychophysics","135","477013","0.0-7.0-1.0-4.0-0.0-0.14","4","4","4","4","2","4","3","4","4","4","5","5","2","4","3","5","3","2","4","4","4","3","2","2","4","4","4","4","3","0","0","1","1","1","1","1","0","0","1","0","0","1","0","1","5","2","3","1","2","5","2","3","4","1","3","798933752469397506","马","325","","","","nonmatch","","","","","","","","","","","","","","key","f","16.665904761904606","848","472.58333333333337","f","true","nonmatch","img/ellipse.png","五边","椭圆","ALT1","formal_ALT1_2","","","","","","","","","","","",""
"null","<span style='color:GreenYellow; font-size: 70px;'>正确! </span>","null","html-keyboard-response","136","477519","0.0-7.0-1.0-4.0-0.0-1.14","4","4","4","4","2","4","3","4","4","4","5","5","2","4","3","5","3","2","4","4","4","3","2","2","4","4","4","4","3","0","0","1","1","1","1","1","0","0","1","0","0","1","0","1","5","2","3","1","2","5","2","3","4","1","3","798933752469397506","马","325","","","","","","","","","","","","","","","","","","","","","","","","","","","","","","feedback_test","","","","","","","","","","","",""
"755","","j","psychophysics","137","479280","0.0-7.0-1.0-4.0-0.0-0.15","4","4","4","4","2","4","3","4","4","4","5","5","2","4","3","5","3","2","4","4","4","3","2","2","4","4","4","4","3","0","0","1","1","1","1","1","0","0","1","0","0","1","0","1","5","2","3","1","2","5","2","3","4","1","3","798933752469397506","马","325","","","","match","","","","","","","","","","","","","","key","j","16.66576923076914","848","472.58333333333337","j","true","match","img/trapezoid.png","梯形","梯形","ALT1","formal_ALT1_2","","","","","","","","","","","",""
"null","<span style='color:GreenYellow; font-size: 70px;'>正确! </span>","null","html-keyboard-response","138","479781","0.0-7.0-1.0-4.0-0.0-1.15","4","4","4","4","2","4","3","4","4","4","5","5","2","4","3","5","3","2","4","4","4","3","2","2","4","4","4","4","3","0","0","1","1","1","1","1","0","0","1","0","0","1","0","1","5","2","3","1","2","5","2","3","4","1","3","798933752469397506","马","325","","","","","","","","","","","","","","","","","","","","","","","","","","","","","","feedback_test","","","","","","","","","","","",""
"728","","f","psychophysics","139","481518","0.0-7.0-1.0-4.0-0.0-0.16","4","4","4","4","2","4","3","4","4","4","5","5","2","4","3","5","3","2","4","4","4","3","2","2","4","4","4","4","3","0","0","1","1","1","1","1","0","0","1","0","0","1","0","1","5","2","3","1","2","5","2","3","4","1","3","798933752469397506","马","325","","","","nonmatch","","","","","","","","","","","","","","key","f","16.66504854368932","848","472.58333333333337","f","true","nonmatch","img/ellipse.png","梯形","椭圆","ALT1","formal_ALT1_2","","","","","","","","","","","",""
"null","<span style='color:GreenYellow; font-size: 70px;'>正确! </span>","null","html-keyboard-response","140","482030","0.0-7.0-1.0-4.0-0.0-1.16","4","4","4","4","2","4","3","4","4","4","5","5","2","4","3","5","3","2","4","4","4","3","2","2","4","4","4","4","3","0","0","1","1","1","1","1","0","0","1","0","0","1","0","1","5","2","3","1","2","5","2","3","4","1","3","798933752469397506","马","325","","","","","","","","","","","","","","","","","","","","","","","","","","","","","","feedback_test","","","","","","","","","","","",""
"589","","f","psychophysics","141","483620","0.0-7.0-1.0-4.0-0.0-0.17","4","4","4","4","2","4","3","4","4","4","5","5","2","4","3","5","3","2","4","4","4","3","2","2","4","4","4","4","3","0","0","1","1","1","1","1","0","0","1","0","0","1","0","1","5","2","3","1","2","5","2","3","4","1","3","798933752469397506","马","325","","","","nonmatch","","","","","","","","","","","","","","key","f","16.664893617021278","848","472.58333333333337","f","true","nonmatch","img/diamond.png","椭圆","菱形","ALT1","formal_ALT1_2","","","","","","","","","","","",""
"null","<span style='color:GreenYellow; font-size: 70px;'>正确! </span>","null","html-keyboard-response","142","484129","0.0-7.0-1.0-4.0-0.0-1.17","4","4","4","4","2","4","3","4","4","4","5","5","2","4","3","5","3","2","4","4","4","3","2","2","4","4","4","4","3","0","0","1","1","1","1","1","0","0","1","0","0","1","0","1","5","2","3","1","2","5","2","3","4","1","3","798933752469397506","马","325","","","","","","","","","","","","","","","","","","","","","","","","","","","","","","feedback_test","","","","","","","","","","","",""
"567","","f","psychophysics","143","485700","0.0-7.0-1.0-4.0-0.0-0.18","4","4","4","4","2","4","3","4","4","4","5","5","2","4","3","5","3","2","4","4","4","3","2","2","4","4","4","4","3","0","0","1","1","1","1","1","0","0","1","0","0","1","0","1","5","2","3","1","2","5","2","3","4","1","3","798933752469397506","马","325","","","","nonmatch","","","","","","","","","","","","","","key","f","16.665161290323056","848","472.58333333333337","f","true","nonmatch","img/diamond.png","五边","菱形","ALT1","formal_ALT1_2","","","","","","","","","","","",""
"null","<span style='color:GreenYellow; font-size: 70px;'>正确! </span>","null","html-keyboard-response","144","486203","0.0-7.0-1.0-4.0-0.0-1.18","4","4","4","4","2","4","3","4","4","4","5","5","2","4","3","5","3","2","4","4","4","3","2","2","4","4","4","4","3","0","0","1","1","1","1","1","0","0","1","0","0","1","0","1","5","2","3","1","2","5","2","3","4","1","3","798933752469397506","马","325","","","","","","","","","","","","","","","","","","","","","","","","","","","","","","feedback_test","","","","","","","","","","","",""
"433","","f","psychophysics","145","487753","0.0-7.0-1.0-4.0-0.0-0.19","4","4","4","4","2","4","3","4","4","4","5","5","2","4","3","5","3","2","4","4","4","3","2","2","4","4","4","4","3","0","0","1","1","1","1","1","0","0","1","0","0","1","0","1","5","2","3","1","2","5","2","3","4","1","3","798933752469397506","马","325","","","","nonmatch","","","","","","","","","","","","","","key","f","16.66549450549448","848","472.58333333333337","j","false","match","img/diamond.png","菱形","菱形","ALT1","formal_ALT1_2","","","","","","","","","","","",""
"null","<span style='color:red; font-size: 70px;'>错误! </span>","null","html-keyboard-response","146","488260","0.0-7.0-1.0-4.0-0.0-1.19","4","4","4","4","2","4","3","4","4","4","5","5","2","4","3","5","3","2","4","4","4","3","2","2","4","4","4","4","3","0","0","1","1","1","1","1","0","0","1","0","0","1","0","1","5","2","3","1","2","5","2","3","4","1","3","798933752469397506","马","325","","","","","","","","","","","","","","","","","","","","","","","","","","","","","","feedback_test","","","","","","","","","","","",""
"457","","j","psychophysics","147","489784","0.0-7.0-1.0-4.0-0.0-0.20","4","4","4","4","2","4","3","4","4","4","5","5","2","4","3","5","3","2","4","4","4","3","2","2","4","4","4","4","3","0","0","1","1","1","1","1","0","0","1","0","0","1","0","1","5","2","3","1","2","5","2","3","4","1","3","798933752469397506","马","325","","","","match","","","","","","","","","","","","","","key","j","16.665555555555166","848","472.58333333333337","j","true","match","img/ellipse.png","椭圆","椭圆","ALT1","formal_ALT1_2","","","","","","","","","","","",""
"null","<span style='color:GreenYellow; font-size: 70px;'>正确! </span>","null","html-keyboard-response","148","490339","0.0-7.0-1.0-4.0-0.0-1.20","4","4","4","4","2","4","3","4","4","4","5","5","2","4","3","5","3","2","4","4","4","3","2","2","4","4","4","4","3","0","0","1","1","1","1","1","0","0","1","0","0","1","0","1","5","2","3","1","2","5","2","3","4","1","3","798933752469397506","马","325","","","","","","","","","","","","","","","","","","","","","","","","","","","","","","feedback_test","","","","","","","","","","","",""
"551","","j","psychophysics","149","491900","0.0-7.0-1.0-4.0-0.0-0.21","4","4","4","4","2","4","3","4","4","4","5","5","2","4","3","5","3","2","4","4","4","3","2","2","4","4","4","4","3","0","0","1","1","1","1","1","0","0","1","0","0","1","0","1","5","2","3","1","2","5","2","3","4","1","3","798933752469397506","马","325","","","","match","","","","","","","","","","","","","","key","j","16.665434782608394","848","472.58333333333337","f","false","nonmatch","img/ellipse.png","菱形","椭圆","ALT1","formal_ALT1_2","","","","","","","","","","","",""
"null","<span style='color:red; font-size: 70px;'>错误! </span>","null","html-keyboard-response","150","492403","0.0-7.0-1.0-4.0-0.0-1.21","4","4","4","4","2","4","3","4","4","4","5","5","2","4","3","5","3","2","4","4","4","3","2","2","4","4","4","4","3","0","0","1","1","1","1","1","0","0","1","0","0","1","0","1","5","2","3","1","2","5","2","3","4","1","3","798933752469397506","马","325","","","","","","","","","","","","","","","","","","","","","","","","","","","","","","feedback_test","","","","","","","","","","","",""
"667","","f","psychophysics","151","494076","0.0-7.0-1.0-4.0-0.0-0.22","4","4","4","4","2","4","3","4","4","4","5","5","2","4","3","5","3","2","4","4","4","3","2","2","4","4","4","4","3","0","0","1","1","1","1","1","0","0","1","0","0","1","0","1","5","2","3","1","2","5","2","3","4","1","3","798933752469397506","马","325","","","","nonmatch","","","","","","","","","","","","","","key","f","16.66585858585842","848","472.58333333333337","f","true","nonmatch","img/trapezoid.png","椭圆","梯形","ALT1","formal_ALT1_2","","","","","","","","","","","",""
"null","<span style='color:GreenYellow; font-size: 70px;'>正确! </span>","null","html-keyboard-response","152","494586","0.0-7.0-1.0-4.0-0.0-1.22","4","4","4","4","2","4","3","4","4","4","5","5","2","4","3","5","3","2","4","4","4","3","2","2","4","4","4","4","3","0","0","1","1","1","1","1","0","0","1","0","0","1","0","1","5","2","3","1","2","5","2","3","4","1","3","798933752469397506","马","325","","","","","","","","","","","","","","","","","","","","","","","","","","","","","","feedback_test","","","","","","","","","","","",""
"617","","j","psychophysics","153","496212","0.0-7.0-1.0-4.0-0.0-0.23","4","4","4","4","2","4","3","4","4","4","5","5","2","4","3","5","3","2","4","4","4","3","2","2","4","4","4","4","3","0","0","1","1","1","1","1","0","0","1","0","0","1","0","1","5","2","3","1","2","5","2","3","4","1","3","798933752469397506","马","325","","","","match","","","","","","","","","","","","","","key","j","16.66583333333377","848","472.58333333333337","f","false","nonmatch","img/trapezoid.png","菱形","梯形","ALT1","formal_ALT1_2","","","","","","","","","","","",""
"null","<span style='color:red; font-size: 70px;'>错误! </span>","null","html-keyboard-response","154","496722","0.0-7.0-1.0-4.0-0.0-1.23","4","4","4","4","2","4","3","4","4","4","5","5","2","4","3","5","3","2","4","4","4","3","2","2","4","4","4","4","3","0","0","1","1","1","1","1","0","0","1","0","0","1","0","1","5","2","3","1","2","5","2","3","4","1","3","798933752469397506","马","325","","","","","","","","","","","","","","","","","","","","","","","","","","","","","","feedback_test","","","","","","","","","","","",""
"574","","f","psychophysics","155","498300","0.0-7.0-1.0-4.0-0.0-0.24","4","4","4","4","2","4","3","4","4","4","5","5","2","4","3","5","3","2","4","4","4","3","2","2","4","4","4","4","3","0","0","1","1","1","1","1","0","0","1","0","0","1","0","1","5","2","3","1","2","5","2","3","4","1","3","798933752469397506","马","325","","","","nonmatch","","","","","","","","","","","","","","key","f","16.66516129032243","848","472.58333333333337","f","true","nonmatch","img/pentagon.png","菱形","五边","ALT1","formal_ALT1_2","","","","","","","","","","","",""
"null","<span style='color:GreenYellow; font-size: 70px;'>正确! </span>","null","html-keyboard-response","156","498814","0.0-7.0-1.0-4.0-0.0-1.24","4","4","4","4","2","4","3","4","4","4","5","5","2","4","3","5","3","2","4","4","4","3","2","2","4","4","4","4","3","0","0","1","1","1","1","1","0","0","1","0","0","1","0","1","5","2","3","1","2","5","2","3","4","1","3","798933752469397506","马","325","","","","","","","","","","","","","","","","","","","","","","","","","","","","","","feedback_test","","","","","","","","","","","",""
"734","","j","psychophysics","157","500552","0.0-7.0-1.0-4.0-0.0-0.25","4","4","4","4","2","4","3","4","4","4","5","5","2","4","3","5","3","2","4","4","4","3","2","2","4","4","4","4","3","0","0","1","1","1","1","1","0","0","1","0","0","1","0","1","5","2","3","1","2","5","2","3","4","1","3","798933752469397506","马","325","","","","match","","","","","","","","","","","","","","key","j","16.66504854368932","848","472.58333333333337","j","true","match","img/trapezoid.png","梯形","梯形","ALT1","formal_ALT1_2","","","","","","","","","","","",""
"null","<span style='color:GreenYellow; font-size: 70px;'>正确! </span>","null","html-keyboard-response","158","501059","0.0-7.0-1.0-4.0-0.0-1.25","4","4","4","4","2","4","3","4","4","4","5","5","2","4","3","5","3","2","4","4","4","3","2","2","4","4","4","4","3","0","0","1","1","1","1","1","0","0","1","0","0","1","0","1","5","2","3","1","2","5","2","3","4","1","3","798933752469397506","马","325","","","","","","","","","","","","","","","","","","","","","","","","","","","","","","feedback_test","","","","","","","","","","","",""
"726","","f","psychophysics","159","502788","0.0-7.0-1.0-4.0-0.0-0.26","4","4","4","4","2","4","3","4","4","4","5","5","2","4","3","5","3","2","4","4","4","3","2","2","4","4","4","4","3","0","0","1","1","1","1","1","0","0","1","0","0","1","0","1","5","2","3","1","2","5","2","3","4","1","3","798933752469397506","马","325","","","","nonmatch","","","","","","","","","","","","","","key","f","16.66524271844622","848","472.58333333333337","f","true","nonmatch","img/ellipse.png","菱形","椭圆","ALT1","formal_ALT1_2","","","","","","","","","","","",""
"null","<span style='color:GreenYellow; font-size: 70px;'>正确! </span>","null","html-keyboard-response","160","503289","0.0-7.0-1.0-4.0-0.0-1.26","4","4","4","4","2","4","3","4","4","4","5","5","2","4","3","5","3","2","4","4","4","3","2","2","4","4","4","4","3","0","0","1","1","1","1","1","0","0","1","0","0","1","0","1","5","2","3","1","2","5","2","3","4","1","3","798933752469397506","马","325","","","","","","","","","","","","","","","","","","","","","","","","","","","","","","feedback_test","","","","","","","","","","","",""
"723","","f","psychophysics","161","505020","0.0-7.0-1.0-4.0-0.0-0.27","4","4","4","4","2","4","3","4","4","4","5","5","2","4","3","5","3","2","4","4","4","3","2","2","4","4","4","4","3","0","0","1","1","1","1","1","0","0","1","0","0","1","0","1","5","2","3","1","2","5","2","3","4","1","3","798933752469397506","马","325","","","","nonmatch","","","","","","","","","","","","","","key","f","16.665631067961144","848","472.58333333333337","f","true","nonmatch","img/trapezoid.png","五边","梯形","ALT1","formal_ALT1_2","","","","","","","","","","","",""
"null","<span style='color:GreenYellow; font-size: 70px;'>正确! </span>","null","html-keyboard-response","162","505535","0.0-7.0-1.0-4.0-0.0-1.27","4","4","4","4","2","4","3","4","4","4","5","5","2","4","3","5","3","2","4","4","4","3","2","2","4","4","4","4","3","0","0","1","1","1","1","1","0","0","1","0","0","1","0","1","5","2","3","1","2","5","2","3","4","1","3","798933752469397506","马","325","","","","","","","","","","","","","","","","","","","","","","","","","","","","","","feedback_test","","","","","","","","","","","",""
"521","","j","psychophysics","163","507184","0.0-7.0-1.0-4.0-0.0-0.28","4","4","4","4","2","4","3","4","4","4","5","5","2","4","3","5","3","2","4","4","4","3","2","2","4","4","4","4","3","0","0","1","1","1","1","1","0","0","1","0","0","1","0","1","5","2","3","1","2","5","2","3","4","1","3","798933752469397506","马","325","","","","match","","","","","","","","","","","","","","key","j","16.66515463917485","848","472.58333333333337","j","true","match","img/diamond.png","菱形","菱形","ALT1","formal_ALT1_2","","","","","","","","","","","",""
"null","<span style='color:GreenYellow; font-size: 70px;'>正确! </span>","null","html-keyboard-response","164","507749","0.0-7.0-1.0-4.0-0.0-1.28","4","4","4","4","2","4","3","4","4","4","5","5","2","4","3","5","3","2","4","4","4","3","2","2","4","4","4","4","3","0","0","1","1","1","1","1","0","0","1","0","0","1","0","1","5","2","3","1","2","5","2","3","4","1","3","798933752469397506","马","325","","","","","","","","","","","","","","","","","","","","","","","","","","","","","","feedback_test","","","","","","","","","","","",""
"642","","j","psychophysics","165","509408","0.0-7.0-1.0-4.0-0.0-0.29","4","4","4","4","2","4","3","4","4","4","5","5","2","4","3","5","3","2","4","4","4","3","2","2","4","4","4","4","3","0","0","1","1","1","1","1","0","0","1","0","0","1","0","1","5","2","3","1","2","5","2","3","4","1","3","798933752469397506","马","325","","","","match","","","","","","","","","","","","","","key","j","16.665102040816254","848","472.58333333333337","j","true","match","img/trapezoid.png","梯形","梯形","ALT1","formal_ALT1_2","","","","","","","","","","","",""
"null","<span style='color:GreenYellow; font-size: 70px;'>正确! </span>","null","html-keyboard-response","166","509910","0.0-7.0-1.0-4.0-0.0-1.29","4","4","4","4","2","4","3","4","4","4","5","5","2","4","3","5","3","2","4","4","4","3","2","2","4","4","4","4","3","0","0","1","1","1","1","1","0","0","1","0","0","1","0","1","5","2","3","1","2","5","2","3","4","1","3","798933752469397506","马","325","","","","","","","","","","","","","","","","","","","","","","","","","","","","","","feedback_test","","","","","","","","","","","",""
"587","","j","psychophysics","167","511500","0.0-7.0-1.0-4.0-0.0-0.30","4","4","4","4","2","4","3","4","4","4","5","5","2","4","3","5","3","2","4","4","4","3","2","2","4","4","4","4","3","0","0","1","1","1","1","1","0","0","1","0","0","1","0","1","5","2","3","1","2","5","2","3","4","1","3","798933752469397506","马","325","","","","match","","","","","","","","","","","","","","key","j","16.66553191489421","848","472.58333333333337","j","true","match","img/trapezoid.png","梯形","梯形","ALT1","formal_ALT1_2","","","","","","","","","","","",""
"null","<span style='color:GreenYellow; font-size: 70px;'>正确! </span>","null","html-keyboard-response","168","512011","0.0-7.0-1.0-4.0-0.0-1.30","4","4","4","4","2","4","3","4","4","4","5","5","2","4","3","5","3","2","4","4","4","3","2","2","4","4","4","4","3","0","0","1","1","1","1","1","0","0","1","0","0","1","0","1","5","2","3","1","2","5","2","3","4","1","3","798933752469397506","马","325","","","","","","","","","","","","","","","","","","","","","","","","","","","","","","feedback_test","","","","","","","","","","","",""
"740","","j","psychophysics","169","513757","0.0-7.0-1.0-4.0-0.0-0.31","4","4","4","4","2","4","3","4","4","4","5","5","2","4","3","5","3","2","4","4","4","3","2","2","4","4","4","4","3","0","0","1","1","1","1","1","0","0","1","0","0","1","0","1","5","2","3","1","2","5","2","3","4","1","3","798933752469397506","马","325","","","","match","","","","","","","","","","","","","","key","j","16.6657692307697","848","472.58333333333337","j","true","match","img/pentagon.png","五边","五边","ALT1","formal_ALT1_2","","","","","","","","","","","",""
"null","<span style='color:GreenYellow; font-size: 70px;'>正确! </span>","null","html-keyboard-response","170","514271","0.0-7.0-1.0-4.0-0.0-1.31","4","4","4","4","2","4","3","4","4","4","5","5","2","4","3","5","3","2","4","4","4","3","2","2","4","4","4","4","3","0","0","1","1","1","1","1","0","0","1","0","0","1","0","1","5","2","3","1","2","5","2","3","4","1","3","798933752469397506","马","325","","","","","","","","","","","","","","","","","","","","","","","","","","","","","","feedback_test","","","","","","","","","","","",""
"687","","f","psychophysics","171","515960","0.0-7.0-1.0-4.0-0.0-0.32","4","4","4","4","2","4","3","4","4","4","5","5","2","4","3","5","3","2","4","4","4","3","2","2","4","4","4","4","3","0","0","1","1","1","1","1","0","0","1","0","0","1","0","1","5","2","3","1","2","5","2","3","4","1","3","798933752469397506","马","325","","","","nonmatch","","","","","","","","","","","","","","key","f","16.665800000000164","848","472.58333333333337","f","true","nonmatch","img/diamond.png","椭圆","菱形","ALT1","formal_ALT1_2","","","","","","","","","","","",""
"null","<span style='color:GreenYellow; font-size: 70px;'>正确! </span>","null","html-keyboard-response","172","516464","0.0-7.0-1.0-4.0-0.0-1.32","4","4","4","4","2","4","3","4","4","4","5","5","2","4","3","5","3","2","4","4","4","3","2","2","4","4","4","4","3","0","0","1","1","1","1","1","0","0","1","0","0","1","0","1","5","2","3","1","2","5","2","3","4","1","3","798933752469397506","马","325","","","","","","","","","","","","","","","","","","","","","","","","","","","","","","feedback_test","","","","","","","","","","","",""
"552","","j","psychophysics","173","518023","0.0-7.0-1.0-4.0-0.0-0.33","4","4","4","4","2","4","3","4","4","4","5","5","2","4","3","5","3","2","4","4","4","3","2","2","4","4","4","4","3","0","0","1","1","1","1","1","0","0","1","0","0","1","0","1","5","2","3","1","2","5","2","3","4","1","3","798933752469397506","马","325","","","","match","","","","","","","","","","","","","","key","j","16.665806451612728","848","472.58333333333337","j","true","match","img/ellipse.png","椭圆","椭圆","ALT1","formal_ALT1_2","","","","","","","","","","","",""
"null","<span style='color:GreenYellow; font-size: 70px;'>正确! </span>","null","html-keyboard-response","174","518539","0.0-7.0-1.0-4.0-0.0-1.33","4","4","4","4","2","4","3","4","4","4","5","5","2","4","3","5","3","2","4","4","4","3","2","2","4","4","4","4","3","0","0","1","1","1","1","1","0","0","1","0","0","1","0","1","5","2","3","1","2","5","2","3","4","1","3","798933752469397506","马","325","","","","","","","","","","","","","","","","","","","","","","","","","","","","","","feedback_test","","","","","","","","","","","",""
"629","","f","psychophysics","175","520172","0.0-7.0-1.0-4.0-0.0-0.34","4","4","4","4","2","4","3","4","4","4","5","5","2","4","3","5","3","2","4","4","4","3","2","2","4","4","4","4","3","0","0","1","1","1","1","1","0","0","1","0","0","1","0","1","5","2","3","1","2","5","2","3","4","1","3","798933752469397506","马","325","","","","nonmatch","","","","","","","","","","","","","","key","f","16.665567010309253","848","472.58333333333337","f","true","nonmatch","img/pentagon.png","椭圆","五边","ALT1","formal_ALT1_2","","","","","","","","","","","",""
"null","<span style='color:GreenYellow; font-size: 70px;'>正确! </span>","null","html-keyboard-response","176","520676","0.0-7.0-1.0-4.0-0.0-1.34","4","4","4","4","2","4","3","4","4","4","5","5","2","4","3","5","3","2","4","4","4","3","2","2","4","4","4","4","3","0","0","1","1","1","1","1","0","0","1","0","0","1","0","1","5","2","3","1","2","5","2","3","4","1","3","798933752469397506","马","325","","","","","","","","","","","","","","","","","","","","","","","","","","","","","","feedback_test","","","","","","","","","","","",""
"578","","j","psychophysics","177","522257","0.0-7.0-1.0-4.0-0.0-0.35","4","4","4","4","2","4","3","4","4","4","5","5","2","4","3","5","3","2","4","4","4","3","2","2","4","4","4","4","3","0","0","1","1","1","1","1","0","0","1","0","0","1","0","1","5","2","3","1","2","5","2","3","4","1","3","798933752469397506","马","325","","","","match","","","","","","","","","","","","","","key","j","16.66574468085062","848","472.58333333333337","j","true","match","img/ellipse.png","椭圆","椭圆","ALT1","formal_ALT1_2","","","","","","","","","","","",""
"null","<span style='color:GreenYellow; font-size: 70px;'>正确! </span>","null","html-keyboard-response","178","522826","0.0-7.0-1.0-4.0-0.0-1.35","4","4","4","4","2","4","3","4","4","4","5","5","2","4","3","5","3","2","4","4","4","3","2","2","4","4","4","4","3","0","0","1","1","1","1","1","0","0","1","0","0","1","0","1","5","2","3","1","2","5","2","3","4","1","3","798933752469397506","马","325","","","","","","","","","","","","","","","","","","","","","","","","","","","","","","feedback_test","","","","","","","","","","","",""
"581","","j","psychophysics","179","524411","0.0-7.0-1.0-4.0-0.0-0.36","4","4","4","4","2","4","3","4","4","4","5","5","2","4","3","5","3","2","4","4","4","3","2","2","4","4","4","4","3","0","0","1","1","1","1","1","0","0","1","0","0","1","0","1","5","2","3","1","2","5","2","3","4","1","3","798933752469397506","马","325","","","","match","","","","","","","","","","","","","","key","j","16.66574468085062","848","472.58333333333337","j","true","match","img/pentagon.png","五边","五边","ALT1","formal_ALT1_2","","","","","","","","","","","",""
