"rt","stimulus","response","trial_type","trial_index","time_elapsed","internal_node_id","ses_1","ses_2","ses_3","ses_4","ses_5","ses_6","ses_7","ses_8","ses_9","ses_10","coreself_1","coreself_2","coreself_3","coreself_4","coreself_5","coreself_6","coreself_7","coreself_8","coreself_9","coreself_10","SGPS_1","SGPS_2","SGPS_3","SGPS_4","SGPS_5","SGPS_6","SGPS_7","SGPS_8","SGPS_9","NPI1","NPI2","NPI3","NPI4","NPI5","NPI6","NPI7","NPI8","NPI9","NPI10","NPI11","NPI12","NPI13","NPI14","NPI15","hsns_1","hsns_2","hsns_3","hsns_4","hsns_5","trap1","hsns_6","hsns_7","hsns_8","hsns_9","hsns_10","subj_idx","friend_name","ParticipantID","value","success","user_agent","responses","item_order","radio_event_ids","radio_event_times","key_event_times","mouse_event_times","straightlining","zigzagging","honeypot","timeout","failed_images","failed_audio","failed_video","version_attrib2","version_target2","correct","IAT","screen_id","task_id","RT","condition","word","varname","summary","version_attrib","version_target","time_stamp","view_history","response_type","key_press","avg_frame_time","center_x","center_y","correct_response","identity","Image","question_order","correct_answer","trap1_item"
"1904","
   <p><div style = ""color: white;font-size:25px;"">您好，欢迎参加本次实验。</div> </p>
   <p><div style = ""color: white;font-size:25px;"">为充分保障您的权利，请确保您已经知晓并同意《参与实验同意书》以及《数据公开知情同意书》。</div></p>
   <p><div style = ""color: white;font-size:25px;"">如果您未见过上述内容，请咨询实验员。</div></p>
   <p><div style = ""color: white;font-size:25px;"">如果您选择继续实验，则表示您已经清楚两份知情同意书的内容并同意。</div></p>
   <p><div style = ""color: pink;font-size:30px;"">请确保您记得day0的实验编号，您将在本次实验输入该编号，若您忘记，请咨询实验员后作答。</div></p>
   <p><div style = ""color: lightblue;font-size:25px;"">请您尽可能认真地作答，我们将依据您在各问卷和按键任务中的作答质量发放报酬。</div></p>
   <p> <div style = ""color: green;font-size:25px;""><按空格键至下页></div> </p>
   "," ","html-keyboard-response","0","1905","0.0-0.0","3","3","3","3","2","2","2","3","2","2","4","1","2","2","3","2","3","2","3","2","3","4","4","2","3","2","2","3","3","1","0","1","1","0","0","1","1","0","1","1","0","0","0","0","5","4","3","1","4","2","3","4","2","2","3","682593254339772416","张","522","","","","","","","","","","","","","","","","","","","","","","","","","","","","","","","","","","","","","","","","","",""
"","","","call-function","1","1906","0.0-1.0-0.0","3","3","3","3","2","2","2","3","2","2","4","1","2","2","3","2","3","2","3","2","3","4","4","2","3","2","2","3","3","1","0","1","1","0","0","1","1","0","1","1","0","0","0","0","5","4","3","1","4","2","3","4","2","2","3","682593254339772416","张","522","","","","","","","","","","","","","","","","","","","","","","","","","","","","","","","","","","","","","","","","","",""
"206657","","{""friend_name"":""张"",""ParticipantID"":""522""}","survey-html-form","2","208563","0.0-1.0-1.0","3","3","3","3","2","2","2","3","2","2","4","1","2","2","3","2","3","2","3","2","3","4","4","2","3","2","2","3","3","1","0","1","1","0","0","1","1","0","1","1","0","0","0","0","5","4","3","1","4","2","3","4","2","2","3","682593254339772416","张","522","","","","","","","","","","","","","","","","","","","","","","","","","","","","","","","","","","","","","","","","","",""
"","","","fullscreen","3","222473","0.0-2.0","3","3","3","3","2","2","2","3","2","2","4","1","2","2","3","2","3","2","3","2","3","4","4","2","3","2","2","3","3","1","0","1","1","0","0","1","1","0","1","1","0","0","0","0","5","4","3","1","4","2","3","4","2","2","3","682593254339772416","张","522","","true","","","","","","","","","","","","","","","","","","","","","","","","","","","","","","","","","","","","","","","",""
"51312","","{""Q01"":""3"",""Q02"":""3"",""Q03"":""3"",""Q04"":""3"",""Q05"":""2"",""Q06"":""2"",""Q07"":""2"",""Q08"":""3"",""Q09"":""2"",""Q10"":""2""}","survey-template","4","273788","0.0-3.0","3","3","3","3","2","2","2","3","2","2","4","1","2","2","3","2","3","2","3","2","3","4","4","2","3","2","2","3","3","1","0","1","1","0","0","1","1","0","1","1","0","0","0","0","5","4","3","1","4","2","3","4","2","2","3","682593254339772416","张","522","","","","{""Q01"":""3"",""Q02"":""3"",""Q03"":""3"",""Q04"":""3"",""Q05"":""2"",""Q06"":""2"",""Q07"":""2"",""Q08"":""3"",""Q09"":""2"",""Q10"":""2""}","[0,1,2,3,4,5,6,7,8,9]","[""Q01"",""Q02"",""Q03"",""Q03"",""Q04"",""Q05"",""Q06"",""Q07"",""Q08"",""Q09"",""Q10""]","[6642,8791,12489,14672,15746,26632,28523,29726,32974,47725,49162]","[]","[6642,8791,12489,13712,14672,15746,19086,26632,28523,29726,32974,47725,49162,51312]","0.6","0.4444444444444444","0","","","","","","","","","","","","","","","","","","","","","","","","","","","","","",""
"47294","","{""Q01"":""4"",""Q02"":""1"",""Q03"":""2"",""Q04"":""2"",""Q05"":""3"",""Q06"":""2"",""Q07"":""3"",""Q08"":""2"",""Q09"":""3"",""Q10"":""2""}","survey-template","5","321084","0.0-4.0","3","3","3","3","2","2","2","3","2","2","4","1","2","2","3","2","3","2","3","2","3","4","4","2","3","2","2","3","3","1","0","1","1","0","0","1","1","0","1","1","0","0","0","0","5","4","3","1","4","2","3","4","2","2","3","682593254339772416","张","522","","","","{""Q01"":""4"",""Q02"":""1"",""Q03"":""2"",""Q04"":""2"",""Q05"":""3"",""Q06"":""2"",""Q07"":""3"",""Q08"":""2"",""Q09"":""3"",""Q10"":""2""}","[0,1,2,3,4,5,6,7,8,9]","[""Q02"",""Q01"",""Q03"",""Q04"",""Q05"",""Q06"",""Q07"",""Q08"",""Q09"",""Q10""]","[25710,26791,31013,32641,34025,35971,37295,39523,45237,46381]","[]","[25710,26791,28845,31013,32641,34025,35971,37295,39523,42081,43769,44613,45237,46381,47294]","0.4","0.8888888888888888","0","","","","","","","","","","","","","","","","","","","","","","","","","","","","","",""
"","","","preload","6","321540","0.0-5.0","3","3","3","3","2","2","2","3","2","2","4","1","2","2","3","2","3","2","3","2","3","4","4","2","3","2","2","3","3","1","0","1","1","0","0","1","1","0","1","1","0","0","0","0","5","4","3","1","4","2","3","4","2","2","3","682593254339772416","张","522","","true","","","","","","","","","","","false","[]","[]","[]","","","","","","","","","","","","","","","","","","","","","","","","","",""
"11507","
    <h3>词语分类任务</h3>
    <p>在接下来的任务中，你需要对一系列词语进行分类。<p/>
    请先熟悉这些词语，这有利于你完成接下来的任务。</p>
    <table align=""center"" border=1 cellpadding=3 cellspacing=0>
    <tr> <th>类别</th> <th>词语</th> </tr>
    <tr> <td>&emsp;积极&emsp;</td> <td>&emsp;高尚、诚信、善良、君子、廉正、正直&emsp;</td> </tr>
    <tr> <td>&emsp;消极&emsp;</td> <td>&emsp;缺德、卑鄙、不孝、不仁、小人、黑心&emsp;</td> </tr>
    <tr> <td>&emsp;自我&emsp;</td> <td>&emsp;我、我的、自己、自己的、本人、本人的&emsp;</td> </tr>
    <tr> <td>&emsp;他人&emsp;</td> <td>&emsp;他、他的、别人、别人的、他人、他人的&emsp;</td> </tr>
    </table><br/>","0","html-button-response","7","333047","0.0-6.0-1.0-0.0","3","3","3","3","2","2","2","3","2","2","4","1","2","2","3","2","3","2","3","2","3","4","4","2","3","2","2","3","3","1","0","1","1","0","0","1","1","0","1","1","0","0","0","0","5","4","3","1","4","2","3","4","2","2","3","682593254339772416","张","522","","","","","","","","","","","","","","","","","2","1","","","","","","","","","","","","","","","","","","","","","","","",""
"12658","
    <div class=""tag-bottom""><p>
    —— 任务1：对“自我”词和“他人”词分类 ——<p/>
    不同词语会出现在屏幕中央，类别标签将始终显示在屏幕上方<p/>   
    <span style=""color:#FFD866""><b>请根据上方标签的提示，尽可能正确并且快速地做出按键反应</b></span><p/>
    当按键错误时屏幕中会出现<span style=""color:red""> X </span>，需要按另一个键纠正才能继续<br/><p/>
    请把双手食指分别放在键盘的“E”键和“I”键上<p/>
    按<空格键>开始
    </p></div>"," ","html-keyboard-response","8","345706","0.0-6.0-1.0-1.0","3","3","3","3","2","2","2","3","2","2","4","1","2","2","3","2","3","2","3","2","3","4","4","2","3","2","2","3","3","1","0","1","1","0","0","1","1","0","1","1","0","0","0","0","5","4","3","1","4","2","3","4","2","2","3","682593254339772416","张","522","","","","","","","","","","","","","","","","","","","","","","","","","","","","","","","","","","","","","","","","","",""
"null","","null","html-keyboard-response","9","345958","0.0-6.0-1.0-2.0-0.0","3","3","3","3","2","2","2","3","2","2","4","1","2","2","3","2","3","2","3","2","3","4","4","2","3","2","2","3","3","1","0","1","1","0","0","1","1","0","1","1","0","0","0","0","5","4","3","1","4","2","3","4","2","2","3","682593254339772416","张","522","","","","","","","","","","","","","","","","","","","","","","","","","","","","","","","","","","","","","","","","","",""
"831","<p style=""color:rgb(150, 250, 100); font-size: 35px;"">别人</p>","i","categorize-html","10","346790","0.0-6.0-1.0-2.0-1.0","3","3","3","3","2","2","2","3","2","2","4","1","2","2","3","2","3","2","3","2","3","4","4","2","3","2","2","3","3","1","0","1","1","0","0","1","1","0","1","1","0","0","0","0","5","4","3","1","4","2","3","4","2","2","3","682593254339772416","张","522","","","","","","","","","","","","","","","","","","","true","11","1","moral","831","other","别人","","","","","","","","","","","","","","","","",""
"null","","null","html-keyboard-response","11","347055","0.0-6.0-1.0-2.0-0.1","3","3","3","3","2","2","2","3","2","2","4","1","2","2","3","2","3","2","3","2","3","4","4","2","3","2","2","3","3","1","0","1","1","0","0","1","1","0","1","1","0","0","0","0","5","4","3","1","4","2","3","4","2","2","3","682593254339772416","张","522","","","","","","","","","","","","","","","","","","","","","","","","","","","","","","","","","","","","","","","","","",""
"564","<p style=""color:rgb(150, 250, 100); font-size: 35px;"">他人的</p>","i","categorize-html","12","347620","0.0-6.0-1.0-2.0-1.1","3","3","3","3","2","2","2","3","2","2","4","1","2","2","3","2","3","2","3","2","3","4","4","2","3","2","2","3","3","1","0","1","1","0","0","1","1","0","1","1","0","0","0","0","5","4","3","1","4","2","3","4","2","2","3","682593254339772416","张","522","","","","","","","","","","","","","","","","","","","true","11","1","moral","564","other","他人的","","","","","","","","","","","","","","","","",""
"null","","null","html-keyboard-response","13","347873","0.0-6.0-1.0-2.0-0.2","3","3","3","3","2","2","2","3","2","2","4","1","2","2","3","2","3","2","3","2","3","4","4","2","3","2","2","3","3","1","0","1","1","0","0","1","1","0","1","1","0","0","0","0","5","4","3","1","4","2","3","4","2","2","3","682593254339772416","张","522","","","","","","","","","","","","","","","","","","","","","","","","","","","","","","","","","","","","","","","","","",""
"451","<p style=""color:rgb(150, 250, 100); font-size: 35px;"">他人</p>","i","categorize-html","14","348326","0.0-6.0-1.0-2.0-1.2","3","3","3","3","2","2","2","3","2","2","4","1","2","2","3","2","3","2","3","2","3","4","4","2","3","2","2","3","3","1","0","1","1","0","0","1","1","0","1","1","0","0","0","0","5","4","3","1","4","2","3","4","2","2","3","682593254339772416","张","522","","","","","","","","","","","","","","","","","","","true","11","1","moral","451","other","他人","","","","","","","","","","","","","","","","",""
"null","","null","html-keyboard-response","15","348590","0.0-6.0-1.0-2.0-0.3","3","3","3","3","2","2","2","3","2","2","4","1","2","2","3","2","3","2","3","2","3","4","4","2","3","2","2","3","3","1","0","1","1","0","0","1","1","0","1","1","0","0","0","0","5","4","3","1","4","2","3","4","2","2","3","682593254339772416","张","522","","","","","","","","","","","","","","","","","","","","","","","","","","","","","","","","","","","","","","","","","",""
"383","<p style=""color:rgb(150, 250, 100); font-size: 35px;"">自己</p>","e","categorize-html","16","348973","0.0-6.0-1.0-2.0-1.3","3","3","3","3","2","2","2","3","2","2","4","1","2","2","3","2","3","2","3","2","3","4","4","2","3","2","2","3","3","1","0","1","1","0","0","1","1","0","1","1","0","0","0","0","5","4","3","1","4","2","3","4","2","2","3","682593254339772416","张","522","","","","","","","","","","","","","","","","","","","true","11","1","moral","383","self","自己","","","","","","","","","","","","","","","","",""
"null","","null","html-keyboard-response","17","349228","0.0-6.0-1.0-2.0-0.4","3","3","3","3","2","2","2","3","2","2","4","1","2","2","3","2","3","2","3","2","3","4","4","2","3","2","2","3","3","1","0","1","1","0","0","1","1","0","1","1","0","0","0","0","5","4","3","1","4","2","3","4","2","2","3","682593254339772416","张","522","","","","","","","","","","","","","","","","","","","","","","","","","","","","","","","","","","","","","","","","","",""
"522","<p style=""color:rgb(150, 250, 100); font-size: 35px;"">他</p>","i","categorize-html","18","349751","0.0-6.0-1.0-2.0-1.4","3","3","3","3","2","2","2","3","2","2","4","1","2","2","3","2","3","2","3","2","3","4","4","2","3","2","2","3","3","1","0","1","1","0","0","1","1","0","1","1","0","0","0","0","5","4","3","1","4","2","3","4","2","2","3","682593254339772416","张","522","","","","","","","","","","","","","","","","","","","true","11","1","moral","522","other","他","","","","","","","","","","","","","","","","",""
"null","","null","html-keyboard-response","19","350033","0.0-6.0-1.0-2.0-0.5","3","3","3","3","2","2","2","3","2","2","4","1","2","2","3","2","3","2","3","2","3","4","4","2","3","2","2","3","3","1","0","1","1","0","0","1","1","0","1","1","0","0","0","0","5","4","3","1","4","2","3","4","2","2","3","682593254339772416","张","522","","","","","","","","","","","","","","","","","","","","","","","","","","","","","","","","","","","","","","","","","",""
"433","<p style=""color:rgb(150, 250, 100); font-size: 35px;"">别人的</p>","i","categorize-html","20","350467","0.0-6.0-1.0-2.0-1.5","3","3","3","3","2","2","2","3","2","2","4","1","2","2","3","2","3","2","3","2","3","4","4","2","3","2","2","3","3","1","0","1","1","0","0","1","1","0","1","1","0","0","0","0","5","4","3","1","4","2","3","4","2","2","3","682593254339772416","张","522","","","","","","","","","","","","","","","","","","","true","11","1","moral","433","other","别人的","","","","","","","","","","","","","","","","",""
"null","","null","html-keyboard-response","21","350730","0.0-6.0-1.0-2.0-0.6","3","3","3","3","2","2","2","3","2","2","4","1","2","2","3","2","3","2","3","2","3","4","4","2","3","2","2","3","3","1","0","1","1","0","0","1","1","0","1","1","0","0","0","0","5","4","3","1","4","2","3","4","2","2","3","682593254339772416","张","522","","","","","","","","","","","","","","","","","","","","","","","","","","","","","","","","","","","","","","","","","",""
"364","<p style=""color:rgb(150, 250, 100); font-size: 35px;"">自己的</p>","i","categorize-html","22","351841","0.0-6.0-1.0-2.0-1.6","3","3","3","3","2","2","2","3","2","2","4","1","2","2","3","2","3","2","3","2","3","4","4","2","3","2","2","3","3","1","0","1","1","0","0","1","1","0","1","1","0","0","0","0","5","4","3","1","4","2","3","4","2","2","3","682593254339772416","张","522","","","","","","","","","","","","","","","","","","","false","11","1","moral","364","self","自己的","","","","","","","","","","","","","","","","",""
"null","","null","html-keyboard-response","23","352094","0.0-6.0-1.0-2.0-0.7","3","3","3","3","2","2","2","3","2","2","4","1","2","2","3","2","3","2","3","2","3","4","4","2","3","2","2","3","3","1","0","1","1","0","0","1","1","0","1","1","0","0","0","0","5","4","3","1","4","2","3","4","2","2","3","682593254339772416","张","522","","","","","","","","","","","","","","","","","","","","","","","","","","","","","","","","","","","","","","","","","",""
"598","<p style=""color:rgb(150, 250, 100); font-size: 35px;"">本人的</p>","e","categorize-html","24","352694","0.0-6.0-1.0-2.0-1.7","3","3","3","3","2","2","2","3","2","2","4","1","2","2","3","2","3","2","3","2","3","4","4","2","3","2","2","3","3","1","0","1","1","0","0","1","1","0","1","1","0","0","0","0","5","4","3","1","4","2","3","4","2","2","3","682593254339772416","张","522","","","","","","","","","","","","","","","","","","","true","11","1","moral","598","self","本人的","","","","","","","","","","","","","","","","",""
"null","","null","html-keyboard-response","25","352947","0.0-6.0-1.0-2.0-0.8","3","3","3","3","2","2","2","3","2","2","4","1","2","2","3","2","3","2","3","2","3","4","4","2","3","2","2","3","3","1","0","1","1","0","0","1","1","0","1","1","0","0","0","0","5","4","3","1","4","2","3","4","2","2","3","682593254339772416","张","522","","","","","","","","","","","","","","","","","","","","","","","","","","","","","","","","","","","","","","","","","",""
"425","<p style=""color:rgb(150, 250, 100); font-size: 35px;"">我的</p>","e","categorize-html","26","353374","0.0-6.0-1.0-2.0-1.8","3","3","3","3","2","2","2","3","2","2","4","1","2","2","3","2","3","2","3","2","3","4","4","2","3","2","2","3","3","1","0","1","1","0","0","1","1","0","1","1","0","0","0","0","5","4","3","1","4","2","3","4","2","2","3","682593254339772416","张","522","","","","","","","","","","","","","","","","","","","true","11","1","moral","425","self","我的","","","","","","","","","","","","","","","","",""
"null","","null","html-keyboard-response","27","353632","0.0-6.0-1.0-2.0-0.9","3","3","3","3","2","2","2","3","2","2","4","1","2","2","3","2","3","2","3","2","3","4","4","2","3","2","2","3","3","1","0","1","1","0","0","1","1","0","1","1","0","0","0","0","5","4","3","1","4","2","3","4","2","2","3","682593254339772416","张","522","","","","","","","","","","","","","","","","","","","","","","","","","","","","","","","","","","","","","","","","","",""
"399","<p style=""color:rgb(150, 250, 100); font-size: 35px;"">本人</p>","e","categorize-html","28","354033","0.0-6.0-1.0-2.0-1.9","3","3","3","3","2","2","2","3","2","2","4","1","2","2","3","2","3","2","3","2","3","4","4","2","3","2","2","3","3","1","0","1","1","0","0","1","1","0","1","1","0","0","0","0","5","4","3","1","4","2","3","4","2","2","3","682593254339772416","张","522","","","","","","","","","","","","","","","","","","","true","11","1","moral","399","self","本人","","","","","","","","","","","","","","","","",""
"null","","null","html-keyboard-response","29","354285","0.0-6.0-1.0-2.0-0.10","3","3","3","3","2","2","2","3","2","2","4","1","2","2","3","2","3","2","3","2","3","4","4","2","3","2","2","3","3","1","0","1","1","0","0","1","1","0","1","1","0","0","0","0","5","4","3","1","4","2","3","4","2","2","3","682593254339772416","张","522","","","","","","","","","","","","","","","","","","","","","","","","","","","","","","","","","","","","","","","","","",""
"465","<p style=""color:rgb(150, 250, 100); font-size: 35px;"">我</p>","e","categorize-html","30","354752","0.0-6.0-1.0-2.0-1.10","3","3","3","3","2","2","2","3","2","2","4","1","2","2","3","2","3","2","3","2","3","4","4","2","3","2","2","3","3","1","0","1","1","0","0","1","1","0","1","1","0","0","0","0","5","4","3","1","4","2","3","4","2","2","3","682593254339772416","张","522","","","","","","","","","","","","","","","","","","","true","11","1","moral","465","self","我","","","","","","","","","","","","","","","","",""
"null","","null","html-keyboard-response","31","355004","0.0-6.0-1.0-2.0-0.11","3","3","3","3","2","2","2","3","2","2","4","1","2","2","3","2","3","2","3","2","3","4","4","2","3","2","2","3","3","1","0","1","1","0","0","1","1","0","1","1","0","0","0","0","5","4","3","1","4","2","3","4","2","2","3","682593254339772416","张","522","","","","","","","","","","","","","","","","","","","","","","","","","","","","","","","","","","","","","","","","","",""
"519","<p style=""color:rgb(150, 250, 100); font-size: 35px;"">他的</p>","i","categorize-html","32","355524","0.0-6.0-1.0-2.0-1.11","3","3","3","3","2","2","2","3","2","2","4","1","2","2","3","2","3","2","3","2","3","4","4","2","3","2","2","3","3","1","0","1","1","0","0","1","1","0","1","1","0","0","0","0","5","4","3","1","4","2","3","4","2","2","3","682593254339772416","张","522","","","","","","","","","","","","","","","","","","","true","11","1","moral","519","other","他的","","","","","","","","","","","","","","","","",""
"4718","
    <div class=""tag-bottom""><p>
    —— 任务2：对“消极”词和“积极”词分类 ——<p/>   
    <span style=""color:#78DCE8""><b>注意上方，类别标签和需要分类的词语都已经改变</b></span><p/>
    <span style=""color:#FFD866""><b>请根据上方标签的提示，尽可能正确并且快速地做出按键反应</b></span><p/>
    当按键错误时屏幕中会出现<span style=""color:red""> X </span>，需要按另一个键纠正才能继续<br/><p/>
    请把双手食指分别放在键盘的“E”键和“I”键上<p/>
    按<空格键>开始
    </p></div>"," ","html-keyboard-response","33","360244","0.0-6.0-1.0-3.0","3","3","3","3","2","2","2","3","2","2","4","1","2","2","3","2","3","2","3","2","3","4","4","2","3","2","2","3","3","1","0","1","1","0","0","1","1","0","1","1","0","0","0","0","5","4","3","1","4","2","3","4","2","2","3","682593254339772416","张","522","","","","","","","","","","","","","","","","","","","","","","","","","","","","","","","","","","","","","","","","","",""
"null","","null","html-keyboard-response","34","360501","0.0-6.0-1.0-4.0-0.0","3","3","3","3","2","2","2","3","2","2","4","1","2","2","3","2","3","2","3","2","3","4","4","2","3","2","2","3","3","1","0","1","1","0","0","1","1","0","1","1","0","0","0","0","5","4","3","1","4","2","3","4","2","2","3","682593254339772416","张","522","","","","","","","","","","","","","","","","","","","","","","","","","","","","","","","","","","","","","","","","","",""
"778","<p style=""color:white; font-size: 35px;"">黑心</p>","i","categorize-html","35","362880","0.0-6.0-1.0-4.0-1.0","3","3","3","3","2","2","2","3","2","2","4","1","2","2","3","2","3","2","3","2","3","4","4","2","3","2","2","3","3","1","0","1","1","0","0","1","1","0","1","1","0","0","0","0","5","4","3","1","4","2","3","4","2","2","3","682593254339772416","张","522","","","","","","","","","","","","","","","","","","","false","12","2","moral","778","negative","黑心","","","","","","","","","","","","","","","","",""
"null","","null","html-keyboard-response","36","363141","0.0-6.0-1.0-4.0-0.1","3","3","3","3","2","2","2","3","2","2","4","1","2","2","3","2","3","2","3","2","3","4","4","2","3","2","2","3","3","1","0","1","1","0","0","1","1","0","1","1","0","0","0","0","5","4","3","1","4","2","3","4","2","2","3","682593254339772416","张","522","","","","","","","","","","","","","","","","","","","","","","","","","","","","","","","","","","","","","","","","","",""
"651","<p style=""color:white; font-size: 35px;"">卑鄙</p>","e","categorize-html","37","363794","0.0-6.0-1.0-4.0-1.1","3","3","3","3","2","2","2","3","2","2","4","1","2","2","3","2","3","2","3","2","3","4","4","2","3","2","2","3","3","1","0","1","1","0","0","1","1","0","1","1","0","0","0","0","5","4","3","1","4","2","3","4","2","2","3","682593254339772416","张","522","","","","","","","","","","","","","","","","","","","true","12","2","moral","651","negative","卑鄙","","","","","","","","","","","","","","","","",""
"null","","null","html-keyboard-response","38","364059","0.0-6.0-1.0-4.0-0.2","3","3","3","3","2","2","2","3","2","2","4","1","2","2","3","2","3","2","3","2","3","4","4","2","3","2","2","3","3","1","0","1","1","0","0","1","1","0","1","1","0","0","0","0","5","4","3","1","4","2","3","4","2","2","3","682593254339772416","张","522","","","","","","","","","","","","","","","","","","","","","","","","","","","","","","","","","","","","","","","","","",""
"695","<p style=""color:white; font-size: 35px;"">君子</p>","i","categorize-html","39","364756","0.0-6.0-1.0-4.0-1.2","3","3","3","3","2","2","2","3","2","2","4","1","2","2","3","2","3","2","3","2","3","4","4","2","3","2","2","3","3","1","0","1","1","0","0","1","1","0","1","1","0","0","0","0","5","4","3","1","4","2","3","4","2","2","3","682593254339772416","张","522","","","","","","","","","","","","","","","","","","","true","12","2","moral","695","positive","君子","","","","","","","","","","","","","","","","",""
"null","","null","html-keyboard-response","40","365008","0.0-6.0-1.0-4.0-0.3","3","3","3","3","2","2","2","3","2","2","4","1","2","2","3","2","3","2","3","2","3","4","4","2","3","2","2","3","3","1","0","1","1","0","0","1","1","0","1","1","0","0","0","0","5","4","3","1","4","2","3","4","2","2","3","682593254339772416","张","522","","","","","","","","","","","","","","","","","","","","","","","","","","","","","","","","","","","","","","","","","",""
"497","<p style=""color:white; font-size: 35px;"">不孝</p>","e","categorize-html","41","365505","0.0-6.0-1.0-4.0-1.3","3","3","3","3","2","2","2","3","2","2","4","1","2","2","3","2","3","2","3","2","3","4","4","2","3","2","2","3","3","1","0","1","1","0","0","1","1","0","1","1","0","0","0","0","5","4","3","1","4","2","3","4","2","2","3","682593254339772416","张","522","","","","","","","","","","","","","","","","","","","true","12","2","moral","497","negative","不孝","","","","","","","","","","","","","","","","",""
"null","","null","html-keyboard-response","42","365769","0.0-6.0-1.0-4.0-0.4","3","3","3","3","2","2","2","3","2","2","4","1","2","2","3","2","3","2","3","2","3","4","4","2","3","2","2","3","3","1","0","1","1","0","0","1","1","0","1","1","0","0","0","0","5","4","3","1","4","2","3","4","2","2","3","682593254339772416","张","522","","","","","","","","","","","","","","","","","","","","","","","","","","","","","","","","","","","","","","","","","",""
"555","<p style=""color:white; font-size: 35px;"">善良</p>","i","categorize-html","43","366325","0.0-6.0-1.0-4.0-1.4","3","3","3","3","2","2","2","3","2","2","4","1","2","2","3","2","3","2","3","2","3","4","4","2","3","2","2","3","3","1","0","1","1","0","0","1","1","0","1","1","0","0","0","0","5","4","3","1","4","2","3","4","2","2","3","682593254339772416","张","522","","","","","","","","","","","","","","","","","","","true","12","2","moral","555","positive","善良","","","","","","","","","","","","","","","","",""
"null","","null","html-keyboard-response","44","366577","0.0-6.0-1.0-4.0-0.5","3","3","3","3","2","2","2","3","2","2","4","1","2","2","3","2","3","2","3","2","3","4","4","2","3","2","2","3","3","1","0","1","1","0","0","1","1","0","1","1","0","0","0","0","5","4","3","1","4","2","3","4","2","2","3","682593254339772416","张","522","","","","","","","","","","","","","","","","","","","","","","","","","","","","","","","","","","","","","","","","","",""
"502","<p style=""color:white; font-size: 35px;"">正直</p>","i","categorize-html","45","367080","0.0-6.0-1.0-4.0-1.5","3","3","3","3","2","2","2","3","2","2","4","1","2","2","3","2","3","2","3","2","3","4","4","2","3","2","2","3","3","1","0","1","1","0","0","1","1","0","1","1","0","0","0","0","5","4","3","1","4","2","3","4","2","2","3","682593254339772416","张","522","","","","","","","","","","","","","","","","","","","true","12","2","moral","502","positive","正直","","","","","","","","","","","","","","","","",""
"null","","null","html-keyboard-response","46","367340","0.0-6.0-1.0-4.0-0.6","3","3","3","3","2","2","2","3","2","2","4","1","2","2","3","2","3","2","3","2","3","4","4","2","3","2","2","3","3","1","0","1","1","0","0","1","1","0","1","1","0","0","0","0","5","4","3","1","4","2","3","4","2","2","3","682593254339772416","张","522","","","","","","","","","","","","","","","","","","","","","","","","","","","","","","","","","","","","","","","","","",""
"428","<p style=""color:white; font-size: 35px;"">诚信</p>","i","categorize-html","47","367769","0.0-6.0-1.0-4.0-1.6","3","3","3","3","2","2","2","3","2","2","4","1","2","2","3","2","3","2","3","2","3","4","4","2","3","2","2","3","3","1","0","1","1","0","0","1","1","0","1","1","0","0","0","0","5","4","3","1","4","2","3","4","2","2","3","682593254339772416","张","522","","","","","","","","","","","","","","","","","","","true","12","2","moral","428","positive","诚信","","","","","","","","","","","","","","","","",""
"null","","null","html-keyboard-response","48","368029","0.0-6.0-1.0-4.0-0.7","3","3","3","3","2","2","2","3","2","2","4","1","2","2","3","2","3","2","3","2","3","4","4","2","3","2","2","3","3","1","0","1","1","0","0","1","1","0","1","1","0","0","0","0","5","4","3","1","4","2","3","4","2","2","3","682593254339772416","张","522","","","","","","","","","","","","","","","","","","","","","","","","","","","","","","","","","","","","","","","","","",""
"574","<p style=""color:white; font-size: 35px;"">缺德</p>","e","categorize-html","49","368604","0.0-6.0-1.0-4.0-1.7","3","3","3","3","2","2","2","3","2","2","4","1","2","2","3","2","3","2","3","2","3","4","4","2","3","2","2","3","3","1","0","1","1","0","0","1","1","0","1","1","0","0","0","0","5","4","3","1","4","2","3","4","2","2","3","682593254339772416","张","522","","","","","","","","","","","","","","","","","","","true","12","2","moral","574","negative","缺德","","","","","","","","","","","","","","","","",""
"null","","null","html-keyboard-response","50","368870","0.0-6.0-1.0-4.0-0.8","3","3","3","3","2","2","2","3","2","2","4","1","2","2","3","2","3","2","3","2","3","4","4","2","3","2","2","3","3","1","0","1","1","0","0","1","1","0","1","1","0","0","0","0","5","4","3","1","4","2","3","4","2","2","3","682593254339772416","张","522","","","","","","","","","","","","","","","","","","","","","","","","","","","","","","","","","","","","","","","","","",""
"490","<p style=""color:white; font-size: 35px;"">廉正</p>","i","categorize-html","51","369361","0.0-6.0-1.0-4.0-1.8","3","3","3","3","2","2","2","3","2","2","4","1","2","2","3","2","3","2","3","2","3","4","4","2","3","2","2","3","3","1","0","1","1","0","0","1","1","0","1","1","0","0","0","0","5","4","3","1","4","2","3","4","2","2","3","682593254339772416","张","522","","","","","","","","","","","","","","","","","","","true","12","2","moral","490","positive","廉正","","","","","","","","","","","","","","","","",""
"null","","null","html-keyboard-response","52","369614","0.0-6.0-1.0-4.0-0.9","3","3","3","3","2","2","2","3","2","2","4","1","2","2","3","2","3","2","3","2","3","4","4","2","3","2","2","3","3","1","0","1","1","0","0","1","1","0","1","1","0","0","0","0","5","4","3","1","4","2","3","4","2","2","3","682593254339772416","张","522","","","","","","","","","","","","","","","","","","","","","","","","","","","","","","","","","","","","","","","","","",""
"551","<p style=""color:white; font-size: 35px;"">小人</p>","e","categorize-html","53","370166","0.0-6.0-1.0-4.0-1.9","3","3","3","3","2","2","2","3","2","2","4","1","2","2","3","2","3","2","3","2","3","4","4","2","3","2","2","3","3","1","0","1","1","0","0","1","1","0","1","1","0","0","0","0","5","4","3","1","4","2","3","4","2","2","3","682593254339772416","张","522","","","","","","","","","","","","","","","","","","","true","12","2","moral","551","negative","小人","","","","","","","","","","","","","","","","",""
"null","","null","html-keyboard-response","54","370424","0.0-6.0-1.0-4.0-0.10","3","3","3","3","2","2","2","3","2","2","4","1","2","2","3","2","3","2","3","2","3","4","4","2","3","2","2","3","3","1","0","1","1","0","0","1","1","0","1","1","0","0","0","0","5","4","3","1","4","2","3","4","2","2","3","682593254339772416","张","522","","","","","","","","","","","","","","","","","","","","","","","","","","","","","","","","","","","","","","","","","",""
"571","<p style=""color:white; font-size: 35px;"">不仁</p>","e","categorize-html","55","370997","0.0-6.0-1.0-4.0-1.10","3","3","3","3","2","2","2","3","2","2","4","1","2","2","3","2","3","2","3","2","3","4","4","2","3","2","2","3","3","1","0","1","1","0","0","1","1","0","1","1","0","0","0","0","5","4","3","1","4","2","3","4","2","2","3","682593254339772416","张","522","","","","","","","","","","","","","","","","","","","true","12","2","moral","571","negative","不仁","","","","","","","","","","","","","","","","",""
"null","","null","html-keyboard-response","56","371251","0.0-6.0-1.0-4.0-0.11","3","3","3","3","2","2","2","3","2","2","4","1","2","2","3","2","3","2","3","2","3","4","4","2","3","2","2","3","3","1","0","1","1","0","0","1","1","0","1","1","0","0","0","0","5","4","3","1","4","2","3","4","2","2","3","682593254339772416","张","522","","","","","","","","","","","","","","","","","","","","","","","","","","","","","","","","","","","","","","","","","",""
"535","<p style=""color:white; font-size: 35px;"">高尚</p>","i","categorize-html","57","371786","0.0-6.0-1.0-4.0-1.11","3","3","3","3","2","2","2","3","2","2","4","1","2","2","3","2","3","2","3","2","3","4","4","2","3","2","2","3","3","1","0","1","1","0","0","1","1","0","1","1","0","0","0","0","5","4","3","1","4","2","3","4","2","2","3","682593254339772416","张","522","","","","","","","","","","","","","","","","","","","true","12","2","moral","535","positive","高尚","","","","","","","","","","","","","","","","",""
"4686","
    <div class=""tag-bottom""><p>
    —— 任务3：对“自我/消极”词和“他人/积极”词分类 ——<p/>
    <span style=""color:#78DCE8""><b>注意上方，之前的四类词语将混合在一起交替呈现</b></span><p/>
    <span style=""color:#FFD866""><b>请根据上方标签的提示，尽可能正确并且快速地做出按键反应</b></span><p/>
    当按键错误时屏幕中会出现<span style=""color:red""> X </span>，需要按另一个键纠正才能继续<br/><p/>
    请把双手食指分别放在键盘的“E”键和“I”键上<p/>
    按<空格键>开始
    </p></div>"," ","html-keyboard-response","58","376474","0.0-6.0-1.0-5.0","3","3","3","3","2","2","2","3","2","2","4","1","2","2","3","2","3","2","3","2","3","4","4","2","3","2","2","3","3","1","0","1","1","0","0","1","1","0","1","1","0","0","0","0","5","4","3","1","4","2","3","4","2","2","3","682593254339772416","张","522","","","","","","","","","","","","","","","","","","","","","","","","","","","","","","","","","","","","","","","","","",""
"null","","null","html-keyboard-response","59","376735","0.0-6.0-1.0-6.0-0.0","3","3","3","3","2","2","2","3","2","2","4","1","2","2","3","2","3","2","3","2","3","4","4","2","3","2","2","3","3","1","0","1","1","0","0","1","1","0","1","1","0","0","0","0","5","4","3","1","4","2","3","4","2","2","3","682593254339772416","张","522","","","","","","","","","","","","","","","","","","","","","","","","","","","","","","","","","","","","","","","","","",""
"1223","<p style=""color:rgb(150, 250, 100); font-size: 35px;"">别人</p>","i","categorize-html","60","377959","0.0-6.0-1.0-6.0-1.0","3","3","3","3","2","2","2","3","2","2","4","1","2","2","3","2","3","2","3","2","3","4","4","2","3","2","2","3","3","1","0","1","1","0","0","1","1","0","1","1","0","0","0","0","5","4","3","1","4","2","3","4","2","2","3","682593254339772416","张","522","","","","","","","","","","","","","","","","","","","true","13","3","moral","1223","other","别人","","","","","","","","","","","","","","","","",""
"null","","null","html-keyboard-response","61","378223","0.0-6.0-1.0-6.0-0.1","3","3","3","3","2","2","2","3","2","2","4","1","2","2","3","2","3","2","3","2","3","4","4","2","3","2","2","3","3","1","0","1","1","0","0","1","1","0","1","1","0","0","0","0","5","4","3","1","4","2","3","4","2","2","3","682593254339772416","张","522","","","","","","","","","","","","","","","","","","","","","","","","","","","","","","","","","","","","","","","","","",""
"1322","<p style=""color:white; font-size: 35px;"">黑心</p>","e","categorize-html","62","379547","0.0-6.0-1.0-6.0-1.1","3","3","3","3","2","2","2","3","2","2","4","1","2","2","3","2","3","2","3","2","3","4","4","2","3","2","2","3","3","1","0","1","1","0","0","1","1","0","1","1","0","0","0","0","5","4","3","1","4","2","3","4","2","2","3","682593254339772416","张","522","","","","","","","","","","","","","","","","","","","true","13","3","moral","1322","negative","黑心","","","","","","","","","","","","","","","","",""
"null","","null","html-keyboard-response","63","379798","0.0-6.0-1.0-6.0-0.2","3","3","3","3","2","2","2","3","2","2","4","1","2","2","3","2","3","2","3","2","3","4","4","2","3","2","2","3","3","1","0","1","1","0","0","1","1","0","1","1","0","0","0","0","5","4","3","1","4","2","3","4","2","2","3","682593254339772416","张","522","","","","","","","","","","","","","","","","","","","","","","","","","","","","","","","","","","","","","","","","","",""
"687","<p style=""color:rgb(150, 250, 100); font-size: 35px;"">我的</p>","e","categorize-html","64","380488","0.0-6.0-1.0-6.0-1.2","3","3","3","3","2","2","2","3","2","2","4","1","2","2","3","2","3","2","3","2","3","4","4","2","3","2","2","3","3","1","0","1","1","0","0","1","1","0","1","1","0","0","0","0","5","4","3","1","4","2","3","4","2","2","3","682593254339772416","张","522","","","","","","","","","","","","","","","","","","","true","13","3","moral","687","self","我的","","","","","","","","","","","","","","","","",""
"null","","null","html-keyboard-response","65","380772","0.0-6.0-1.0-6.0-0.3","3","3","3","3","2","2","2","3","2","2","4","1","2","2","3","2","3","2","3","2","3","4","4","2","3","2","2","3","3","1","0","1","1","0","0","1","1","0","1","1","0","0","0","0","5","4","3","1","4","2","3","4","2","2","3","682593254339772416","张","522","","","","","","","","","","","","","","","","","","","","","","","","","","","","","","","","","","","","","","","","","",""
"777","<p style=""color:white; font-size: 35px;"">君子</p>","i","categorize-html","66","381551","0.0-6.0-1.0-6.0-1.3","3","3","3","3","2","2","2","3","2","2","4","1","2","2","3","2","3","2","3","2","3","4","4","2","3","2","2","3","3","1","0","1","1","0","0","1","1","0","1","1","0","0","0","0","5","4","3","1","4","2","3","4","2","2","3","682593254339772416","张","522","","","","","","","","","","","","","","","","","","","true","13","3","moral","777","positive","君子","","","","","","","","","","","","","","","","",""
"null","","null","html-keyboard-response","67","381811","0.0-6.0-1.0-6.0-0.4","3","3","3","3","2","2","2","3","2","2","4","1","2","2","3","2","3","2","3","2","3","4","4","2","3","2","2","3","3","1","0","1","1","0","0","1","1","0","1","1","0","0","0","0","5","4","3","1","4","2","3","4","2","2","3","682593254339772416","张","522","","","","","","","","","","","","","","","","","","","","","","","","","","","","","","","","","","","","","","","","","",""
"1707","<p style=""color:rgb(150, 250, 100); font-size: 35px;"">他</p>","i","categorize-html","68","383521","0.0-6.0-1.0-6.0-1.4","3","3","3","3","2","2","2","3","2","2","4","1","2","2","3","2","3","2","3","2","3","4","4","2","3","2","2","3","3","1","0","1","1","0","0","1","1","0","1","1","0","0","0","0","5","4","3","1","4","2","3","4","2","2","3","682593254339772416","张","522","","","","","","","","","","","","","","","","","","","true","13","3","moral","1707","other","他","","","","","","","","","","","","","","","","",""
"null","","null","html-keyboard-response","69","383774","0.0-6.0-1.0-6.0-0.5","3","3","3","3","2","2","2","3","2","2","4","1","2","2","3","2","3","2","3","2","3","4","4","2","3","2","2","3","3","1","0","1","1","0","0","1","1","0","1","1","0","0","0","0","5","4","3","1","4","2","3","4","2","2","3","682593254339772416","张","522","","","","","","","","","","","","","","","","","","","","","","","","","","","","","","","","","","","","","","","","","",""
"1396","<p style=""color:white; font-size: 35px;"">廉正</p>","i","categorize-html","70","385172","0.0-6.0-1.0-6.0-1.5","3","3","3","3","2","2","2","3","2","2","4","1","2","2","3","2","3","2","3","2","3","4","4","2","3","2","2","3","3","1","0","1","1","0","0","1","1","0","1","1","0","0","0","0","5","4","3","1","4","2","3","4","2","2","3","682593254339772416","张","522","","","","","","","","","","","","","","","","","","","true","13","3","moral","1396","positive","廉正","","","","","","","","","","","","","","","","",""
"null","","null","html-keyboard-response","71","385433","0.0-6.0-1.0-6.0-0.6","3","3","3","3","2","2","2","3","2","2","4","1","2","2","3","2","3","2","3","2","3","4","4","2","3","2","2","3","3","1","0","1","1","0","0","1","1","0","1","1","0","0","0","0","5","4","3","1","4","2","3","4","2","2","3","682593254339772416","张","522","","","","","","","","","","","","","","","","","","","","","","","","","","","","","","","","","","","","","","","","","",""
"946","<p style=""color:rgb(150, 250, 100); font-size: 35px;"">本人</p>","e","categorize-html","72","386382","0.0-6.0-1.0-6.0-1.6","3","3","3","3","2","2","2","3","2","2","4","1","2","2","3","2","3","2","3","2","3","4","4","2","3","2","2","3","3","1","0","1","1","0","0","1","1","0","1","1","0","0","0","0","5","4","3","1","4","2","3","4","2","2","3","682593254339772416","张","522","","","","","","","","","","","","","","","","","","","true","13","3","moral","946","self","本人","","","","","","","","","","","","","","","","",""
"null","","null","html-keyboard-response","73","386635","0.0-6.0-1.0-6.0-0.7","3","3","3","3","2","2","2","3","2","2","4","1","2","2","3","2","3","2","3","2","3","4","4","2","3","2","2","3","3","1","0","1","1","0","0","1","1","0","1","1","0","0","0","0","5","4","3","1","4","2","3","4","2","2","3","682593254339772416","张","522","","","","","","","","","","","","","","","","","","","","","","","","","","","","","","","","","","","","","","","","","",""
"604","<p style=""color:white; font-size: 35px;"">卑鄙</p>","e","categorize-html","74","387240","0.0-6.0-1.0-6.0-1.7","3","3","3","3","2","2","2","3","2","2","4","1","2","2","3","2","3","2","3","2","3","4","4","2","3","2","2","3","3","1","0","1","1","0","0","1","1","0","1","1","0","0","0","0","5","4","3","1","4","2","3","4","2","2","3","682593254339772416","张","522","","","","","","","","","","","","","","","","","","","true","13","3","moral","604","negative","卑鄙","","","","","","","","","","","","","","","","",""
"null","","null","html-keyboard-response","75","387503","0.0-6.0-1.0-6.0-0.8","3","3","3","3","2","2","2","3","2","2","4","1","2","2","3","2","3","2","3","2","3","4","4","2","3","2","2","3","3","1","0","1","1","0","0","1","1","0","1","1","0","0","0","0","5","4","3","1","4","2","3","4","2","2","3","682593254339772416","张","522","","","","","","","","","","","","","","","","","","","","","","","","","","","","","","","","","","","","","","","","","",""
"654","<p style=""color:rgb(150, 250, 100); font-size: 35px;"">他的</p>","i","categorize-html","76","388158","0.0-6.0-1.0-6.0-1.8","3","3","3","3","2","2","2","3","2","2","4","1","2","2","3","2","3","2","3","2","3","4","4","2","3","2","2","3","3","1","0","1","1","0","0","1","1","0","1","1","0","0","0","0","5","4","3","1","4","2","3","4","2","2","3","682593254339772416","张","522","","","","","","","","","","","","","","","","","","","true","13","3","moral","654","other","他的","","","","","","","","","","","","","","","","",""
"null","","null","html-keyboard-response","77","388424","0.0-6.0-1.0-6.0-0.9","3","3","3","3","2","2","2","3","2","2","4","1","2","2","3","2","3","2","3","2","3","4","4","2","3","2","2","3","3","1","0","1","1","0","0","1","1","0","1","1","0","0","0","0","5","4","3","1","4","2","3","4","2","2","3","682593254339772416","张","522","","","","","","","","","","","","","","","","","","","","","","","","","","","","","","","","","","","","","","","","","",""
"644","<p style=""color:white; font-size: 35px;"">缺德</p>","i","categorize-html","78","389656","0.0-6.0-1.0-6.0-1.9","3","3","3","3","2","2","2","3","2","2","4","1","2","2","3","2","3","2","3","2","3","4","4","2","3","2","2","3","3","1","0","1","1","0","0","1","1","0","1","1","0","0","0","0","5","4","3","1","4","2","3","4","2","2","3","682593254339772416","张","522","","","","","","","","","","","","","","","","","","","false","13","3","moral","1438.1363636363635","negative","缺德","","","","","","","","","","","","","","","","",""
"null","","null","html-keyboard-response","79","389917","0.0-6.0-1.0-6.0-0.10","3","3","3","3","2","2","2","3","2","2","4","1","2","2","3","2","3","2","3","2","3","4","4","2","3","2","2","3","3","1","0","1","1","0","0","1","1","0","1","1","0","0","0","0","5","4","3","1","4","2","3","4","2","2","3","682593254339772416","张","522","","","","","","","","","","","","","","","","","","","","","","","","","","","","","","","","","","","","","","","","","",""
"655","<p style=""color:rgb(150, 250, 100); font-size: 35px;"">本人的</p>","e","categorize-html","80","390574","0.0-6.0-1.0-6.0-1.10","3","3","3","3","2","2","2","3","2","2","4","1","2","2","3","2","3","2","3","2","3","4","4","2","3","2","2","3","3","1","0","1","1","0","0","1","1","0","1","1","0","0","0","0","5","4","3","1","4","2","3","4","2","2","3","682593254339772416","张","522","","","","","","","","","","","","","","","","","","","true","13","3","moral","655","self","本人的","","","","","","","","","","","","","","","","",""
"null","","null","html-keyboard-response","81","390839","0.0-6.0-1.0-6.0-0.11","3","3","3","3","2","2","2","3","2","2","4","1","2","2","3","2","3","2","3","2","3","4","4","2","3","2","2","3","3","1","0","1","1","0","0","1","1","0","1","1","0","0","0","0","5","4","3","1","4","2","3","4","2","2","3","682593254339772416","张","522","","","","","","","","","","","","","","","","","","","","","","","","","","","","","","","","","","","","","","","","","",""
"519","<p style=""color:white; font-size: 35px;"">诚信</p>","i","categorize-html","82","391359","0.0-6.0-1.0-6.0-1.11","3","3","3","3","2","2","2","3","2","2","4","1","2","2","3","2","3","2","3","2","3","4","4","2","3","2","2","3","3","1","0","1","1","0","0","1","1","0","1","1","0","0","0","0","5","4","3","1","4","2","3","4","2","2","3","682593254339772416","张","522","","","","","","","","","","","","","","","","","","","true","13","3","moral","519","positive","诚信","","","","","","","","","","","","","","","","",""
"null","","null","html-keyboard-response","83","391618","0.0-6.0-1.0-6.0-0.12","3","3","3","3","2","2","2","3","2","2","4","1","2","2","3","2","3","2","3","2","3","4","4","2","3","2","2","3","3","1","0","1","1","0","0","1","1","0","1","1","0","0","0","0","5","4","3","1","4","2","3","4","2","2","3","682593254339772416","张","522","","","","","","","","","","","","","","","","","","","","","","","","","","","","","","","","","","","","","","","","","",""
"513","<p style=""color:rgb(150, 250, 100); font-size: 35px;"">他人</p>","e","categorize-html","84","392618","0.0-6.0-1.0-6.0-1.12","3","3","3","3","2","2","2","3","2","2","4","1","2","2","3","2","3","2","3","2","3","4","4","2","3","2","2","3","3","1","0","1","1","0","0","1","1","0","1","1","0","0","0","0","5","4","3","1","4","2","3","4","2","2","3","682593254339772416","张","522","","","","","","","","","","","","","","","","","","","false","13","3","moral","1438.1363636363635","other","他人","","","","","","","","","","","","","","","","",""
"null","","null","html-keyboard-response","85","392878","0.0-6.0-1.0-6.0-0.13","3","3","3","3","2","2","2","3","2","2","4","1","2","2","3","2","3","2","3","2","3","4","4","2","3","2","2","3","3","1","0","1","1","0","0","1","1","0","1","1","0","0","0","0","5","4","3","1","4","2","3","4","2","2","3","682593254339772416","张","522","","","","","","","","","","","","","","","","","","","","","","","","","","","","","","","","","","","","","","","","","",""
"1096","<p style=""color:white; font-size: 35px;"">正直</p>","i","categorize-html","86","393974","0.0-6.0-1.0-6.0-1.13","3","3","3","3","2","2","2","3","2","2","4","1","2","2","3","2","3","2","3","2","3","4","4","2","3","2","2","3","3","1","0","1","1","0","0","1","1","0","1","1","0","0","0","0","5","4","3","1","4","2","3","4","2","2","3","682593254339772416","张","522","","","","","","","","","","","","","","","","","","","true","13","3","moral","1096","positive","正直","","","","","","","","","","","","","","","","",""
"null","","null","html-keyboard-response","87","394230","0.0-6.0-1.0-6.0-0.14","3","3","3","3","2","2","2","3","2","2","4","1","2","2","3","2","3","2","3","2","3","4","4","2","3","2","2","3","3","1","0","1","1","0","0","1","1","0","1","1","0","0","0","0","5","4","3","1","4","2","3","4","2","2","3","682593254339772416","张","522","","","","","","","","","","","","","","","","","","","","","","","","","","","","","","","","","","","","","","","","","",""
"546","<p style=""color:rgb(150, 250, 100); font-size: 35px;"">自己的</p>","e","categorize-html","88","394777","0.0-6.0-1.0-6.0-1.14","3","3","3","3","2","2","2","3","2","2","4","1","2","2","3","2","3","2","3","2","3","4","4","2","3","2","2","3","3","1","0","1","1","0","0","1","1","0","1","1","0","0","0","0","5","4","3","1","4","2","3","4","2","2","3","682593254339772416","张","522","","","","","","","","","","","","","","","","","","","true","13","3","moral","546","self","自己的","","","","","","","","","","","","","","","","",""
"null","","null","html-keyboard-response","89","395038","0.0-6.0-1.0-6.0-0.15","3","3","3","3","2","2","2","3","2","2","4","1","2","2","3","2","3","2","3","2","3","4","4","2","3","2","2","3","3","1","0","1","1","0","0","1","1","0","1","1","0","0","0","0","5","4","3","1","4","2","3","4","2","2","3","682593254339772416","张","522","","","","","","","","","","","","","","","","","","","","","","","","","","","","","","","","","","","","","","","","","",""
"583","<p style=""color:white; font-size: 35px;"">小人</p>","e","categorize-html","90","395622","0.0-6.0-1.0-6.0-1.15","3","3","3","3","2","2","2","3","2","2","4","1","2","2","3","2","3","2","3","2","3","4","4","2","3","2","2","3","3","1","0","1","1","0","0","1","1","0","1","1","0","0","0","0","5","4","3","1","4","2","3","4","2","2","3","682593254339772416","张","522","","","","","","","","","","","","","","","","","","","true","13","3","moral","583","negative","小人","","","","","","","","","","","","","","","","",""
"null","","null","html-keyboard-response","91","395884","0.0-6.0-1.0-6.0-0.16","3","3","3","3","2","2","2","3","2","2","4","1","2","2","3","2","3","2","3","2","3","4","4","2","3","2","2","3","3","1","0","1","1","0","0","1","1","0","1","1","0","0","0","0","5","4","3","1","4","2","3","4","2","2","3","682593254339772416","张","522","","","","","","","","","","","","","","","","","","","","","","","","","","","","","","","","","","","","","","","","","",""
"852","<p style=""color:rgb(150, 250, 100); font-size: 35px;"">别人的</p>","i","categorize-html","92","396737","0.0-6.0-1.0-6.0-1.16","3","3","3","3","2","2","2","3","2","2","4","1","2","2","3","2","3","2","3","2","3","4","4","2","3","2","2","3","3","1","0","1","1","0","0","1","1","0","1","1","0","0","0","0","5","4","3","1","4","2","3","4","2","2","3","682593254339772416","张","522","","","","","","","","","","","","","","","","","","","true","13","3","moral","852","other","别人的","","","","","","","","","","","","","","","","",""
"null","","null","html-keyboard-response","93","396991","0.0-6.0-1.0-6.0-0.17","3","3","3","3","2","2","2","3","2","2","4","1","2","2","3","2","3","2","3","2","3","4","4","2","3","2","2","3","3","1","0","1","1","0","0","1","1","0","1","1","0","0","0","0","5","4","3","1","4","2","3","4","2","2","3","682593254339772416","张","522","","","","","","","","","","","","","","","","","","","","","","","","","","","","","","","","","","","","","","","","","",""
"842","<p style=""color:white; font-size: 35px;"">不仁</p>","e","categorize-html","94","397833","0.0-6.0-1.0-6.0-1.17","3","3","3","3","2","2","2","3","2","2","4","1","2","2","3","2","3","2","3","2","3","4","4","2","3","2","2","3","3","1","0","1","1","0","0","1","1","0","1","1","0","0","0","0","5","4","3","1","4","2","3","4","2","2","3","682593254339772416","张","522","","","","","","","","","","","","","","","","","","","true","13","3","moral","842","negative","不仁","","","","","","","","","","","","","","","","",""
"null","","null","html-keyboard-response","95","398094","0.0-6.0-1.0-6.0-0.18","3","3","3","3","2","2","2","3","2","2","4","1","2","2","3","2","3","2","3","2","3","4","4","2","3","2","2","3","3","1","0","1","1","0","0","1","1","0","1","1","0","0","0","0","5","4","3","1","4","2","3","4","2","2","3","682593254339772416","张","522","","","","","","","","","","","","","","","","","","","","","","","","","","","","","","","","","","","","","","","","","",""
"522","<p style=""color:rgb(150, 250, 100); font-size: 35px;"">我</p>","e","categorize-html","96","398617","0.0-6.0-1.0-6.0-1.18","3","3","3","3","2","2","2","3","2","2","4","1","2","2","3","2","3","2","3","2","3","4","4","2","3","2","2","3","3","1","0","1","1","0","0","1","1","0","1","1","0","0","0","0","5","4","3","1","4","2","3","4","2","2","3","682593254339772416","张","522","","","","","","","","","","","","","","","","","","","true","13","3","moral","522","self","我","","","","","","","","","","","","","","","","",""
"null","","null","html-keyboard-response","97","398880","0.0-6.0-1.0-6.0-0.19","3","3","3","3","2","2","2","3","2","2","4","1","2","2","3","2","3","2","3","2","3","4","4","2","3","2","2","3","3","1","0","1","1","0","0","1","1","0","1","1","0","0","0","0","5","4","3","1","4","2","3","4","2","2","3","682593254339772416","张","522","","","","","","","","","","","","","","","","","","","","","","","","","","","","","","","","","","","","","","","","","",""
"636","<p style=""color:white; font-size: 35px;"">高尚</p>","i","categorize-html","98","399518","0.0-6.0-1.0-6.0-1.19","3","3","3","3","2","2","2","3","2","2","4","1","2","2","3","2","3","2","3","2","3","4","4","2","3","2","2","3","3","1","0","1","1","0","0","1","1","0","1","1","0","0","0","0","5","4","3","1","4","2","3","4","2","2","3","682593254339772416","张","522","","","","","","","","","","","","","","","","","","","true","13","3","moral","636","positive","高尚","","","","","","","","","","","","","","","","",""
"null","","null","html-keyboard-response","99","399775","0.0-6.0-1.0-6.0-0.20","3","3","3","3","2","2","2","3","2","2","4","1","2","2","3","2","3","2","3","2","3","4","4","2","3","2","2","3","3","1","0","1","1","0","0","1","1","0","1","1","0","0","0","0","5","4","3","1","4","2","3","4","2","2","3","682593254339772416","张","522","","","","","","","","","","","","","","","","","","","","","","","","","","","","","","","","","","","","","","","","","",""
"580","<p style=""color:rgb(150, 250, 100); font-size: 35px;"">自己</p>","e","categorize-html","100","400357","0.0-6.0-1.0-6.0-1.20","3","3","3","3","2","2","2","3","2","2","4","1","2","2","3","2","3","2","3","2","3","4","4","2","3","2","2","3","3","1","0","1","1","0","0","1","1","0","1","1","0","0","0","0","5","4","3","1","4","2","3","4","2","2","3","682593254339772416","张","522","","","","","","","","","","","","","","","","","","","true","13","3","moral","580","self","自己","","","","","","","","","","","","","","","","",""
"null","","null","html-keyboard-response","101","400623","0.0-6.0-1.0-6.0-0.21","3","3","3","3","2","2","2","3","2","2","4","1","2","2","3","2","3","2","3","2","3","4","4","2","3","2","2","3","3","1","0","1","1","0","0","1","1","0","1","1","0","0","0","0","5","4","3","1","4","2","3","4","2","2","3","682593254339772416","张","522","","","","","","","","","","","","","","","","","","","","","","","","","","","","","","","","","","","","","","","","","",""
"768","<p style=""color:white; font-size: 35px;"">不孝</p>","e","categorize-html","102","401394","0.0-6.0-1.0-6.0-1.21","3","3","3","3","2","2","2","3","2","2","4","1","2","2","3","2","3","2","3","2","3","4","4","2","3","2","2","3","3","1","0","1","1","0","0","1","1","0","1","1","0","0","0","0","5","4","3","1","4","2","3","4","2","2","3","682593254339772416","张","522","","","","","","","","","","","","","","","","","","","true","13","3","moral","768","negative","不孝","","","","","","","","","","","","","","","","",""
"null","","null","html-keyboard-response","103","401665","0.0-6.0-1.0-6.0-0.22","3","3","3","3","2","2","2","3","2","2","4","1","2","2","3","2","3","2","3","2","3","4","4","2","3","2","2","3","3","1","0","1","1","0","0","1","1","0","1","1","0","0","0","0","5","4","3","1","4","2","3","4","2","2","3","682593254339772416","张","522","","","","","","","","","","","","","","","","","","","","","","","","","","","","","","","","","","","","","","","","","",""
"818","<p style=""color:rgb(150, 250, 100); font-size: 35px;"">他人的</p>","i","categorize-html","104","402484","0.0-6.0-1.0-6.0-1.22","3","3","3","3","2","2","2","3","2","2","4","1","2","2","3","2","3","2","3","2","3","4","4","2","3","2","2","3","3","1","0","1","1","0","0","1","1","0","1","1","0","0","0","0","5","4","3","1","4","2","3","4","2","2","3","682593254339772416","张","522","","","","","","","","","","","","","","","","","","","true","13","3","moral","818","other","他人的","","","","","","","","","","","","","","","","",""
"null","","null","html-keyboard-response","105","402737","0.0-6.0-1.0-6.0-0.23","3","3","3","3","2","2","2","3","2","2","4","1","2","2","3","2","3","2","3","2","3","4","4","2","3","2","2","3","3","1","0","1","1","0","0","1","1","0","1","1","0","0","0","0","5","4","3","1","4","2","3","4","2","2","3","682593254339772416","张","522","","","","","","","","","","","","","","","","","","","","","","","","","","","","","","","","","","","","","","","","","",""
"706","<p style=""color:white; font-size: 35px;"">善良</p>","i","categorize-html","106","403444","0.0-6.0-1.0-6.0-1.23","3","3","3","3","2","2","2","3","2","2","4","1","2","2","3","2","3","2","3","2","3","4","4","2","3","2","2","3","3","1","0","1","1","0","0","1","1","0","1","1","0","0","0","0","5","4","3","1","4","2","3","4","2","2","3","682593254339772416","张","522","","","","","","","","","","","","","","","","","","","true","13","3","moral","706","positive","善良","","","","","","","","","","","","","","","","",""
"9469","
    <div class=""tag-bottom""><p>
    —— 任务4：对“自我/消极”词和“他人/积极”词分类 ——<p/>
    <span style=""color:#78DCE8""><b>与刚才的任务完全相同，请再次对这四类词语分类</b></span><p/>
    <span style=""color:#FFD866""><b>请根据上方标签的提示，尽可能正确并且快速地做出按键反应</b></span><p/>
    当按键错误时屏幕中会出现<span style=""color:red""> X </span>，需要按另一个键纠正才能继续<br/><p/>
    请把双手食指分别放在键盘的“E”键和“I”键上<p/>
    按<空格键>开始
    </p></div>"," ","html-keyboard-response","107","412914","0.0-6.0-1.0-7.0","3","3","3","3","2","2","2","3","2","2","4","1","2","2","3","2","3","2","3","2","3","4","4","2","3","2","2","3","3","1","0","1","1","0","0","1","1","0","1","1","0","0","0","0","5","4","3","1","4","2","3","4","2","2","3","682593254339772416","张","522","","","","","","","","","","","","","","","","","","","","","","","","","","","","","","","","","","","","","","","","","",""
"null","","null","html-keyboard-response","108","413174","0.0-6.0-1.0-8.0-0.0","3","3","3","3","2","2","2","3","2","2","4","1","2","2","3","2","3","2","3","2","3","4","4","2","3","2","2","3","3","1","0","1","1","0","0","1","1","0","1","1","0","0","0","0","5","4","3","1","4","2","3","4","2","2","3","682593254339772416","张","522","","","","","","","","","","","","","","","","","","","","","","","","","","","","","","","","","","","","","","","","","",""
"520","<p style=""color:rgb(150, 250, 100); font-size: 35px;"">自己</p>","e","categorize-html","109","413694","0.0-6.0-1.0-8.0-1.0","3","3","3","3","2","2","2","3","2","2","4","1","2","2","3","2","3","2","3","2","3","4","4","2","3","2","2","3","3","1","0","1","1","0","0","1","1","0","1","1","0","0","0","0","5","4","3","1","4","2","3","4","2","2","3","682593254339772416","张","522","","","","","","","","","","","","","","","","","","","true","14","4","moral","520","self","自己","","","","","","","","","","","","","","","","",""
"null","","null","html-keyboard-response","110","413948","0.0-6.0-1.0-8.0-0.1","3","3","3","3","2","2","2","3","2","2","4","1","2","2","3","2","3","2","3","2","3","4","4","2","3","2","2","3","3","1","0","1","1","0","0","1","1","0","1","1","0","0","0","0","5","4","3","1","4","2","3","4","2","2","3","682593254339772416","张","522","","","","","","","","","","","","","","","","","","","","","","","","","","","","","","","","","","","","","","","","","",""
"755","<p style=""color:white; font-size: 35px;"">卑鄙</p>","e","categorize-html","111","414705","0.0-6.0-1.0-8.0-1.1","3","3","3","3","2","2","2","3","2","2","4","1","2","2","3","2","3","2","3","2","3","4","4","2","3","2","2","3","3","1","0","1","1","0","0","1","1","0","1","1","0","0","0","0","5","4","3","1","4","2","3","4","2","2","3","682593254339772416","张","522","","","","","","","","","","","","","","","","","","","true","14","4","moral","755","negative","卑鄙","","","","","","","","","","","","","","","","",""
"null","","null","html-keyboard-response","112","414958","0.0-6.0-1.0-8.0-0.2","3","3","3","3","2","2","2","3","2","2","4","1","2","2","3","2","3","2","3","2","3","4","4","2","3","2","2","3","3","1","0","1","1","0","0","1","1","0","1","1","0","0","0","0","5","4","3","1","4","2","3","4","2","2","3","682593254339772416","张","522","","","","","","","","","","","","","","","","","","","","","","","","","","","","","","","","","","","","","","","","","",""
"647","<p style=""color:rgb(150, 250, 100); font-size: 35px;"">他的</p>","i","categorize-html","113","415607","0.0-6.0-1.0-8.0-1.2","3","3","3","3","2","2","2","3","2","2","4","1","2","2","3","2","3","2","3","2","3","4","4","2","3","2","2","3","3","1","0","1","1","0","0","1","1","0","1","1","0","0","0","0","5","4","3","1","4","2","3","4","2","2","3","682593254339772416","张","522","","","","","","","","","","","","","","","","","","","true","14","4","moral","647","other","他的","","","","","","","","","","","","","","","","",""
"null","","null","html-keyboard-response","114","415858","0.0-6.0-1.0-8.0-0.3","3","3","3","3","2","2","2","3","2","2","4","1","2","2","3","2","3","2","3","2","3","4","4","2","3","2","2","3","3","1","0","1","1","0","0","1","1","0","1","1","0","0","0","0","5","4","3","1","4","2","3","4","2","2","3","682593254339772416","张","522","","","","","","","","","","","","","","","","","","","","","","","","","","","","","","","","","","","","","","","","","",""
"434","<p style=""color:white; font-size: 35px;"">诚信</p>","i","categorize-html","115","416293","0.0-6.0-1.0-8.0-1.3","3","3","3","3","2","2","2","3","2","2","4","1","2","2","3","2","3","2","3","2","3","4","4","2","3","2","2","3","3","1","0","1","1","0","0","1","1","0","1","1","0","0","0","0","5","4","3","1","4","2","3","4","2","2","3","682593254339772416","张","522","","","","","","","","","","","","","","","","","","","true","14","4","moral","434","positive","诚信","","","","","","","","","","","","","","","","",""
"null","","null","html-keyboard-response","116","416544","0.0-6.0-1.0-8.0-0.4","3","3","3","3","2","2","2","3","2","2","4","1","2","2","3","2","3","2","3","2","3","4","4","2","3","2","2","3","3","1","0","1","1","0","0","1","1","0","1","1","0","0","0","0","5","4","3","1","4","2","3","4","2","2","3","682593254339772416","张","522","","","","","","","","","","","","","","","","","","","","","","","","","","","","","","","","","","","","","","","","","",""
"508","<p style=""color:rgb(150, 250, 100); font-size: 35px;"">他</p>","i","categorize-html","117","417054","0.0-6.0-1.0-8.0-1.4","3","3","3","3","2","2","2","3","2","2","4","1","2","2","3","2","3","2","3","2","3","4","4","2","3","2","2","3","3","1","0","1","1","0","0","1","1","0","1","1","0","0","0","0","5","4","3","1","4","2","3","4","2","2","3","682593254339772416","张","522","","","","","","","","","","","","","","","","","","","true","14","4","moral","508","other","他","","","","","","","","","","","","","","","","",""
"null","","null","html-keyboard-response","118","417306","0.0-6.0-1.0-8.0-0.5","3","3","3","3","2","2","2","3","2","2","4","1","2","2","3","2","3","2","3","2","3","4","4","2","3","2","2","3","3","1","0","1","1","0","0","1","1","0","1","1","0","0","0","0","5","4","3","1","4","2","3","4","2","2","3","682593254339772416","张","522","","","","","","","","","","","","","","","","","","","","","","","","","","","","","","","","","","","","","","","","","",""
"617","<p style=""color:white; font-size: 35px;"">黑心</p>","e","categorize-html","119","417924","0.0-6.0-1.0-8.0-1.5","3","3","3","3","2","2","2","3","2","2","4","1","2","2","3","2","3","2","3","2","3","4","4","2","3","2","2","3","3","1","0","1","1","0","0","1","1","0","1","1","0","0","0","0","5","4","3","1","4","2","3","4","2","2","3","682593254339772416","张","522","","","","","","","","","","","","","","","","","","","true","14","4","moral","617","negative","黑心","","","","","","","","","","","","","","","","",""
"null","","null","html-keyboard-response","120","418178","0.0-6.0-1.0-8.0-0.6","3","3","3","3","2","2","2","3","2","2","4","1","2","2","3","2","3","2","3","2","3","4","4","2","3","2","2","3","3","1","0","1","1","0","0","1","1","0","1","1","0","0","0","0","5","4","3","1","4","2","3","4","2","2","3","682593254339772416","张","522","","","","","","","","","","","","","","","","","","","","","","","","","","","","","","","","","","","","","","","","","",""
"503","<p style=""color:rgb(150, 250, 100); font-size: 35px;"">本人的</p>","e","categorize-html","121","418681","0.0-6.0-1.0-8.0-1.6","3","3","3","3","2","2","2","3","2","2","4","1","2","2","3","2","3","2","3","2","3","4","4","2","3","2","2","3","3","1","0","1","1","0","0","1","1","0","1","1","0","0","0","0","5","4","3","1","4","2","3","4","2","2","3","682593254339772416","张","522","","","","","","","","","","","","","","","","","","","true","14","4","moral","503","self","本人的","","","","","","","","","","","","","","","","",""
"null","","null","html-keyboard-response","122","418940","0.0-6.0-1.0-8.0-0.7","3","3","3","3","2","2","2","3","2","2","4","1","2","2","3","2","3","2","3","2","3","4","4","2","3","2","2","3","3","1","0","1","1","0","0","1","1","0","1","1","0","0","0","0","5","4","3","1","4","2","3","4","2","2","3","682593254339772416","张","522","","","","","","","","","","","","","","","","","","","","","","","","","","","","","","","","","","","","","","","","","",""
"576","<p style=""color:white; font-size: 35px;"">君子</p>","i","categorize-html","123","419517","0.0-6.0-1.0-8.0-1.7","3","3","3","3","2","2","2","3","2","2","4","1","2","2","3","2","3","2","3","2","3","4","4","2","3","2","2","3","3","1","0","1","1","0","0","1","1","0","1","1","0","0","0","0","5","4","3","1","4","2","3","4","2","2","3","682593254339772416","张","522","","","","","","","","","","","","","","","","","","","true","14","4","moral","576","positive","君子","","","","","","","","","","","","","","","","",""
"null","","null","html-keyboard-response","124","419777","0.0-6.0-1.0-8.0-0.8","3","3","3","3","2","2","2","3","2","2","4","1","2","2","3","2","3","2","3","2","3","4","4","2","3","2","2","3","3","1","0","1","1","0","0","1","1","0","1","1","0","0","0","0","5","4","3","1","4","2","3","4","2","2","3","682593254339772416","张","522","","","","","","","","","","","","","","","","","","","","","","","","","","","","","","","","","","","","","","","","","",""
"567","<p style=""color:rgb(150, 250, 100); font-size: 35px;"">我</p>","e","categorize-html","125","420345","0.0-6.0-1.0-8.0-1.8","3","3","3","3","2","2","2","3","2","2","4","1","2","2","3","2","3","2","3","2","3","4","4","2","3","2","2","3","3","1","0","1","1","0","0","1","1","0","1","1","0","0","0","0","5","4","3","1","4","2","3","4","2","2","3","682593254339772416","张","522","","","","","","","","","","","","","","","","","","","true","14","4","moral","567","self","我","","","","","","","","","","","","","","","","",""
"null","","null","html-keyboard-response","126","420604","0.0-6.0-1.0-8.0-0.9","3","3","3","3","2","2","2","3","2","2","4","1","2","2","3","2","3","2","3","2","3","4","4","2","3","2","2","3","3","1","0","1","1","0","0","1","1","0","1","1","0","0","0","0","5","4","3","1","4","2","3","4","2","2","3","682593254339772416","张","522","","","","","","","","","","","","","","","","","","","","","","","","","","","","","","","","","","","","","","","","","",""
"1128","<p style=""color:white; font-size: 35px;"">廉正</p>","i","categorize-html","127","421733","0.0-6.0-1.0-8.0-1.9","3","3","3","3","2","2","2","3","2","2","4","1","2","2","3","2","3","2","3","2","3","4","4","2","3","2","2","3","3","1","0","1","1","0","0","1","1","0","1","1","0","0","0","0","5","4","3","1","4","2","3","4","2","2","3","682593254339772416","张","522","","","","","","","","","","","","","","","","","","","true","14","4","moral","1128","positive","廉正","","","","","","","","","","","","","","","","",""
"null","","null","html-keyboard-response","128","421993","0.0-6.0-1.0-8.0-0.10","3","3","3","3","2","2","2","3","2","2","4","1","2","2","3","2","3","2","3","2","3","4","4","2","3","2","2","3","3","1","0","1","1","0","0","1","1","0","1","1","0","0","0","0","5","4","3","1","4","2","3","4","2","2","3","682593254339772416","张","522","","","","","","","","","","","","","","","","","","","","","","","","","","","","","","","","","","","","","","","","","",""
"639","<p style=""color:rgb(150, 250, 100); font-size: 35px;"">他人的</p>","i","categorize-html","129","422634","0.0-6.0-1.0-8.0-1.10","3","3","3","3","2","2","2","3","2","2","4","1","2","2","3","2","3","2","3","2","3","4","4","2","3","2","2","3","3","1","0","1","1","0","0","1","1","0","1","1","0","0","0","0","5","4","3","1","4","2","3","4","2","2","3","682593254339772416","张","522","","","","","","","","","","","","","","","","","","","true","14","4","moral","639","other","他人的","","","","","","","","","","","","","","","","",""
"null","","null","html-keyboard-response","130","422891","0.0-6.0-1.0-8.0-0.11","3","3","3","3","2","2","2","3","2","2","4","1","2","2","3","2","3","2","3","2","3","4","4","2","3","2","2","3","3","1","0","1","1","0","0","1","1","0","1","1","0","0","0","0","5","4","3","1","4","2","3","4","2","2","3","682593254339772416","张","522","","","","","","","","","","","","","","","","","","","","","","","","","","","","","","","","","","","","","","","","","",""
"624","<p style=""color:white; font-size: 35px;"">卑鄙</p>","e","categorize-html","131","423517","0.0-6.0-1.0-8.0-1.11","3","3","3","3","2","2","2","3","2","2","4","1","2","2","3","2","3","2","3","2","3","4","4","2","3","2","2","3","3","1","0","1","1","0","0","1","1","0","1","1","0","0","0","0","5","4","3","1","4","2","3","4","2","2","3","682593254339772416","张","522","","","","","","","","","","","","","","","","","","","true","14","4","moral","624","negative","卑鄙","","","","","","","","","","","","","","","","",""
"null","","null","html-keyboard-response","132","423778","0.0-6.0-1.0-8.0-0.12","3","3","3","3","2","2","2","3","2","2","4","1","2","2","3","2","3","2","3","2","3","4","4","2","3","2","2","3","3","1","0","1","1","0","0","1","1","0","1","1","0","0","0","0","5","4","3","1","4","2","3","4","2","2","3","682593254339772416","张","522","","","","","","","","","","","","","","","","","","","","","","","","","","","","","","","","","","","","","","","","","",""
"592","<p style=""color:rgb(150, 250, 100); font-size: 35px;"">自己</p>","e","categorize-html","133","424370","0.0-6.0-1.0-8.0-1.12","3","3","3","3","2","2","2","3","2","2","4","1","2","2","3","2","3","2","3","2","3","4","4","2","3","2","2","3","3","1","0","1","1","0","0","1","1","0","1","1","0","0","0","0","5","4","3","1","4","2","3","4","2","2","3","682593254339772416","张","522","","","","","","","","","","","","","","","","","","","true","14","4","moral","592","self","自己","","","","","","","","","","","","","","","","",""
"null","","null","html-keyboard-response","134","424631","0.0-6.0-1.0-8.0-0.13","3","3","3","3","2","2","2","3","2","2","4","1","2","2","3","2","3","2","3","2","3","4","4","2","3","2","2","3","3","1","0","1","1","0","0","1","1","0","1","1","0","0","0","0","5","4","3","1","4","2","3","4","2","2","3","682593254339772416","张","522","","","","","","","","","","","","","","","","","","","","","","","","","","","","","","","","","","","","","","","","","",""
"689","<p style=""color:white; font-size: 35px;"">小人</p>","e","categorize-html","135","425321","0.0-6.0-1.0-8.0-1.13","3","3","3","3","2","2","2","3","2","2","4","1","2","2","3","2","3","2","3","2","3","4","4","2","3","2","2","3","3","1","0","1","1","0","0","1","1","0","1","1","0","0","0","0","5","4","3","1","4","2","3","4","2","2","3","682593254339772416","张","522","","","","","","","","","","","","","","","","","","","true","14","4","moral","689","negative","小人","","","","","","","","","","","","","","","","",""
"null","","null","html-keyboard-response","136","425578","0.0-6.0-1.0-8.0-0.14","3","3","3","3","2","2","2","3","2","2","4","1","2","2","3","2","3","2","3","2","3","4","4","2","3","2","2","3","3","1","0","1","1","0","0","1","1","0","1","1","0","0","0","0","5","4","3","1","4","2","3","4","2","2","3","682593254339772416","张","522","","","","","","","","","","","","","","","","","","","","","","","","","","","","","","","","","","","","","","","","","",""
"529","<p style=""color:rgb(150, 250, 100); font-size: 35px;"">他人</p>","i","categorize-html","137","426109","0.0-6.0-1.0-8.0-1.14","3","3","3","3","2","2","2","3","2","2","4","1","2","2","3","2","3","2","3","2","3","4","4","2","3","2","2","3","3","1","0","1","1","0","0","1","1","0","1","1","0","0","0","0","5","4","3","1","4","2","3","4","2","2","3","682593254339772416","张","522","","","","","","","","","","","","","","","","","","","true","14","4","moral","529","other","他人","","","","","","","","","","","","","","","","",""
"null","","null","html-keyboard-response","138","426374","0.0-6.0-1.0-8.0-0.15","3","3","3","3","2","2","2","3","2","2","4","1","2","2","3","2","3","2","3","2","3","4","4","2","3","2","2","3","3","1","0","1","1","0","0","1","1","0","1","1","0","0","0","0","5","4","3","1","4","2","3","4","2","2","3","682593254339772416","张","522","","","","","","","","","","","","","","","","","","","","","","","","","","","","","","","","","","","","","","","","","",""
"708","<p style=""color:white; font-size: 35px;"">诚信</p>","i","categorize-html","139","427082","0.0-6.0-1.0-8.0-1.15","3","3","3","3","2","2","2","3","2","2","4","1","2","2","3","2","3","2","3","2","3","4","4","2","3","2","2","3","3","1","0","1","1","0","0","1","1","0","1","1","0","0","0","0","5","4","3","1","4","2","3","4","2","2","3","682593254339772416","张","522","","","","","","","","","","","","","","","","","","","true","14","4","moral","708","positive","诚信","","","","","","","","","","","","","","","","",""
"null","","null","html-keyboard-response","140","427336","0.0-6.0-1.0-8.0-0.16","3","3","3","3","2","2","2","3","2","2","4","1","2","2","3","2","3","2","3","2","3","4","4","2","3","2","2","3","3","1","0","1","1","0","0","1","1","0","1","1","0","0","0","0","5","4","3","1","4","2","3","4","2","2","3","682593254339772416","张","522","","","","","","","","","","","","","","","","","","","","","","","","","","","","","","","","","","","","","","","","","",""
"620","<p style=""color:rgb(150, 250, 100); font-size: 35px;"">他人</p>","i","categorize-html","141","427956","0.0-6.0-1.0-8.0-1.16","3","3","3","3","2","2","2","3","2","2","4","1","2","2","3","2","3","2","3","2","3","4","4","2","3","2","2","3","3","1","0","1","1","0","0","1","1","0","1","1","0","0","0","0","5","4","3","1","4","2","3","4","2","2","3","682593254339772416","张","522","","","","","","","","","","","","","","","","","","","true","14","4","moral","620","other","他人","","","","","","","","","","","","","","","","",""
"null","","null","html-keyboard-response","142","428210","0.0-6.0-1.0-8.0-0.17","3","3","3","3","2","2","2","3","2","2","4","1","2","2","3","2","3","2","3","2","3","4","4","2","3","2","2","3","3","1","0","1","1","0","0","1","1","0","1","1","0","0","0","0","5","4","3","1","4","2","3","4","2","2","3","682593254339772416","张","522","","","","","","","","","","","","","","","","","","","","","","","","","","","","","","","","","","","","","","","","","",""
"754","<p style=""color:white; font-size: 35px;"">不仁</p>","e","categorize-html","143","428967","0.0-6.0-1.0-8.0-1.17","3","3","3","3","2","2","2","3","2","2","4","1","2","2","3","2","3","2","3","2","3","4","4","2","3","2","2","3","3","1","0","1","1","0","0","1","1","0","1","1","0","0","0","0","5","4","3","1","4","2","3","4","2","2","3","682593254339772416","张","522","","","","","","","","","","","","","","","","","","","true","14","4","moral","754","negative","不仁","","","","","","","","","","","","","","","","",""
"null","","null","html-keyboard-response","144","429227","0.0-6.0-1.0-8.0-0.18","3","3","3","3","2","2","2","3","2","2","4","1","2","2","3","2","3","2","3","2","3","4","4","2","3","2","2","3","3","1","0","1","1","0","0","1","1","0","1","1","0","0","0","0","5","4","3","1","4","2","3","4","2","2","3","682593254339772416","张","522","","","","","","","","","","","","","","","","","","","","","","","","","","","","","","","","","","","","","","","","","",""
"610","<p style=""color:rgb(150, 250, 100); font-size: 35px;"">本人</p>","e","categorize-html","145","429840","0.0-6.0-1.0-8.0-1.18","3","3","3","3","2","2","2","3","2","2","4","1","2","2","3","2","3","2","3","2","3","4","4","2","3","2","2","3","3","1","0","1","1","0","0","1","1","0","1","1","0","0","0","0","5","4","3","1","4","2","3","4","2","2","3","682593254339772416","张","522","","","","","","","","","","","","","","","","","","","true","14","4","moral","610","self","本人","","","","","","","","","","","","","","","","",""
"null","","null","html-keyboard-response","146","430102","0.0-6.0-1.0-8.0-0.19","3","3","3","3","2","2","2","3","2","2","4","1","2","2","3","2","3","2","3","2","3","4","4","2","3","2","2","3","3","1","0","1","1","0","0","1","1","0","1","1","0","0","0","0","5","4","3","1","4","2","3","4","2","2","3","682593254339772416","张","522","","","","","","","","","","","","","","","","","","","","","","","","","","","","","","","","","","","","","","","","","",""
"1096","<p style=""color:white; font-size: 35px;"">高尚</p>","i","categorize-html","147","431200","0.0-6.0-1.0-8.0-1.19","3","3","3","3","2","2","2","3","2","2","4","1","2","2","3","2","3","2","3","2","3","4","4","2","3","2","2","3","3","1","0","1","1","0","0","1","1","0","1","1","0","0","0","0","5","4","3","1","4","2","3","4","2","2","3","682593254339772416","张","522","","","","","","","","","","","","","","","","","","","true","14","4","moral","1096","positive","高尚","","","","","","","","","","","","","","","","",""
"null","","null","html-keyboard-response","148","431460","0.0-6.0-1.0-8.0-0.20","3","3","3","3","2","2","2","3","2","2","4","1","2","2","3","2","3","2","3","2","3","4","4","2","3","2","2","3","3","1","0","1","1","0","0","1","1","0","1","1","0","0","0","0","5","4","3","1","4","2","3","4","2","2","3","682593254339772416","张","522","","","","","","","","","","","","","","","","","","","","","","","","","","","","","","","","","","","","","","","","","",""
"962","<p style=""color:rgb(150, 250, 100); font-size: 35px;"">别人的</p>","i","categorize-html","149","432423","0.0-6.0-1.0-8.0-1.20","3","3","3","3","2","2","2","3","2","2","4","1","2","2","3","2","3","2","3","2","3","4","4","2","3","2","2","3","3","1","0","1","1","0","0","1","1","0","1","1","0","0","0","0","5","4","3","1","4","2","3","4","2","2","3","682593254339772416","张","522","","","","","","","","","","","","","","","","","","","true","14","4","moral","962","other","别人的","","","","","","","","","","","","","","","","",""
"null","","null","html-keyboard-response","150","432683","0.0-6.0-1.0-8.0-0.21","3","3","3","3","2","2","2","3","2","2","4","1","2","2","3","2","3","2","3","2","3","4","4","2","3","2","2","3","3","1","0","1","1","0","0","1","1","0","1","1","0","0","0","0","5","4","3","1","4","2","3","4","2","2","3","682593254339772416","张","522","","","","","","","","","","","","","","","","","","","","","","","","","","","","","","","","","","","","","","","","","",""
"592","<p style=""color:white; font-size: 35px;"">不仁</p>","e","categorize-html","151","433276","0.0-6.0-1.0-8.0-1.21","3","3","3","3","2","2","2","3","2","2","4","1","2","2","3","2","3","2","3","2","3","4","4","2","3","2","2","3","3","1","0","1","1","0","0","1","1","0","1","1","0","0","0","0","5","4","3","1","4","2","3","4","2","2","3","682593254339772416","张","522","","","","","","","","","","","","","","","","","","","true","14","4","moral","592","negative","不仁","","","","","","","","","","","","","","","","",""
"null","","null","html-keyboard-response","152","433535","0.0-6.0-1.0-8.0-0.22","3","3","3","3","2","2","2","3","2","2","4","1","2","2","3","2","3","2","3","2","3","4","4","2","3","2","2","3","3","1","0","1","1","0","0","1","1","0","1","1","0","0","0","0","5","4","3","1","4","2","3","4","2","2","3","682593254339772416","张","522","","","","","","","","","","","","","","","","","","","","","","","","","","","","","","","","","","","","","","","","","",""
"523","<p style=""color:rgb(150, 250, 100); font-size: 35px;"">我的</p>","e","categorize-html","153","434060","0.0-6.0-1.0-8.0-1.22","3","3","3","3","2","2","2","3","2","2","4","1","2","2","3","2","3","2","3","2","3","4","4","2","3","2","2","3","3","1","0","1","1","0","0","1","1","0","1","1","0","0","0","0","5","4","3","1","4","2","3","4","2","2","3","682593254339772416","张","522","","","","","","","","","","","","","","","","","","","true","14","4","moral","523","self","我的","","","","","","","","","","","","","","","","",""
"null","","null","html-keyboard-response","154","434312","0.0-6.0-1.0-8.0-0.23","3","3","3","3","2","2","2","3","2","2","4","1","2","2","3","2","3","2","3","2","3","4","4","2","3","2","2","3","3","1","0","1","1","0","0","1","1","0","1","1","0","0","0","0","5","4","3","1","4","2","3","4","2","2","3","682593254339772416","张","522","","","","","","","","","","","","","","","","","","","","","","","","","","","","","","","","","","","","","","","","","",""
"733","<p style=""color:white; font-size: 35px;"">正直</p>","i","categorize-html","155","435047","0.0-6.0-1.0-8.0-1.23","3","3","3","3","2","2","2","3","2","2","4","1","2","2","3","2","3","2","3","2","3","4","4","2","3","2","2","3","3","1","0","1","1","0","0","1","1","0","1","1","0","0","0","0","5","4","3","1","4","2","3","4","2","2","3","682593254339772416","张","522","","","","","","","","","","","","","","","","","","","true","14","4","moral","733","positive","正直","","","","","","","","","","","","","","","","",""
"null","","null","html-keyboard-response","156","435309","0.0-6.0-1.0-8.0-0.24","3","3","3","3","2","2","2","3","2","2","4","1","2","2","3","2","3","2","3","2","3","4","4","2","3","2","2","3","3","1","0","1","1","0","0","1","1","0","1","1","0","0","0","0","5","4","3","1","4","2","3","4","2","2","3","682593254339772416","张","522","","","","","","","","","","","","","","","","","","","","","","","","","","","","","","","","","","","","","","","","","",""
"686","<p style=""color:rgb(150, 250, 100); font-size: 35px;"">别人</p>","i","categorize-html","157","435996","0.0-6.0-1.0-8.0-1.24","3","3","3","3","2","2","2","3","2","2","4","1","2","2","3","2","3","2","3","2","3","4","4","2","3","2","2","3","3","1","0","1","1","0","0","1","1","0","1","1","0","0","0","0","5","4","3","1","4","2","3","4","2","2","3","682593254339772416","张","522","","","","","","","","","","","","","","","","","","","true","14","4","moral","686","other","别人","","","","","","","","","","","","","","","","",""
"null","","null","html-keyboard-response","158","436260","0.0-6.0-1.0-8.0-0.25","3","3","3","3","2","2","2","3","2","2","4","1","2","2","3","2","3","2","3","2","3","4","4","2","3","2","2","3","3","1","0","1","1","0","0","1","1","0","1","1","0","0","0","0","5","4","3","1","4","2","3","4","2","2","3","682593254339772416","张","522","","","","","","","","","","","","","","","","","","","","","","","","","","","","","","","","","","","","","","","","","",""
"589","<p style=""color:white; font-size: 35px;"">不孝</p>","e","categorize-html","159","436849","0.0-6.0-1.0-8.0-1.25","3","3","3","3","2","2","2","3","2","2","4","1","2","2","3","2","3","2","3","2","3","4","4","2","3","2","2","3","3","1","0","1","1","0","0","1","1","0","1","1","0","0","0","0","5","4","3","1","4","2","3","4","2","2","3","682593254339772416","张","522","","","","","","","","","","","","","","","","","","","true","14","4","moral","589","negative","不孝","","","","","","","","","","","","","","","","",""
"null","","null","html-keyboard-response","160","437102","0.0-6.0-1.0-8.0-0.26","3","3","3","3","2","2","2","3","2","2","4","1","2","2","3","2","3","2","3","2","3","4","4","2","3","2","2","3","3","1","0","1","1","0","0","1","1","0","1","1","0","0","0","0","5","4","3","1","4","2","3","4","2","2","3","682593254339772416","张","522","","","","","","","","","","","","","","","","","","","","","","","","","","","","","","","","","","","","","","","","","",""
"841","<p style=""color:rgb(150, 250, 100); font-size: 35px;"">本人的</p>","e","categorize-html","161","437944","0.0-6.0-1.0-8.0-1.26","3","3","3","3","2","2","2","3","2","2","4","1","2","2","3","2","3","2","3","2","3","4","4","2","3","2","2","3","3","1","0","1","1","0","0","1","1","0","1","1","0","0","0","0","5","4","3","1","4","2","3","4","2","2","3","682593254339772416","张","522","","","","","","","","","","","","","","","","","","","true","14","4","moral","841","self","本人的","","","","","","","","","","","","","","","","",""
"null","","null","html-keyboard-response","162","438206","0.0-6.0-1.0-8.0-0.27","3","3","3","3","2","2","2","3","2","2","4","1","2","2","3","2","3","2","3","2","3","4","4","2","3","2","2","3","3","1","0","1","1","0","0","1","1","0","1","1","0","0","0","0","5","4","3","1","4","2","3","4","2","2","3","682593254339772416","张","522","","","","","","","","","","","","","","","","","","","","","","","","","","","","","","","","","","","","","","","","","",""
"589","<p style=""color:white; font-size: 35px;"">善良</p>","i","categorize-html","163","438797","0.0-6.0-1.0-8.0-1.27","3","3","3","3","2","2","2","3","2","2","4","1","2","2","3","2","3","2","3","2","3","4","4","2","3","2","2","3","3","1","0","1","1","0","0","1","1","0","1","1","0","0","0","0","5","4","3","1","4","2","3","4","2","2","3","682593254339772416","张","522","","","","","","","","","","","","","","","","","","","true","14","4","moral","589","positive","善良","","","","","","","","","","","","","","","","",""
"null","","null","html-keyboard-response","164","439061","0.0-6.0-1.0-8.0-0.28","3","3","3","3","2","2","2","3","2","2","4","1","2","2","3","2","3","2","3","2","3","4","4","2","3","2","2","3","3","1","0","1","1","0","0","1","1","0","1","1","0","0","0","0","5","4","3","1","4","2","3","4","2","2","3","682593254339772416","张","522","","","","","","","","","","","","","","","","","","","","","","","","","","","","","","","","","","","","","","","","","",""
"605","<p style=""color:rgb(150, 250, 100); font-size: 35px;"">我的</p>","e","categorize-html","165","439667","0.0-6.0-1.0-8.0-1.28","3","3","3","3","2","2","2","3","2","2","4","1","2","2","3","2","3","2","3","2","3","4","4","2","3","2","2","3","3","1","0","1","1","0","0","1","1","0","1","1","0","0","0","0","5","4","3","1","4","2","3","4","2","2","3","682593254339772416","张","522","","","","","","","","","","","","","","","","","","","true","14","4","moral","605","self","我的","","","","","","","","","","","","","","","","",""
"null","","null","html-keyboard-response","166","439927","0.0-6.0-1.0-8.0-0.29","3","3","3","3","2","2","2","3","2","2","4","1","2","2","3","2","3","2","3","2","3","4","4","2","3","2","2","3","3","1","0","1","1","0","0","1","1","0","1","1","0","0","0","0","5","4","3","1","4","2","3","4","2","2","3","682593254339772416","张","522","","","","","","","","","","","","","","","","","","","","","","","","","","","","","","","","","","","","","","","","","",""
"1010","<p style=""color:white; font-size: 35px;"">廉正</p>","i","categorize-html","167","440939","0.0-6.0-1.0-8.0-1.29","3","3","3","3","2","2","2","3","2","2","4","1","2","2","3","2","3","2","3","2","3","4","4","2","3","2","2","3","3","1","0","1","1","0","0","1","1","0","1","1","0","0","0","0","5","4","3","1","4","2","3","4","2","2","3","682593254339772416","张","522","","","","","","","","","","","","","","","","","","","true","14","4","moral","1010","positive","廉正","","","","","","","","","","","","","","","","",""
"null","","null","html-keyboard-response","168","441204","0.0-6.0-1.0-8.0-0.30","3","3","3","3","2","2","2","3","2","2","4","1","2","2","3","2","3","2","3","2","3","4","4","2","3","2","2","3","3","1","0","1","1","0","0","1","1","0","1","1","0","0","0","0","5","4","3","1","4","2","3","4","2","2","3","682593254339772416","张","522","","","","","","","","","","","","","","","","","","","","","","","","","","","","","","","","","","","","","","","","","",""
"902","<p style=""color:rgb(150, 250, 100); font-size: 35px;"">别人的</p>","i","categorize-html","169","442107","0.0-6.0-1.0-8.0-1.30","3","3","3","3","2","2","2","3","2","2","4","1","2","2","3","2","3","2","3","2","3","4","4","2","3","2","2","3","3","1","0","1","1","0","0","1","1","0","1","1","0","0","0","0","5","4","3","1","4","2","3","4","2","2","3","682593254339772416","张","522","","","","","","","","","","","","","","","","","","","true","14","4","moral","902","other","别人的","","","","","","","","","","","","","","","","",""
"null","","null","html-keyboard-response","170","442370","0.0-6.0-1.0-8.0-0.31","3","3","3","3","2","2","2","3","2","2","4","1","2","2","3","2","3","2","3","2","3","4","4","2","3","2","2","3","3","1","0","1","1","0","0","1","1","0","1","1","0","0","0","0","5","4","3","1","4","2","3","4","2","2","3","682593254339772416","张","522","","","","","","","","","","","","","","","","","","","","","","","","","","","","","","","","","","","","","","","","","",""
"657","<p style=""color:white; font-size: 35px;"">缺德</p>","e","categorize-html","171","443028","0.0-6.0-1.0-8.0-1.31","3","3","3","3","2","2","2","3","2","2","4","1","2","2","3","2","3","2","3","2","3","4","4","2","3","2","2","3","3","1","0","1","1","0","0","1","1","0","1","1","0","0","0","0","5","4","3","1","4","2","3","4","2","2","3","682593254339772416","张","522","","","","","","","","","","","","","","","","","","","true","14","4","moral","657","negative","缺德","","","","","","","","","","","","","","","","",""
"null","","null","html-keyboard-response","172","443307","0.0-6.0-1.0-8.0-0.32","3","3","3","3","2","2","2","3","2","2","4","1","2","2","3","2","3","2","3","2","3","4","4","2","3","2","2","3","3","1","0","1","1","0","0","1","1","0","1","1","0","0","0","0","5","4","3","1","4","2","3","4","2","2","3","682593254339772416","张","522","","","","","","","","","","","","","","","","","","","","","","","","","","","","","","","","","","","","","","","","","",""
"398","<p style=""color:rgb(150, 250, 100); font-size: 35px;"">本人</p>","e","categorize-html","173","443706","0.0-6.0-1.0-8.0-1.32","3","3","3","3","2","2","2","3","2","2","4","1","2","2","3","2","3","2","3","2","3","4","4","2","3","2","2","3","3","1","0","1","1","0","0","1","1","0","1","1","0","0","0","0","5","4","3","1","4","2","3","4","2","2","3","682593254339772416","张","522","","","","","","","","","","","","","","","","","","","true","14","4","moral","398","self","本人","","","","","","","","","","","","","","","","",""
"null","","null","html-keyboard-response","174","443971","0.0-6.0-1.0-8.0-0.33","3","3","3","3","2","2","2","3","2","2","4","1","2","2","3","2","3","2","3","2","3","4","4","2","3","2","2","3","3","1","0","1","1","0","0","1","1","0","1","1","0","0","0","0","5","4","3","1","4","2","3","4","2","2","3","682593254339772416","张","522","","","","","","","","","","","","","","","","","","","","","","","","","","","","","","","","","","","","","","","","","",""
"593","<p style=""color:white; font-size: 35px;"">高尚</p>","i","categorize-html","175","444566","0.0-6.0-1.0-8.0-1.33","3","3","3","3","2","2","2","3","2","2","4","1","2","2","3","2","3","2","3","2","3","4","4","2","3","2","2","3","3","1","0","1","1","0","0","1","1","0","1","1","0","0","0","0","5","4","3","1","4","2","3","4","2","2","3","682593254339772416","张","522","","","","","","","","","","","","","","","","","","","true","14","4","moral","593","positive","高尚","","","","","","","","","","","","","","","","",""
"null","","null","html-keyboard-response","176","444829","0.0-6.0-1.0-8.0-0.34","3","3","3","3","2","2","2","3","2","2","4","1","2","2","3","2","3","2","3","2","3","4","4","2","3","2","2","3","3","1","0","1","1","0","0","1","1","0","1","1","0","0","0","0","5","4","3","1","4","2","3","4","2","2","3","682593254339772416","张","522","","","","","","","","","","","","","","","","","","","","","","","","","","","","","","","","","","","","","","","","","",""
"547","<p style=""color:rgb(150, 250, 100); font-size: 35px;"">他的</p>","i","categorize-html","177","445377","0.0-6.0-1.0-8.0-1.34","3","3","3","3","2","2","2","3","2","2","4","1","2","2","3","2","3","2","3","2","3","4","4","2","3","2","2","3","3","1","0","1","1","0","0","1","1","0","1","1","0","0","0","0","5","4","3","1","4","2","3","4","2","2","3","682593254339772416","张","522","","","","","","","","","","","","","","","","","","","true","14","4","moral","547","other","他的","","","","","","","","","","","","","","","","",""
"null","","null","html-keyboard-response","178","445641","0.0-6.0-1.0-8.0-0.35","3","3","3","3","2","2","2","3","2","2","4","1","2","2","3","2","3","2","3","2","3","4","4","2","3","2","2","3","3","1","0","1","1","0","0","1","1","0","1","1","0","0","0","0","5","4","3","1","4","2","3","4","2","2","3","682593254339772416","张","522","","","","","","","","","","","","","","","","","","","","","","","","","","","","","","","","","","","","","","","","","",""
"499","<p style=""color:white; font-size: 35px;"">不孝</p>","e","categorize-html","179","446143","0.0-6.0-1.0-8.0-1.35","3","3","3","3","2","2","2","3","2","2","4","1","2","2","3","2","3","2","3","2","3","4","4","2","3","2","2","3","3","1","0","1","1","0","0","1","1","0","1","1","0","0","0","0","5","4","3","1","4","2","3","4","2","2","3","682593254339772416","张","522","","","","","","","","","","","","","","","","","","","true","14","4","moral","499","negative","不孝","","","","","","","","","","","","","","","","",""
"null","","null","html-keyboard-response","180","446399","0.0-6.0-1.0-8.0-0.36","3","3","3","3","2","2","2","3","2","2","4","1","2","2","3","2","3","2","3","2","3","4","4","2","3","2","2","3","3","1","0","1","1","0","0","1","1","0","1","1","0","0","0","0","5","4","3","1","4","2","3","4","2","2","3","682593254339772416","张","522","","","","","","","","","","","","","","","","","","","","","","","","","","","","","","","","","","","","","","","","","",""
"484","<p style=""color:rgb(150, 250, 100); font-size: 35px;"">自己的</p>","e","categorize-html","181","446885","0.0-6.0-1.0-8.0-1.36","3","3","3","3","2","2","2","3","2","2","4","1","2","2","3","2","3","2","3","2","3","4","4","2","3","2","2","3","3","1","0","1","1","0","0","1","1","0","1","1","0","0","0","0","5","4","3","1","4","2","3","4","2","2","3","682593254339772416","张","522","","","","","","","","","","","","","","","","","","","true","14","4","moral","484","self","自己的","","","","","","","","","","","","","","","","",""
"null","","null","html-keyboard-response","182","447148","0.0-6.0-1.0-8.0-0.37","3","3","3","3","2","2","2","3","2","2","4","1","2","2","3","2","3","2","3","2","3","4","4","2","3","2","2","3","3","1","0","1","1","0","0","1","1","0","1","1","0","0","0","0","5","4","3","1","4","2","3","4","2","2","3","682593254339772416","张","522","","","","","","","","","","","","","","","","","","","","","","","","","","","","","","","","","","","","","","","","","",""
"785","<p style=""color:white; font-size: 35px;"">黑心</p>","e","categorize-html","183","447935","0.0-6.0-1.0-8.0-1.37","3","3","3","3","2","2","2","3","2","2","4","1","2","2","3","2","3","2","3","2","3","4","4","2","3","2","2","3","3","1","0","1","1","0","0","1","1","0","1","1","0","0","0","0","5","4","3","1","4","2","3","4","2","2","3","682593254339772416","张","522","","","","","","","","","","","","","","","","","","","true","14","4","moral","785","negative","黑心","","","","","","","","","","","","","","","","",""
"null","","null","html-keyboard-response","184","448185","0.0-6.0-1.0-8.0-0.38","3","3","3","3","2","2","2","3","2","2","4","1","2","2","3","2","3","2","3","2","3","4","4","2","3","2","2","3","3","1","0","1","1","0","0","1","1","0","1","1","0","0","0","0","5","4","3","1","4","2","3","4","2","2","3","682593254339772416","张","522","","","","","","","","","","","","","","","","","","","","","","","","","","","","","","","","","","","","","","","","","",""
"590","<p style=""color:rgb(150, 250, 100); font-size: 35px;"">他人的</p>","i","categorize-html","185","448777","0.0-6.0-1.0-8.0-1.38","3","3","3","3","2","2","2","3","2","2","4","1","2","2","3","2","3","2","3","2","3","4","4","2","3","2","2","3","3","1","0","1","1","0","0","1","1","0","1","1","0","0","0","0","5","4","3","1","4","2","3","4","2","2","3","682593254339772416","张","522","","","","","","","","","","","","","","","","","","","true","14","4","moral","590","other","他人的","","","","","","","","","","","","","","","","",""
"null","","null","html-keyboard-response","186","449027","0.0-6.0-1.0-8.0-0.39","3","3","3","3","2","2","2","3","2","2","4","1","2","2","3","2","3","2","3","2","3","4","4","2","3","2","2","3","3","1","0","1","1","0","0","1","1","0","1","1","0","0","0","0","5","4","3","1","4","2","3","4","2","2","3","682593254339772416","张","522","","","","","","","","","","","","","","","","","","","","","","","","","","","","","","","","","","","","","","","","","",""
"686","<p style=""color:white; font-size: 35px;"">正直</p>","i","categorize-html","187","449716","0.0-6.0-1.0-8.0-1.39","3","3","3","3","2","2","2","3","2","2","4","1","2","2","3","2","3","2","3","2","3","4","4","2","3","2","2","3","3","1","0","1","1","0","0","1","1","0","1","1","0","0","0","0","5","4","3","1","4","2","3","4","2","2","3","682593254339772416","张","522","","","","","","","","","","","","","","","","","","","true","14","4","moral","686","positive","正直","","","","","","","","","","","","","","","","",""
"null","","null","html-keyboard-response","188","449979","0.0-6.0-1.0-8.0-0.40","3","3","3","3","2","2","2","3","2","2","4","1","2","2","3","2","3","2","3","2","3","4","4","2","3","2","2","3","3","1","0","1","1","0","0","1","1","0","1","1","0","0","0","0","5","4","3","1","4","2","3","4","2","2","3","682593254339772416","张","522","","","","","","","","","","","","","","","","","","","","","","","","","","","","","","","","","","","","","","","","","",""
"529","<p style=""color:rgb(150, 250, 100); font-size: 35px;"">他</p>","i","categorize-html","189","450509","0.0-6.0-1.0-8.0-1.40","3","3","3","3","2","2","2","3","2","2","4","1","2","2","3","2","3","2","3","2","3","4","4","2","3","2","2","3","3","1","0","1","1","0","0","1","1","0","1","1","0","0","0","0","5","4","3","1","4","2","3","4","2","2","3","682593254339772416","张","522","","","","","","","","","","","","","","","","","","","true","14","4","moral","529","other","他","","","","","","","","","","","","","","","","",""
"null","","null","html-keyboard-response","190","450773","0.0-6.0-1.0-8.0-0.41","3","3","3","3","2","2","2","3","2","2","4","1","2","2","3","2","3","2","3","2","3","4","4","2","3","2","2","3","3","1","0","1","1","0","0","1","1","0","1","1","0","0","0","0","5","4","3","1","4","2","3","4","2","2","3","682593254339772416","张","522","","","","","","","","","","","","","","","","","","","","","","","","","","","","","","","","","","","","","","","","","",""
"707","<p style=""color:white; font-size: 35px;"">小人</p>","e","categorize-html","191","451480","0.0-6.0-1.0-8.0-1.41","3","3","3","3","2","2","2","3","2","2","4","1","2","2","3","2","3","2","3","2","3","4","4","2","3","2","2","3","3","1","0","1","1","0","0","1","1","0","1","1","0","0","0","0","5","4","3","1","4","2","3","4","2","2","3","682593254339772416","张","522","","","","","","","","","","","","","","","","","","","true","14","4","moral","707","negative","小人","","","","","","","","","","","","","","","","",""
"null","","null","html-keyboard-response","192","451738","0.0-6.0-1.0-8.0-0.42","3","3","3","3","2","2","2","3","2","2","4","1","2","2","3","2","3","2","3","2","3","4","4","2","3","2","2","3","3","1","0","1","1","0","0","1","1","0","1","1","0","0","0","0","5","4","3","1","4","2","3","4","2","2","3","682593254339772416","张","522","","","","","","","","","","","","","","","","","","","","","","","","","","","","","","","","","","","","","","","","","",""
"523","<p style=""color:rgb(150, 250, 100); font-size: 35px;"">我</p>","e","categorize-html","193","452262","0.0-6.0-1.0-8.0-1.42","3","3","3","3","2","2","2","3","2","2","4","1","2","2","3","2","3","2","3","2","3","4","4","2","3","2","2","3","3","1","0","1","1","0","0","1","1","0","1","1","0","0","0","0","5","4","3","1","4","2","3","4","2","2","3","682593254339772416","张","522","","","","","","","","","","","","","","","","","","","true","14","4","moral","523","self","我","","","","","","","","","","","","","","","","",""
"null","","null","html-keyboard-response","194","452518","0.0-6.0-1.0-8.0-0.43","3","3","3","3","2","2","2","3","2","2","4","1","2","2","3","2","3","2","3","2","3","4","4","2","3","2","2","3","3","1","0","1","1","0","0","1","1","0","1","1","0","0","0","0","5","4","3","1","4","2","3","4","2","2","3","682593254339772416","张","522","","","","","","","","","","","","","","","","","","","","","","","","","","","","","","","","","","","","","","","","","",""
