"rt","stimulus","response","trial_type","trial_index","time_elapsed","internal_node_id","ses_1","ses_2","ses_3","ses_4","ses_5","ses_6","ses_7","ses_8","ses_9","ses_10","coreself_1","coreself_2","coreself_3","coreself_4","coreself_5","coreself_6","coreself_7","coreself_8","coreself_9","coreself_10","SGPS_1","SGPS_2","SGPS_3","SGPS_4","SGPS_5","SGPS_6","SGPS_7","SGPS_8","SGPS_9","NPI1","NPI2","NPI3","NPI4","NPI5","NPI6","NPI7","NPI8","NPI9","NPI10","NPI11","NPI12","NPI13","NPI14","NPI15","hsns_1","hsns_2","hsns_3","hsns_4","hsns_5","trap1","hsns_6","hsns_7","hsns_8","hsns_9","hsns_10","subj_idx","friend_name","ParticipantID","value","success","user_agent","responses","item_order","radio_event_ids","radio_event_times","key_event_times","mouse_event_times","straightlining","zigzagging","honeypot","timeout","failed_images","failed_audio","failed_video","view_history","response_type","key_press","avg_frame_time","center_x","center_y","correct_response","correct","identity","Image","word","condition","task_id","screen_id","time_stamp","version_attrib2","version_target2","IAT","RT","varname","summary","version_attrib","version_target","question_order","correct_answer","trap1_item"
"63295","
   <p><div style = ""color: white;font-size:25px;"">您好，欢迎参加本次实验。</div> </p>
   <p><div style = ""color: white;font-size:25px;"">为充分保障您的权利，请确保您已经知晓并同意《参与实验同意书》以及《数据公开知情同意书》。</div></p>
   <p><div style = ""color: white;font-size:25px;"">如果您未见过上述内容，请咨询实验员。</div></p>
   <p><div style = ""color: white;font-size:25px;"">如果您选择继续实验，则表示您已经清楚两份知情同意书的内容并同意。</div></p>
   <p><div style = ""color: pink;font-size:30px;"">请确保您记得day0的实验编号，您将在本次实验输入该编号，若您忘记，请咨询实验员后作答。</div></p>
   <p><div style = ""color: lightblue;font-size:25px;"">请您尽可能认真地作答，我们将依据您在各问卷和按键任务中的作答质量发放报酬。</div></p>
   <p> <div style = ""color: green;font-size:25px;""><按空格键至下页></div> </p>
   "," ","html-keyboard-response","0","63297","0.0-0.0","3","4","3","2","4","3","3","1","3","4","3","4","3","3","4","4","5","4","3","4","3","4","4","4","4","4","4","2","5","0","1","0","0","1","1","1","1","0","0","1","0","1","0","1","4","4","5","3","4","","4","5","5","2","2","798932137372950529","李","563","","","","","","","","","","","","","","","","","","","","","","","","","","","","","","","","","","","","","","","","","",""
"","","","call-function","1","63299","0.0-1.0-0.0","3","4","3","2","4","3","3","1","3","4","3","4","3","3","4","4","5","4","3","4","3","4","4","4","4","4","4","2","5","0","1","0","0","1","1","1","1","0","0","1","0","1","0","1","4","4","5","3","4","","4","5","5","2","2","798932137372950529","李","563","","","","","","","","","","","","","","","","","","","","","","","","","","","","","","","","","","","","","","","","","",""
"30938","","{""friend_name"":""李"",""ParticipantID"":""563""}","survey-html-form","2","94238","0.0-1.0-1.0","3","4","3","2","4","3","3","1","3","4","3","4","3","3","4","4","5","4","3","4","3","4","4","4","4","4","4","2","5","0","1","0","0","1","1","1","1","0","0","1","0","1","0","1","4","4","5","3","4","","4","5","5","2","2","798932137372950529","李","563","","","","","","","","","","","","","","","","","","","","","","","","","","","","","","","","","","","","","","","","","",""
"","","","fullscreen","3","95495","0.0-2.0","3","4","3","2","4","3","3","1","3","4","3","4","3","3","4","4","5","4","3","4","3","4","4","4","4","4","4","2","5","0","1","0","0","1","1","1","1","0","0","1","0","1","0","1","4","4","5","3","4","","4","5","5","2","2","798932137372950529","李","563","","true","","","","","","","","","","","","","","","","","","","","","","","","","","","","","","","","","","","","","","","",""
"21788.494999986142","","{""Q01"":""3"",""Q02"":""4"",""Q03"":""3"",""Q04"":""2"",""Q05"":""4"",""Q06"":""3"",""Q07"":""3"",""Q08"":""1"",""Q09"":""3"",""Q10"":""4""}","survey-template","4","117288","0.0-3.0","3","4","3","2","4","3","3","1","3","4","3","4","3","3","4","4","5","4","3","4","3","4","4","4","4","4","4","2","5","0","1","0","0","1","1","1","1","0","0","1","0","1","0","1","4","4","5","3","4","","4","5","5","2","2","798932137372950529","李","563","","","","{""Q01"":""3"",""Q02"":""4"",""Q03"":""3"",""Q04"":""2"",""Q05"":""4"",""Q06"":""3"",""Q07"":""3"",""Q08"":""1"",""Q09"":""3"",""Q10"":""4""}","[0,1,2,3,4,5,6,7,8,9]","[""Q01"",""Q02"",""Q03"",""Q04"",""Q05"",""Q06"",""Q07"",""Q08"",""Q09"",""Q10""]","[2851.8099999637343,5371.470000012778,6186.78499996895,9402.774999965914,12091.604999965057,13707.294999971054,15171.274999971502,17650.64499998698,19946.974999969825,20754.595000005793]","[]","[2851.8099999637343,4275.480000011157,5371.470000012778,6186.78499996895,9402.774999965914,12091.604999965057,13707.294999971054,15171.274999971502,17650.64499998698,19946.974999969825,20754.595000005793,21786.744999990333]","0.3","0.4444444444444444","0","","","","","","","","","","","","","","","","","","","","","","","","","","","","","",""
"26574.51000000583","","{""Q01"":""3"",""Q02"":""4"",""Q03"":""3"",""Q04"":""3"",""Q05"":""4"",""Q06"":""4"",""Q07"":""5"",""Q08"":""4"",""Q09"":""3"",""Q10"":""4""}","survey-template","5","143871","0.0-4.0","3","4","3","2","4","3","3","1","3","4","3","4","3","3","4","4","5","4","3","4","3","4","4","4","4","4","4","2","5","0","1","0","0","1","1","1","1","0","0","1","0","1","0","1","4","4","5","3","4","","4","5","5","2","2","798932137372950529","李","563","","","","{""Q01"":""3"",""Q02"":""4"",""Q03"":""3"",""Q04"":""3"",""Q05"":""4"",""Q06"":""4"",""Q07"":""5"",""Q08"":""4"",""Q09"":""3"",""Q10"":""4""}","[0,1,2,3,4,5,6,7,8,9]","[""Q01"",""Q02"",""Q03"",""Q03"",""Q04"",""Q05"",""Q07"",""Q07"",""Q07"",""Q08"",""Q09"",""Q10"",""Q06""]","[1885.3050000034273,3546.7700000153854,6277.0100000198,7453.060000028927,9093.229999998584,10661.194999993313,13525.540000002366,14565.73000003118,15476.72000003513,16572.979999997187,19029.55000003567,21517.029999988154,25524.964999989606]","[]","[1885.3050000034273,3546.7700000153854,5868.714999989606,6277.0100000198,7453.060000028927,9093.229999998584,10661.194999993313,11881.775000016205,13525.540000002366,14565.73000003118,15476.72000003513,16572.979999997187,19029.55000003567,21517.029999988154,22877.020000014454,25524.964999989606,26573.08500004001]","0.4","0.6666666666666666","0","","","","","","","","","","","","","","","","","","","","","","","","","","","","","",""
"","","","preload","6","144261","0.0-5.0","3","4","3","2","4","3","3","1","3","4","3","4","3","3","4","4","5","4","3","4","3","4","4","4","4","4","4","2","5","0","1","0","0","1","1","1","1","0","0","1","0","1","0","1","4","4","5","3","4","","4","5","5","2","2","798932137372950529","李","563","","true","","","","","","","","","","","false","[]","[]","[]","","","","","","","","","","","","","","","","","","","","","","","","","",""
"63937","","","instructions","7","208200","0.0-6.0","3","4","3","2","4","3","3","1","3","4","3","4","3","3","4","4","5","4","3","4","3","4","4","4","4","4","4","2","5","0","1","0","0","1","1","1","1","0","0","1","0","1","0","1","4","4","5","3","4","","4","5","5","2","2","798932137372950529","李","563","","","","","","","","","","","","","","","","","[{""page_index"":0,""viewing_time"":63936}]","","","","","","","","","","","","","","","","","","","","","","","","",""
"23875","","","instructions","8","232078","0.0-7.0-0.0-0.0","3","4","3","2","4","3","3","1","3","4","3","4","3","3","4","4","5","4","3","4","3","4","4","4","4","4","4","2","5","0","1","0","0","1","1","1","1","0","0","1","0","1","0","1","4","4","5","3","4","","4","5","5","2","2","798932137372950529","李","563","","","","","","","","","","","","","","","","","[{""page_index"":0,""viewing_time"":18651},{""page_index"":1,""viewing_time"":3152},{""page_index"":2,""viewing_time"":2072}]","","","","","","","","","","","","","","","","","","","","","","","","",""
"571","","j","psychophysics","9","233653","0.0-7.0-0.0-1.0-0.0-0.0","3","4","3","2","4","3","3","1","3","4","3","4","3","3","4","4","5","4","3","4","3","4","4","4","4","4","4","2","5","0","1","0","0","1","1","1","1","0","0","1","0","1","0","1","4","4","5","3","4","","4","5","5","2","2","798932137372950529","李","563","","","","match","","","","","","","","","","","","","","key","j","16.67230107526887","853.3333333333334","476","j","true","match","img/hexagon.png","六边","六边","ALT1_1","prac_ALT1_1","","","","","","","","","","","",""
"null","<span style='color:GreenYellow; font-size: 70px;'>正确! </span>","null","html-keyboard-response","10","234156","0.0-7.0-0.0-1.0-0.0-1.0","3","4","3","2","4","3","3","1","3","4","3","4","3","3","4","4","5","4","3","4","3","4","4","4","4","4","4","2","5","0","1","0","0","1","1","1","1","0","0","1","0","1","0","1","4","4","5","3","4","","4","5","5","2","2","798932137372950529","李","563","","","","","","","","","","","","","","","","","","","","","","","","","","","","","","feedback_test","","","","","","","","","","","",""
"575","","j","psychophysics","11","235733","0.0-7.0-0.0-1.0-0.0-0.1","3","4","3","2","4","3","3","1","3","4","3","4","3","3","4","4","5","4","3","4","3","4","4","4","4","4","4","2","5","0","1","0","0","1","1","1","1","0","0","1","0","1","0","1","4","4","5","3","4","","4","5","5","2","2","798932137372950529","李","563","","","","match","","","","","","","","","","","","","","key","j","16.673838709677277","853.3333333333334","476","j","true","match","img/ellipse.png","椭圆","椭圆","ALT1_1","prac_ALT1_1","","","","","","","","","","","",""
"null","<span style='color:GreenYellow; font-size: 70px;'>正确! </span>","null","html-keyboard-response","12","236234","0.0-7.0-0.0-1.0-0.0-1.1","3","4","3","2","4","3","3","1","3","4","3","4","3","3","4","4","5","4","3","4","3","4","4","4","4","4","4","2","5","0","1","0","0","1","1","1","1","0","0","1","0","1","0","1","4","4","5","3","4","","4","5","5","2","2","798932137372950529","李","563","","","","","","","","","","","","","","","","","","","","","","","","","","","","","","feedback_test","","","","","","","","","","","",""
"533","","j","psychophysics","13","237770","0.0-7.0-0.0-1.0-0.0-0.2","3","4","3","2","4","3","3","1","3","4","3","4","3","3","4","4","5","4","3","4","3","4","4","4","4","4","4","2","5","0","1","0","0","1","1","1","1","0","0","1","0","1","0","1","4","4","5","3","4","","4","5","5","2","2","798932137372950529","李","563","","","","match","","","","","","","","","","","","","","key","j","16.67052222222232","853.3333333333334","476","j","true","match","img/triangle.png","三角","三角","ALT1_1","prac_ALT1_1","","","","","","","","","","","",""
"null","<span style='color:GreenYellow; font-size: 70px;'>正确! </span>","null","html-keyboard-response","14","238271","0.0-7.0-0.0-1.0-0.0-1.2","3","4","3","2","4","3","3","1","3","4","3","4","3","3","4","4","5","4","3","4","3","4","4","4","4","4","4","2","5","0","1","0","0","1","1","1","1","0","0","1","0","1","0","1","4","4","5","3","4","","4","5","5","2","2","798932137372950529","李","563","","","","","","","","","","","","","","","","","","","","","","","","","","","","","","feedback_test","","","","","","","","","","","",""
"628","","f","psychophysics","15","239900","0.0-7.0-0.0-1.0-0.0-0.3","3","4","3","2","4","3","3","1","3","4","3","4","3","3","4","4","5","4","3","4","3","4","4","4","4","4","4","2","5","0","1","0","0","1","1","1","1","0","0","1","0","1","0","1","4","4","5","3","4","","4","5","5","2","2","798932137372950529","李","563","","","","nonmatch","","","","","","","","","","","","","","key","f","16.67348958333332","853.3333333333334","476","f","true","nonmatch","img/triangle.png","椭圆","三角","ALT1_1","prac_ALT1_1","","","","","","","","","","","",""
"null","<span style='color:GreenYellow; font-size: 70px;'>正确! </span>","null","html-keyboard-response","16","240402","0.0-7.0-0.0-1.0-0.0-1.3","3","4","3","2","4","3","3","1","3","4","3","4","3","3","4","4","5","4","3","4","3","4","4","4","4","4","4","2","5","0","1","0","0","1","1","1","1","0","0","1","0","1","0","1","4","4","5","3","4","","4","5","5","2","2","798932137372950529","李","563","","","","","","","","","","","","","","","","","","","","","","","","","","","","","","feedback_test","","","","","","","","","","","",""
"683","","f","psychophysics","17","242088","0.0-7.0-0.0-1.0-0.0-0.4","3","4","3","2","4","3","3","1","3","4","3","4","3","3","4","4","5","4","3","4","3","4","4","4","4","4","4","2","5","0","1","0","0","1","1","1","1","0","0","1","0","1","0","1","4","4","5","3","4","","4","5","5","2","2","798932137372950529","李","563","","","","nonmatch","","","","","","","","","","","","","","key","f","16.67011111111126","853.3333333333334","476","j","false","match","img/ellipse.png","椭圆","椭圆","ALT1_1","prac_ALT1_1","","","","","","","","","","","",""
"null","<span style='color:red; font-size: 70px;'>错误! </span>","null","html-keyboard-response","18","242591","0.0-7.0-0.0-1.0-0.0-1.4","3","4","3","2","4","3","3","1","3","4","3","4","3","3","4","4","5","4","3","4","3","4","4","4","4","4","4","2","5","0","1","0","0","1","1","1","1","0","0","1","0","1","0","1","4","4","5","3","4","","4","5","5","2","2","798932137372950529","李","563","","","","","","","","","","","","","","","","","","","","","","","","","","","","","","feedback_test","","","","","","","","","","","",""
"554","","j","psychophysics","19","244148","0.0-7.0-0.0-1.0-0.0-0.5","3","4","3","2","4","3","3","1","3","4","3","4","3","3","4","4","5","4","3","4","3","4","4","4","4","4","4","2","5","0","1","0","0","1","1","1","1","0","0","1","0","1","0","1","4","4","5","3","4","","4","5","5","2","2","798932137372950529","李","563","","","","match","","","","","","","","","","","","","","key","j","16.672619565217325","853.3333333333334","476","j","true","match","img/hexagon.png","六边","六边","ALT1_1","prac_ALT1_1","","","","","","","","","","","",""
"null","<span style='color:GreenYellow; font-size: 70px;'>正确! </span>","null","html-keyboard-response","20","244649","0.0-7.0-0.0-1.0-0.0-1.5","3","4","3","2","4","3","3","1","3","4","3","4","3","3","4","4","5","4","3","4","3","4","4","4","4","4","4","2","5","0","1","0","0","1","1","1","1","0","0","1","0","1","0","1","4","4","5","3","4","","4","5","5","2","2","798932137372950529","李","563","","","","","","","","","","","","","","","","","","","","","","","","","","","","","","feedback_test","","","","","","","","","","","",""
"538","","j","psychophysics","21","246188","0.0-7.0-0.0-1.0-0.0-0.6","3","4","3","2","4","3","3","1","3","4","3","4","3","3","4","4","5","4","3","4","3","4","4","4","4","4","4","2","5","0","1","0","0","1","1","1","1","0","0","1","0","1","0","1","4","4","5","3","4","","4","5","5","2","2","798932137372950529","李","563","","","","match","","","","","","","","","","","","","","key","j","16.66365217391285","853.3333333333334","476","j","true","match","img/ellipse.png","椭圆","椭圆","ALT1_1","prac_ALT1_1","","","","","","","","","","","",""
"null","<span style='color:GreenYellow; font-size: 70px;'>正确! </span>","null","html-keyboard-response","22","246691","0.0-7.0-0.0-1.0-0.0-1.6","3","4","3","2","4","3","3","1","3","4","3","4","3","3","4","4","5","4","3","4","3","4","4","4","4","4","4","2","5","0","1","0","0","1","1","1","1","0","0","1","0","1","0","1","4","4","5","3","4","","4","5","5","2","2","798932137372950529","李","563","","","","","","","","","","","","","","","","","","","","","","","","","","","","","","feedback_test","","","","","","","","","","","",""
"539","","j","psychophysics","23","248233","0.0-7.0-0.0-1.0-0.0-0.7","3","4","3","2","4","3","3","1","3","4","3","4","3","3","4","4","5","4","3","4","3","4","4","4","4","4","4","2","5","0","1","0","0","1","1","1","1","0","0","1","0","1","0","1","4","4","5","3","4","","4","5","5","2","2","798932137372950529","李","563","","","","match","","","","","","","","","","","","","","key","j","16.671934065934153","853.3333333333334","476","j","true","match","img/square.png","方形","方形","ALT1_1","prac_ALT1_1","","","","","","","","","","","",""
"null","<span style='color:GreenYellow; font-size: 70px;'>正确! </span>","null","html-keyboard-response","24","248740","0.0-7.0-0.0-1.0-0.0-1.7","3","4","3","2","4","3","3","1","3","4","3","4","3","3","4","4","5","4","3","4","3","4","4","4","4","4","4","2","5","0","1","0","0","1","1","1","1","0","0","1","0","1","0","1","4","4","5","3","4","","4","5","5","2","2","798932137372950529","李","563","","","","","","","","","","","","","","","","","","","","","","","","","","","","","","feedback_test","","","","","","","","","","","",""
"649","","f","psychophysics","25","250391","0.0-7.0-0.0-1.0-0.0-0.8","3","4","3","2","4","3","3","1","3","4","3","4","3","3","4","4","5","4","3","4","3","4","4","4","4","4","4","2","5","0","1","0","0","1","1","1","1","0","0","1","0","1","0","1","4","4","5","3","4","","4","5","5","2","2","798932137372950529","李","563","","","","nonmatch","","","","","","","","","","","","","","key","f","16.67069387755105","853.3333333333334","476","f","true","nonmatch","img/triangle.png","方形","三角","ALT1_1","prac_ALT1_1","","","","","","","","","","","",""
"null","<span style='color:GreenYellow; font-size: 70px;'>正确! </span>","null","html-keyboard-response","26","250893","0.0-7.0-0.0-1.0-0.0-1.8","3","4","3","2","4","3","3","1","3","4","3","4","3","3","4","4","5","4","3","4","3","4","4","4","4","4","4","2","5","0","1","0","0","1","1","1","1","0","0","1","0","1","0","1","4","4","5","3","4","","4","5","5","2","2","798932137372950529","李","563","","","","","","","","","","","","","","","","","","","","","","","","","","","","","","feedback_test","","","","","","","","","","","",""
"564","","f","psychophysics","27","252459","0.0-7.0-0.0-1.0-0.0-0.9","3","4","3","2","4","3","3","1","3","4","3","4","3","3","4","4","5","4","3","4","3","4","4","4","4","4","4","2","5","0","1","0","0","1","1","1","1","0","0","1","0","1","0","1","4","4","5","3","4","","4","5","5","2","2","798932137372950529","李","563","","","","nonmatch","","","","","","","","","","","","","","key","f","16.670569892472937","853.3333333333334","476","f","true","nonmatch","img/hexagon.png","椭圆","六边","ALT1_1","prac_ALT1_1","","","","","","","","","","","",""
"null","<span style='color:GreenYellow; font-size: 70px;'>正确! </span>","null","html-keyboard-response","28","252960","0.0-7.0-0.0-1.0-0.0-1.9","3","4","3","2","4","3","3","1","3","4","3","4","3","3","4","4","5","4","3","4","3","4","4","4","4","4","4","2","5","0","1","0","0","1","1","1","1","0","0","1","0","1","0","1","4","4","5","3","4","","4","5","5","2","2","798932137372950529","李","563","","","","","","","","","","","","","","","","","","","","","","","","","","","","","","feedback_test","","","","","","","","","","","",""
"559","","f","psychophysics","29","254519","0.0-7.0-0.0-1.0-0.0-0.10","3","4","3","2","4","3","3","1","3","4","3","4","3","3","4","4","5","4","3","4","3","4","4","4","4","4","4","2","5","0","1","0","0","1","1","1","1","0","0","1","0","1","0","1","4","4","5","3","4","","4","5","5","2","2","798932137372950529","李","563","","","","nonmatch","","","","","","","","","","","","","","key","f","16.670869565217405","853.3333333333334","476","f","true","nonmatch","img/hexagon.png","方形","六边","ALT1_1","prac_ALT1_1","","","","","","","","","","","",""
"null","<span style='color:GreenYellow; font-size: 70px;'>正确! </span>","null","html-keyboard-response","30","255020","0.0-7.0-0.0-1.0-0.0-1.10","3","4","3","2","4","3","3","1","3","4","3","4","3","3","4","4","5","4","3","4","3","4","4","4","4","4","4","2","5","0","1","0","0","1","1","1","1","0","0","1","0","1","0","1","4","4","5","3","4","","4","5","5","2","2","798932137372950529","李","563","","","","","","","","","","","","","","","","","","","","","","","","","","","","","","feedback_test","","","","","","","","","","","",""
"647","","f","psychophysics","31","256669","0.0-7.0-0.0-1.0-0.0-0.11","3","4","3","2","4","3","3","1","3","4","3","4","3","3","4","4","5","4","3","4","3","4","4","4","4","4","4","2","5","0","1","0","0","1","1","1","1","0","0","1","0","1","0","1","4","4","5","3","4","","4","5","5","2","2","798932137372950529","李","563","","","","nonmatch","","","","","","","","","","","","","","key","f","16.67076288659777","853.3333333333334","476","f","true","nonmatch","img/ellipse.png","六边","椭圆","ALT1_1","prac_ALT1_1","","","","","","","","","","","",""
"null","<span style='color:GreenYellow; font-size: 70px;'>正确! </span>","null","html-keyboard-response","32","257171","0.0-7.0-0.0-1.0-0.0-1.11","3","4","3","2","4","3","3","1","3","4","3","4","3","3","4","4","5","4","3","4","3","4","4","4","4","4","4","2","5","0","1","0","0","1","1","1","1","0","0","1","0","1","0","1","4","4","5","3","4","","4","5","5","2","2","798932137372950529","李","563","","","","","","","","","","","","","","","","","","","","","","","","","","","","","","feedback_test","","","","","","","","","","","",""
"541","","f","psychophysics","33","258714","0.0-7.0-0.0-1.0-0.0-0.12","3","4","3","2","4","3","3","1","3","4","3","4","3","3","4","4","5","4","3","4","3","4","4","4","4","4","4","2","5","0","1","0","0","1","1","1","1","0","0","1","0","1","0","1","4","4","5","3","4","","4","5","5","2","2","798932137372950529","李","563","","","","nonmatch","","","","","","","","","","","","","","key","f","16.670021978021754","853.3333333333334","476","f","true","nonmatch","img/square.png","三角","方形","ALT1_1","prac_ALT1_1","","","","","","","","","","","",""
"null","<span style='color:GreenYellow; font-size: 70px;'>正确! </span>","null","html-keyboard-response","34","259215","0.0-7.0-0.0-1.0-0.0-1.12","3","4","3","2","4","3","3","1","3","4","3","4","3","3","4","4","5","4","3","4","3","4","4","4","4","4","4","2","5","0","1","0","0","1","1","1","1","0","0","1","0","1","0","1","4","4","5","3","4","","4","5","5","2","2","798932137372950529","李","563","","","","","","","","","","","","","","","","","","","","","","","","","","","","","","feedback_test","","","","","","","","","","","",""
"500","","f","psychophysics","35","260717","0.0-7.0-0.0-1.0-0.0-0.13","3","4","3","2","4","3","3","1","3","4","3","4","3","3","4","4","5","4","3","4","3","4","4","4","4","4","4","2","5","0","1","0","0","1","1","1","1","0","0","1","0","1","0","1","4","4","5","3","4","","4","5","5","2","2","798932137372950529","李","563","","","","nonmatch","","","","","","","","","","","","","","key","f","16.67057303370832","853.3333333333334","476","f","true","nonmatch","img/hexagon.png","三角","六边","ALT1_1","prac_ALT1_1","","","","","","","","","","","",""
"null","<span style='color:GreenYellow; font-size: 70px;'>正确! </span>","null","html-keyboard-response","36","261218","0.0-7.0-0.0-1.0-0.0-1.13","3","4","3","2","4","3","3","1","3","4","3","4","3","3","4","4","5","4","3","4","3","4","4","4","4","4","4","2","5","0","1","0","0","1","1","1","1","0","0","1","0","1","0","1","4","4","5","3","4","","4","5","5","2","2","798932137372950529","李","563","","","","","","","","","","","","","","","","","","","","","","","","","","","","","","feedback_test","","","","","","","","","","","",""
"542","","j","psychophysics","37","262762","0.0-7.0-0.0-1.0-0.0-0.14","3","4","3","2","4","3","3","1","3","4","3","4","3","3","4","4","5","4","3","4","3","4","4","4","4","4","4","2","5","0","1","0","0","1","1","1","1","0","0","1","0","1","0","1","4","4","5","3","4","","4","5","5","2","2","798932137372950529","李","563","","","","match","","","","","","","","","","","","","","key","j","16.674141304347913","853.3333333333334","476","j","true","match","img/hexagon.png","六边","六边","ALT1_1","prac_ALT1_1","","","","","","","","","","","",""
"null","<span style='color:GreenYellow; font-size: 70px;'>正确! </span>","null","html-keyboard-response","38","263263","0.0-7.0-0.0-1.0-0.0-1.14","3","4","3","2","4","3","3","1","3","4","3","4","3","3","4","4","5","4","3","4","3","4","4","4","4","4","4","2","5","0","1","0","0","1","1","1","1","0","0","1","0","1","0","1","4","4","5","3","4","","4","5","5","2","2","798932137372950529","李","563","","","","","","","","","","","","","","","","","","","","","","","","","","","","","","feedback_test","","","","","","","","","","","",""
"490","","f","psychophysics","39","264755","0.0-7.0-0.0-1.0-0.0-0.15","3","4","3","2","4","3","3","1","3","4","3","4","3","3","4","4","5","4","3","4","3","4","4","4","4","4","4","2","5","0","1","0","0","1","1","1","1","0","0","1","0","1","0","1","4","4","5","3","4","","4","5","5","2","2","798932137372950529","李","563","","","","nonmatch","","","","","","","","","","","","","","key","f","16.671227272727595","853.3333333333334","476","f","true","nonmatch","img/triangle.png","六边","三角","ALT1_1","prac_ALT1_1","","","","","","","","","","","",""
"null","<span style='color:GreenYellow; font-size: 70px;'>正确! </span>","null","html-keyboard-response","40","265256","0.0-7.0-0.0-1.0-0.0-1.15","3","4","3","2","4","3","3","1","3","4","3","4","3","3","4","4","5","4","3","4","3","4","4","4","4","4","4","2","5","0","1","0","0","1","1","1","1","0","0","1","0","1","0","1","4","4","5","3","4","","4","5","5","2","2","798932137372950529","李","563","","","","","","","","","","","","","","","","","","","","","","","","","","","","","","feedback_test","","","","","","","","","","","",""
"574","","f","psychophysics","41","266833","0.0-7.0-0.0-1.0-0.0-0.16","3","4","3","2","4","3","3","1","3","4","3","4","3","3","4","4","5","4","3","4","3","4","4","4","4","4","4","2","5","0","1","0","0","1","1","1","1","0","0","1","0","1","0","1","4","4","5","3","4","","4","5","5","2","2","798932137372950529","李","563","","","","nonmatch","","","","","","","","","","","","","","key","f","16.67365591397812","853.3333333333334","476","f","true","nonmatch","img/ellipse.png","三角","椭圆","ALT1_1","prac_ALT1_1","","","","","","","","","","","",""
"null","<span style='color:GreenYellow; font-size: 70px;'>正确! </span>","null","html-keyboard-response","42","267334","0.0-7.0-0.0-1.0-0.0-1.16","3","4","3","2","4","3","3","1","3","4","3","4","3","3","4","4","5","4","3","4","3","4","4","4","4","4","4","2","5","0","1","0","0","1","1","1","1","0","0","1","0","1","0","1","4","4","5","3","4","","4","5","5","2","2","798932137372950529","李","563","","","","","","","","","","","","","","","","","","","","","","","","","","","","","","feedback_test","","","","","","","","","","","",""
"539","","f","psychophysics","43","268875","0.0-7.0-0.0-1.0-0.0-0.17","3","4","3","2","4","3","3","1","3","4","3","4","3","3","4","4","5","4","3","4","3","4","4","4","4","4","4","2","5","0","1","0","0","1","1","1","1","0","0","1","0","1","0","1","4","4","5","3","4","","4","5","5","2","2","798932137372950529","李","563","","","","nonmatch","","","","","","","","","","","","","","key","f","16.671065934066363","853.3333333333334","476","f","true","nonmatch","img/ellipse.png","方形","椭圆","ALT1_1","prac_ALT1_1","","","","","","","","","","","",""
"null","<span style='color:GreenYellow; font-size: 70px;'>正确! </span>","null","html-keyboard-response","44","269377","0.0-7.0-0.0-1.0-0.0-1.17","3","4","3","2","4","3","3","1","3","4","3","4","3","3","4","4","5","4","3","4","3","4","4","4","4","4","4","2","5","0","1","0","0","1","1","1","1","0","0","1","0","1","0","1","4","4","5","3","4","","4","5","5","2","2","798932137372950529","李","563","","","","","","","","","","","","","","","","","","","","","","","","","","","","","","feedback_test","","","","","","","","","","","",""
"551","","j","psychophysics","45","270931","0.0-7.0-0.0-1.0-0.0-0.18","3","4","3","2","4","3","3","1","3","4","3","4","3","3","4","4","5","4","3","4","3","4","4","4","4","4","4","2","5","0","1","0","0","1","1","1","1","0","0","1","0","1","0","1","4","4","5","3","4","","4","5","5","2","2","798932137372950529","李","563","","","","match","","","","","","","","","","","","","","key","j","16.672956521739252","853.3333333333334","476","j","true","match","img/square.png","方形","方形","ALT1_1","prac_ALT1_1","","","","","","","","","","","",""
"null","<span style='color:GreenYellow; font-size: 70px;'>正确! </span>","null","html-keyboard-response","46","271444","0.0-7.0-0.0-1.0-0.0-1.18","3","4","3","2","4","3","3","1","3","4","3","4","3","3","4","4","5","4","3","4","3","4","4","4","4","4","4","2","5","0","1","0","0","1","1","1","1","0","0","1","0","1","0","1","4","4","5","3","4","","4","5","5","2","2","798932137372950529","李","563","","","","","","","","","","","","","","","","","","","","","","","","","","","","","","feedback_test","","","","","","","","","","","",""
"607","","f","psychophysics","47","273053","0.0-7.0-0.0-1.0-0.0-0.19","3","4","3","2","4","3","3","1","3","4","3","4","3","3","4","4","5","4","3","4","3","4","4","4","4","4","4","2","5","0","1","0","0","1","1","1","1","0","0","1","0","1","0","1","4","4","5","3","4","","4","5","5","2","2","798932137372950529","李","563","","","","nonmatch","","","","","","","","","","","","","","key","f","16.671389473683668","853.3333333333334","476","f","true","nonmatch","img/square.png","六边","方形","ALT1_1","prac_ALT1_1","","","","","","","","","","","",""
"null","<span style='color:GreenYellow; font-size: 70px;'>正确! </span>","null","html-keyboard-response","48","273555","0.0-7.0-0.0-1.0-0.0-1.19","3","4","3","2","4","3","3","1","3","4","3","4","3","3","4","4","5","4","3","4","3","4","4","4","4","4","4","2","5","0","1","0","0","1","1","1","1","0","0","1","0","1","0","1","4","4","5","3","4","","4","5","5","2","2","798932137372950529","李","563","","","","","","","","","","","","","","","","","","","","","","","","","","","","","","feedback_test","","","","","","","","","","","",""
"534","","j","psychophysics","49","275092","0.0-7.0-0.0-1.0-0.0-0.20","3","4","3","2","4","3","3","1","3","4","3","4","3","3","4","4","5","4","3","4","3","4","4","4","4","4","4","2","5","0","1","0","0","1","1","1","1","0","0","1","0","1","0","1","4","4","5","3","4","","4","5","5","2","2","798932137372950529","李","563","","","","match","","","","","","","","","","","","","","key","j","16.671692307692425","853.3333333333334","476","j","true","match","img/triangle.png","三角","三角","ALT1_1","prac_ALT1_1","","","","","","","","","","","",""
"null","<span style='color:GreenYellow; font-size: 70px;'>正确! </span>","null","html-keyboard-response","50","275593","0.0-7.0-0.0-1.0-0.0-1.20","3","4","3","2","4","3","3","1","3","4","3","4","3","3","4","4","5","4","3","4","3","4","4","4","4","4","4","2","5","0","1","0","0","1","1","1","1","0","0","1","0","1","0","1","4","4","5","3","4","","4","5","5","2","2","798932137372950529","李","563","","","","","","","","","","","","","","","","","","","","","","","","","","","","","","feedback_test","","","","","","","","","","","",""
"570","","j","psychophysics","51","277165","0.0-7.0-0.0-1.0-0.0-0.21","3","4","3","2","4","3","3","1","3","4","3","4","3","3","4","4","5","4","3","4","3","4","4","4","4","4","4","2","5","0","1","0","0","1","1","1","1","0","0","1","0","1","0","1","4","4","5","3","4","","4","5","5","2","2","798932137372950529","李","563","","","","match","","","","","","","","","","","","","","key","j","16.988538461539044","853.3333333333334","476","j","true","match","img/triangle.png","三角","三角","ALT1_1","prac_ALT1_1","","","","","","","","","","","",""
"null","<span style='color:GreenYellow; font-size: 70px;'>正确! </span>","null","html-keyboard-response","52","277667","0.0-7.0-0.0-1.0-0.0-1.21","3","4","3","2","4","3","3","1","3","4","3","4","3","3","4","4","5","4","3","4","3","4","4","4","4","4","4","2","5","0","1","0","0","1","1","1","1","0","0","1","0","1","0","1","4","4","5","3","4","","4","5","5","2","2","798932137372950529","李","563","","","","","","","","","","","","","","","","","","","","","","","","","","","","","","feedback_test","","","","","","","","","","","",""
"558","","f","psychophysics","53","279227","0.0-7.0-0.0-1.0-0.0-0.22","3","4","3","2","4","3","3","1","3","4","3","4","3","3","4","4","5","4","3","4","3","4","4","4","4","4","4","2","5","0","1","0","0","1","1","1","1","0","0","1","0","1","0","1","4","4","5","3","4","","4","5","5","2","2","798932137372950529","李","563","","","","nonmatch","","","","","","","","","","","","","","key","f","16.830054945055302","853.3333333333334","476","f","true","nonmatch","img/square.png","椭圆","方形","ALT1_1","prac_ALT1_1","","","","","","","","","","","",""
"null","<span style='color:GreenYellow; font-size: 70px;'>正确! </span>","null","html-keyboard-response","54","279729","0.0-7.0-0.0-1.0-0.0-1.22","3","4","3","2","4","3","3","1","3","4","3","4","3","3","4","4","5","4","3","4","3","4","4","4","4","4","4","2","5","0","1","0","0","1","1","1","1","0","0","1","0","1","0","1","4","4","5","3","4","","4","5","5","2","2","798932137372950529","李","563","","","","","","","","","","","","","","","","","","","","","","","","","","","","","","feedback_test","","","","","","","","","","","",""
"507","","j","psychophysics","55","281238","0.0-7.0-0.0-1.0-0.0-0.23","3","4","3","2","4","3","3","1","3","4","3","4","3","3","4","4","5","4","3","4","3","4","4","4","4","4","4","2","5","0","1","0","0","1","1","1","1","0","0","1","0","1","0","1","4","4","5","3","4","","4","5","5","2","2","798932137372950529","李","563","","","","match","","","","","","","","","","","","","","key","j","16.89673863636364","853.3333333333334","476","j","true","match","img/square.png","方形","方形","ALT1_1","prac_ALT1_1","","","","","","","","","","","",""
"null","<span style='color:GreenYellow; font-size: 70px;'>正确! </span>","null","html-keyboard-response","56","281739","0.0-7.0-0.0-1.0-0.0-1.23","3","4","3","2","4","3","3","1","3","4","3","4","3","3","4","4","5","4","3","4","3","4","4","4","4","4","4","2","5","0","1","0","0","1","1","1","1","0","0","1","0","1","0","1","4","4","5","3","4","","4","5","5","2","2","798932137372950529","李","563","","","","","","","","","","","","","","","","","","","","","","","","","","","","","","feedback_test","","","","","","","","","","","",""
"586","","f","psychophysics","57","283327","0.0-7.0-0.0-1.0-0.0-0.24","3","4","3","2","4","3","3","1","3","4","3","4","3","3","4","4","5","4","3","4","3","4","4","4","4","4","4","2","5","0","1","0","0","1","1","1","1","0","0","1","0","1","0","1","4","4","5","3","4","","4","5","5","2","2","798932137372950529","李","563","","","","nonmatch","","","","","","","","","","","","","","key","f","16.64225531914866","853.3333333333334","476","f","true","nonmatch","img/square.png","三角","方形","ALT1_1","prac_ALT1_1","","","","","","","","","","","",""
"null","<span style='color:GreenYellow; font-size: 70px;'>正确! </span>","null","html-keyboard-response","58","283828","0.0-7.0-0.0-1.0-0.0-1.24","3","4","3","2","4","3","3","1","3","4","3","4","3","3","4","4","5","4","3","4","3","4","4","4","4","4","4","2","5","0","1","0","0","1","1","1","1","0","0","1","0","1","0","1","4","4","5","3","4","","4","5","5","2","2","798932137372950529","李","563","","","","","","","","","","","","","","","","","","","","","","","","","","","","","","feedback_test","","","","","","","","","","","",""
"573","","f","psychophysics","59","285403","0.0-7.0-0.0-1.0-0.0-0.25","3","4","3","2","4","3","3","1","3","4","3","4","3","3","4","4","5","4","3","4","3","4","4","4","4","4","4","2","5","0","1","0","0","1","1","1","1","0","0","1","0","1","0","1","4","4","5","3","4","","4","5","5","2","2","798932137372950529","李","563","","","","nonmatch","","","","","","","","","","","","","","key","f","16.64915053763424","853.3333333333334","476","f","true","nonmatch","img/triangle.png","椭圆","三角","ALT1_1","prac_ALT1_1","","","","","","","","","","","",""
"null","<span style='color:GreenYellow; font-size: 70px;'>正确! </span>","null","html-keyboard-response","60","285905","0.0-7.0-0.0-1.0-0.0-1.25","3","4","3","2","4","3","3","1","3","4","3","4","3","3","4","4","5","4","3","4","3","4","4","4","4","4","4","2","5","0","1","0","0","1","1","1","1","0","0","1","0","1","0","1","4","4","5","3","4","","4","5","5","2","2","798932137372950529","李","563","","","","","","","","","","","","","","","","","","","","","","","","","","","","","","feedback_test","","","","","","","","","","","",""
"556","","j","psychophysics","61","287462","0.0-7.0-0.0-1.0-0.0-0.26","3","4","3","2","4","3","3","1","3","4","3","4","3","3","4","4","5","4","3","4","3","4","4","4","4","4","4","2","5","0","1","0","0","1","1","1","1","0","0","1","0","1","0","1","4","4","5","3","4","","4","5","5","2","2","798932137372950529","李","563","","","","match","","","","","","","","","","","","","","key","j","16.679728260869286","853.3333333333334","476","j","true","match","img/triangle.png","三角","三角","ALT1_1","prac_ALT1_1","","","","","","","","","","","",""
"null","<span style='color:GreenYellow; font-size: 70px;'>正确! </span>","null","html-keyboard-response","62","287964","0.0-7.0-0.0-1.0-0.0-1.26","3","4","3","2","4","3","3","1","3","4","3","4","3","3","4","4","5","4","3","4","3","4","4","4","4","4","4","2","5","0","1","0","0","1","1","1","1","0","0","1","0","1","0","1","4","4","5","3","4","","4","5","5","2","2","798932137372950529","李","563","","","","","","","","","","","","","","","","","","","","","","","","","","","","","","feedback_test","","","","","","","","","","","",""
"513","","j","psychophysics","63","289478","0.0-7.0-0.0-1.0-0.0-0.27","3","4","3","2","4","3","3","1","3","4","3","4","3","3","4","4","5","4","3","4","3","4","4","4","4","4","4","2","5","0","1","0","0","1","1","1","1","0","0","1","0","1","0","1","4","4","5","3","4","","4","5","5","2","2","798932137372950529","李","563","","","","match","","","","","","","","","","","","","","key","j","16.602666666666565","853.3333333333334","476","j","true","match","img/hexagon.png","六边","六边","ALT1_1","prac_ALT1_1","","","","","","","","","","","",""
"null","<span style='color:GreenYellow; font-size: 70px;'>正确! </span>","null","html-keyboard-response","64","289979","0.0-7.0-0.0-1.0-0.0-1.27","3","4","3","2","4","3","3","1","3","4","3","4","3","3","4","4","5","4","3","4","3","4","4","4","4","4","4","2","5","0","1","0","0","1","1","1","1","0","0","1","0","1","0","1","4","4","5","3","4","","4","5","5","2","2","798932137372950529","李","563","","","","","","","","","","","","","","","","","","","","","","","","","","","","","","feedback_test","","","","","","","","","","","",""
"571","","f","psychophysics","65","291552","0.0-7.0-0.0-1.0-0.0-0.28","3","4","3","2","4","3","3","1","3","4","3","4","3","3","4","4","5","4","3","4","3","4","4","4","4","4","4","2","5","0","1","0","0","1","1","1","1","0","0","1","0","1","0","1","4","4","5","3","4","","4","5","5","2","2","798932137372950529","李","563","","","","nonmatch","","","","","","","","","","","","","","key","f","16.66729032258085","853.3333333333334","476","f","true","nonmatch","img/hexagon.png","椭圆","六边","ALT1_1","prac_ALT1_1","","","","","","","","","","","",""
"null","<span style='color:GreenYellow; font-size: 70px;'>正确! </span>","null","html-keyboard-response","66","292067","0.0-7.0-0.0-1.0-0.0-1.28","3","4","3","2","4","3","3","1","3","4","3","4","3","3","4","4","5","4","3","4","3","4","4","4","4","4","4","2","5","0","1","0","0","1","1","1","1","0","0","1","0","1","0","1","4","4","5","3","4","","4","5","5","2","2","798932137372950529","李","563","","","","","","","","","","","","","","","","","","","","","","","","","","","","","","feedback_test","","","","","","","","","","","",""
"540","","j","psychophysics","67","293609","0.0-7.0-0.0-1.0-0.0-0.29","3","4","3","2","4","3","3","1","3","4","3","4","3","3","4","4","5","4","3","4","3","4","4","4","4","4","4","2","5","0","1","0","0","1","1","1","1","0","0","1","0","1","0","1","4","4","5","3","4","","4","5","5","2","2","798932137372950529","李","563","","","","match","","","","","","","","","","","","","","key","j","16.67005494505469","853.3333333333334","476","j","true","match","img/square.png","方形","方形","ALT1_1","prac_ALT1_1","","","","","","","","","","","",""
"null","<span style='color:GreenYellow; font-size: 70px;'>正确! </span>","null","html-keyboard-response","68","294110","0.0-7.0-0.0-1.0-0.0-1.29","3","4","3","2","4","3","3","1","3","4","3","4","3","3","4","4","5","4","3","4","3","4","4","4","4","4","4","2","5","0","1","0","0","1","1","1","1","0","0","1","0","1","0","1","4","4","5","3","4","","4","5","5","2","2","798932137372950529","李","563","","","","","","","","","","","","","","","","","","","","","","","","","","","","","","feedback_test","","","","","","","","","","","",""
"584","","f","psychophysics","69","295696","0.0-7.0-0.0-1.0-0.0-0.30","3","4","3","2","4","3","3","1","3","4","3","4","3","3","4","4","5","4","3","4","3","4","4","4","4","4","4","2","5","0","1","0","0","1","1","1","1","0","0","1","0","1","0","1","4","4","5","3","4","","4","5","5","2","2","798932137372950529","李","563","","","","nonmatch","","","","","","","","","","","","","","key","f","16.639755319149426","853.3333333333334","476","f","true","nonmatch","img/triangle.png","六边","三角","ALT1_1","prac_ALT1_1","","","","","","","","","","","",""
"null","<span style='color:GreenYellow; font-size: 70px;'>正确! </span>","null","html-keyboard-response","70","296198","0.0-7.0-0.0-1.0-0.0-1.30","3","4","3","2","4","3","3","1","3","4","3","4","3","3","4","4","5","4","3","4","3","4","4","4","4","4","4","2","5","0","1","0","0","1","1","1","1","0","0","1","0","1","0","1","4","4","5","3","4","","4","5","5","2","2","798932137372950529","李","563","","","","","","","","","","","","","","","","","","","","","","","","","","","","","","feedback_test","","","","","","","","","","","",""
"530","","f","psychophysics","71","297746","0.0-7.0-0.0-1.0-0.0-0.31","3","4","3","2","4","3","3","1","3","4","3","4","3","3","4","4","5","4","3","4","3","4","4","4","4","4","4","2","5","0","1","0","0","1","1","1","1","0","0","1","0","1","0","1","4","4","5","3","4","","4","5","5","2","2","798932137372950529","李","563","","","","nonmatch","","","","","","","","","","","","","","key","f","17.019944444444263","853.3333333333334","476","f","true","nonmatch","img/square.png","椭圆","方形","ALT1_1","prac_ALT1_1","","","","","","","","","","","",""
"null","<span style='color:GreenYellow; font-size: 70px;'>正确! </span>","null","html-keyboard-response","72","298248","0.0-7.0-0.0-1.0-0.0-1.31","3","4","3","2","4","3","3","1","3","4","3","4","3","3","4","4","5","4","3","4","3","4","4","4","4","4","4","2","5","0","1","0","0","1","1","1","1","0","0","1","0","1","0","1","4","4","5","3","4","","4","5","5","2","2","798932137372950529","李","563","","","","","","","","","","","","","","","","","","","","","","","","","","","","","","feedback_test","","","","","","","","","","","",""
"584","","j","psychophysics","73","299834","0.0-7.0-0.0-1.0-0.0-0.32","3","4","3","2","4","3","3","1","3","4","3","4","3","3","4","4","5","4","3","4","3","4","4","4","4","4","4","2","5","0","1","0","0","1","1","1","1","0","0","1","0","1","0","1","4","4","5","3","4","","4","5","5","2","2","798932137372950529","李","563","","","","match","","","","","","","","","","","","","","key","j","16.66127956989259","853.3333333333334","476","j","true","match","img/square.png","方形","方形","ALT1_1","prac_ALT1_1","","","","","","","","","","","",""
"null","<span style='color:GreenYellow; font-size: 70px;'>正确! </span>","null","html-keyboard-response","74","300335","0.0-7.0-0.0-1.0-0.0-1.32","3","4","3","2","4","3","3","1","3","4","3","4","3","3","4","4","5","4","3","4","3","4","4","4","4","4","4","2","5","0","1","0","0","1","1","1","1","0","0","1","0","1","0","1","4","4","5","3","4","","4","5","5","2","2","798932137372950529","李","563","","","","","","","","","","","","","","","","","","","","","","","","","","","","","","feedback_test","","","","","","","","","","","",""
"563","","f","psychophysics","75","301900","0.0-7.0-0.0-1.0-0.0-0.33","3","4","3","2","4","3","3","1","3","4","3","4","3","3","4","4","5","4","3","4","3","4","4","4","4","4","4","2","5","0","1","0","0","1","1","1","1","0","0","1","0","1","0","1","4","4","5","3","4","","4","5","5","2","2","798932137372950529","李","563","","","","nonmatch","","","","","","","","","","","","","","key","f","16.666728260869327","853.3333333333334","476","j","false","match","img/ellipse.png","椭圆","椭圆","ALT1_1","prac_ALT1_1","","","","","","","","","","","",""
"null","<span style='color:red; font-size: 70px;'>错误! </span>","null","html-keyboard-response","76","302401","0.0-7.0-0.0-1.0-0.0-1.33","3","4","3","2","4","3","3","1","3","4","3","4","3","3","4","4","5","4","3","4","3","4","4","4","4","4","4","2","5","0","1","0","0","1","1","1","1","0","0","1","0","1","0","1","4","4","5","3","4","","4","5","5","2","2","798932137372950529","李","563","","","","","","","","","","","","","","","","","","","","","","","","","","","","","","feedback_test","","","","","","","","","","","",""
"619","","f","psychophysics","77","304021","0.0-7.0-0.0-1.0-0.0-0.34","3","4","3","2","4","3","3","1","3","4","3","4","3","3","4","4","5","4","3","4","3","4","4","4","4","4","4","2","5","0","1","0","0","1","1","1","1","0","0","1","0","1","0","1","4","4","5","3","4","","4","5","5","2","2","798932137372950529","李","563","","","","nonmatch","","","","","","","","","","","","","","key","f","16.66573958333356","853.3333333333334","476","f","true","nonmatch","img/ellipse.png","方形","椭圆","ALT1_1","prac_ALT1_1","","","","","","","","","","","",""
"null","<span style='color:GreenYellow; font-size: 70px;'>正确! </span>","null","html-keyboard-response","78","304524","0.0-7.0-0.0-1.0-0.0-1.34","3","4","3","2","4","3","3","1","3","4","3","4","3","3","4","4","5","4","3","4","3","4","4","4","4","4","4","2","5","0","1","0","0","1","1","1","1","0","0","1","0","1","0","1","4","4","5","3","4","","4","5","5","2","2","798932137372950529","李","563","","","","","","","","","","","","","","","","","","","","","","","","","","","","","","feedback_test","","","","","","","","","","","",""
"601","","f","psychophysics","79","306127","0.0-7.0-0.0-1.0-0.0-0.35","3","4","3","2","4","3","3","1","3","4","3","4","3","3","4","4","5","4","3","4","3","4","4","4","4","4","4","2","5","0","1","0","0","1","1","1","1","0","0","1","0","1","0","1","4","4","5","3","4","","4","5","5","2","2","798932137372950529","李","563","","","","nonmatch","","","","","","","","","","","","","","key","f","16.67035789473693","853.3333333333334","476","f","true","nonmatch","img/square.png","六边","方形","ALT1_1","prac_ALT1_1","","","","","","","","","","","",""
"null","<span style='color:GreenYellow; font-size: 70px;'>正确! </span>","null","html-keyboard-response","80","306629","0.0-7.0-0.0-1.0-0.0-1.35","3","4","3","2","4","3","3","1","3","4","3","4","3","3","4","4","5","4","3","4","3","4","4","4","4","4","4","2","5","0","1","0","0","1","1","1","1","0","0","1","0","1","0","1","4","4","5","3","4","","4","5","5","2","2","798932137372950529","李","563","","","","","","","","","","","","","","","","","","","","","","","","","","","","","","feedback_test","","","","","","","","","","","",""
"534","","j","psychophysics","81","308165","0.0-7.0-0.0-1.0-0.0-0.36","3","4","3","2","4","3","3","1","3","4","3","4","3","3","4","4","5","4","3","4","3","4","4","4","4","4","4","2","5","0","1","0","0","1","1","1","1","0","0","1","0","1","0","1","4","4","5","3","4","","4","5","5","2","2","798932137372950529","李","563","","","","match","","","","","","","","","","","","","","key","j","16.669670329670357","853.3333333333334","476","j","true","match","img/hexagon.png","六边","六边","ALT1_1","prac_ALT1_1","","","","","","","","","","","",""
"null","<span style='color:GreenYellow; font-size: 70px;'>正确! </span>","null","html-keyboard-response","82","308666","0.0-7.0-0.0-1.0-0.0-1.36","3","4","3","2","4","3","3","1","3","4","3","4","3","3","4","4","5","4","3","4","3","4","4","4","4","4","4","2","5","0","1","0","0","1","1","1","1","0","0","1","0","1","0","1","4","4","5","3","4","","4","5","5","2","2","798932137372950529","李","563","","","","","","","","","","","","","","","","","","","","","","","","","","","","","","feedback_test","","","","","","","","","","","",""
"544","","j","psychophysics","83","310212","0.0-7.0-0.0-1.0-0.0-0.37","3","4","3","2","4","3","3","1","3","4","3","4","3","3","4","4","5","4","3","4","3","4","4","4","4","4","4","2","5","0","1","0","0","1","1","1","1","0","0","1","0","1","0","1","4","4","5","3","4","","4","5","5","2","2","798932137372950529","李","563","","","","match","","","","","","","","","","","","","","key","j","16.67093478260896","853.3333333333334","476","j","true","match","img/triangle.png","三角","三角","ALT1_1","prac_ALT1_1","","","","","","","","","","","",""
"null","<span style='color:GreenYellow; font-size: 70px;'>正确! </span>","null","html-keyboard-response","84","310713","0.0-7.0-0.0-1.0-0.0-1.37","3","4","3","2","4","3","3","1","3","4","3","4","3","3","4","4","5","4","3","4","3","4","4","4","4","4","4","2","5","0","1","0","0","1","1","1","1","0","0","1","0","1","0","1","4","4","5","3","4","","4","5","5","2","2","798932137372950529","李","563","","","","","","","","","","","","","","","","","","","","","","","","","","","","","","feedback_test","","","","","","","","","","","",""
"584","","f","psychophysics","85","312298","0.0-7.0-0.0-1.0-0.0-0.38","3","4","3","2","4","3","3","1","3","4","3","4","3","3","4","4","5","4","3","4","3","4","4","4","4","4","4","2","5","0","1","0","0","1","1","1","1","0","0","1","0","1","0","1","4","4","5","3","4","","4","5","5","2","2","798932137372950529","李","563","","","","nonmatch","","","","","","","","","","","","","","key","f","16.67079787234035","853.3333333333334","476","f","true","nonmatch","img/ellipse.png","三角","椭圆","ALT1_1","prac_ALT1_1","","","","","","","","","","","",""
"null","<span style='color:GreenYellow; font-size: 70px;'>正确! </span>","null","html-keyboard-response","86","312800","0.0-7.0-0.0-1.0-0.0-1.38","3","4","3","2","4","3","3","1","3","4","3","4","3","3","4","4","5","4","3","4","3","4","4","4","4","4","4","2","5","0","1","0","0","1","1","1","1","0","0","1","0","1","0","1","4","4","5","3","4","","4","5","5","2","2","798932137372950529","李","563","","","","","","","","","","","","","","","","","","","","","","","","","","","","","","feedback_test","","","","","","","","","","","",""
"567","","f","psychophysics","87","314370","0.0-7.0-0.0-1.0-0.0-0.39","3","4","3","2","4","3","3","1","3","4","3","4","3","3","4","4","5","4","3","4","3","4","4","4","4","4","4","2","5","0","1","0","0","1","1","1","1","0","0","1","0","1","0","1","4","4","5","3","4","","4","5","5","2","2","798932137372950529","李","563","","","","nonmatch","","","","","","","","","","","","","","key","f","16.670892473118084","853.3333333333334","476","f","true","nonmatch","img/ellipse.png","六边","椭圆","ALT1_1","prac_ALT1_1","","","","","","","","","","","",""
"null","<span style='color:GreenYellow; font-size: 70px;'>正确! </span>","null","html-keyboard-response","88","314872","0.0-7.0-0.0-1.0-0.0-1.39","3","4","3","2","4","3","3","1","3","4","3","4","3","3","4","4","5","4","3","4","3","4","4","4","4","4","4","2","5","0","1","0","0","1","1","1","1","0","0","1","0","1","0","1","4","4","5","3","4","","4","5","5","2","2","798932137372950529","李","563","","","","","","","","","","","","","","","","","","","","","","","","","","","","","","feedback_test","","","","","","","","","","","",""
"562","","f","psychophysics","89","316436","0.0-7.0-0.0-1.0-0.0-0.40","3","4","3","2","4","3","3","1","3","4","3","4","3","3","4","4","5","4","3","4","3","4","4","4","4","4","4","2","5","0","1","0","0","1","1","1","1","0","0","1","0","1","0","1","4","4","5","3","4","","4","5","5","2","2","798932137372950529","李","563","","","","nonmatch","","","","","","","","","","","","","","key","f","16.667913043477988","853.3333333333334","476","f","true","nonmatch","img/triangle.png","方形","三角","ALT1_1","prac_ALT1_1","","","","","","","","","","","",""
"null","<span style='color:GreenYellow; font-size: 70px;'>正确! </span>","null","html-keyboard-response","90","316937","0.0-7.0-0.0-1.0-0.0-1.40","3","4","3","2","4","3","3","1","3","4","3","4","3","3","4","4","5","4","3","4","3","4","4","4","4","4","4","2","5","0","1","0","0","1","1","1","1","0","0","1","0","1","0","1","4","4","5","3","4","","4","5","5","2","2","798932137372950529","李","563","","","","","","","","","","","","","","","","","","","","","","","","","","","","","","feedback_test","","","","","","","","","","","",""
"599","","j","psychophysics","91","318537","0.0-7.0-0.0-1.0-0.0-0.41","3","4","3","2","4","3","3","1","3","4","3","4","3","3","4","4","5","4","3","4","3","4","4","4","4","4","4","2","5","0","1","0","0","1","1","1","1","0","0","1","0","1","0","1","4","4","5","3","4","","4","5","5","2","2","798932137372950529","李","563","","","","match","","","","","","","","","","","","","","key","j","16.670702127659286","853.3333333333334","476","j","true","match","img/ellipse.png","椭圆","椭圆","ALT1_1","prac_ALT1_1","","","","","","","","","","","",""
"null","<span style='color:GreenYellow; font-size: 70px;'>正确! </span>","null","html-keyboard-response","92","319039","0.0-7.0-0.0-1.0-0.0-1.41","3","4","3","2","4","3","3","1","3","4","3","4","3","3","4","4","5","4","3","4","3","4","4","4","4","4","4","2","5","0","1","0","0","1","1","1","1","0","0","1","0","1","0","1","4","4","5","3","4","","4","5","5","2","2","798932137372950529","李","563","","","","","","","","","","","","","","","","","","","","","","","","","","","","","","feedback_test","","","","","","","","","","","",""
"542","","f","psychophysics","93","320583","0.0-7.0-0.0-1.0-0.0-0.42","3","4","3","2","4","3","3","1","3","4","3","4","3","3","4","4","5","4","3","4","3","4","4","4","4","4","4","2","5","0","1","0","0","1","1","1","1","0","0","1","0","1","0","1","4","4","5","3","4","","4","5","5","2","2","798932137372950529","李","563","","","","nonmatch","","","","","","","","","","","","","","key","f","16.66867032967083","853.3333333333334","476","f","true","nonmatch","img/hexagon.png","方形","六边","ALT1_1","prac_ALT1_1","","","","","","","","","","","",""
"null","<span style='color:GreenYellow; font-size: 70px;'>正确! </span>","null","html-keyboard-response","94","321085","0.0-7.0-0.0-1.0-0.0-1.42","3","4","3","2","4","3","3","1","3","4","3","4","3","3","4","4","5","4","3","4","3","4","4","4","4","4","4","2","5","0","1","0","0","1","1","1","1","0","0","1","0","1","0","1","4","4","5","3","4","","4","5","5","2","2","798932137372950529","李","563","","","","","","","","","","","","","","","","","","","","","","","","","","","","","","feedback_test","","","","","","","","","","","",""
"529","","f","psychophysics","95","322615","0.0-7.0-0.0-1.0-0.0-0.43","3","4","3","2","4","3","3","1","3","4","3","4","3","3","4","4","5","4","3","4","3","4","4","4","4","4","4","2","5","0","1","0","0","1","1","1","1","0","0","1","0","1","0","1","4","4","5","3","4","","4","5","5","2","2","798932137372950529","李","563","","","","nonmatch","","","","","","","","","","","","","","key","f","17.04635955056168","853.3333333333334","476","f","true","nonmatch","img/hexagon.png","三角","六边","ALT1_1","prac_ALT1_1","","","","","","","","","","","",""
"null","<span style='color:GreenYellow; font-size: 70px;'>正确! </span>","null","html-keyboard-response","96","323117","0.0-7.0-0.0-1.0-0.0-1.43","3","4","3","2","4","3","3","1","3","4","3","4","3","3","4","4","5","4","3","4","3","4","4","4","4","4","4","2","5","0","1","0","0","1","1","1","1","0","0","1","0","1","0","1","4","4","5","3","4","","4","5","5","2","2","798932137372950529","李","563","","","","","","","","","","","","","","","","","","","","","","","","","","","","","","feedback_test","","","","","","","","","","","",""
"520","","j","psychophysics","97","324639","0.0-7.0-0.0-1.0-0.0-0.44","3","4","3","2","4","3","3","1","3","4","3","4","3","3","4","4","5","4","3","4","3","4","4","4","4","4","4","2","5","0","1","0","0","1","1","1","1","0","0","1","0","1","0","1","4","4","5","3","4","","4","5","5","2","2","798932137372950529","李","563","","","","match","","","","","","","","","","","","","","key","j","16.672766666666657","853.3333333333334","476","j","true","match","img/triangle.png","三角","三角","ALT1_1","prac_ALT1_1","","","","","","","","","","","",""
"null","<span style='color:GreenYellow; font-size: 70px;'>正确! </span>","null","html-keyboard-response","98","325140","0.0-7.0-0.0-1.0-0.0-1.44","3","4","3","2","4","3","3","1","3","4","3","4","3","3","4","4","5","4","3","4","3","4","4","4","4","4","4","2","5","0","1","0","0","1","1","1","1","0","0","1","0","1","0","1","4","4","5","3","4","","4","5","5","2","2","798932137372950529","李","563","","","","","","","","","","","","","","","","","","","","","","","","","","","","","","feedback_test","","","","","","","","","","","",""
"490","","j","psychophysics","99","326633","0.0-7.0-0.0-1.0-0.0-0.45","3","4","3","2","4","3","3","1","3","4","3","4","3","3","4","4","5","4","3","4","3","4","4","4","4","4","4","2","5","0","1","0","0","1","1","1","1","0","0","1","0","1","0","1","4","4","5","3","4","","4","5","5","2","2","798932137372950529","李","563","","","","match","","","","","","","","","","","","","","key","j","16.672011363636226","853.3333333333334","476","j","true","match","img/square.png","方形","方形","ALT1_1","prac_ALT1_1","","","","","","","","","","","",""
"null","<span style='color:GreenYellow; font-size: 70px;'>正确! </span>","null","html-keyboard-response","100","327135","0.0-7.0-0.0-1.0-0.0-1.45","3","4","3","2","4","3","3","1","3","4","3","4","3","3","4","4","5","4","3","4","3","4","4","4","4","4","4","2","5","0","1","0","0","1","1","1","1","0","0","1","0","1","0","1","4","4","5","3","4","","4","5","5","2","2","798932137372950529","李","563","","","","","","","","","","","","","","","","","","","","","","","","","","","","","","feedback_test","","","","","","","","","","","",""
"573","","j","psychophysics","101","328709","0.0-7.0-0.0-1.0-0.0-0.46","3","4","3","2","4","3","3","1","3","4","3","4","3","3","4","4","5","4","3","4","3","4","4","4","4","4","4","2","5","0","1","0","0","1","1","1","1","0","0","1","0","1","0","1","4","4","5","3","4","","4","5","5","2","2","798932137372950529","李","563","","","","match","","","","","","","","","","","","","","key","j","16.66832258064495","853.3333333333334","476","j","true","match","img/ellipse.png","椭圆","椭圆","ALT1_1","prac_ALT1_1","","","","","","","","","","","",""
"null","<span style='color:GreenYellow; font-size: 70px;'>正确! </span>","null","html-keyboard-response","102","329210","0.0-7.0-0.0-1.0-0.0-1.46","3","4","3","2","4","3","3","1","3","4","3","4","3","3","4","4","5","4","3","4","3","4","4","4","4","4","4","2","5","0","1","0","0","1","1","1","1","0","0","1","0","1","0","1","4","4","5","3","4","","4","5","5","2","2","798932137372950529","李","563","","","","","","","","","","","","","","","","","","","","","","","","","","","","","","feedback_test","","","","","","","","","","","",""
"483","","j","psychophysics","103","330694","0.0-7.0-0.0-1.0-0.0-0.47","3","4","3","2","4","3","3","1","3","4","3","4","3","3","4","4","5","4","3","4","3","4","4","4","4","4","4","2","5","0","1","0","0","1","1","1","1","0","0","1","0","1","0","1","4","4","5","3","4","","4","5","5","2","2","798932137372950529","李","563","","","","match","","","","","","","","","","","","","","key","j","16.669919540229838","853.3333333333334","476","j","true","match","img/hexagon.png","六边","六边","ALT1_1","prac_ALT1_1","","","","","","","","","","","",""
"null","<span style='color:GreenYellow; font-size: 70px;'>正确! </span>","null","html-keyboard-response","104","331196","0.0-7.0-0.0-1.0-0.0-1.47","3","4","3","2","4","3","3","1","3","4","3","4","3","3","4","4","5","4","3","4","3","4","4","4","4","4","4","2","5","0","1","0","0","1","1","1","1","0","0","1","0","1","0","1","4","4","5","3","4","","4","5","5","2","2","798932137372950529","李","563","","","","","","","","","","","","","","","","","","","","","","","","","","","","","","feedback_test","","","","","","","","","","","",""
"105162","<style>.context{color:white; font-size: 35px; line-height:40px}</style>                            <div><p class='context'>您正确回答了96% 的试次。</p><p class='context'>您的平均反应时为558毫秒。</p><p class='context'>恭喜您完成练习。按空格键进入正式实验。</p><p class='footer' style='font-size: 35px; line-height:40px;'>请在进入正式实验之前将您的<span style='color: lightgreen;'>食指</span>放在电脑键盘的相应键位上进行按键。</p>"," ","html-keyboard-response","105","436361","0.0-7.0-0.0-2.0","3","4","3","2","4","3","3","1","3","4","3","4","3","3","4","4","5","4","3","4","3","4","4","4","4","4","4","2","5","0","1","0","0","1","1","1","1","0","0","1","0","1","0","1","4","4","5","3","4","","4","5","5","2","2","798932137372950529","李","563","","","","","","","","","","","","","","","","","","","","","","","","","","","","","","","","","","","","","","","","","",""
"3812","
    <p style='color: white; font-size: 22px'>请您将手指放在按键上，准备进入正式的匹配任务。</p>
    <p> <div style = ""color: green""><按空格键进入下一阶段的匹配任务></div></p>
    "," ","html-keyboard-response","106","440176","0.0-7.0-0.0-3.0","3","4","3","2","4","3","3","1","3","4","3","4","3","3","4","4","5","4","3","4","3","4","4","4","4","4","4","2","5","0","1","0","0","1","1","1","1","0","0","1","0","1","0","1","4","4","5","3","4","","4","5","5","2","2","798932137372950529","李","563","","","","","","","","","","","","","","","","","","","","","","","","","","","","","","","","","","","","","","","","","",""
"548","","j","psychophysics","107","441726","0.0-7.0-0.0-4.0-0.0-0.0","3","4","3","2","4","3","3","1","3","4","3","4","3","3","4","4","5","4","3","4","3","4","4","4","4","4","4","2","5","0","1","0","0","1","1","1","1","0","0","1","0","1","0","1","4","4","5","3","4","","4","5","5","2","2","798932137372950529","李","563","","","","match","","","","","","","","","","","","","","key","j","16.6769239130435","853.3333333333334","476","f","false","nonmatch","img/square.png","六边","方形","ALT1","formal_ALT1_1","","","","","","","","","","","",""
"null","<span style='color:red; font-size: 70px;'>错误! </span>","null","html-keyboard-response","108","442227","0.0-7.0-0.0-4.0-0.0-1.0","3","4","3","2","4","3","3","1","3","4","3","4","3","3","4","4","5","4","3","4","3","4","4","4","4","4","4","2","5","0","1","0","0","1","1","1","1","0","0","1","0","1","0","1","4","4","5","3","4","","4","5","5","2","2","798932137372950529","李","563","","","","","","","","","","","","","","","","","","","","","","","","","","","","","","feedback_test","","","","","","","","","","","",""
"653","","f","psychophysics","109","443882","0.0-7.0-0.0-4.0-0.0-0.1","3","4","3","2","4","3","3","1","3","4","3","4","3","3","4","4","5","4","3","4","3","4","4","4","4","4","4","2","5","0","1","0","0","1","1","1","1","0","0","1","0","1","0","1","4","4","5","3","4","","4","5","5","2","2","798932137372950529","李","563","","","","nonmatch","","","","","","","","","","","","","","key","f","16.67167346938739","853.3333333333334","476","f","true","nonmatch","img/hexagon.png","椭圆","六边","ALT1","formal_ALT1_1","","","","","","","","","","","",""
"null","<span style='color:GreenYellow; font-size: 70px;'>正确! </span>","null","html-keyboard-response","110","444383","0.0-7.0-0.0-4.0-0.0-1.1","3","4","3","2","4","3","3","1","3","4","3","4","3","3","4","4","5","4","3","4","3","4","4","4","4","4","4","2","5","0","1","0","0","1","1","1","1","0","0","1","0","1","0","1","4","4","5","3","4","","4","5","5","2","2","798932137372950529","李","563","","","","","","","","","","","","","","","","","","","","","","","","","","","","","","feedback_test","","","","","","","","","","","",""
"611","","f","psychophysics","111","445995","0.0-7.0-0.0-4.0-0.0-0.2","3","4","3","2","4","3","3","1","3","4","3","4","3","3","4","4","5","4","3","4","3","4","4","4","4","4","4","2","5","0","1","0","0","1","1","1","1","0","0","1","0","1","0","1","4","4","5","3","4","","4","5","5","2","2","798932137372950529","李","563","","","","nonmatch","","","","","","","","","","","","","","key","f","16.67126041666658","853.3333333333334","476","f","true","nonmatch","img/ellipse.png","方形","椭圆","ALT1","formal_ALT1_1","","","","","","","","","","","",""
"null","<span style='color:GreenYellow; font-size: 70px;'>正确! </span>","null","html-keyboard-response","112","446496","0.0-7.0-0.0-4.0-0.0-1.2","3","4","3","2","4","3","3","1","3","4","3","4","3","3","4","4","5","4","3","4","3","4","4","4","4","4","4","2","5","0","1","0","0","1","1","1","1","0","0","1","0","1","0","1","4","4","5","3","4","","4","5","5","2","2","798932137372950529","李","563","","","","","","","","","","","","","","","","","","","","","","","","","","","","","","feedback_test","","","","","","","","","","","",""
"606","","f","psychophysics","113","448103","0.0-7.0-0.0-4.0-0.0-0.3","3","4","3","2","4","3","3","1","3","4","3","4","3","3","4","4","5","4","3","4","3","4","4","4","4","4","4","2","5","0","1","0","0","1","1","1","1","0","0","1","0","1","0","1","4","4","5","3","4","","4","5","5","2","2","798932137372950529","李","563","","","","nonmatch","","","","","","","","","","","","","","key","f","16.67194736842066","853.3333333333334","476","f","true","nonmatch","img/hexagon.png","方形","六边","ALT1","formal_ALT1_1","","","","","","","","","","","",""
"null","<span style='color:GreenYellow; font-size: 70px;'>正确! </span>","null","html-keyboard-response","114","448605","0.0-7.0-0.0-4.0-0.0-1.3","3","4","3","2","4","3","3","1","3","4","3","4","3","3","4","4","5","4","3","4","3","4","4","4","4","4","4","2","5","0","1","0","0","1","1","1","1","0","0","1","0","1","0","1","4","4","5","3","4","","4","5","5","2","2","798932137372950529","李","563","","","","","","","","","","","","","","","","","","","","","","","","","","","","","","feedback_test","","","","","","","","","","","",""
"483","","j","psychophysics","115","450090","0.0-7.0-0.0-4.0-0.0-0.4","3","4","3","2","4","3","3","1","3","4","3","4","3","3","4","4","5","4","3","4","3","4","4","4","4","4","4","2","5","0","1","0","0","1","1","1","1","0","0","1","0","1","0","1","4","4","5","3","4","","4","5","5","2","2","798932137372950529","李","563","","","","match","","","","","","","","","","","","","","key","j","16.673195402298507","853.3333333333334","476","j","true","match","img/hexagon.png","六边","六边","ALT1","formal_ALT1_1","","","","","","","","","","","",""
"null","<span style='color:GreenYellow; font-size: 70px;'>正确! </span>","null","html-keyboard-response","116","450592","0.0-7.0-0.0-4.0-0.0-1.4","3","4","3","2","4","3","3","1","3","4","3","4","3","3","4","4","5","4","3","4","3","4","4","4","4","4","4","2","5","0","1","0","0","1","1","1","1","0","0","1","0","1","0","1","4","4","5","3","4","","4","5","5","2","2","798932137372950529","李","563","","","","","","","","","","","","","","","","","","","","","","","","","","","","","","feedback_test","","","","","","","","","","","",""
"662","","f","psychophysics","117","452256","0.0-7.0-0.0-4.0-0.0-0.5","3","4","3","2","4","3","3","1","3","4","3","4","3","3","4","4","5","4","3","4","3","4","4","4","4","4","4","2","5","0","1","0","0","1","1","1","1","0","0","1","0","1","0","1","4","4","5","3","4","","4","5","5","2","2","798932137372950529","李","563","","","","nonmatch","","","","","","","","","","","","","","key","f","16.671204081633157","853.3333333333334","476","f","true","nonmatch","img/triangle.png","方形","三角","ALT1","formal_ALT1_1","","","","","","","","","","","",""
"null","<span style='color:GreenYellow; font-size: 70px;'>正确! </span>","null","html-keyboard-response","118","452758","0.0-7.0-0.0-4.0-0.0-1.5","3","4","3","2","4","3","3","1","3","4","3","4","3","3","4","4","5","4","3","4","3","4","4","4","4","4","4","2","5","0","1","0","0","1","1","1","1","0","0","1","0","1","0","1","4","4","5","3","4","","4","5","5","2","2","798932137372950529","李","563","","","","","","","","","","","","","","","","","","","","","","","","","","","","","","feedback_test","","","","","","","","","","","",""
"588","","j","psychophysics","119","454349","0.0-7.0-0.0-4.0-0.0-0.6","3","4","3","2","4","3","3","1","3","4","3","4","3","3","4","4","5","4","3","4","3","4","4","4","4","4","4","2","5","0","1","0","0","1","1","1","1","0","0","1","0","1","0","1","4","4","5","3","4","","4","5","5","2","2","798932137372950529","李","563","","","","match","","","","","","","","","","","","","","key","j","16.67081914893587","853.3333333333334","476","j","true","match","img/triangle.png","三角","三角","ALT1","formal_ALT1_1","","","","","","","","","","","",""
"null","<span style='color:GreenYellow; font-size: 70px;'>正确! </span>","null","html-keyboard-response","120","454851","0.0-7.0-0.0-4.0-0.0-1.6","3","4","3","2","4","3","3","1","3","4","3","4","3","3","4","4","5","4","3","4","3","4","4","4","4","4","4","2","5","0","1","0","0","1","1","1","1","0","0","1","0","1","0","1","4","4","5","3","4","","4","5","5","2","2","798932137372950529","李","563","","","","","","","","","","","","","","","","","","","","","","","","","","","","","","feedback_test","","","","","","","","","","","",""
"585","","j","psychophysics","121","456439","0.0-7.0-0.0-4.0-0.0-0.7","3","4","3","2","4","3","3","1","3","4","3","4","3","3","4","4","5","4","3","4","3","4","4","4","4","4","4","2","5","0","1","0","0","1","1","1","1","0","0","1","0","1","0","1","4","4","5","3","4","","4","5","5","2","2","798932137372950529","李","563","","","","match","","","","","","","","","","","","","","key","j","16.67213829787277","853.3333333333334","476","j","true","match","img/ellipse.png","椭圆","椭圆","ALT1","formal_ALT1_1","","","","","","","","","","","",""
"null","<span style='color:GreenYellow; font-size: 70px;'>正确! </span>","null","html-keyboard-response","122","456941","0.0-7.0-0.0-4.0-0.0-1.7","3","4","3","2","4","3","3","1","3","4","3","4","3","3","4","4","5","4","3","4","3","4","4","4","4","4","4","2","5","0","1","0","0","1","1","1","1","0","0","1","0","1","0","1","4","4","5","3","4","","4","5","5","2","2","798932137372950529","李","563","","","","","","","","","","","","","","","","","","","","","","","","","","","","","","feedback_test","","","","","","","","","","","",""
"528","","j","psychophysics","123","458470","0.0-7.0-0.0-4.0-0.0-0.8","3","4","3","2","4","3","3","1","3","4","3","4","3","3","4","4","5","4","3","4","3","4","4","4","4","4","4","2","5","0","1","0","0","1","1","1","1","0","0","1","0","1","0","1","4","4","5","3","4","","4","5","5","2","2","798932137372950529","李","563","","","","match","","","","","","","","","","","","","","key","j","16.672455555555644","853.3333333333334","476","j","true","match","img/hexagon.png","六边","六边","ALT1","formal_ALT1_1","","","","","","","","","","","",""
"null","<span style='color:GreenYellow; font-size: 70px;'>正确! </span>","null","html-keyboard-response","124","458972","0.0-7.0-0.0-4.0-0.0-1.8","3","4","3","2","4","3","3","1","3","4","3","4","3","3","4","4","5","4","3","4","3","4","4","4","4","4","4","2","5","0","1","0","0","1","1","1","1","0","0","1","0","1","0","1","4","4","5","3","4","","4","5","5","2","2","798932137372950529","李","563","","","","","","","","","","","","","","","","","","","","","","","","","","","","","","feedback_test","","","","","","","","","","","",""
"594","","f","psychophysics","125","460568","0.0-7.0-0.0-4.0-0.0-0.9","3","4","3","2","4","3","3","1","3","4","3","4","3","3","4","4","5","4","3","4","3","4","4","4","4","4","4","2","5","0","1","0","0","1","1","1","1","0","0","1","0","1","0","1","4","4","5","3","4","","4","5","5","2","2","798932137372950529","李","563","","","","nonmatch","","","","","","","","","","","","","","key","f","16.671168421052617","853.3333333333334","476","f","true","nonmatch","img/triangle.png","椭圆","三角","ALT1","formal_ALT1_1","","","","","","","","","","","",""
"null","<span style='color:GreenYellow; font-size: 70px;'>正确! </span>","null","html-keyboard-response","126","461069","0.0-7.0-0.0-4.0-0.0-1.9","3","4","3","2","4","3","3","1","3","4","3","4","3","3","4","4","5","4","3","4","3","4","4","4","4","4","4","2","5","0","1","0","0","1","1","1","1","0","0","1","0","1","0","1","4","4","5","3","4","","4","5","5","2","2","798932137372950529","李","563","","","","","","","","","","","","","","","","","","","","","","","","","","","","","","feedback_test","","","","","","","","","","","",""
"545","","j","psychophysics","127","462616","0.0-7.0-0.0-4.0-0.0-0.10","3","4","3","2","4","3","3","1","3","4","3","4","3","3","4","4","5","4","3","4","3","4","4","4","4","4","4","2","5","0","1","0","0","1","1","1","1","0","0","1","0","1","0","1","4","4","5","3","4","","4","5","5","2","2","798932137372950529","李","563","","","","match","","","","","","","","","","","","","","key","j","16.671467391303967","853.3333333333334","476","j","true","match","img/square.png","方形","方形","ALT1","formal_ALT1_1","","","","","","","","","","","",""
"null","<span style='color:GreenYellow; font-size: 70px;'>正确! </span>","null","html-keyboard-response","128","463117","0.0-7.0-0.0-4.0-0.0-1.10","3","4","3","2","4","3","3","1","3","4","3","4","3","3","4","4","5","4","3","4","3","4","4","4","4","4","4","2","5","0","1","0","0","1","1","1","1","0","0","1","0","1","0","1","4","4","5","3","4","","4","5","5","2","2","798932137372950529","李","563","","","","","","","","","","","","","","","","","","","","","","","","","","","","","","feedback_test","","","","","","","","","","","",""
"600","","j","psychophysics","129","464720","0.0-7.0-0.0-4.0-0.0-0.11","3","4","3","2","4","3","3","1","3","4","3","4","3","3","4","4","5","4","3","4","3","4","4","4","4","4","4","2","5","0","1","0","0","1","1","1","1","0","0","1","0","1","0","1","4","4","5","3","4","","4","5","5","2","2","798932137372950529","李","563","","","","match","","","","","","","","","","","","","","key","j","16.6715789473683","853.3333333333334","476","j","true","match","img/hexagon.png","六边","六边","ALT1","formal_ALT1_1","","","","","","","","","","","",""
"null","<span style='color:GreenYellow; font-size: 70px;'>正确! </span>","null","html-keyboard-response","130","465221","0.0-7.0-0.0-4.0-0.0-1.11","3","4","3","2","4","3","3","1","3","4","3","4","3","3","4","4","5","4","3","4","3","4","4","4","4","4","4","2","5","0","1","0","0","1","1","1","1","0","0","1","0","1","0","1","4","4","5","3","4","","4","5","5","2","2","798932137372950529","李","563","","","","","","","","","","","","","","","","","","","","","","","","","","","","","","feedback_test","","","","","","","","","","","",""
"597","","f","psychophysics","131","466820","0.0-7.0-0.0-4.0-0.0-0.12","3","4","3","2","4","3","3","1","3","4","3","4","3","3","4","4","5","4","3","4","3","4","4","4","4","4","4","2","5","0","1","0","0","1","1","1","1","0","0","1","0","1","0","1","4","4","5","3","4","","4","5","5","2","2","798932137372950529","李","563","","","","nonmatch","","","","","","","","","","","","","","key","f","16.671978947368302","853.3333333333334","476","f","true","nonmatch","img/hexagon.png","三角","六边","ALT1","formal_ALT1_1","","","","","","","","","","","",""
"null","<span style='color:GreenYellow; font-size: 70px;'>正确! </span>","null","html-keyboard-response","132","467322","0.0-7.0-0.0-4.0-0.0-1.12","3","4","3","2","4","3","3","1","3","4","3","4","3","3","4","4","5","4","3","4","3","4","4","4","4","4","4","2","5","0","1","0","0","1","1","1","1","0","0","1","0","1","0","1","4","4","5","3","4","","4","5","5","2","2","798932137372950529","李","563","","","","","","","","","","","","","","","","","","","","","","","","","","","","","","feedback_test","","","","","","","","","","","",""
"652","","f","psychophysics","133","468975","0.0-7.0-0.0-4.0-0.0-0.13","3","4","3","2","4","3","3","1","3","4","3","4","3","3","4","4","5","4","3","4","3","4","4","4","4","4","4","2","5","0","1","0","0","1","1","1","1","0","0","1","0","1","0","1","4","4","5","3","4","","4","5","5","2","2","798932137372950529","李","563","","","","nonmatch","","","","","","","","","","","","","","key","f","16.67273958333317","853.3333333333334","476","f","true","nonmatch","img/ellipse.png","六边","椭圆","ALT1","formal_ALT1_1","","","","","","","","","","","",""
"null","<span style='color:GreenYellow; font-size: 70px;'>正确! </span>","null","html-keyboard-response","134","469476","0.0-7.0-0.0-4.0-0.0-1.13","3","4","3","2","4","3","3","1","3","4","3","4","3","3","4","4","5","4","3","4","3","4","4","4","4","4","4","2","5","0","1","0","0","1","1","1","1","0","0","1","0","1","0","1","4","4","5","3","4","","4","5","5","2","2","798932137372950529","李","563","","","","","","","","","","","","","","","","","","","","","","","","","","","","","","feedback_test","","","","","","","","","","","",""
"510","","j","psychophysics","135","470988","0.0-7.0-0.0-4.0-0.0-0.14","3","4","3","2","4","3","3","1","3","4","3","4","3","3","4","4","5","4","3","4","3","4","4","4","4","4","4","2","5","0","1","0","0","1","1","1","1","0","0","1","0","1","0","1","4","4","5","3","4","","4","5","5","2","2","798932137372950529","李","563","","","","match","","","","","","","","","","","","","","key","j","16.67196629213475","853.3333333333334","476","j","true","match","img/triangle.png","三角","三角","ALT1","formal_ALT1_1","","","","","","","","","","","",""
"null","<span style='color:GreenYellow; font-size: 70px;'>正确! </span>","null","html-keyboard-response","136","471490","0.0-7.0-0.0-4.0-0.0-1.14","3","4","3","2","4","3","3","1","3","4","3","4","3","3","4","4","5","4","3","4","3","4","4","4","4","4","4","2","5","0","1","0","0","1","1","1","1","0","0","1","0","1","0","1","4","4","5","3","4","","4","5","5","2","2","798932137372950529","李","563","","","","","","","","","","","","","","","","","","","","","","","","","","","","","","feedback_test","","","","","","","","","","","",""
"573","","j","psychophysics","137","473064","0.0-7.0-0.0-4.0-0.0-0.15","3","4","3","2","4","3","3","1","3","4","3","4","3","3","4","4","5","4","3","4","3","4","4","4","4","4","4","2","5","0","1","0","0","1","1","1","1","0","0","1","0","1","0","1","4","4","5","3","4","","4","5","5","2","2","798932137372950529","李","563","","","","match","","","","","","","","","","","","","","key","j","16.671634408602145","853.3333333333334","476","j","true","match","img/ellipse.png","椭圆","椭圆","ALT1","formal_ALT1_1","","","","","","","","","","","",""
"null","<span style='color:GreenYellow; font-size: 70px;'>正确! </span>","null","html-keyboard-response","138","473566","0.0-7.0-0.0-4.0-0.0-1.15","3","4","3","2","4","3","3","1","3","4","3","4","3","3","4","4","5","4","3","4","3","4","4","4","4","4","4","2","5","0","1","0","0","1","1","1","1","0","0","1","0","1","0","1","4","4","5","3","4","","4","5","5","2","2","798932137372950529","李","563","","","","","","","","","","","","","","","","","","","","","","","","","","","","","","feedback_test","","","","","","","","","","","",""
"546","","j","psychophysics","139","475114","0.0-7.0-0.0-4.0-0.0-0.16","3","4","3","2","4","3","3","1","3","4","3","4","3","3","4","4","5","4","3","4","3","4","4","4","4","4","4","2","5","0","1","0","0","1","1","1","1","0","0","1","0","1","0","1","4","4","5","3","4","","4","5","5","2","2","798932137372950529","李","563","","","","match","","","","","","","","","","","","","","key","j","16.668505494505844","853.3333333333334","476","j","true","match","img/ellipse.png","椭圆","椭圆","ALT1","formal_ALT1_1","","","","","","","","","","","",""
"null","<span style='color:GreenYellow; font-size: 70px;'>正确! </span>","null","html-keyboard-response","140","475616","0.0-7.0-0.0-4.0-0.0-1.16","3","4","3","2","4","3","3","1","3","4","3","4","3","3","4","4","5","4","3","4","3","4","4","4","4","4","4","2","5","0","1","0","0","1","1","1","1","0","0","1","0","1","0","1","4","4","5","3","4","","4","5","5","2","2","798932137372950529","李","563","","","","","","","","","","","","","","","","","","","","","","","","","","","","","","feedback_test","","","","","","","","","","","",""
"586","","f","psychophysics","141","477203","0.0-7.0-0.0-4.0-0.0-0.17","3","4","3","2","4","3","3","1","3","4","3","4","3","3","4","4","5","4","3","4","3","4","4","4","4","4","4","2","5","0","1","0","0","1","1","1","1","0","0","1","0","1","0","1","4","4","5","3","4","","4","5","5","2","2","798932137372950529","李","563","","","","nonmatch","","","","","","","","","","","","","","key","f","16.670765957447077","853.3333333333334","476","f","true","nonmatch","img/ellipse.png","三角","椭圆","ALT1","formal_ALT1_1","","","","","","","","","","","",""
"null","<span style='color:GreenYellow; font-size: 70px;'>正确! </span>","null","html-keyboard-response","142","477704","0.0-7.0-0.0-4.0-0.0-1.17","3","4","3","2","4","3","3","1","3","4","3","4","3","3","4","4","5","4","3","4","3","4","4","4","4","4","4","2","5","0","1","0","0","1","1","1","1","0","0","1","0","1","0","1","4","4","5","3","4","","4","5","5","2","2","798932137372950529","李","563","","","","","","","","","","","","","","","","","","","","","","","","","","","","","","feedback_test","","","","","","","","","","","",""
"640","","f","psychophysics","143","479346","0.0-7.0-0.0-4.0-0.0-0.18","3","4","3","2","4","3","3","1","3","4","3","4","3","3","4","4","5","4","3","4","3","4","4","4","4","4","4","2","5","0","1","0","0","1","1","1","1","0","0","1","0","1","0","1","4","4","5","3","4","","4","5","5","2","2","798932137372950529","李","563","","","","nonmatch","","","","","","","","","","","","","","key","f","16.66960000000024","853.3333333333334","476","f","true","nonmatch","img/square.png","椭圆","方形","ALT1","formal_ALT1_1","","","","","","","","","","","",""
"null","<span style='color:GreenYellow; font-size: 70px;'>正确! </span>","null","html-keyboard-response","144","479846","0.0-7.0-0.0-4.0-0.0-1.18","3","4","3","2","4","3","3","1","3","4","3","4","3","3","4","4","5","4","3","4","3","4","4","4","4","4","4","2","5","0","1","0","0","1","1","1","1","0","0","1","0","1","0","1","4","4","5","3","4","","4","5","5","2","2","798932137372950529","李","563","","","","","","","","","","","","","","","","","","","","","","","","","","","","","","feedback_test","","","","","","","","","","","",""
"626","","j","psychophysics","145","481474","0.0-7.0-0.0-4.0-0.0-0.19","3","4","3","2","4","3","3","1","3","4","3","4","3","3","4","4","5","4","3","4","3","4","4","4","4","4","4","2","5","0","1","0","0","1","1","1","1","0","0","1","0","1","0","1","4","4","5","3","4","","4","5","5","2","2","798932137372950529","李","563","","","","match","","","","","","","","","","","","","","key","j","16.672031249999538","853.3333333333334","476","j","true","match","img/triangle.png","三角","三角","ALT1","formal_ALT1_1","","","","","","","","","","","",""
"null","<span style='color:GreenYellow; font-size: 70px;'>正确! </span>","null","html-keyboard-response","146","481975","0.0-7.0-0.0-4.0-0.0-1.19","3","4","3","2","4","3","3","1","3","4","3","4","3","3","4","4","5","4","3","4","3","4","4","4","4","4","4","2","5","0","1","0","0","1","1","1","1","0","0","1","0","1","0","1","4","4","5","3","4","","4","5","5","2","2","798932137372950529","李","563","","","","","","","","","","","","","","","","","","","","","","","","","","","","","","feedback_test","","","","","","","","","","","",""
"517","","j","psychophysics","147","483494","0.0-7.0-0.0-4.0-0.0-0.20","3","4","3","2","4","3","3","1","3","4","3","4","3","3","4","4","5","4","3","4","3","4","4","4","4","4","4","2","5","0","1","0","0","1","1","1","1","0","0","1","0","1","0","1","4","4","5","3","4","","4","5","5","2","2","798932137372950529","李","563","","","","match","","","","","","","","","","","","","","key","j","16.672799999999633","853.3333333333334","476","j","true","match","img/square.png","方形","方形","ALT1","formal_ALT1_1","","","","","","","","","","","",""
"null","<span style='color:GreenYellow; font-size: 70px;'>正确! </span>","null","html-keyboard-response","148","483996","0.0-7.0-0.0-4.0-0.0-1.20","3","4","3","2","4","3","3","1","3","4","3","4","3","3","4","4","5","4","3","4","3","4","4","4","4","4","4","2","5","0","1","0","0","1","1","1","1","0","0","1","0","1","0","1","4","4","5","3","4","","4","5","5","2","2","798932137372950529","李","563","","","","","","","","","","","","","","","","","","","","","","","","","","","","","","feedback_test","","","","","","","","","","","",""
"529","","f","psychophysics","149","485526","0.0-7.0-0.0-4.0-0.0-0.21","3","4","3","2","4","3","3","1","3","4","3","4","3","3","4","4","5","4","3","4","3","4","4","4","4","4","4","2","5","0","1","0","0","1","1","1","1","0","0","1","0","1","0","1","4","4","5","3","4","","4","5","5","2","2","798932137372950529","李","563","","","","nonmatch","","","","","","","","","","","","","","key","f","16.671791208791547","853.3333333333334","476","f","true","nonmatch","img/triangle.png","六边","三角","ALT1","formal_ALT1_1","","","","","","","","","","","",""
"null","<span style='color:GreenYellow; font-size: 70px;'>正确! </span>","null","html-keyboard-response","150","486028","0.0-7.0-0.0-4.0-0.0-1.21","3","4","3","2","4","3","3","1","3","4","3","4","3","3","4","4","5","4","3","4","3","4","4","4","4","4","4","2","5","0","1","0","0","1","1","1","1","0","0","1","0","1","0","1","4","4","5","3","4","","4","5","5","2","2","798932137372950529","李","563","","","","","","","","","","","","","","","","","","","","","","","","","","","","","","feedback_test","","","","","","","","","","","",""
"644","","f","psychophysics","151","487674","0.0-7.0-0.0-4.0-0.0-0.22","3","4","3","2","4","3","3","1","3","4","3","4","3","3","4","4","5","4","3","4","3","4","4","4","4","4","4","2","5","0","1","0","0","1","1","1","1","0","0","1","0","1","0","1","4","4","5","3","4","","4","5","5","2","2","798932137372950529","李","563","","","","nonmatch","","","","","","","","","","","","","","key","f","16.670336734694168","853.3333333333334","476","f","true","nonmatch","img/square.png","三角","方形","ALT1","formal_ALT1_1","","","","","","","","","","","",""
"null","<span style='color:GreenYellow; font-size: 70px;'>正确! </span>","null","html-keyboard-response","152","488175","0.0-7.0-0.0-4.0-0.0-1.22","3","4","3","2","4","3","3","1","3","4","3","4","3","3","4","4","5","4","3","4","3","4","4","4","4","4","4","2","5","0","1","0","0","1","1","1","1","0","0","1","0","1","0","1","4","4","5","3","4","","4","5","5","2","2","798932137372950529","李","563","","","","","","","","","","","","","","","","","","","","","","","","","","","","","","feedback_test","","","","","","","","","","","",""
"523","","j","psychophysics","153","489699","0.0-7.0-0.0-4.0-0.0-0.23","3","4","3","2","4","3","3","1","3","4","3","4","3","3","4","4","5","4","3","4","3","4","4","4","4","4","4","2","5","0","1","0","0","1","1","1","1","0","0","1","0","1","0","1","4","4","5","3","4","","4","5","5","2","2","798932137372950529","李","563","","","","match","","","","","","","","","","","","","","key","j","16.673622222222104","853.3333333333334","476","j","true","match","img/square.png","方形","方形","ALT1","formal_ALT1_1","","","","","","","","","","","",""
"null","<span style='color:GreenYellow; font-size: 70px;'>正确! </span>","null","html-keyboard-response","154","490200","0.0-7.0-0.0-4.0-0.0-1.23","3","4","3","2","4","3","3","1","3","4","3","4","3","3","4","4","5","4","3","4","3","4","4","4","4","4","4","2","5","0","1","0","0","1","1","1","1","0","0","1","0","1","0","1","4","4","5","3","4","","4","5","5","2","2","798932137372950529","李","563","","","","","","","","","","","","","","","","","","","","","","","","","","","","","","feedback_test","","","","","","","","","","","",""
"563","","f","psychophysics","155","491766","0.0-7.0-0.0-4.0-0.0-0.24","3","4","3","2","4","3","3","1","3","4","3","4","3","3","4","4","5","4","3","4","3","4","4","4","4","4","4","2","5","0","1","0","0","1","1","1","1","0","0","1","0","1","0","1","4","4","5","3","4","","4","5","5","2","2","798932137372950529","李","563","","","","nonmatch","","","","","","","","","","","","","","key","f","16.670108695652427","853.3333333333334","476","j","false","match","img/square.png","方形","方形","ALT1","formal_ALT1_1","","","","","","","","","","","",""
"null","<span style='color:red; font-size: 70px;'>错误! </span>","null","html-keyboard-response","156","492267","0.0-7.0-0.0-4.0-0.0-1.24","3","4","3","2","4","3","3","1","3","4","3","4","3","3","4","4","5","4","3","4","3","4","4","4","4","4","4","2","5","0","1","0","0","1","1","1","1","0","0","1","0","1","0","1","4","4","5","3","4","","4","5","5","2","2","798932137372950529","李","563","","","","","","","","","","","","","","","","","","","","","","","","","","","","","","feedback_test","","","","","","","","","","","",""
"774","","f","psychophysics","157","494044","0.0-7.0-0.0-4.0-0.0-0.25","3","4","3","2","4","3","3","1","3","4","3","4","3","3","4","4","5","4","3","4","3","4","4","4","4","4","4","2","5","0","1","0","0","1","1","1","1","0","0","1","0","1","0","1","4","4","5","3","4","","4","5","5","2","2","798932137372950529","李","563","","","","nonmatch","","","","","","","","","","","","","","key","f","16.672590476190226","853.3333333333334","476","f","true","nonmatch","img/hexagon.png","方形","六边","ALT1","formal_ALT1_1","","","","","","","","","","","",""
"null","<span style='color:GreenYellow; font-size: 70px;'>正确! </span>","null","html-keyboard-response","158","494547","0.0-7.0-0.0-4.0-0.0-1.25","3","4","3","2","4","3","3","1","3","4","3","4","3","3","4","4","5","4","3","4","3","4","4","4","4","4","4","2","5","0","1","0","0","1","1","1","1","0","0","1","0","1","0","1","4","4","5","3","4","","4","5","5","2","2","798932137372950529","李","563","","","","","","","","","","","","","","","","","","","","","","","","","","","","","","feedback_test","","","","","","","","","","","",""
"512","","j","psychophysics","159","496061","0.0-7.0-0.0-4.0-0.0-0.26","3","4","3","2","4","3","3","1","3","4","3","4","3","3","4","4","5","4","3","4","3","4","4","4","4","4","4","2","5","0","1","0","0","1","1","1","1","0","0","1","0","1","0","1","4","4","5","3","4","","4","5","5","2","2","798932137372950529","李","563","","","","match","","","","","","","","","","","","","","key","j","16.669818181818382","853.3333333333334","476","j","true","match","img/triangle.png","三角","三角","ALT1","formal_ALT1_1","","","","","","","","","","","",""
"null","<span style='color:GreenYellow; font-size: 70px;'>正确! </span>","null","html-keyboard-response","160","496564","0.0-7.0-0.0-4.0-0.0-1.26","3","4","3","2","4","3","3","1","3","4","3","4","3","3","4","4","5","4","3","4","3","4","4","4","4","4","4","2","5","0","1","0","0","1","1","1","1","0","0","1","0","1","0","1","4","4","5","3","4","","4","5","5","2","2","798932137372950529","李","563","","","","","","","","","","","","","","","","","","","","","","","","","","","","","","feedback_test","","","","","","","","","","","",""
"580","","f","psychophysics","161","498147","0.0-7.0-0.0-4.0-0.0-0.27","3","4","3","2","4","3","3","1","3","4","3","4","3","3","4","4","5","4","3","4","3","4","4","4","4","4","4","2","5","0","1","0","0","1","1","1","1","0","0","1","0","1","0","1","4","4","5","3","4","","4","5","5","2","2","798932137372950529","李","563","","","","nonmatch","","","","","","","","","","","","","","key","f","16.669861702127704","853.3333333333334","476","f","true","nonmatch","img/square.png","三角","方形","ALT1","formal_ALT1_1","","","","","","","","","","","",""
"null","<span style='color:GreenYellow; font-size: 70px;'>正确! </span>","null","html-keyboard-response","162","498647","0.0-7.0-0.0-4.0-0.0-1.27","3","4","3","2","4","3","3","1","3","4","3","4","3","3","4","4","5","4","3","4","3","4","4","4","4","4","4","2","5","0","1","0","0","1","1","1","1","0","0","1","0","1","0","1","4","4","5","3","4","","4","5","5","2","2","798932137372950529","李","563","","","","","","","","","","","","","","","","","","","","","","","","","","","","","","feedback_test","","","","","","","","","","","",""
"523","","j","psychophysics","163","500173","0.0-7.0-0.0-4.0-0.0-0.28","3","4","3","2","4","3","3","1","3","4","3","4","3","3","4","4","5","4","3","4","3","4","4","4","4","4","4","2","5","0","1","0","0","1","1","1","1","0","0","1","0","1","0","1","4","4","5","3","4","","4","5","5","2","2","798932137372950529","李","563","","","","match","","","","","","","","","","","","","","key","j","17.044932584269784","853.3333333333334","476","j","true","match","img/ellipse.png","椭圆","椭圆","ALT1","formal_ALT1_1","","","","","","","","","","","",""
"null","<span style='color:GreenYellow; font-size: 70px;'>正确! </span>","null","html-keyboard-response","164","500674","0.0-7.0-0.0-4.0-0.0-1.28","3","4","3","2","4","3","3","1","3","4","3","4","3","3","4","4","5","4","3","4","3","4","4","4","4","4","4","2","5","0","1","0","0","1","1","1","1","0","0","1","0","1","0","1","4","4","5","3","4","","4","5","5","2","2","798932137372950529","李","563","","","","","","","","","","","","","","","","","","","","","","","","","","","","","","feedback_test","","","","","","","","","","","",""
"471","","f","psychophysics","165","502148","0.0-7.0-0.0-4.0-0.0-0.29","3","4","3","2","4","3","3","1","3","4","3","4","3","3","4","4","5","4","3","4","3","4","4","4","4","4","4","2","5","0","1","0","0","1","1","1","1","0","0","1","0","1","0","1","4","4","5","3","4","","4","5","5","2","2","798932137372950529","李","563","","","","nonmatch","","","","","","","","","","","","","","key","f","16.67094252873533","853.3333333333334","476","f","true","nonmatch","img/ellipse.png","三角","椭圆","ALT1","formal_ALT1_1","","","","","","","","","","","",""
"null","<span style='color:GreenYellow; font-size: 70px;'>正确! </span>","null","html-keyboard-response","166","502650","0.0-7.0-0.0-4.0-0.0-1.29","3","4","3","2","4","3","3","1","3","4","3","4","3","3","4","4","5","4","3","4","3","4","4","4","4","4","4","2","5","0","1","0","0","1","1","1","1","0","0","1","0","1","0","1","4","4","5","3","4","","4","5","5","2","2","798932137372950529","李","563","","","","","","","","","","","","","","","","","","","","","","","","","","","","","","feedback_test","","","","","","","","","","","",""
"555","","j","psychophysics","167","504206","0.0-7.0-0.0-4.0-0.0-0.30","3","4","3","2","4","3","3","1","3","4","3","4","3","3","4","4","5","4","3","4","3","4","4","4","4","4","4","2","5","0","1","0","0","1","1","1","1","0","0","1","0","1","0","1","4","4","5","3","4","","4","5","5","2","2","798932137372950529","李","563","","","","match","","","","","","","","","","","","","","key","j","16.670989130434464","853.3333333333334","476","j","true","match","img/hexagon.png","六边","六边","ALT1","formal_ALT1_1","","","","","","","","","","","",""
"null","<span style='color:GreenYellow; font-size: 70px;'>正确! </span>","null","html-keyboard-response","168","504708","0.0-7.0-0.0-4.0-0.0-1.30","3","4","3","2","4","3","3","1","3","4","3","4","3","3","4","4","5","4","3","4","3","4","4","4","4","4","4","2","5","0","1","0","0","1","1","1","1","0","0","1","0","1","0","1","4","4","5","3","4","","4","5","5","2","2","798932137372950529","李","563","","","","","","","","","","","","","","","","","","","","","","","","","","","","","","feedback_test","","","","","","","","","","","",""
"502","","f","psychophysics","169","506211","0.0-7.0-0.0-4.0-0.0-0.31","3","4","3","2","4","3","3","1","3","4","3","4","3","3","4","4","5","4","3","4","3","4","4","4","4","4","4","2","5","0","1","0","0","1","1","1","1","0","0","1","0","1","0","1","4","4","5","3","4","","4","5","5","2","2","798932137372950529","李","563","","","","nonmatch","","","","","","","","","","","","","","key","f","16.672719101123302","853.3333333333334","476","f","true","nonmatch","img/ellipse.png","方形","椭圆","ALT1","formal_ALT1_1","","","","","","","","","","","",""
"null","<span style='color:GreenYellow; font-size: 70px;'>正确! </span>","null","html-keyboard-response","170","506714","0.0-7.0-0.0-4.0-0.0-1.31","3","4","3","2","4","3","3","1","3","4","3","4","3","3","4","4","5","4","3","4","3","4","4","4","4","4","4","2","5","0","1","0","0","1","1","1","1","0","0","1","0","1","0","1","4","4","5","3","4","","4","5","5","2","2","798932137372950529","李","563","","","","","","","","","","","","","","","","","","","","","","","","","","","","","","feedback_test","","","","","","","","","","","",""
"608","","f","psychophysics","171","508322","0.0-7.0-0.0-4.0-0.0-0.32","3","4","3","2","4","3","3","1","3","4","3","4","3","3","4","4","5","4","3","4","3","4","4","4","4","4","4","2","5","0","1","0","0","1","1","1","1","0","0","1","0","1","0","1","4","4","5","3","4","","4","5","5","2","2","798932137372950529","李","563","","","","nonmatch","","","","","","","","","","","","","","key","f","16.66997894736828","853.3333333333334","476","j","false","match","img/ellipse.png","椭圆","椭圆","ALT1","formal_ALT1_1","","","","","","","","","","","",""
"null","<span style='color:red; font-size: 70px;'>错误! </span>","null","html-keyboard-response","172","508831","0.0-7.0-0.0-4.0-0.0-1.32","3","4","3","2","4","3","3","1","3","4","3","4","3","3","4","4","5","4","3","4","3","4","4","4","4","4","4","2","5","0","1","0","0","1","1","1","1","0","0","1","0","1","0","1","4","4","5","3","4","","4","5","5","2","2","798932137372950529","李","563","","","","","","","","","","","","","","","","","","","","","","","","","","","","","","feedback_test","","","","","","","","","","","",""
"507","","j","psychophysics","173","510340","0.0-7.0-0.0-4.0-0.0-0.33","3","4","3","2","4","3","3","1","3","4","3","4","3","3","4","4","5","4","3","4","3","4","4","4","4","4","4","2","5","0","1","0","0","1","1","1","1","0","0","1","0","1","0","1","4","4","5","3","4","","4","5","5","2","2","798932137372950529","李","563","","","","match","","","","","","","","","","","","","","key","j","16.66842696629203","853.3333333333334","476","j","true","match","img/square.png","方形","方形","ALT1","formal_ALT1_1","","","","","","","","","","","",""
"null","<span style='color:GreenYellow; font-size: 70px;'>正确! </span>","null","html-keyboard-response","174","510841","0.0-7.0-0.0-4.0-0.0-1.33","3","4","3","2","4","3","3","1","3","4","3","4","3","3","4","4","5","4","3","4","3","4","4","4","4","4","4","2","5","0","1","0","0","1","1","1","1","0","0","1","0","1","0","1","4","4","5","3","4","","4","5","5","2","2","798932137372950529","李","563","","","","","","","","","","","","","","","","","","","","","","","","","","","","","","feedback_test","","","","","","","","","","","",""
"662","","j","psychophysics","175","512506","0.0-7.0-0.0-4.0-0.0-0.34","3","4","3","2","4","3","3","1","3","4","3","4","3","3","4","4","5","4","3","4","3","4","4","4","4","4","4","2","5","0","1","0","0","1","1","1","1","0","0","1","0","1","0","1","4","4","5","3","4","","4","5","5","2","2","798932137372950529","李","563","","","","match","","","","","","","","","","","","","","key","j","16.670979591836673","853.3333333333334","476","j","true","match","img/ellipse.png","椭圆","椭圆","ALT1","formal_ALT1_1","","","","","","","","","","","",""
"null","<span style='color:GreenYellow; font-size: 70px;'>正确! </span>","null","html-keyboard-response","176","513008","0.0-7.0-0.0-4.0-0.0-1.34","3","4","3","2","4","3","3","1","3","4","3","4","3","3","4","4","5","4","3","4","3","4","4","4","4","4","4","2","5","0","1","0","0","1","1","1","1","0","0","1","0","1","0","1","4","4","5","3","4","","4","5","5","2","2","798932137372950529","李","563","","","","","","","","","","","","","","","","","","","","","","","","","","","","","","feedback_test","","","","","","","","","","","",""
"573","","j","psychophysics","177","514583","0.0-7.0-0.0-4.0-0.0-0.35","3","4","3","2","4","3","3","1","3","4","3","4","3","3","4","4","5","4","3","4","3","4","4","4","4","4","4","2","5","0","1","0","0","1","1","1","1","0","0","1","0","1","0","1","4","4","5","3","4","","4","5","5","2","2","798932137372950529","李","563","","","","match","","","","","","","","","","","","","","key","j","16.671634408602145","853.3333333333334","476","f","false","nonmatch","img/ellipse.png","六边","椭圆","ALT1","formal_ALT1_1","","","","","","","","","","","",""
"null","<span style='color:red; font-size: 70px;'>错误! </span>","null","html-keyboard-response","178","515084","0.0-7.0-0.0-4.0-0.0-1.35","3","4","3","2","4","3","3","1","3","4","3","4","3","3","4","4","5","4","3","4","3","4","4","4","4","4","4","2","5","0","1","0","0","1","1","1","1","0","0","1","0","1","0","1","4","4","5","3","4","","4","5","5","2","2","798932137372950529","李","563","","","","","","","","","","","","","","","","","","","","","","","","","","","","","","feedback_test","","","","","","","","","","","",""
"456","","j","psychophysics","179","516542","0.0-7.0-0.0-4.0-0.0-0.36","3","4","3","2","4","3","3","1","3","4","3","4","3","3","4","4","5","4","3","4","3","4","4","4","4","4","4","2","5","0","1","0","0","1","1","1","1","0","0","1","0","1","0","1","4","4","5","3","4","","4","5","5","2","2","798932137372950529","李","563","","","","match","","","","","","","","","","","","","","key","j","16.67261627906944","853.3333333333334","476","j","true","match","img/hexagon.png","六边","六边","ALT1","formal_ALT1_1","","","","","","","","","","","",""
