"rt","stimulus","response","trial_type","trial_index","time_elapsed","internal_node_id","ses_1","ses_2","ses_3","ses_4","ses_5","ses_6","ses_7","ses_8","ses_9","ses_10","coreself_1","coreself_2","coreself_3","coreself_4","coreself_5","coreself_6","coreself_7","coreself_8","coreself_9","coreself_10","SGPS_1","SGPS_2","SGPS_3","SGPS_4","SGPS_5","SGPS_6","SGPS_7","SGPS_8","SGPS_9","NPI1","NPI2","NPI3","NPI4","NPI5","NPI6","NPI7","NPI8","NPI9","NPI10","NPI11","NPI12","NPI13","NPI14","NPI15","hsns_1","hsns_2","hsns_3","hsns_4","hsns_5","trap1","hsns_6","hsns_7","hsns_8","hsns_9","hsns_10","subj_idx","friend_name","ParticipantID","value","success","user_agent","responses","item_order","radio_event_ids","radio_event_times","key_event_times","mouse_event_times","straightlining","zigzagging","honeypot","timeout","failed_images","failed_audio","failed_video","version_attrib","version_target","correct","IAT","screen_id","task_id","RT","condition","word","varname","summary","version_attrib2","version_target2","time_stamp","view_history","response_type","key_press","avg_frame_time","center_x","center_y","correct_response","identity","Image","question_order","correct_answer","trap1_item"
"14170","
   <p><div style = ""color: white;font-size:25px;"">您好，欢迎参加本次实验。</div> </p>
   <p><div style = ""color: white;font-size:25px;"">为充分保障您的权利，请确保您已经知晓并同意《参与实验同意书》以及《数据公开知情同意书》。</div></p>
   <p><div style = ""color: white;font-size:25px;"">如果您未见过上述内容，请咨询实验员。</div></p>
   <p><div style = ""color: white;font-size:25px;"">如果您选择继续实验，则表示您已经清楚两份知情同意书的内容并同意。</div></p>
   <p><div style = ""color: pink;font-size:30px;"">请确保您记得day0的实验编号，您将在本次实验输入该编号，若您忘记，请咨询实验员后作答。</div></p>
   <p><div style = ""color: lightblue;font-size:25px;"">请您尽可能认真地作答，我们将依据您在各问卷和按键任务中的作答质量发放报酬。</div></p>
   <p> <div style = ""color: green;font-size:25px;""><按空格键至下页></div> </p>
   "," ","html-keyboard-response","0","14173","0.0-0.0","3","3","4","3","3","3","3","4","2","3","4","2","2","3","4","4","4","3","4","4","3","2","2","2","2","3","2","4","3","1","0","1","1","0","1","1","1","1","0","1","0","1","0","1","4","2","3","1","3","2","2","4","2","4","2","780195301624647681","杨","358","","","","","","","","","","","","","","","","","","","","","","","","","","","","","","","","","","","","","","","","","",""
"","","","call-function","1","14175","0.0-1.0-0.0","3","3","4","3","3","3","3","4","2","3","4","2","2","3","4","4","4","3","4","4","3","2","2","2","2","3","2","4","3","1","0","1","1","0","1","1","1","1","0","1","0","1","0","1","4","2","3","1","3","2","2","4","2","4","2","780195301624647681","杨","358","","","","","","","","","","","","","","","","","","","","","","","","","","","","","","","","","","","","","","","","","",""
"30884","","{""friend_name"":""杨"",""ParticipantID"":""358""}","survey-html-form","2","45061","0.0-1.0-1.0","3","3","4","3","3","3","3","4","2","3","4","2","2","3","4","4","4","3","4","4","3","2","2","2","2","3","2","4","3","1","0","1","1","0","1","1","1","1","0","1","0","1","0","1","4","2","3","1","3","2","2","4","2","4","2","780195301624647681","杨","358","","","","","","","","","","","","","","","","","","","","","","","","","","","","","","","","","","","","","","","","","",""
"","","","fullscreen","3","55130","0.0-2.0","3","3","4","3","3","3","3","4","2","3","4","2","2","3","4","4","4","3","4","4","3","2","2","2","2","3","2","4","3","1","0","1","1","0","1","1","1","1","0","1","0","1","0","1","4","2","3","1","3","2","2","4","2","4","2","780195301624647681","杨","358","","true","{}","","","","","","","","","","","","","","","","","","","","","","","","","","","","","","","","","","","","","","",""
"45807.09999996424","","{""Q01"":""3"",""Q02"":""3"",""Q03"":""4"",""Q04"":""3"",""Q05"":""3"",""Q06"":""3"",""Q07"":""3"",""Q08"":""4"",""Q09"":""2"",""Q10"":""3""}","survey-template","4","100942","0.0-3.0","3","3","4","3","3","3","3","4","2","3","4","2","2","3","4","4","4","3","4","4","3","2","2","2","2","3","2","4","3","1","0","1","1","0","1","1","1","1","0","1","0","1","0","1","4","2","3","1","3","2","2","4","2","4","2","780195301624647681","杨","358","","","","{""Q01"":""3"",""Q02"":""3"",""Q03"":""4"",""Q04"":""3"",""Q05"":""3"",""Q06"":""3"",""Q07"":""3"",""Q08"":""4"",""Q09"":""2"",""Q10"":""3""}","[0,1,2,3,4,5,6,7,8,9]","[""Q01"",""Q02"",""Q03"",""Q04"",""Q05"",""Q06"",""Q07"",""Q08"",""Q09"",""Q09"",""Q10""]","[4854.5,7270.800000011921,11071.300000011921,14005.099999964237,16270.899999976158,18066.899999976158,19548.899999976158,21467.899999976158,24091.399999976158,34031.80000001192,42920.69999998808]","[]","[4854.5,7270.800000011921,11071.300000011921,14005.099999964237,16270.899999976158,18066.899999976158,19548.899999976158,21467.899999976158,24091.399999976158,34031.80000001192,42920.69999998808,45805.80000001192]","0.6","0.3333333333333333","0","","","","","","","","","","","","","","","","","","","","","","","","","","","","","",""
"42505.80000001192","","{""Q01"":""4"",""Q02"":""2"",""Q03"":""2"",""Q04"":""3"",""Q05"":""4"",""Q06"":""4"",""Q07"":""4"",""Q08"":""3"",""Q09"":""4"",""Q10"":""4""}","survey-template","5","143455","0.0-4.0","3","3","4","3","3","3","3","4","2","3","4","2","2","3","4","4","4","3","4","4","3","2","2","2","2","3","2","4","3","1","0","1","1","0","1","1","1","1","0","1","0","1","0","1","4","2","3","1","3","2","2","4","2","4","2","780195301624647681","杨","358","","","","{""Q01"":""4"",""Q02"":""2"",""Q03"":""2"",""Q04"":""3"",""Q05"":""4"",""Q06"":""4"",""Q07"":""4"",""Q08"":""3"",""Q09"":""4"",""Q10"":""4""}","[0,1,2,3,4,5,6,7,8,9]","[""Q01"",""Q02"",""Q03"",""Q04"",""Q05"",""Q06"",""Q07"",""Q08"",""Q09"",""Q10""]","[9574.100000023842,11337.200000047684,15921,19998.900000035763,28907.600000023842,30944.200000047684,32939.60000002384,35776.80000001192,38380.90000003576,40222.80000001192]","[]","[9574.100000023842,11337.200000047684,15921,19998.900000035763,28907.600000023842,30944.200000047684,32939.60000002384,35776.80000001192,38380.90000003576,40222.80000001192,42504.200000047684]","0.5","0.4444444444444444","0","","","","","","","","","","","","","","","","","","","","","","","","","","","","","",""
"","","","preload","6","143787","0.0-5.0","3","3","4","3","3","3","3","4","2","3","4","2","2","3","4","4","4","3","4","4","3","2","2","2","2","3","2","4","3","1","0","1","1","0","1","1","1","1","0","1","0","1","0","1","4","2","3","1","3","2","2","4","2","4","2","780195301624647681","杨","358","","true","","","","","","","","","","","false","[]","[]","[]","","","","","","","","","","","","","","","","","","","","","","","","","",""
"23209","
    <h3>词语分类任务</h3>
    <p>在接下来的任务中，你需要对一系列词语进行分类。</p>
    <p>请先熟悉这些词语，这有利于你完成接下来的任务。</p>
    <table align=""center"" border=1 cellpadding=3 cellspacing=0>
    <tr> <th>类别</th> <th>词语</th> </tr>
    <tr> <td>&emsp;积极&emsp;</td> <td>&emsp;能干、全能、全才、高效、精干、天才&emsp;</td> </tr>
    <tr> <td>&emsp;消极&emsp;</td> <td>&emsp;无能、低能、废物、拙笨、愚钝、蠢笨&emsp;</td> </tr>
    <tr> <td>&emsp;自我&emsp;</td> <td>&emsp;我、我的、自己、自己的、本人、本人的&emsp;</td> </tr>
    <tr> <td>&emsp;他人&emsp;</td> <td>&emsp;他、他的、别人、别人的、他人、他人的&emsp;</td> </tr>
    </table><br/>","0","html-button-response","7","166998","0.0-6.0-0.0-0.0","3","3","4","3","3","3","3","4","2","3","4","2","2","3","4","4","4","3","4","4","3","2","2","2","2","3","2","4","3","1","0","1","1","0","1","1","1","1","0","1","0","1","0","1","4","2","3","1","3","2","2","4","2","4","2","780195301624647681","杨","358","","","","","","","","","","","","","","","","","1","2","","","","","","","","","","","","","","","","","","","","","","","",""
"28791","
    <div class=""tag-bottom"">
    <p> —— 任务1：对“他人”词和“自我”词分类 ——<p/>
    不同词语会出现在屏幕中央，类别标签将始终显示在屏幕上方<p/>   
    <span style=""color:#FFD866""><b>请根据上方标签的提示，尽可能正确并且快速地做出按键反应</b></span><p/>
    当按键错误时屏幕中会出现<span style=""color:red""> X </span>，需要按另一个键纠正才能继续<br/><p/>
    请把双手食指分别放在键盘的“E”键和“I”键上<p/>
    按<空格键>开始
    </p></div>"," ","html-keyboard-response","8","195793","0.0-6.0-0.0-1.0","3","3","4","3","3","3","3","4","2","3","4","2","2","3","4","4","4","3","4","4","3","2","2","2","2","3","2","4","3","1","0","1","1","0","1","1","1","1","0","1","0","1","0","1","4","2","3","1","3","2","2","4","2","4","2","780195301624647681","杨","358","","","","","","","","","","","","","","","","","","","","","","","","","","","","","","","","","","","","","","","","","",""
"null","","null","html-keyboard-response","9","196046","0.0-6.0-0.0-2.0-0.0","3","3","4","3","3","3","3","4","2","3","4","2","2","3","4","4","4","3","4","4","3","2","2","2","2","3","2","4","3","1","0","1","1","0","1","1","1","1","0","1","0","1","0","1","4","2","3","1","3","2","2","4","2","4","2","780195301624647681","杨","358","","","","","","","","","","","","","","","","","","","","","","","","","","","","","","","","","","","","","","","","","",""
"794","<p style=""color:rgb(150, 250, 100); font-size: 35px;"">他</p>","e","categorize-html","10","196846","0.0-6.0-0.0-2.0-1.0","3","3","4","3","3","3","3","4","2","3","4","2","2","3","4","4","4","3","4","4","3","2","2","2","2","3","2","4","3","1","0","1","1","0","1","1","1","1","0","1","0","1","0","1","4","2","3","1","3","2","2","4","2","4","2","780195301624647681","杨","358","","","","","","","","","","","","","","","","","","","true","1","1","ability","794","other","他","","","","","","","","","","","","","","","","",""
"null","","null","html-keyboard-response","11","197098","0.0-6.0-0.0-2.0-0.1","3","3","4","3","3","3","3","4","2","3","4","2","2","3","4","4","4","3","4","4","3","2","2","2","2","3","2","4","3","1","0","1","1","0","1","1","1","1","0","1","0","1","0","1","4","2","3","1","3","2","2","4","2","4","2","780195301624647681","杨","358","","","","","","","","","","","","","","","","","","","","","","","","","","","","","","","","","","","","","","","","","",""
"723","<p style=""color:rgb(150, 250, 100); font-size: 35px;"">别人</p>","e","categorize-html","12","197821","0.0-6.0-0.0-2.0-1.1","3","3","4","3","3","3","3","4","2","3","4","2","2","3","4","4","4","3","4","4","3","2","2","2","2","3","2","4","3","1","0","1","1","0","1","1","1","1","0","1","0","1","0","1","4","2","3","1","3","2","2","4","2","4","2","780195301624647681","杨","358","","","","","","","","","","","","","","","","","","","true","1","1","ability","723","other","别人","","","","","","","","","","","","","","","","",""
"null","","null","html-keyboard-response","13","198072","0.0-6.0-0.0-2.0-0.2","3","3","4","3","3","3","3","4","2","3","4","2","2","3","4","4","4","3","4","4","3","2","2","2","2","3","2","4","3","1","0","1","1","0","1","1","1","1","0","1","0","1","0","1","4","2","3","1","3","2","2","4","2","4","2","780195301624647681","杨","358","","","","","","","","","","","","","","","","","","","","","","","","","","","","","","","","","","","","","","","","","",""
"527","<p style=""color:rgb(150, 250, 100); font-size: 35px;"">我的</p>","i","categorize-html","14","198600","0.0-6.0-0.0-2.0-1.2","3","3","4","3","3","3","3","4","2","3","4","2","2","3","4","4","4","3","4","4","3","2","2","2","2","3","2","4","3","1","0","1","1","0","1","1","1","1","0","1","0","1","0","1","4","2","3","1","3","2","2","4","2","4","2","780195301624647681","杨","358","","","","","","","","","","","","","","","","","","","true","1","1","ability","527","self","我的","","","","","","","","","","","","","","","","",""
"null","","null","html-keyboard-response","15","198851","0.0-6.0-0.0-2.0-0.3","3","3","4","3","3","3","3","4","2","3","4","2","2","3","4","4","4","3","4","4","3","2","2","2","2","3","2","4","3","1","0","1","1","0","1","1","1","1","0","1","0","1","0","1","4","2","3","1","3","2","2","4","2","4","2","780195301624647681","杨","358","","","","","","","","","","","","","","","","","","","","","","","","","","","","","","","","","","","","","","","","","",""
"532","<p style=""color:rgb(150, 250, 100); font-size: 35px;"">他人</p>","e","categorize-html","16","199384","0.0-6.0-0.0-2.0-1.3","3","3","4","3","3","3","3","4","2","3","4","2","2","3","4","4","4","3","4","4","3","2","2","2","2","3","2","4","3","1","0","1","1","0","1","1","1","1","0","1","0","1","0","1","4","2","3","1","3","2","2","4","2","4","2","780195301624647681","杨","358","","","","","","","","","","","","","","","","","","","true","1","1","ability","532","other","他人","","","","","","","","","","","","","","","","",""
"null","","null","html-keyboard-response","17","199636","0.0-6.0-0.0-2.0-0.4","3","3","4","3","3","3","3","4","2","3","4","2","2","3","4","4","4","3","4","4","3","2","2","2","2","3","2","4","3","1","0","1","1","0","1","1","1","1","0","1","0","1","0","1","4","2","3","1","3","2","2","4","2","4","2","780195301624647681","杨","358","","","","","","","","","","","","","","","","","","","","","","","","","","","","","","","","","","","","","","","","","",""
"519","<p style=""color:rgb(150, 250, 100); font-size: 35px;"">自己的</p>","i","categorize-html","18","200156","0.0-6.0-0.0-2.0-1.4","3","3","4","3","3","3","3","4","2","3","4","2","2","3","4","4","4","3","4","4","3","2","2","2","2","3","2","4","3","1","0","1","1","0","1","1","1","1","0","1","0","1","0","1","4","2","3","1","3","2","2","4","2","4","2","780195301624647681","杨","358","","","","","","","","","","","","","","","","","","","true","1","1","ability","519","self","自己的","","","","","","","","","","","","","","","","",""
"null","","null","html-keyboard-response","19","200407","0.0-6.0-0.0-2.0-0.5","3","3","4","3","3","3","3","4","2","3","4","2","2","3","4","4","4","3","4","4","3","2","2","2","2","3","2","4","3","1","0","1","1","0","1","1","1","1","0","1","0","1","0","1","4","2","3","1","3","2","2","4","2","4","2","780195301624647681","杨","358","","","","","","","","","","","","","","","","","","","","","","","","","","","","","","","","","","","","","","","","","",""
"576","<p style=""color:rgb(150, 250, 100); font-size: 35px;"">本人的</p>","i","categorize-html","20","200983","0.0-6.0-0.0-2.0-1.5","3","3","4","3","3","3","3","4","2","3","4","2","2","3","4","4","4","3","4","4","3","2","2","2","2","3","2","4","3","1","0","1","1","0","1","1","1","1","0","1","0","1","0","1","4","2","3","1","3","2","2","4","2","4","2","780195301624647681","杨","358","","","","","","","","","","","","","","","","","","","true","1","1","ability","576","self","本人的","","","","","","","","","","","","","","","","",""
"null","","null","html-keyboard-response","21","201235","0.0-6.0-0.0-2.0-0.6","3","3","4","3","3","3","3","4","2","3","4","2","2","3","4","4","4","3","4","4","3","2","2","2","2","3","2","4","3","1","0","1","1","0","1","1","1","1","0","1","0","1","0","1","4","2","3","1","3","2","2","4","2","4","2","780195301624647681","杨","358","","","","","","","","","","","","","","","","","","","","","","","","","","","","","","","","","","","","","","","","","",""
"527","<p style=""color:rgb(150, 250, 100); font-size: 35px;"">别人的</p>","e","categorize-html","22","201762","0.0-6.0-0.0-2.0-1.6","3","3","4","3","3","3","3","4","2","3","4","2","2","3","4","4","4","3","4","4","3","2","2","2","2","3","2","4","3","1","0","1","1","0","1","1","1","1","0","1","0","1","0","1","4","2","3","1","3","2","2","4","2","4","2","780195301624647681","杨","358","","","","","","","","","","","","","","","","","","","true","1","1","ability","527","other","别人的","","","","","","","","","","","","","","","","",""
"null","","null","html-keyboard-response","23","202014","0.0-6.0-0.0-2.0-0.7","3","3","4","3","3","3","3","4","2","3","4","2","2","3","4","4","4","3","4","4","3","2","2","2","2","3","2","4","3","1","0","1","1","0","1","1","1","1","0","1","0","1","0","1","4","2","3","1","3","2","2","4","2","4","2","780195301624647681","杨","358","","","","","","","","","","","","","","","","","","","","","","","","","","","","","","","","","","","","","","","","","",""
"473","<p style=""color:rgb(150, 250, 100); font-size: 35px;"">自己</p>","i","categorize-html","24","202487","0.0-6.0-0.0-2.0-1.7","3","3","4","3","3","3","3","4","2","3","4","2","2","3","4","4","4","3","4","4","3","2","2","2","2","3","2","4","3","1","0","1","1","0","1","1","1","1","0","1","0","1","0","1","4","2","3","1","3","2","2","4","2","4","2","780195301624647681","杨","358","","","","","","","","","","","","","","","","","","","true","1","1","ability","473","self","自己","","","","","","","","","","","","","","","","",""
"null","","null","html-keyboard-response","25","202740","0.0-6.0-0.0-2.0-0.8","3","3","4","3","3","3","3","4","2","3","4","2","2","3","4","4","4","3","4","4","3","2","2","2","2","3","2","4","3","1","0","1","1","0","1","1","1","1","0","1","0","1","0","1","4","2","3","1","3","2","2","4","2","4","2","780195301624647681","杨","358","","","","","","","","","","","","","","","","","","","","","","","","","","","","","","","","","","","","","","","","","",""
"472","<p style=""color:rgb(150, 250, 100); font-size: 35px;"">我</p>","i","categorize-html","26","203212","0.0-6.0-0.0-2.0-1.8","3","3","4","3","3","3","3","4","2","3","4","2","2","3","4","4","4","3","4","4","3","2","2","2","2","3","2","4","3","1","0","1","1","0","1","1","1","1","0","1","0","1","0","1","4","2","3","1","3","2","2","4","2","4","2","780195301624647681","杨","358","","","","","","","","","","","","","","","","","","","true","1","1","ability","472","self","我","","","","","","","","","","","","","","","","",""
"null","","null","html-keyboard-response","27","203464","0.0-6.0-0.0-2.0-0.9","3","3","4","3","3","3","3","4","2","3","4","2","2","3","4","4","4","3","4","4","3","2","2","2","2","3","2","4","3","1","0","1","1","0","1","1","1","1","0","1","0","1","0","1","4","2","3","1","3","2","2","4","2","4","2","780195301624647681","杨","358","","","","","","","","","","","","","","","","","","","","","","","","","","","","","","","","","","","","","","","","","",""
"533","<p style=""color:rgb(150, 250, 100); font-size: 35px;"">他人的</p>","e","categorize-html","28","203998","0.0-6.0-0.0-2.0-1.9","3","3","4","3","3","3","3","4","2","3","4","2","2","3","4","4","4","3","4","4","3","2","2","2","2","3","2","4","3","1","0","1","1","0","1","1","1","1","0","1","0","1","0","1","4","2","3","1","3","2","2","4","2","4","2","780195301624647681","杨","358","","","","","","","","","","","","","","","","","","","true","1","1","ability","533","other","他人的","","","","","","","","","","","","","","","","",""
"null","","null","html-keyboard-response","29","204250","0.0-6.0-0.0-2.0-0.10","3","3","4","3","3","3","3","4","2","3","4","2","2","3","4","4","4","3","4","4","3","2","2","2","2","3","2","4","3","1","0","1","1","0","1","1","1","1","0","1","0","1","0","1","4","2","3","1","3","2","2","4","2","4","2","780195301624647681","杨","358","","","","","","","","","","","","","","","","","","","","","","","","","","","","","","","","","","","","","","","","","",""
"484","<p style=""color:rgb(150, 250, 100); font-size: 35px;"">他的</p>","e","categorize-html","30","204735","0.0-6.0-0.0-2.0-1.10","3","3","4","3","3","3","3","4","2","3","4","2","2","3","4","4","4","3","4","4","3","2","2","2","2","3","2","4","3","1","0","1","1","0","1","1","1","1","0","1","0","1","0","1","4","2","3","1","3","2","2","4","2","4","2","780195301624647681","杨","358","","","","","","","","","","","","","","","","","","","true","1","1","ability","484","other","他的","","","","","","","","","","","","","","","","",""
"null","","null","html-keyboard-response","31","204985","0.0-6.0-0.0-2.0-0.11","3","3","4","3","3","3","3","4","2","3","4","2","2","3","4","4","4","3","4","4","3","2","2","2","2","3","2","4","3","1","0","1","1","0","1","1","1","1","0","1","0","1","0","1","4","2","3","1","3","2","2","4","2","4","2","780195301624647681","杨","358","","","","","","","","","","","","","","","","","","","","","","","","","","","","","","","","","","","","","","","","","",""
"539","<p style=""color:rgb(150, 250, 100); font-size: 35px;"">本人</p>","i","categorize-html","32","205526","0.0-6.0-0.0-2.0-1.11","3","3","4","3","3","3","3","4","2","3","4","2","2","3","4","4","4","3","4","4","3","2","2","2","2","3","2","4","3","1","0","1","1","0","1","1","1","1","0","1","0","1","0","1","4","2","3","1","3","2","2","4","2","4","2","780195301624647681","杨","358","","","","","","","","","","","","","","","","","","","true","1","1","ability","539","self","本人","","","","","","","","","","","","","","","","",""
"8789","
    <div class=""tag-bottom""><p>
    —— 任务2：对“积极”词和“消极”词分类 ——<p/>   
    <span style=""color:#78DCE8""><b>注意上方，类别标签和需要分类的词语都已经改变</b></span><p/>
    <span style=""color:#FFD866""><b>请根据上方标签的提示，尽可能正确并且快速地做出按键反应</b></span><p/>
    当按键错误时屏幕中会出现<span style=""color:red""> X </span>，需要按另一个键纠正才能继续<br/><p/>
    请把双手食指分别放在键盘的“E”键和“I”键上<p/>
    按<空格键>开始
    </p></div>"," ","html-keyboard-response","33","214315","0.0-6.0-0.0-3.0","3","3","4","3","3","3","3","4","2","3","4","2","2","3","4","4","4","3","4","4","3","2","2","2","2","3","2","4","3","1","0","1","1","0","1","1","1","1","0","1","0","1","0","1","4","2","3","1","3","2","2","4","2","4","2","780195301624647681","杨","358","","","","","","","","","","","","","","","","","","","","","","","","","","","","","","","","","","","","","","","","","",""
"null","","null","html-keyboard-response","34","214565","0.0-6.0-0.0-4.0-0.0","3","3","4","3","3","3","3","4","2","3","4","2","2","3","4","4","4","3","4","4","3","2","2","2","2","3","2","4","3","1","0","1","1","0","1","1","1","1","0","1","0","1","0","1","4","2","3","1","3","2","2","4","2","4","2","780195301624647681","杨","358","","","","","","","","","","","","","","","","","","","","","","","","","","","","","","","","","","","","","","","","","",""
"1057","<p style=""color:white; font-size: 35px;"">精干</p>","i","categorize-html","35","216502","0.0-6.0-0.0-4.0-1.0","3","3","4","3","3","3","3","4","2","3","4","2","2","3","4","4","4","3","4","4","3","2","2","2","2","3","2","4","3","1","0","1","1","0","1","1","1","1","0","1","0","1","0","1","4","2","3","1","3","2","2","4","2","4","2","780195301624647681","杨","358","","","","","","","","","","","","","","","","","","","false","2","2","ability","1057","positive","精干","","","","","","","","","","","","","","","","",""
"null","","null","html-keyboard-response","36","216753","0.0-6.0-0.0-4.0-0.1","3","3","4","3","3","3","3","4","2","3","4","2","2","3","4","4","4","3","4","4","3","2","2","2","2","3","2","4","3","1","0","1","1","0","1","1","1","1","0","1","0","1","0","1","4","2","3","1","3","2","2","4","2","4","2","780195301624647681","杨","358","","","","","","","","","","","","","","","","","","","","","","","","","","","","","","","","","","","","","","","","","",""
"980","<p style=""color:white; font-size: 35px;"">无能</p>","i","categorize-html","37","217734","0.0-6.0-0.0-4.0-1.1","3","3","4","3","3","3","3","4","2","3","4","2","2","3","4","4","4","3","4","4","3","2","2","2","2","3","2","4","3","1","0","1","1","0","1","1","1","1","0","1","0","1","0","1","4","2","3","1","3","2","2","4","2","4","2","780195301624647681","杨","358","","","","","","","","","","","","","","","","","","","true","2","2","ability","980","negative","无能","","","","","","","","","","","","","","","","",""
"null","","null","html-keyboard-response","38","217985","0.0-6.0-0.0-4.0-0.2","3","3","4","3","3","3","3","4","2","3","4","2","2","3","4","4","4","3","4","4","3","2","2","2","2","3","2","4","3","1","0","1","1","0","1","1","1","1","0","1","0","1","0","1","4","2","3","1","3","2","2","4","2","4","2","780195301624647681","杨","358","","","","","","","","","","","","","","","","","","","","","","","","","","","","","","","","","","","","","","","","","",""
"597","<p style=""color:white; font-size: 35px;"">愚钝</p>","i","categorize-html","39","218582","0.0-6.0-0.0-4.0-1.2","3","3","4","3","3","3","3","4","2","3","4","2","2","3","4","4","4","3","4","4","3","2","2","2","2","3","2","4","3","1","0","1","1","0","1","1","1","1","0","1","0","1","0","1","4","2","3","1","3","2","2","4","2","4","2","780195301624647681","杨","358","","","","","","","","","","","","","","","","","","","true","2","2","ability","597","negative","愚钝","","","","","","","","","","","","","","","","",""
"null","","null","html-keyboard-response","40","218834","0.0-6.0-0.0-4.0-0.3","3","3","4","3","3","3","3","4","2","3","4","2","2","3","4","4","4","3","4","4","3","2","2","2","2","3","2","4","3","1","0","1","1","0","1","1","1","1","0","1","0","1","0","1","4","2","3","1","3","2","2","4","2","4","2","780195301624647681","杨","358","","","","","","","","","","","","","","","","","","","","","","","","","","","","","","","","","","","","","","","","","",""
"605","<p style=""color:white; font-size: 35px;"">天才</p>","e","categorize-html","41","219439","0.0-6.0-0.0-4.0-1.3","3","3","4","3","3","3","3","4","2","3","4","2","2","3","4","4","4","3","4","4","3","2","2","2","2","3","2","4","3","1","0","1","1","0","1","1","1","1","0","1","0","1","0","1","4","2","3","1","3","2","2","4","2","4","2","780195301624647681","杨","358","","","","","","","","","","","","","","","","","","","true","2","2","ability","605","positive","天才","","","","","","","","","","","","","","","","",""
"null","","null","html-keyboard-response","42","219691","0.0-6.0-0.0-4.0-0.4","3","3","4","3","3","3","3","4","2","3","4","2","2","3","4","4","4","3","4","4","3","2","2","2","2","3","2","4","3","1","0","1","1","0","1","1","1","1","0","1","0","1","0","1","4","2","3","1","3","2","2","4","2","4","2","780195301624647681","杨","358","","","","","","","","","","","","","","","","","","","","","","","","","","","","","","","","","","","","","","","","","",""
"572","<p style=""color:white; font-size: 35px;"">低能</p>","i","categorize-html","43","220264","0.0-6.0-0.0-4.0-1.4","3","3","4","3","3","3","3","4","2","3","4","2","2","3","4","4","4","3","4","4","3","2","2","2","2","3","2","4","3","1","0","1","1","0","1","1","1","1","0","1","0","1","0","1","4","2","3","1","3","2","2","4","2","4","2","780195301624647681","杨","358","","","","","","","","","","","","","","","","","","","true","2","2","ability","572","negative","低能","","","","","","","","","","","","","","","","",""
"null","","null","html-keyboard-response","44","220516","0.0-6.0-0.0-4.0-0.5","3","3","4","3","3","3","3","4","2","3","4","2","2","3","4","4","4","3","4","4","3","2","2","2","2","3","2","4","3","1","0","1","1","0","1","1","1","1","0","1","0","1","0","1","4","2","3","1","3","2","2","4","2","4","2","780195301624647681","杨","358","","","","","","","","","","","","","","","","","","","","","","","","","","","","","","","","","","","","","","","","","",""
"494","<p style=""color:white; font-size: 35px;"">能干</p>","e","categorize-html","45","221010","0.0-6.0-0.0-4.0-1.5","3","3","4","3","3","3","3","4","2","3","4","2","2","3","4","4","4","3","4","4","3","2","2","2","2","3","2","4","3","1","0","1","1","0","1","1","1","1","0","1","0","1","0","1","4","2","3","1","3","2","2","4","2","4","2","780195301624647681","杨","358","","","","","","","","","","","","","","","","","","","true","2","2","ability","494","positive","能干","","","","","","","","","","","","","","","","",""
"null","","null","html-keyboard-response","46","221262","0.0-6.0-0.0-4.0-0.6","3","3","4","3","3","3","3","4","2","3","4","2","2","3","4","4","4","3","4","4","3","2","2","2","2","3","2","4","3","1","0","1","1","0","1","1","1","1","0","1","0","1","0","1","4","2","3","1","3","2","2","4","2","4","2","780195301624647681","杨","358","","","","","","","","","","","","","","","","","","","","","","","","","","","","","","","","","","","","","","","","","",""
"523","<p style=""color:white; font-size: 35px;"">全能</p>","e","categorize-html","47","221786","0.0-6.0-0.0-4.0-1.6","3","3","4","3","3","3","3","4","2","3","4","2","2","3","4","4","4","3","4","4","3","2","2","2","2","3","2","4","3","1","0","1","1","0","1","1","1","1","0","1","0","1","0","1","4","2","3","1","3","2","2","4","2","4","2","780195301624647681","杨","358","","","","","","","","","","","","","","","","","","","true","2","2","ability","523","positive","全能","","","","","","","","","","","","","","","","",""
"null","","null","html-keyboard-response","48","222037","0.0-6.0-0.0-4.0-0.7","3","3","4","3","3","3","3","4","2","3","4","2","2","3","4","4","4","3","4","4","3","2","2","2","2","3","2","4","3","1","0","1","1","0","1","1","1","1","0","1","0","1","0","1","4","2","3","1","3","2","2","4","2","4","2","780195301624647681","杨","358","","","","","","","","","","","","","","","","","","","","","","","","","","","","","","","","","","","","","","","","","",""
"721","<p style=""color:white; font-size: 35px;"">拙笨</p>","i","categorize-html","49","222758","0.0-6.0-0.0-4.0-1.7","3","3","4","3","3","3","3","4","2","3","4","2","2","3","4","4","4","3","4","4","3","2","2","2","2","3","2","4","3","1","0","1","1","0","1","1","1","1","0","1","0","1","0","1","4","2","3","1","3","2","2","4","2","4","2","780195301624647681","杨","358","","","","","","","","","","","","","","","","","","","true","2","2","ability","721","negative","拙笨","","","","","","","","","","","","","","","","",""
"null","","null","html-keyboard-response","50","223010","0.0-6.0-0.0-4.0-0.8","3","3","4","3","3","3","3","4","2","3","4","2","2","3","4","4","4","3","4","4","3","2","2","2","2","3","2","4","3","1","0","1","1","0","1","1","1","1","0","1","0","1","0","1","4","2","3","1","3","2","2","4","2","4","2","780195301624647681","杨","358","","","","","","","","","","","","","","","","","","","","","","","","","","","","","","","","","","","","","","","","","",""
"561","<p style=""color:white; font-size: 35px;"">高效</p>","e","categorize-html","51","223572","0.0-6.0-0.0-4.0-1.8","3","3","4","3","3","3","3","4","2","3","4","2","2","3","4","4","4","3","4","4","3","2","2","2","2","3","2","4","3","1","0","1","1","0","1","1","1","1","0","1","0","1","0","1","4","2","3","1","3","2","2","4","2","4","2","780195301624647681","杨","358","","","","","","","","","","","","","","","","","","","true","2","2","ability","561","positive","高效","","","","","","","","","","","","","","","","",""
"null","","null","html-keyboard-response","52","223824","0.0-6.0-0.0-4.0-0.9","3","3","4","3","3","3","3","4","2","3","4","2","2","3","4","4","4","3","4","4","3","2","2","2","2","3","2","4","3","1","0","1","1","0","1","1","1","1","0","1","0","1","0","1","4","2","3","1","3","2","2","4","2","4","2","780195301624647681","杨","358","","","","","","","","","","","","","","","","","","","","","","","","","","","","","","","","","","","","","","","","","",""
"611","<p style=""color:white; font-size: 35px;"">蠢笨</p>","i","categorize-html","53","224436","0.0-6.0-0.0-4.0-1.9","3","3","4","3","3","3","3","4","2","3","4","2","2","3","4","4","4","3","4","4","3","2","2","2","2","3","2","4","3","1","0","1","1","0","1","1","1","1","0","1","0","1","0","1","4","2","3","1","3","2","2","4","2","4","2","780195301624647681","杨","358","","","","","","","","","","","","","","","","","","","true","2","2","ability","611","negative","蠢笨","","","","","","","","","","","","","","","","",""
"null","","null","html-keyboard-response","54","224688","0.0-6.0-0.0-4.0-0.10","3","3","4","3","3","3","3","4","2","3","4","2","2","3","4","4","4","3","4","4","3","2","2","2","2","3","2","4","3","1","0","1","1","0","1","1","1","1","0","1","0","1","0","1","4","2","3","1","3","2","2","4","2","4","2","780195301624647681","杨","358","","","","","","","","","","","","","","","","","","","","","","","","","","","","","","","","","","","","","","","","","",""
"659","<p style=""color:white; font-size: 35px;"">全才</p>","e","categorize-html","55","225348","0.0-6.0-0.0-4.0-1.10","3","3","4","3","3","3","3","4","2","3","4","2","2","3","4","4","4","3","4","4","3","2","2","2","2","3","2","4","3","1","0","1","1","0","1","1","1","1","0","1","0","1","0","1","4","2","3","1","3","2","2","4","2","4","2","780195301624647681","杨","358","","","","","","","","","","","","","","","","","","","true","2","2","ability","659","positive","全才","","","","","","","","","","","","","","","","",""
"null","","null","html-keyboard-response","56","225600","0.0-6.0-0.0-4.0-0.11","3","3","4","3","3","3","3","4","2","3","4","2","2","3","4","4","4","3","4","4","3","2","2","2","2","3","2","4","3","1","0","1","1","0","1","1","1","1","0","1","0","1","0","1","4","2","3","1","3","2","2","4","2","4","2","780195301624647681","杨","358","","","","","","","","","","","","","","","","","","","","","","","","","","","","","","","","","","","","","","","","","",""
"540","<p style=""color:white; font-size: 35px;"">废物</p>","i","categorize-html","57","226141","0.0-6.0-0.0-4.0-1.11","3","3","4","3","3","3","3","4","2","3","4","2","2","3","4","4","4","3","4","4","3","2","2","2","2","3","2","4","3","1","0","1","1","0","1","1","1","1","0","1","0","1","0","1","4","2","3","1","3","2","2","4","2","4","2","780195301624647681","杨","358","","","","","","","","","","","","","","","","","","","true","2","2","ability","540","negative","废物","","","","","","","","","","","","","","","","",""
"15138","
    <div class=""tag-bottom""><p>
    —— 任务3：对“他人/积极”词和“自我/消极”词分类 ——<p/>
    <span style=""color:#78DCE8""><b>注意上方，之前的四类词语将混合在一起交替呈现</b></span><p/>
    <span style=""color:#FFD866""><b>请根据上方标签的提示，尽可能正确并且快速地做出按键反应</b></span><p/>
    当按键错误时屏幕中会出现<span style=""color:red""> X </span>，需要按另一个键纠正才能继续<br/><p/>
    请把双手食指分别放在键盘的“E”键和“I”键上<p/>
    按<空格键>开始
    </p></div>"," ","html-keyboard-response","58","241280","0.0-6.0-0.0-5.0","3","3","4","3","3","3","3","4","2","3","4","2","2","3","4","4","4","3","4","4","3","2","2","2","2","3","2","4","3","1","0","1","1","0","1","1","1","1","0","1","0","1","0","1","4","2","3","1","3","2","2","4","2","4","2","780195301624647681","杨","358","","","","","","","","","","","","","","","","","","","","","","","","","","","","","","","","","","","","","","","","","",""
"null","","null","html-keyboard-response","59","241530","0.0-6.0-0.0-6.0-0.0","3","3","4","3","3","3","3","4","2","3","4","2","2","3","4","4","4","3","4","4","3","2","2","2","2","3","2","4","3","1","0","1","1","0","1","1","1","1","0","1","0","1","0","1","4","2","3","1","3","2","2","4","2","4","2","780195301624647681","杨","358","","","","","","","","","","","","","","","","","","","","","","","","","","","","","","","","","","","","","","","","","",""
"1289","<p style=""color:rgb(150, 250, 100); font-size: 35px;"">自己</p>","i","categorize-html","60","242821","0.0-6.0-0.0-6.0-1.0","3","3","4","3","3","3","3","4","2","3","4","2","2","3","4","4","4","3","4","4","3","2","2","2","2","3","2","4","3","1","0","1","1","0","1","1","1","1","0","1","0","1","0","1","4","2","3","1","3","2","2","4","2","4","2","780195301624647681","杨","358","","","","","","","","","","","","","","","","","","","true","3","3","ability","1289","self","自己","","","","","","","","","","","","","","","","",""
"null","","null","html-keyboard-response","61","243073","0.0-6.0-0.0-6.0-0.1","3","3","4","3","3","3","3","4","2","3","4","2","2","3","4","4","4","3","4","4","3","2","2","2","2","3","2","4","3","1","0","1","1","0","1","1","1","1","0","1","0","1","0","1","4","2","3","1","3","2","2","4","2","4","2","780195301624647681","杨","358","","","","","","","","","","","","","","","","","","","","","","","","","","","","","","","","","","","","","","","","","",""
"606","<p style=""color:white; font-size: 35px;"">全才</p>","e","categorize-html","62","243679","0.0-6.0-0.0-6.0-1.1","3","3","4","3","3","3","3","4","2","3","4","2","2","3","4","4","4","3","4","4","3","2","2","2","2","3","2","4","3","1","0","1","1","0","1","1","1","1","0","1","0","1","0","1","4","2","3","1","3","2","2","4","2","4","2","780195301624647681","杨","358","","","","","","","","","","","","","","","","","","","true","3","3","ability","606","positive","全才","","","","","","","","","","","","","","","","",""
"null","","null","html-keyboard-response","63","243931","0.0-6.0-0.0-6.0-0.2","3","3","4","3","3","3","3","4","2","3","4","2","2","3","4","4","4","3","4","4","3","2","2","2","2","3","2","4","3","1","0","1","1","0","1","1","1","1","0","1","0","1","0","1","4","2","3","1","3","2","2","4","2","4","2","780195301624647681","杨","358","","","","","","","","","","","","","","","","","","","","","","","","","","","","","","","","","","","","","","","","","",""
"661","<p style=""color:rgb(150, 250, 100); font-size: 35px;"">他人</p>","e","categorize-html","64","244593","0.0-6.0-0.0-6.0-1.2","3","3","4","3","3","3","3","4","2","3","4","2","2","3","4","4","4","3","4","4","3","2","2","2","2","3","2","4","3","1","0","1","1","0","1","1","1","1","0","1","0","1","0","1","4","2","3","1","3","2","2","4","2","4","2","780195301624647681","杨","358","","","","","","","","","","","","","","","","","","","true","3","3","ability","661","other","他人","","","","","","","","","","","","","","","","",""
"null","","null","html-keyboard-response","65","244845","0.0-6.0-0.0-6.0-0.3","3","3","4","3","3","3","3","4","2","3","4","2","2","3","4","4","4","3","4","4","3","2","2","2","2","3","2","4","3","1","0","1","1","0","1","1","1","1","0","1","0","1","0","1","4","2","3","1","3","2","2","4","2","4","2","780195301624647681","杨","358","","","","","","","","","","","","","","","","","","","","","","","","","","","","","","","","","","","","","","","","","",""
"703","<p style=""color:white; font-size: 35px;"">低能</p>","e","categorize-html","66","246067","0.0-6.0-0.0-6.0-1.3","3","3","4","3","3","3","3","4","2","3","4","2","2","3","4","4","4","3","4","4","3","2","2","2","2","3","2","4","3","1","0","1","1","0","1","1","1","1","0","1","0","1","0","1","4","2","3","1","3","2","2","4","2","4","2","780195301624647681","杨","358","","","","","","","","","","","","","","","","","","","false","3","3","ability","1267.5238095238096","negative","低能","","","","","","","","","","","","","","","","",""
"null","","null","html-keyboard-response","67","246318","0.0-6.0-0.0-6.0-0.4","3","3","4","3","3","3","3","4","2","3","4","2","2","3","4","4","4","3","4","4","3","2","2","2","2","3","2","4","3","1","0","1","1","0","1","1","1","1","0","1","0","1","0","1","4","2","3","1","3","2","2","4","2","4","2","780195301624647681","杨","358","","","","","","","","","","","","","","","","","","","","","","","","","","","","","","","","","","","","","","","","","",""
"969","<p style=""color:rgb(150, 250, 100); font-size: 35px;"">他的</p>","e","categorize-html","68","247288","0.0-6.0-0.0-6.0-1.4","3","3","4","3","3","3","3","4","2","3","4","2","2","3","4","4","4","3","4","4","3","2","2","2","2","3","2","4","3","1","0","1","1","0","1","1","1","1","0","1","0","1","0","1","4","2","3","1","3","2","2","4","2","4","2","780195301624647681","杨","358","","","","","","","","","","","","","","","","","","","true","3","3","ability","969","other","他的","","","","","","","","","","","","","","","","",""
"null","","null","html-keyboard-response","69","247539","0.0-6.0-0.0-6.0-0.5","3","3","4","3","3","3","3","4","2","3","4","2","2","3","4","4","4","3","4","4","3","2","2","2","2","3","2","4","3","1","0","1","1","0","1","1","1","1","0","1","0","1","0","1","4","2","3","1","3","2","2","4","2","4","2","780195301624647681","杨","358","","","","","","","","","","","","","","","","","","","","","","","","","","","","","","","","","","","","","","","","","",""
"1070","<p style=""color:white; font-size: 35px;"">能干</p>","e","categorize-html","70","248610","0.0-6.0-0.0-6.0-1.5","3","3","4","3","3","3","3","4","2","3","4","2","2","3","4","4","4","3","4","4","3","2","2","2","2","3","2","4","3","1","0","1","1","0","1","1","1","1","0","1","0","1","0","1","4","2","3","1","3","2","2","4","2","4","2","780195301624647681","杨","358","","","","","","","","","","","","","","","","","","","true","3","3","ability","1070","positive","能干","","","","","","","","","","","","","","","","",""
"null","","null","html-keyboard-response","71","248862","0.0-6.0-0.0-6.0-0.6","3","3","4","3","3","3","3","4","2","3","4","2","2","3","4","4","4","3","4","4","3","2","2","2","2","3","2","4","3","1","0","1","1","0","1","1","1","1","0","1","0","1","0","1","4","2","3","1","3","2","2","4","2","4","2","780195301624647681","杨","358","","","","","","","","","","","","","","","","","","","","","","","","","","","","","","","","","","","","","","","","","",""
"633","<p style=""color:rgb(150, 250, 100); font-size: 35px;"">本人</p>","i","categorize-html","72","249495","0.0-6.0-0.0-6.0-1.6","3","3","4","3","3","3","3","4","2","3","4","2","2","3","4","4","4","3","4","4","3","2","2","2","2","3","2","4","3","1","0","1","1","0","1","1","1","1","0","1","0","1","0","1","4","2","3","1","3","2","2","4","2","4","2","780195301624647681","杨","358","","","","","","","","","","","","","","","","","","","true","3","3","ability","633","self","本人","","","","","","","","","","","","","","","","",""
"null","","null","html-keyboard-response","73","249748","0.0-6.0-0.0-6.0-0.7","3","3","4","3","3","3","3","4","2","3","4","2","2","3","4","4","4","3","4","4","3","2","2","2","2","3","2","4","3","1","0","1","1","0","1","1","1","1","0","1","0","1","0","1","4","2","3","1","3","2","2","4","2","4","2","780195301624647681","杨","358","","","","","","","","","","","","","","","","","","","","","","","","","","","","","","","","","","","","","","","","","",""
"549","<p style=""color:white; font-size: 35px;"">蠢笨</p>","i","categorize-html","74","250297","0.0-6.0-0.0-6.0-1.7","3","3","4","3","3","3","3","4","2","3","4","2","2","3","4","4","4","3","4","4","3","2","2","2","2","3","2","4","3","1","0","1","1","0","1","1","1","1","0","1","0","1","0","1","4","2","3","1","3","2","2","4","2","4","2","780195301624647681","杨","358","","","","","","","","","","","","","","","","","","","true","3","3","ability","549","negative","蠢笨","","","","","","","","","","","","","","","","",""
"null","","null","html-keyboard-response","75","250550","0.0-6.0-0.0-6.0-0.8","3","3","4","3","3","3","3","4","2","3","4","2","2","3","4","4","4","3","4","4","3","2","2","2","2","3","2","4","3","1","0","1","1","0","1","1","1","1","0","1","0","1","0","1","4","2","3","1","3","2","2","4","2","4","2","780195301624647681","杨","358","","","","","","","","","","","","","","","","","","","","","","","","","","","","","","","","","","","","","","","","","",""
"565","<p style=""color:rgb(150, 250, 100); font-size: 35px;"">我的</p>","i","categorize-html","76","251115","0.0-6.0-0.0-6.0-1.8","3","3","4","3","3","3","3","4","2","3","4","2","2","3","4","4","4","3","4","4","3","2","2","2","2","3","2","4","3","1","0","1","1","0","1","1","1","1","0","1","0","1","0","1","4","2","3","1","3","2","2","4","2","4","2","780195301624647681","杨","358","","","","","","","","","","","","","","","","","","","true","3","3","ability","565","self","我的","","","","","","","","","","","","","","","","",""
"null","","null","html-keyboard-response","77","251367","0.0-6.0-0.0-6.0-0.9","3","3","4","3","3","3","3","4","2","3","4","2","2","3","4","4","4","3","4","4","3","2","2","2","2","3","2","4","3","1","0","1","1","0","1","1","1","1","0","1","0","1","0","1","4","2","3","1","3","2","2","4","2","4","2","780195301624647681","杨","358","","","","","","","","","","","","","","","","","","","","","","","","","","","","","","","","","","","","","","","","","",""
"503","<p style=""color:white; font-size: 35px;"">愚钝</p>","i","categorize-html","78","251871","0.0-6.0-0.0-6.0-1.9","3","3","4","3","3","3","3","4","2","3","4","2","2","3","4","4","4","3","4","4","3","2","2","2","2","3","2","4","3","1","0","1","1","0","1","1","1","1","0","1","0","1","0","1","4","2","3","1","3","2","2","4","2","4","2","780195301624647681","杨","358","","","","","","","","","","","","","","","","","","","true","3","3","ability","503","negative","愚钝","","","","","","","","","","","","","","","","",""
"null","","null","html-keyboard-response","79","252123","0.0-6.0-0.0-6.0-0.10","3","3","4","3","3","3","3","4","2","3","4","2","2","3","4","4","4","3","4","4","3","2","2","2","2","3","2","4","3","1","0","1","1","0","1","1","1","1","0","1","0","1","0","1","4","2","3","1","3","2","2","4","2","4","2","780195301624647681","杨","358","","","","","","","","","","","","","","","","","","","","","","","","","","","","","","","","","","","","","","","","","",""
"670","<p style=""color:rgb(150, 250, 100); font-size: 35px;"">他</p>","e","categorize-html","80","252794","0.0-6.0-0.0-6.0-1.10","3","3","4","3","3","3","3","4","2","3","4","2","2","3","4","4","4","3","4","4","3","2","2","2","2","3","2","4","3","1","0","1","1","0","1","1","1","1","0","1","0","1","0","1","4","2","3","1","3","2","2","4","2","4","2","780195301624647681","杨","358","","","","","","","","","","","","","","","","","","","true","3","3","ability","670","other","他","","","","","","","","","","","","","","","","",""
"null","","null","html-keyboard-response","81","253046","0.0-6.0-0.0-6.0-0.11","3","3","4","3","3","3","3","4","2","3","4","2","2","3","4","4","4","3","4","4","3","2","2","2","2","3","2","4","3","1","0","1","1","0","1","1","1","1","0","1","0","1","0","1","4","2","3","1","3","2","2","4","2","4","2","780195301624647681","杨","358","","","","","","","","","","","","","","","","","","","","","","","","","","","","","","","","","","","","","","","","","",""
"623","<p style=""color:white; font-size: 35px;"">天才</p>","e","categorize-html","82","253670","0.0-6.0-0.0-6.0-1.11","3","3","4","3","3","3","3","4","2","3","4","2","2","3","4","4","4","3","4","4","3","2","2","2","2","3","2","4","3","1","0","1","1","0","1","1","1","1","0","1","0","1","0","1","4","2","3","1","3","2","2","4","2","4","2","780195301624647681","杨","358","","","","","","","","","","","","","","","","","","","true","3","3","ability","623","positive","天才","","","","","","","","","","","","","","","","",""
"null","","null","html-keyboard-response","83","253921","0.0-6.0-0.0-6.0-0.12","3","3","4","3","3","3","3","4","2","3","4","2","2","3","4","4","4","3","4","4","3","2","2","2","2","3","2","4","3","1","0","1","1","0","1","1","1","1","0","1","0","1","0","1","4","2","3","1","3","2","2","4","2","4","2","780195301624647681","杨","358","","","","","","","","","","","","","","","","","","","","","","","","","","","","","","","","","","","","","","","","","",""
"605","<p style=""color:rgb(150, 250, 100); font-size: 35px;"">别人</p>","e","categorize-html","84","254527","0.0-6.0-0.0-6.0-1.12","3","3","4","3","3","3","3","4","2","3","4","2","2","3","4","4","4","3","4","4","3","2","2","2","2","3","2","4","3","1","0","1","1","0","1","1","1","1","0","1","0","1","0","1","4","2","3","1","3","2","2","4","2","4","2","780195301624647681","杨","358","","","","","","","","","","","","","","","","","","","true","3","3","ability","605","other","别人","","","","","","","","","","","","","","","","",""
"null","","null","html-keyboard-response","85","254778","0.0-6.0-0.0-6.0-0.13","3","3","4","3","3","3","3","4","2","3","4","2","2","3","4","4","4","3","4","4","3","2","2","2","2","3","2","4","3","1","0","1","1","0","1","1","1","1","0","1","0","1","0","1","4","2","3","1","3","2","2","4","2","4","2","780195301624647681","杨","358","","","","","","","","","","","","","","","","","","","","","","","","","","","","","","","","","","","","","","","","","",""
"503","<p style=""color:white; font-size: 35px;"">全能</p>","e","categorize-html","86","255282","0.0-6.0-0.0-6.0-1.13","3","3","4","3","3","3","3","4","2","3","4","2","2","3","4","4","4","3","4","4","3","2","2","2","2","3","2","4","3","1","0","1","1","0","1","1","1","1","0","1","0","1","0","1","4","2","3","1","3","2","2","4","2","4","2","780195301624647681","杨","358","","","","","","","","","","","","","","","","","","","true","3","3","ability","503","positive","全能","","","","","","","","","","","","","","","","",""
"null","","null","html-keyboard-response","87","255532","0.0-6.0-0.0-6.0-0.14","3","3","4","3","3","3","3","4","2","3","4","2","2","3","4","4","4","3","4","4","3","2","2","2","2","3","2","4","3","1","0","1","1","0","1","1","1","1","0","1","0","1","0","1","4","2","3","1","3","2","2","4","2","4","2","780195301624647681","杨","358","","","","","","","","","","","","","","","","","","","","","","","","","","","","","","","","","","","","","","","","","",""
"569","<p style=""color:rgb(150, 250, 100); font-size: 35px;"">自己的</p>","i","categorize-html","88","256103","0.0-6.0-0.0-6.0-1.14","3","3","4","3","3","3","3","4","2","3","4","2","2","3","4","4","4","3","4","4","3","2","2","2","2","3","2","4","3","1","0","1","1","0","1","1","1","1","0","1","0","1","0","1","4","2","3","1","3","2","2","4","2","4","2","780195301624647681","杨","358","","","","","","","","","","","","","","","","","","","true","3","3","ability","569","self","自己的","","","","","","","","","","","","","","","","",""
"null","","null","html-keyboard-response","89","256355","0.0-6.0-0.0-6.0-0.15","3","3","4","3","3","3","3","4","2","3","4","2","2","3","4","4","4","3","4","4","3","2","2","2","2","3","2","4","3","1","0","1","1","0","1","1","1","1","0","1","0","1","0","1","4","2","3","1","3","2","2","4","2","4","2","780195301624647681","杨","358","","","","","","","","","","","","","","","","","","","","","","","","","","","","","","","","","","","","","","","","","",""
"578","<p style=""color:white; font-size: 35px;"">无能</p>","i","categorize-html","90","256934","0.0-6.0-0.0-6.0-1.15","3","3","4","3","3","3","3","4","2","3","4","2","2","3","4","4","4","3","4","4","3","2","2","2","2","3","2","4","3","1","0","1","1","0","1","1","1","1","0","1","0","1","0","1","4","2","3","1","3","2","2","4","2","4","2","780195301624647681","杨","358","","","","","","","","","","","","","","","","","","","true","3","3","ability","578","negative","无能","","","","","","","","","","","","","","","","",""
"null","","null","html-keyboard-response","91","257184","0.0-6.0-0.0-6.0-0.16","3","3","4","3","3","3","3","4","2","3","4","2","2","3","4","4","4","3","4","4","3","2","2","2","2","3","2","4","3","1","0","1","1","0","1","1","1","1","0","1","0","1","0","1","4","2","3","1","3","2","2","4","2","4","2","780195301624647681","杨","358","","","","","","","","","","","","","","","","","","","","","","","","","","","","","","","","","","","","","","","","","",""
"512","<p style=""color:rgb(150, 250, 100); font-size: 35px;"">他人的</p>","e","categorize-html","92","257698","0.0-6.0-0.0-6.0-1.16","3","3","4","3","3","3","3","4","2","3","4","2","2","3","4","4","4","3","4","4","3","2","2","2","2","3","2","4","3","1","0","1","1","0","1","1","1","1","0","1","0","1","0","1","4","2","3","1","3","2","2","4","2","4","2","780195301624647681","杨","358","","","","","","","","","","","","","","","","","","","true","3","3","ability","512","other","他人的","","","","","","","","","","","","","","","","",""
"null","","null","html-keyboard-response","93","257949","0.0-6.0-0.0-6.0-0.17","3","3","4","3","3","3","3","4","2","3","4","2","2","3","4","4","4","3","4","4","3","2","2","2","2","3","2","4","3","1","0","1","1","0","1","1","1","1","0","1","0","1","0","1","4","2","3","1","3","2","2","4","2","4","2","780195301624647681","杨","358","","","","","","","","","","","","","","","","","","","","","","","","","","","","","","","","","","","","","","","","","",""
"761","<p style=""color:white; font-size: 35px;"">高效</p>","i","categorize-html","94","259218","0.0-6.0-0.0-6.0-1.17","3","3","4","3","3","3","3","4","2","3","4","2","2","3","4","4","4","3","4","4","3","2","2","2","2","3","2","4","3","1","0","1","1","0","1","1","1","1","0","1","0","1","0","1","4","2","3","1","3","2","2","4","2","4","2","780195301624647681","杨","358","","","","","","","","","","","","","","","","","","","false","3","3","ability","1267.5238095238096","positive","高效","","","","","","","","","","","","","","","","",""
"null","","null","html-keyboard-response","95","259470","0.0-6.0-0.0-6.0-0.18","3","3","4","3","3","3","3","4","2","3","4","2","2","3","4","4","4","3","4","4","3","2","2","2","2","3","2","4","3","1","0","1","1","0","1","1","1","1","0","1","0","1","0","1","4","2","3","1","3","2","2","4","2","4","2","780195301624647681","杨","358","","","","","","","","","","","","","","","","","","","","","","","","","","","","","","","","","","","","","","","","","",""
"648","<p style=""color:rgb(150, 250, 100); font-size: 35px;"">本人的</p>","i","categorize-html","96","260119","0.0-6.0-0.0-6.0-1.18","3","3","4","3","3","3","3","4","2","3","4","2","2","3","4","4","4","3","4","4","3","2","2","2","2","3","2","4","3","1","0","1","1","0","1","1","1","1","0","1","0","1","0","1","4","2","3","1","3","2","2","4","2","4","2","780195301624647681","杨","358","","","","","","","","","","","","","","","","","","","true","3","3","ability","648","self","本人的","","","","","","","","","","","","","","","","",""
"null","","null","html-keyboard-response","97","260370","0.0-6.0-0.0-6.0-0.19","3","3","4","3","3","3","3","4","2","3","4","2","2","3","4","4","4","3","4","4","3","2","2","2","2","3","2","4","3","1","0","1","1","0","1","1","1","1","0","1","0","1","0","1","4","2","3","1","3","2","2","4","2","4","2","780195301624647681","杨","358","","","","","","","","","","","","","","","","","","","","","","","","","","","","","","","","","","","","","","","","","",""
"516","<p style=""color:white; font-size: 35px;"">拙笨</p>","i","categorize-html","98","260887","0.0-6.0-0.0-6.0-1.19","3","3","4","3","3","3","3","4","2","3","4","2","2","3","4","4","4","3","4","4","3","2","2","2","2","3","2","4","3","1","0","1","1","0","1","1","1","1","0","1","0","1","0","1","4","2","3","1","3","2","2","4","2","4","2","780195301624647681","杨","358","","","","","","","","","","","","","","","","","","","true","3","3","ability","516","negative","拙笨","","","","","","","","","","","","","","","","",""
"null","","null","html-keyboard-response","99","261139","0.0-6.0-0.0-6.0-0.20","3","3","4","3","3","3","3","4","2","3","4","2","2","3","4","4","4","3","4","4","3","2","2","2","2","3","2","4","3","1","0","1","1","0","1","1","1","1","0","1","0","1","0","1","4","2","3","1","3","2","2","4","2","4","2","780195301624647681","杨","358","","","","","","","","","","","","","","","","","","","","","","","","","","","","","","","","","","","","","","","","","",""
"640","<p style=""color:rgb(150, 250, 100); font-size: 35px;"">我</p>","i","categorize-html","100","261779","0.0-6.0-0.0-6.0-1.20","3","3","4","3","3","3","3","4","2","3","4","2","2","3","4","4","4","3","4","4","3","2","2","2","2","3","2","4","3","1","0","1","1","0","1","1","1","1","0","1","0","1","0","1","4","2","3","1","3","2","2","4","2","4","2","780195301624647681","杨","358","","","","","","","","","","","","","","","","","","","true","3","3","ability","640","self","我","","","","","","","","","","","","","","","","",""
"null","","null","html-keyboard-response","101","262031","0.0-6.0-0.0-6.0-0.21","3","3","4","3","3","3","3","4","2","3","4","2","2","3","4","4","4","3","4","4","3","2","2","2","2","3","2","4","3","1","0","1","1","0","1","1","1","1","0","1","0","1","0","1","4","2","3","1","3","2","2","4","2","4","2","780195301624647681","杨","358","","","","","","","","","","","","","","","","","","","","","","","","","","","","","","","","","","","","","","","","","",""
"663","<p style=""color:white; font-size: 35px;"">精干</p>","e","categorize-html","102","262695","0.0-6.0-0.0-6.0-1.21","3","3","4","3","3","3","3","4","2","3","4","2","2","3","4","4","4","3","4","4","3","2","2","2","2","3","2","4","3","1","0","1","1","0","1","1","1","1","0","1","0","1","0","1","4","2","3","1","3","2","2","4","2","4","2","780195301624647681","杨","358","","","","","","","","","","","","","","","","","","","true","3","3","ability","663","positive","精干","","","","","","","","","","","","","","","","",""
"null","","null","html-keyboard-response","103","262946","0.0-6.0-0.0-6.0-0.22","3","3","4","3","3","3","3","4","2","3","4","2","2","3","4","4","4","3","4","4","3","2","2","2","2","3","2","4","3","1","0","1","1","0","1","1","1","1","0","1","0","1","0","1","4","2","3","1","3","2","2","4","2","4","2","780195301624647681","杨","358","","","","","","","","","","","","","","","","","","","","","","","","","","","","","","","","","","","","","","","","","",""
"646","<p style=""color:rgb(150, 250, 100); font-size: 35px;"">别人的</p>","e","categorize-html","104","263593","0.0-6.0-0.0-6.0-1.22","3","3","4","3","3","3","3","4","2","3","4","2","2","3","4","4","4","3","4","4","3","2","2","2","2","3","2","4","3","1","0","1","1","0","1","1","1","1","0","1","0","1","0","1","4","2","3","1","3","2","2","4","2","4","2","780195301624647681","杨","358","","","","","","","","","","","","","","","","","","","true","3","3","ability","646","other","别人的","","","","","","","","","","","","","","","","",""
"null","","null","html-keyboard-response","105","263846","0.0-6.0-0.0-6.0-0.23","3","3","4","3","3","3","3","4","2","3","4","2","2","3","4","4","4","3","4","4","3","2","2","2","2","3","2","4","3","1","0","1","1","0","1","1","1","1","0","1","0","1","0","1","4","2","3","1","3","2","2","4","2","4","2","780195301624647681","杨","358","","","","","","","","","","","","","","","","","","","","","","","","","","","","","","","","","","","","","","","","","",""
"683","<p style=""color:white; font-size: 35px;"">废物</p>","e","categorize-html","106","264951","0.0-6.0-0.0-6.0-1.23","3","3","4","3","3","3","3","4","2","3","4","2","2","3","4","4","4","3","4","4","3","2","2","2","2","3","2","4","3","1","0","1","1","0","1","1","1","1","0","1","0","1","0","1","4","2","3","1","3","2","2","4","2","4","2","780195301624647681","杨","358","","","","","","","","","","","","","","","","","","","false","3","3","ability","1267.5238095238096","negative","废物","","","","","","","","","","","","","","","","",""
"3120","
    <div class=""tag-bottom""><p>
    —— 任务4：对“他人/积极”词和“自我/消极”词分类 ——<p/>
    <span style=""color:#78DCE8""><b>与刚才的任务完全相同，请再次对这四类词语分类</b></span><p/>
    <span style=""color:#FFD866""><b>请根据上方标签的提示，尽可能正确并且快速地做出按键反应</b></span><p/>
    当按键错误时屏幕中会出现<span style=""color:red""> X </span>，需要按另一个键纠正才能继续<br/><p/>
    请把双手食指分别放在键盘的“E”键和“I”键上<p/>
    按<空格键>开始
    </p></div>"," ","html-keyboard-response","107","268071","0.0-6.0-0.0-7.0","3","3","4","3","3","3","3","4","2","3","4","2","2","3","4","4","4","3","4","4","3","2","2","2","2","3","2","4","3","1","0","1","1","0","1","1","1","1","0","1","0","1","0","1","4","2","3","1","3","2","2","4","2","4","2","780195301624647681","杨","358","","","","","","","","","","","","","","","","","","","","","","","","","","","","","","","","","","","","","","","","","",""
"null","","null","html-keyboard-response","108","268323","0.0-6.0-0.0-8.0-0.0","3","3","4","3","3","3","3","4","2","3","4","2","2","3","4","4","4","3","4","4","3","2","2","2","2","3","2","4","3","1","0","1","1","0","1","1","1","1","0","1","0","1","0","1","4","2","3","1","3","2","2","4","2","4","2","780195301624647681","杨","358","","","","","","","","","","","","","","","","","","","","","","","","","","","","","","","","","","","","","","","","","",""
"1054","<p style=""color:rgb(150, 250, 100); font-size: 35px;"">他</p>","e","categorize-html","109","269378","0.0-6.0-0.0-8.0-1.0","3","3","4","3","3","3","3","4","2","3","4","2","2","3","4","4","4","3","4","4","3","2","2","2","2","3","2","4","3","1","0","1","1","0","1","1","1","1","0","1","0","1","0","1","4","2","3","1","3","2","2","4","2","4","2","780195301624647681","杨","358","","","","","","","","","","","","","","","","","","","true","4","4","ability","1054","other","他","","","","","","","","","","","","","","","","",""
"null","","null","html-keyboard-response","110","269630","0.0-6.0-0.0-8.0-0.1","3","3","4","3","3","3","3","4","2","3","4","2","2","3","4","4","4","3","4","4","3","2","2","2","2","3","2","4","3","1","0","1","1","0","1","1","1","1","0","1","0","1","0","1","4","2","3","1","3","2","2","4","2","4","2","780195301624647681","杨","358","","","","","","","","","","","","","","","","","","","","","","","","","","","","","","","","","","","","","","","","","",""
"756","<p style=""color:white; font-size: 35px;"">全能</p>","e","categorize-html","111","270388","0.0-6.0-0.0-8.0-1.1","3","3","4","3","3","3","3","4","2","3","4","2","2","3","4","4","4","3","4","4","3","2","2","2","2","3","2","4","3","1","0","1","1","0","1","1","1","1","0","1","0","1","0","1","4","2","3","1","3","2","2","4","2","4","2","780195301624647681","杨","358","","","","","","","","","","","","","","","","","","","true","4","4","ability","756","positive","全能","","","","","","","","","","","","","","","","",""
"null","","null","html-keyboard-response","112","270639","0.0-6.0-0.0-8.0-0.2","3","3","4","3","3","3","3","4","2","3","4","2","2","3","4","4","4","3","4","4","3","2","2","2","2","3","2","4","3","1","0","1","1","0","1","1","1","1","0","1","0","1","0","1","4","2","3","1","3","2","2","4","2","4","2","780195301624647681","杨","358","","","","","","","","","","","","","","","","","","","","","","","","","","","","","","","","","","","","","","","","","",""
"624","<p style=""color:rgb(150, 250, 100); font-size: 35px;"">自己</p>","i","categorize-html","113","271264","0.0-6.0-0.0-8.0-1.2","3","3","4","3","3","3","3","4","2","3","4","2","2","3","4","4","4","3","4","4","3","2","2","2","2","3","2","4","3","1","0","1","1","0","1","1","1","1","0","1","0","1","0","1","4","2","3","1","3","2","2","4","2","4","2","780195301624647681","杨","358","","","","","","","","","","","","","","","","","","","true","4","4","ability","624","self","自己","","","","","","","","","","","","","","","","",""
"null","","null","html-keyboard-response","114","271516","0.0-6.0-0.0-8.0-0.3","3","3","4","3","3","3","3","4","2","3","4","2","2","3","4","4","4","3","4","4","3","2","2","2","2","3","2","4","3","1","0","1","1","0","1","1","1","1","0","1","0","1","0","1","4","2","3","1","3","2","2","4","2","4","2","780195301624647681","杨","358","","","","","","","","","","","","","","","","","","","","","","","","","","","","","","","","","","","","","","","","","",""
"484","<p style=""color:white; font-size: 35px;"">无能</p>","i","categorize-html","115","272001","0.0-6.0-0.0-8.0-1.3","3","3","4","3","3","3","3","4","2","3","4","2","2","3","4","4","4","3","4","4","3","2","2","2","2","3","2","4","3","1","0","1","1","0","1","1","1","1","0","1","0","1","0","1","4","2","3","1","3","2","2","4","2","4","2","780195301624647681","杨","358","","","","","","","","","","","","","","","","","","","true","4","4","ability","484","negative","无能","","","","","","","","","","","","","","","","",""
"null","","null","html-keyboard-response","116","272251","0.0-6.0-0.0-8.0-0.4","3","3","4","3","3","3","3","4","2","3","4","2","2","3","4","4","4","3","4","4","3","2","2","2","2","3","2","4","3","1","0","1","1","0","1","1","1","1","0","1","0","1","0","1","4","2","3","1","3","2","2","4","2","4","2","780195301624647681","杨","358","","","","","","","","","","","","","","","","","","","","","","","","","","","","","","","","","","","","","","","","","",""
"621","<p style=""color:rgb(150, 250, 100); font-size: 35px;"">我</p>","i","categorize-html","117","272874","0.0-6.0-0.0-8.0-1.4","3","3","4","3","3","3","3","4","2","3","4","2","2","3","4","4","4","3","4","4","3","2","2","2","2","3","2","4","3","1","0","1","1","0","1","1","1","1","0","1","0","1","0","1","4","2","3","1","3","2","2","4","2","4","2","780195301624647681","杨","358","","","","","","","","","","","","","","","","","","","true","4","4","ability","621","self","我","","","","","","","","","","","","","","","","",""
"null","","null","html-keyboard-response","118","273125","0.0-6.0-0.0-8.0-0.5","3","3","4","3","3","3","3","4","2","3","4","2","2","3","4","4","4","3","4","4","3","2","2","2","2","3","2","4","3","1","0","1","1","0","1","1","1","1","0","1","0","1","0","1","4","2","3","1","3","2","2","4","2","4","2","780195301624647681","杨","358","","","","","","","","","","","","","","","","","","","","","","","","","","","","","","","","","","","","","","","","","",""
"610","<p style=""color:white; font-size: 35px;"">废物</p>","i","categorize-html","119","273737","0.0-6.0-0.0-8.0-1.5","3","3","4","3","3","3","3","4","2","3","4","2","2","3","4","4","4","3","4","4","3","2","2","2","2","3","2","4","3","1","0","1","1","0","1","1","1","1","0","1","0","1","0","1","4","2","3","1","3","2","2","4","2","4","2","780195301624647681","杨","358","","","","","","","","","","","","","","","","","","","true","4","4","ability","610","negative","废物","","","","","","","","","","","","","","","","",""
"null","","null","html-keyboard-response","120","273987","0.0-6.0-0.0-8.0-0.6","3","3","4","3","3","3","3","4","2","3","4","2","2","3","4","4","4","3","4","4","3","2","2","2","2","3","2","4","3","1","0","1","1","0","1","1","1","1","0","1","0","1","0","1","4","2","3","1","3","2","2","4","2","4","2","780195301624647681","杨","358","","","","","","","","","","","","","","","","","","","","","","","","","","","","","","","","","","","","","","","","","",""
"650","<p style=""color:rgb(150, 250, 100); font-size: 35px;"">他人的</p>","e","categorize-html","121","274638","0.0-6.0-0.0-8.0-1.6","3","3","4","3","3","3","3","4","2","3","4","2","2","3","4","4","4","3","4","4","3","2","2","2","2","3","2","4","3","1","0","1","1","0","1","1","1","1","0","1","0","1","0","1","4","2","3","1","3","2","2","4","2","4","2","780195301624647681","杨","358","","","","","","","","","","","","","","","","","","","true","4","4","ability","650","other","他人的","","","","","","","","","","","","","","","","",""
"null","","null","html-keyboard-response","122","274891","0.0-6.0-0.0-8.0-0.7","3","3","4","3","3","3","3","4","2","3","4","2","2","3","4","4","4","3","4","4","3","2","2","2","2","3","2","4","3","1","0","1","1","0","1","1","1","1","0","1","0","1","0","1","4","2","3","1","3","2","2","4","2","4","2","780195301624647681","杨","358","","","","","","","","","","","","","","","","","","","","","","","","","","","","","","","","","","","","","","","","","",""
"644","<p style=""color:white; font-size: 35px;"">精干</p>","e","categorize-html","123","275536","0.0-6.0-0.0-8.0-1.7","3","3","4","3","3","3","3","4","2","3","4","2","2","3","4","4","4","3","4","4","3","2","2","2","2","3","2","4","3","1","0","1","1","0","1","1","1","1","0","1","0","1","0","1","4","2","3","1","3","2","2","4","2","4","2","780195301624647681","杨","358","","","","","","","","","","","","","","","","","","","true","4","4","ability","644","positive","精干","","","","","","","","","","","","","","","","",""
"null","","null","html-keyboard-response","124","275786","0.0-6.0-0.0-8.0-0.8","3","3","4","3","3","3","3","4","2","3","4","2","2","3","4","4","4","3","4","4","3","2","2","2","2","3","2","4","3","1","0","1","1","0","1","1","1","1","0","1","0","1","0","1","4","2","3","1","3","2","2","4","2","4","2","780195301624647681","杨","358","","","","","","","","","","","","","","","","","","","","","","","","","","","","","","","","","","","","","","","","","",""
"760","<p style=""color:rgb(150, 250, 100); font-size: 35px;"">本人</p>","i","categorize-html","125","276547","0.0-6.0-0.0-8.0-1.8","3","3","4","3","3","3","3","4","2","3","4","2","2","3","4","4","4","3","4","4","3","2","2","2","2","3","2","4","3","1","0","1","1","0","1","1","1","1","0","1","0","1","0","1","4","2","3","1","3","2","2","4","2","4","2","780195301624647681","杨","358","","","","","","","","","","","","","","","","","","","true","4","4","ability","760","self","本人","","","","","","","","","","","","","","","","",""
"null","","null","html-keyboard-response","126","276798","0.0-6.0-0.0-8.0-0.9","3","3","4","3","3","3","3","4","2","3","4","2","2","3","4","4","4","3","4","4","3","2","2","2","2","3","2","4","3","1","0","1","1","0","1","1","1","1","0","1","0","1","0","1","4","2","3","1","3","2","2","4","2","4","2","780195301624647681","杨","358","","","","","","","","","","","","","","","","","","","","","","","","","","","","","","","","","","","","","","","","","",""
"601","<p style=""color:white; font-size: 35px;"">低能</p>","i","categorize-html","127","277401","0.0-6.0-0.0-8.0-1.9","3","3","4","3","3","3","3","4","2","3","4","2","2","3","4","4","4","3","4","4","3","2","2","2","2","3","2","4","3","1","0","1","1","0","1","1","1","1","0","1","0","1","0","1","4","2","3","1","3","2","2","4","2","4","2","780195301624647681","杨","358","","","","","","","","","","","","","","","","","","","true","4","4","ability","601","negative","低能","","","","","","","","","","","","","","","","",""
"null","","null","html-keyboard-response","128","277652","0.0-6.0-0.0-8.0-0.10","3","3","4","3","3","3","3","4","2","3","4","2","2","3","4","4","4","3","4","4","3","2","2","2","2","3","2","4","3","1","0","1","1","0","1","1","1","1","0","1","0","1","0","1","4","2","3","1","3","2","2","4","2","4","2","780195301624647681","杨","358","","","","","","","","","","","","","","","","","","","","","","","","","","","","","","","","","","","","","","","","","",""
"1051","<p style=""color:rgb(150, 250, 100); font-size: 35px;"">他的</p>","e","categorize-html","129","278704","0.0-6.0-0.0-8.0-1.10","3","3","4","3","3","3","3","4","2","3","4","2","2","3","4","4","4","3","4","4","3","2","2","2","2","3","2","4","3","1","0","1","1","0","1","1","1","1","0","1","0","1","0","1","4","2","3","1","3","2","2","4","2","4","2","780195301624647681","杨","358","","","","","","","","","","","","","","","","","","","true","4","4","ability","1051","other","他的","","","","","","","","","","","","","","","","",""
"null","","null","html-keyboard-response","130","278955","0.0-6.0-0.0-8.0-0.11","3","3","4","3","3","3","3","4","2","3","4","2","2","3","4","4","4","3","4","4","3","2","2","2","2","3","2","4","3","1","0","1","1","0","1","1","1","1","0","1","0","1","0","1","4","2","3","1","3","2","2","4","2","4","2","780195301624647681","杨","358","","","","","","","","","","","","","","","","","","","","","","","","","","","","","","","","","","","","","","","","","",""
"1110","<p style=""color:white; font-size: 35px;"">能干</p>","e","categorize-html","131","280066","0.0-6.0-0.0-8.0-1.11","3","3","4","3","3","3","3","4","2","3","4","2","2","3","4","4","4","3","4","4","3","2","2","2","2","3","2","4","3","1","0","1","1","0","1","1","1","1","0","1","0","1","0","1","4","2","3","1","3","2","2","4","2","4","2","780195301624647681","杨","358","","","","","","","","","","","","","","","","","","","true","4","4","ability","1110","positive","能干","","","","","","","","","","","","","","","","",""
"null","","null","html-keyboard-response","132","280317","0.0-6.0-0.0-8.0-0.12","3","3","4","3","3","3","3","4","2","3","4","2","2","3","4","4","4","3","4","4","3","2","2","2","2","3","2","4","3","1","0","1","1","0","1","1","1","1","0","1","0","1","0","1","4","2","3","1","3","2","2","4","2","4","2","780195301624647681","杨","358","","","","","","","","","","","","","","","","","","","","","","","","","","","","","","","","","","","","","","","","","",""
"603","<p style=""color:rgb(150, 250, 100); font-size: 35px;"">我</p>","i","categorize-html","133","280921","0.0-6.0-0.0-8.0-1.12","3","3","4","3","3","3","3","4","2","3","4","2","2","3","4","4","4","3","4","4","3","2","2","2","2","3","2","4","3","1","0","1","1","0","1","1","1","1","0","1","0","1","0","1","4","2","3","1","3","2","2","4","2","4","2","780195301624647681","杨","358","","","","","","","","","","","","","","","","","","","true","4","4","ability","603","self","我","","","","","","","","","","","","","","","","",""
"null","","null","html-keyboard-response","134","281174","0.0-6.0-0.0-8.0-0.13","3","3","4","3","3","3","3","4","2","3","4","2","2","3","4","4","4","3","4","4","3","2","2","2","2","3","2","4","3","1","0","1","1","0","1","1","1","1","0","1","0","1","0","1","4","2","3","1","3","2","2","4","2","4","2","780195301624647681","杨","358","","","","","","","","","","","","","","","","","","","","","","","","","","","","","","","","","","","","","","","","","",""
"610","<p style=""color:white; font-size: 35px;"">天才</p>","e","categorize-html","135","281785","0.0-6.0-0.0-8.0-1.13","3","3","4","3","3","3","3","4","2","3","4","2","2","3","4","4","4","3","4","4","3","2","2","2","2","3","2","4","3","1","0","1","1","0","1","1","1","1","0","1","0","1","0","1","4","2","3","1","3","2","2","4","2","4","2","780195301624647681","杨","358","","","","","","","","","","","","","","","","","","","true","4","4","ability","610","positive","天才","","","","","","","","","","","","","","","","",""
"null","","null","html-keyboard-response","136","282035","0.0-6.0-0.0-8.0-0.14","3","3","4","3","3","3","3","4","2","3","4","2","2","3","4","4","4","3","4","4","3","2","2","2","2","3","2","4","3","1","0","1","1","0","1","1","1","1","0","1","0","1","0","1","4","2","3","1","3","2","2","4","2","4","2","780195301624647681","杨","358","","","","","","","","","","","","","","","","","","","","","","","","","","","","","","","","","","","","","","","","","",""
"789","<p style=""color:rgb(150, 250, 100); font-size: 35px;"">别人的</p>","e","categorize-html","137","282826","0.0-6.0-0.0-8.0-1.14","3","3","4","3","3","3","3","4","2","3","4","2","2","3","4","4","4","3","4","4","3","2","2","2","2","3","2","4","3","1","0","1","1","0","1","1","1","1","0","1","0","1","0","1","4","2","3","1","3","2","2","4","2","4","2","780195301624647681","杨","358","","","","","","","","","","","","","","","","","","","true","4","4","ability","789","other","别人的","","","","","","","","","","","","","","","","",""
"null","","null","html-keyboard-response","138","283078","0.0-6.0-0.0-8.0-0.15","3","3","4","3","3","3","3","4","2","3","4","2","2","3","4","4","4","3","4","4","3","2","2","2","2","3","2","4","3","1","0","1","1","0","1","1","1","1","0","1","0","1","0","1","4","2","3","1","3","2","2","4","2","4","2","780195301624647681","杨","358","","","","","","","","","","","","","","","","","","","","","","","","","","","","","","","","","","","","","","","","","",""
"687","<p style=""color:white; font-size: 35px;"">蠢笨</p>","i","categorize-html","139","283765","0.0-6.0-0.0-8.0-1.15","3","3","4","3","3","3","3","4","2","3","4","2","2","3","4","4","4","3","4","4","3","2","2","2","2","3","2","4","3","1","0","1","1","0","1","1","1","1","0","1","0","1","0","1","4","2","3","1","3","2","2","4","2","4","2","780195301624647681","杨","358","","","","","","","","","","","","","","","","","","","true","4","4","ability","687","negative","蠢笨","","","","","","","","","","","","","","","","",""
"null","","null","html-keyboard-response","140","284018","0.0-6.0-0.0-8.0-0.16","3","3","4","3","3","3","3","4","2","3","4","2","2","3","4","4","4","3","4","4","3","2","2","2","2","3","2","4","3","1","0","1","1","0","1","1","1","1","0","1","0","1","0","1","4","2","3","1","3","2","2","4","2","4","2","780195301624647681","杨","358","","","","","","","","","","","","","","","","","","","","","","","","","","","","","","","","","","","","","","","","","",""
"659","<p style=""color:rgb(150, 250, 100); font-size: 35px;"">我的</p>","i","categorize-html","141","284678","0.0-6.0-0.0-8.0-1.16","3","3","4","3","3","3","3","4","2","3","4","2","2","3","4","4","4","3","4","4","3","2","2","2","2","3","2","4","3","1","0","1","1","0","1","1","1","1","0","1","0","1","0","1","4","2","3","1","3","2","2","4","2","4","2","780195301624647681","杨","358","","","","","","","","","","","","","","","","","","","true","4","4","ability","659","self","我的","","","","","","","","","","","","","","","","",""
"null","","null","html-keyboard-response","142","284930","0.0-6.0-0.0-8.0-0.17","3","3","4","3","3","3","3","4","2","3","4","2","2","3","4","4","4","3","4","4","3","2","2","2","2","3","2","4","3","1","0","1","1","0","1","1","1","1","0","1","0","1","0","1","4","2","3","1","3","2","2","4","2","4","2","780195301624647681","杨","358","","","","","","","","","","","","","","","","","","","","","","","","","","","","","","","","","","","","","","","","","",""
"1240","<p style=""color:white; font-size: 35px;"">愚钝</p>","i","categorize-html","143","286171","0.0-6.0-0.0-8.0-1.17","3","3","4","3","3","3","3","4","2","3","4","2","2","3","4","4","4","3","4","4","3","2","2","2","2","3","2","4","3","1","0","1","1","0","1","1","1","1","0","1","0","1","0","1","4","2","3","1","3","2","2","4","2","4","2","780195301624647681","杨","358","","","","","","","","","","","","","","","","","","","true","4","4","ability","1240","negative","愚钝","","","","","","","","","","","","","","","","",""
"null","","null","html-keyboard-response","144","286422","0.0-6.0-0.0-8.0-0.18","3","3","4","3","3","3","3","4","2","3","4","2","2","3","4","4","4","3","4","4","3","2","2","2","2","3","2","4","3","1","0","1","1","0","1","1","1","1","0","1","0","1","0","1","4","2","3","1","3","2","2","4","2","4","2","780195301624647681","杨","358","","","","","","","","","","","","","","","","","","","","","","","","","","","","","","","","","","","","","","","","","",""
"699","<p style=""color:rgb(150, 250, 100); font-size: 35px;"">他人</p>","e","categorize-html","145","287121","0.0-6.0-0.0-8.0-1.18","3","3","4","3","3","3","3","4","2","3","4","2","2","3","4","4","4","3","4","4","3","2","2","2","2","3","2","4","3","1","0","1","1","0","1","1","1","1","0","1","0","1","0","1","4","2","3","1","3","2","2","4","2","4","2","780195301624647681","杨","358","","","","","","","","","","","","","","","","","","","true","4","4","ability","699","other","他人","","","","","","","","","","","","","","","","",""
"null","","null","html-keyboard-response","146","287373","0.0-6.0-0.0-8.0-0.19","3","3","4","3","3","3","3","4","2","3","4","2","2","3","4","4","4","3","4","4","3","2","2","2","2","3","2","4","3","1","0","1","1","0","1","1","1","1","0","1","0","1","0","1","4","2","3","1","3","2","2","4","2","4","2","780195301624647681","杨","358","","","","","","","","","","","","","","","","","","","","","","","","","","","","","","","","","","","","","","","","","",""
"564","<p style=""color:white; font-size: 35px;"">全才</p>","e","categorize-html","147","287939","0.0-6.0-0.0-8.0-1.19","3","3","4","3","3","3","3","4","2","3","4","2","2","3","4","4","4","3","4","4","3","2","2","2","2","3","2","4","3","1","0","1","1","0","1","1","1","1","0","1","0","1","0","1","4","2","3","1","3","2","2","4","2","4","2","780195301624647681","杨","358","","","","","","","","","","","","","","","","","","","true","4","4","ability","564","positive","全才","","","","","","","","","","","","","","","","",""
"null","","null","html-keyboard-response","148","288191","0.0-6.0-0.0-8.0-0.20","3","3","4","3","3","3","3","4","2","3","4","2","2","3","4","4","4","3","4","4","3","2","2","2","2","3","2","4","3","1","0","1","1","0","1","1","1","1","0","1","0","1","0","1","4","2","3","1","3","2","2","4","2","4","2","780195301624647681","杨","358","","","","","","","","","","","","","","","","","","","","","","","","","","","","","","","","","","","","","","","","","",""
"868","<p style=""color:rgb(150, 250, 100); font-size: 35px;"">自己</p>","i","categorize-html","149","289060","0.0-6.0-0.0-8.0-1.20","3","3","4","3","3","3","3","4","2","3","4","2","2","3","4","4","4","3","4","4","3","2","2","2","2","3","2","4","3","1","0","1","1","0","1","1","1","1","0","1","0","1","0","1","4","2","3","1","3","2","2","4","2","4","2","780195301624647681","杨","358","","","","","","","","","","","","","","","","","","","true","4","4","ability","868","self","自己","","","","","","","","","","","","","","","","",""
"null","","null","html-keyboard-response","150","289312","0.0-6.0-0.0-8.0-0.21","3","3","4","3","3","3","3","4","2","3","4","2","2","3","4","4","4","3","4","4","3","2","2","2","2","3","2","4","3","1","0","1","1","0","1","1","1","1","0","1","0","1","0","1","4","2","3","1","3","2","2","4","2","4","2","780195301624647681","杨","358","","","","","","","","","","","","","","","","","","","","","","","","","","","","","","","","","","","","","","","","","",""
"542","<p style=""color:white; font-size: 35px;"">蠢笨</p>","i","categorize-html","151","289855","0.0-6.0-0.0-8.0-1.21","3","3","4","3","3","3","3","4","2","3","4","2","2","3","4","4","4","3","4","4","3","2","2","2","2","3","2","4","3","1","0","1","1","0","1","1","1","1","0","1","0","1","0","1","4","2","3","1","3","2","2","4","2","4","2","780195301624647681","杨","358","","","","","","","","","","","","","","","","","","","true","4","4","ability","542","negative","蠢笨","","","","","","","","","","","","","","","","",""
"null","","null","html-keyboard-response","152","290107","0.0-6.0-0.0-8.0-0.22","3","3","4","3","3","3","3","4","2","3","4","2","2","3","4","4","4","3","4","4","3","2","2","2","2","3","2","4","3","1","0","1","1","0","1","1","1","1","0","1","0","1","0","1","4","2","3","1","3","2","2","4","2","4","2","780195301624647681","杨","358","","","","","","","","","","","","","","","","","","","","","","","","","","","","","","","","","","","","","","","","","",""
"784","<p style=""color:rgb(150, 250, 100); font-size: 35px;"">他人</p>","e","categorize-html","153","290893","0.0-6.0-0.0-8.0-1.22","3","3","4","3","3","3","3","4","2","3","4","2","2","3","4","4","4","3","4","4","3","2","2","2","2","3","2","4","3","1","0","1","1","0","1","1","1","1","0","1","0","1","0","1","4","2","3","1","3","2","2","4","2","4","2","780195301624647681","杨","358","","","","","","","","","","","","","","","","","","","true","4","4","ability","784","other","他人","","","","","","","","","","","","","","","","",""
"null","","null","html-keyboard-response","154","291147","0.0-6.0-0.0-8.0-0.23","3","3","4","3","3","3","3","4","2","3","4","2","2","3","4","4","4","3","4","4","3","2","2","2","2","3","2","4","3","1","0","1","1","0","1","1","1","1","0","1","0","1","0","1","4","2","3","1","3","2","2","4","2","4","2","780195301624647681","杨","358","","","","","","","","","","","","","","","","","","","","","","","","","","","","","","","","","","","","","","","","","",""
"538","<p style=""color:white; font-size: 35px;"">精干</p>","e","categorize-html","155","291686","0.0-6.0-0.0-8.0-1.23","3","3","4","3","3","3","3","4","2","3","4","2","2","3","4","4","4","3","4","4","3","2","2","2","2","3","2","4","3","1","0","1","1","0","1","1","1","1","0","1","0","1","0","1","4","2","3","1","3","2","2","4","2","4","2","780195301624647681","杨","358","","","","","","","","","","","","","","","","","","","true","4","4","ability","538","positive","精干","","","","","","","","","","","","","","","","",""
"null","","null","html-keyboard-response","156","291937","0.0-6.0-0.0-8.0-0.24","3","3","4","3","3","3","3","4","2","3","4","2","2","3","4","4","4","3","4","4","3","2","2","2","2","3","2","4","3","1","0","1","1","0","1","1","1","1","0","1","0","1","0","1","4","2","3","1","3","2","2","4","2","4","2","780195301624647681","杨","358","","","","","","","","","","","","","","","","","","","","","","","","","","","","","","","","","","","","","","","","","",""
"682","<p style=""color:rgb(150, 250, 100); font-size: 35px;"">本人的</p>","i","categorize-html","157","292620","0.0-6.0-0.0-8.0-1.24","3","3","4","3","3","3","3","4","2","3","4","2","2","3","4","4","4","3","4","4","3","2","2","2","2","3","2","4","3","1","0","1","1","0","1","1","1","1","0","1","0","1","0","1","4","2","3","1","3","2","2","4","2","4","2","780195301624647681","杨","358","","","","","","","","","","","","","","","","","","","true","4","4","ability","682","self","本人的","","","","","","","","","","","","","","","","",""
"null","","null","html-keyboard-response","158","292871","0.0-6.0-0.0-8.0-0.25","3","3","4","3","3","3","3","4","2","3","4","2","2","3","4","4","4","3","4","4","3","2","2","2","2","3","2","4","3","1","0","1","1","0","1","1","1","1","0","1","0","1","0","1","4","2","3","1","3","2","2","4","2","4","2","780195301624647681","杨","358","","","","","","","","","","","","","","","","","","","","","","","","","","","","","","","","","","","","","","","","","",""
"868","<p style=""color:white; font-size: 35px;"">拙笨</p>","i","categorize-html","159","293740","0.0-6.0-0.0-8.0-1.25","3","3","4","3","3","3","3","4","2","3","4","2","2","3","4","4","4","3","4","4","3","2","2","2","2","3","2","4","3","1","0","1","1","0","1","1","1","1","0","1","0","1","0","1","4","2","3","1","3","2","2","4","2","4","2","780195301624647681","杨","358","","","","","","","","","","","","","","","","","","","true","4","4","ability","868","negative","拙笨","","","","","","","","","","","","","","","","",""
"null","","null","html-keyboard-response","160","293992","0.0-6.0-0.0-8.0-0.26","3","3","4","3","3","3","3","4","2","3","4","2","2","3","4","4","4","3","4","4","3","2","2","2","2","3","2","4","3","1","0","1","1","0","1","1","1","1","0","1","0","1","0","1","4","2","3","1","3","2","2","4","2","4","2","780195301624647681","杨","358","","","","","","","","","","","","","","","","","","","","","","","","","","","","","","","","","","","","","","","","","",""
"715","<p style=""color:rgb(150, 250, 100); font-size: 35px;"">别人</p>","e","categorize-html","161","294708","0.0-6.0-0.0-8.0-1.26","3","3","4","3","3","3","3","4","2","3","4","2","2","3","4","4","4","3","4","4","3","2","2","2","2","3","2","4","3","1","0","1","1","0","1","1","1","1","0","1","0","1","0","1","4","2","3","1","3","2","2","4","2","4","2","780195301624647681","杨","358","","","","","","","","","","","","","","","","","","","true","4","4","ability","715","other","别人","","","","","","","","","","","","","","","","",""
"null","","null","html-keyboard-response","162","294959","0.0-6.0-0.0-8.0-0.27","3","3","4","3","3","3","3","4","2","3","4","2","2","3","4","4","4","3","4","4","3","2","2","2","2","3","2","4","3","1","0","1","1","0","1","1","1","1","0","1","0","1","0","1","4","2","3","1","3","2","2","4","2","4","2","780195301624647681","杨","358","","","","","","","","","","","","","","","","","","","","","","","","","","","","","","","","","","","","","","","","","",""
"612","<p style=""color:white; font-size: 35px;"">天才</p>","e","categorize-html","163","295573","0.0-6.0-0.0-8.0-1.27","3","3","4","3","3","3","3","4","2","3","4","2","2","3","4","4","4","3","4","4","3","2","2","2","2","3","2","4","3","1","0","1","1","0","1","1","1","1","0","1","0","1","0","1","4","2","3","1","3","2","2","4","2","4","2","780195301624647681","杨","358","","","","","","","","","","","","","","","","","","","true","4","4","ability","612","positive","天才","","","","","","","","","","","","","","","","",""
"null","","null","html-keyboard-response","164","295824","0.0-6.0-0.0-8.0-0.28","3","3","4","3","3","3","3","4","2","3","4","2","2","3","4","4","4","3","4","4","3","2","2","2","2","3","2","4","3","1","0","1","1","0","1","1","1","1","0","1","0","1","0","1","4","2","3","1","3","2","2","4","2","4","2","780195301624647681","杨","358","","","","","","","","","","","","","","","","","","","","","","","","","","","","","","","","","","","","","","","","","",""
"665","<p style=""color:rgb(150, 250, 100); font-size: 35px;"">别人</p>","e","categorize-html","165","296491","0.0-6.0-0.0-8.0-1.28","3","3","4","3","3","3","3","4","2","3","4","2","2","3","4","4","4","3","4","4","3","2","2","2","2","3","2","4","3","1","0","1","1","0","1","1","1","1","0","1","0","1","0","1","4","2","3","1","3","2","2","4","2","4","2","780195301624647681","杨","358","","","","","","","","","","","","","","","","","","","true","4","4","ability","665","other","别人","","","","","","","","","","","","","","","","",""
"null","","null","html-keyboard-response","166","296743","0.0-6.0-0.0-8.0-0.29","3","3","4","3","3","3","3","4","2","3","4","2","2","3","4","4","4","3","4","4","3","2","2","2","2","3","2","4","3","1","0","1","1","0","1","1","1","1","0","1","0","1","0","1","4","2","3","1","3","2","2","4","2","4","2","780195301624647681","杨","358","","","","","","","","","","","","","","","","","","","","","","","","","","","","","","","","","","","","","","","","","",""
"885","<p style=""color:white; font-size: 35px;"">拙笨</p>","i","categorize-html","167","297629","0.0-6.0-0.0-8.0-1.29","3","3","4","3","3","3","3","4","2","3","4","2","2","3","4","4","4","3","4","4","3","2","2","2","2","3","2","4","3","1","0","1","1","0","1","1","1","1","0","1","0","1","0","1","4","2","3","1","3","2","2","4","2","4","2","780195301624647681","杨","358","","","","","","","","","","","","","","","","","","","true","4","4","ability","885","negative","拙笨","","","","","","","","","","","","","","","","",""
"null","","null","html-keyboard-response","168","297881","0.0-6.0-0.0-8.0-0.30","3","3","4","3","3","3","3","4","2","3","4","2","2","3","4","4","4","3","4","4","3","2","2","2","2","3","2","4","3","1","0","1","1","0","1","1","1","1","0","1","0","1","0","1","4","2","3","1","3","2","2","4","2","4","2","780195301624647681","杨","358","","","","","","","","","","","","","","","","","","","","","","","","","","","","","","","","","","","","","","","","","",""
"731","<p style=""color:rgb(150, 250, 100); font-size: 35px;"">本人的</p>","i","categorize-html","169","298613","0.0-6.0-0.0-8.0-1.30","3","3","4","3","3","3","3","4","2","3","4","2","2","3","4","4","4","3","4","4","3","2","2","2","2","3","2","4","3","1","0","1","1","0","1","1","1","1","0","1","0","1","0","1","4","2","3","1","3","2","2","4","2","4","2","780195301624647681","杨","358","","","","","","","","","","","","","","","","","","","true","4","4","ability","731","self","本人的","","","","","","","","","","","","","","","","",""
"null","","null","html-keyboard-response","170","298863","0.0-6.0-0.0-8.0-0.31","3","3","4","3","3","3","3","4","2","3","4","2","2","3","4","4","4","3","4","4","3","2","2","2","2","3","2","4","3","1","0","1","1","0","1","1","1","1","0","1","0","1","0","1","4","2","3","1","3","2","2","4","2","4","2","780195301624647681","杨","358","","","","","","","","","","","","","","","","","","","","","","","","","","","","","","","","","","","","","","","","","",""
"830","<p style=""color:white; font-size: 35px;"">高效</p>","e","categorize-html","171","299694","0.0-6.0-0.0-8.0-1.31","3","3","4","3","3","3","3","4","2","3","4","2","2","3","4","4","4","3","4","4","3","2","2","2","2","3","2","4","3","1","0","1","1","0","1","1","1","1","0","1","0","1","0","1","4","2","3","1","3","2","2","4","2","4","2","780195301624647681","杨","358","","","","","","","","","","","","","","","","","","","true","4","4","ability","830","positive","高效","","","","","","","","","","","","","","","","",""
"null","","null","html-keyboard-response","172","299946","0.0-6.0-0.0-8.0-0.32","3","3","4","3","3","3","3","4","2","3","4","2","2","3","4","4","4","3","4","4","3","2","2","2","2","3","2","4","3","1","0","1","1","0","1","1","1","1","0","1","0","1","0","1","4","2","3","1","3","2","2","4","2","4","2","780195301624647681","杨","358","","","","","","","","","","","","","","","","","","","","","","","","","","","","","","","","","","","","","","","","","",""
"775","<p style=""color:rgb(150, 250, 100); font-size: 35px;"">别人的</p>","e","categorize-html","173","300722","0.0-6.0-0.0-8.0-1.32","3","3","4","3","3","3","3","4","2","3","4","2","2","3","4","4","4","3","4","4","3","2","2","2","2","3","2","4","3","1","0","1","1","0","1","1","1","1","0","1","0","1","0","1","4","2","3","1","3","2","2","4","2","4","2","780195301624647681","杨","358","","","","","","","","","","","","","","","","","","","true","4","4","ability","775","other","别人的","","","","","","","","","","","","","","","","",""
"null","","null","html-keyboard-response","174","300973","0.0-6.0-0.0-8.0-0.33","3","3","4","3","3","3","3","4","2","3","4","2","2","3","4","4","4","3","4","4","3","2","2","2","2","3","2","4","3","1","0","1","1","0","1","1","1","1","0","1","0","1","0","1","4","2","3","1","3","2","2","4","2","4","2","780195301624647681","杨","358","","","","","","","","","","","","","","","","","","","","","","","","","","","","","","","","","","","","","","","","","",""
"1019","<p style=""color:white; font-size: 35px;"">低能</p>","i","categorize-html","175","301994","0.0-6.0-0.0-8.0-1.33","3","3","4","3","3","3","3","4","2","3","4","2","2","3","4","4","4","3","4","4","3","2","2","2","2","3","2","4","3","1","0","1","1","0","1","1","1","1","0","1","0","1","0","1","4","2","3","1","3","2","2","4","2","4","2","780195301624647681","杨","358","","","","","","","","","","","","","","","","","","","true","4","4","ability","1019","negative","低能","","","","","","","","","","","","","","","","",""
"null","","null","html-keyboard-response","176","302246","0.0-6.0-0.0-8.0-0.34","3","3","4","3","3","3","3","4","2","3","4","2","2","3","4","4","4","3","4","4","3","2","2","2","2","3","2","4","3","1","0","1","1","0","1","1","1","1","0","1","0","1","0","1","4","2","3","1","3","2","2","4","2","4","2","780195301624647681","杨","358","","","","","","","","","","","","","","","","","","","","","","","","","","","","","","","","","","","","","","","","","",""
"580","<p style=""color:rgb(150, 250, 100); font-size: 35px;"">自己的</p>","i","categorize-html","177","302828","0.0-6.0-0.0-8.0-1.34","3","3","4","3","3","3","3","4","2","3","4","2","2","3","4","4","4","3","4","4","3","2","2","2","2","3","2","4","3","1","0","1","1","0","1","1","1","1","0","1","0","1","0","1","4","2","3","1","3","2","2","4","2","4","2","780195301624647681","杨","358","","","","","","","","","","","","","","","","","","","true","4","4","ability","580","self","自己的","","","","","","","","","","","","","","","","",""
"null","","null","html-keyboard-response","178","303079","0.0-6.0-0.0-8.0-0.35","3","3","4","3","3","3","3","4","2","3","4","2","2","3","4","4","4","3","4","4","3","2","2","2","2","3","2","4","3","1","0","1","1","0","1","1","1","1","0","1","0","1","0","1","4","2","3","1","3","2","2","4","2","4","2","780195301624647681","杨","358","","","","","","","","","","","","","","","","","","","","","","","","","","","","","","","","","","","","","","","","","",""
"584","<p style=""color:white; font-size: 35px;"">全才</p>","e","categorize-html","179","303665","0.0-6.0-0.0-8.0-1.35","3","3","4","3","3","3","3","4","2","3","4","2","2","3","4","4","4","3","4","4","3","2","2","2","2","3","2","4","3","1","0","1","1","0","1","1","1","1","0","1","0","1","0","1","4","2","3","1","3","2","2","4","2","4","2","780195301624647681","杨","358","","","","","","","","","","","","","","","","","","","true","4","4","ability","584","positive","全才","","","","","","","","","","","","","","","","",""
"null","","null","html-keyboard-response","180","303917","0.0-6.0-0.0-8.0-0.36","3","3","4","3","3","3","3","4","2","3","4","2","2","3","4","4","4","3","4","4","3","2","2","2","2","3","2","4","3","1","0","1","1","0","1","1","1","1","0","1","0","1","0","1","4","2","3","1","3","2","2","4","2","4","2","780195301624647681","杨","358","","","","","","","","","","","","","","","","","","","","","","","","","","","","","","","","","","","","","","","","","",""
"755","<p style=""color:rgb(150, 250, 100); font-size: 35px;"">自己的</p>","i","categorize-html","181","304672","0.0-6.0-0.0-8.0-1.36","3","3","4","3","3","3","3","4","2","3","4","2","2","3","4","4","4","3","4","4","3","2","2","2","2","3","2","4","3","1","0","1","1","0","1","1","1","1","0","1","0","1","0","1","4","2","3","1","3","2","2","4","2","4","2","780195301624647681","杨","358","","","","","","","","","","","","","","","","","","","true","4","4","ability","755","self","自己的","","","","","","","","","","","","","","","","",""
"null","","null","html-keyboard-response","182","304924","0.0-6.0-0.0-8.0-0.37","3","3","4","3","3","3","3","4","2","3","4","2","2","3","4","4","4","3","4","4","3","2","2","2","2","3","2","4","3","1","0","1","1","0","1","1","1","1","0","1","0","1","0","1","4","2","3","1","3","2","2","4","2","4","2","780195301624647681","杨","358","","","","","","","","","","","","","","","","","","","","","","","","","","","","","","","","","","","","","","","","","",""
"802","<p style=""color:white; font-size: 35px;"">废物</p>","i","categorize-html","183","305727","0.0-6.0-0.0-8.0-1.37","3","3","4","3","3","3","3","4","2","3","4","2","2","3","4","4","4","3","4","4","3","2","2","2","2","3","2","4","3","1","0","1","1","0","1","1","1","1","0","1","0","1","0","1","4","2","3","1","3","2","2","4","2","4","2","780195301624647681","杨","358","","","","","","","","","","","","","","","","","","","true","4","4","ability","802","negative","废物","","","","","","","","","","","","","","","","",""
"null","","null","html-keyboard-response","184","305979","0.0-6.0-0.0-8.0-0.38","3","3","4","3","3","3","3","4","2","3","4","2","2","3","4","4","4","3","4","4","3","2","2","2","2","3","2","4","3","1","0","1","1","0","1","1","1","1","0","1","0","1","0","1","4","2","3","1","3","2","2","4","2","4","2","780195301624647681","杨","358","","","","","","","","","","","","","","","","","","","","","","","","","","","","","","","","","","","","","","","","","",""
"663","<p style=""color:rgb(150, 250, 100); font-size: 35px;"">他人的</p>","e","categorize-html","185","306643","0.0-6.0-0.0-8.0-1.38","3","3","4","3","3","3","3","4","2","3","4","2","2","3","4","4","4","3","4","4","3","2","2","2","2","3","2","4","3","1","0","1","1","0","1","1","1","1","0","1","0","1","0","1","4","2","3","1","3","2","2","4","2","4","2","780195301624647681","杨","358","","","","","","","","","","","","","","","","","","","true","4","4","ability","663","other","他人的","","","","","","","","","","","","","","","","",""
"null","","null","html-keyboard-response","186","306896","0.0-6.0-0.0-8.0-0.39","3","3","4","3","3","3","3","4","2","3","4","2","2","3","4","4","4","3","4","4","3","2","2","2","2","3","2","4","3","1","0","1","1","0","1","1","1","1","0","1","0","1","0","1","4","2","3","1","3","2","2","4","2","4","2","780195301624647681","杨","358","","","","","","","","","","","","","","","","","","","","","","","","","","","","","","","","","","","","","","","","","",""
"617","<p style=""color:white; font-size: 35px;"">高效</p>","e","categorize-html","187","307514","0.0-6.0-0.0-8.0-1.39","3","3","4","3","3","3","3","4","2","3","4","2","2","3","4","4","4","3","4","4","3","2","2","2","2","3","2","4","3","1","0","1","1","0","1","1","1","1","0","1","0","1","0","1","4","2","3","1","3","2","2","4","2","4","2","780195301624647681","杨","358","","","","","","","","","","","","","","","","","","","true","4","4","ability","617","positive","高效","","","","","","","","","","","","","","","","",""
"null","","null","html-keyboard-response","188","307766","0.0-6.0-0.0-8.0-0.40","3","3","4","3","3","3","3","4","2","3","4","2","2","3","4","4","4","3","4","4","3","2","2","2","2","3","2","4","3","1","0","1","1","0","1","1","1","1","0","1","0","1","0","1","4","2","3","1","3","2","2","4","2","4","2","780195301624647681","杨","358","","","","","","","","","","","","","","","","","","","","","","","","","","","","","","","","","","","","","","","","","",""
"659","<p style=""color:rgb(150, 250, 100); font-size: 35px;"">他</p>","e","categorize-html","189","308426","0.0-6.0-0.0-8.0-1.40","3","3","4","3","3","3","3","4","2","3","4","2","2","3","4","4","4","3","4","4","3","2","2","2","2","3","2","4","3","1","0","1","1","0","1","1","1","1","0","1","0","1","0","1","4","2","3","1","3","2","2","4","2","4","2","780195301624647681","杨","358","","","","","","","","","","","","","","","","","","","true","4","4","ability","659","other","他","","","","","","","","","","","","","","","","",""
"null","","null","html-keyboard-response","190","308678","0.0-6.0-0.0-8.0-0.41","3","3","4","3","3","3","3","4","2","3","4","2","2","3","4","4","4","3","4","4","3","2","2","2","2","3","2","4","3","1","0","1","1","0","1","1","1","1","0","1","0","1","0","1","4","2","3","1","3","2","2","4","2","4","2","780195301624647681","杨","358","","","","","","","","","","","","","","","","","","","","","","","","","","","","","","","","","","","","","","","","","",""
"644","<p style=""color:white; font-size: 35px;"">愚钝</p>","i","categorize-html","191","309323","0.0-6.0-0.0-8.0-1.41","3","3","4","3","3","3","3","4","2","3","4","2","2","3","4","4","4","3","4","4","3","2","2","2","2","3","2","4","3","1","0","1","1","0","1","1","1","1","0","1","0","1","0","1","4","2","3","1","3","2","2","4","2","4","2","780195301624647681","杨","358","","","","","","","","","","","","","","","","","","","true","4","4","ability","644","negative","愚钝","","","","","","","","","","","","","","","","",""
"null","","null","html-keyboard-response","192","309574","0.0-6.0-0.0-8.0-0.42","3","3","4","3","3","3","3","4","2","3","4","2","2","3","4","4","4","3","4","4","3","2","2","2","2","3","2","4","3","1","0","1","1","0","1","1","1","1","0","1","0","1","0","1","4","2","3","1","3","2","2","4","2","4","2","780195301624647681","杨","358","","","","","","","","","","","","","","","","","","","","","","","","","","","","","","","","","","","","","","","","","",""
