"rt","stimulus","response","trial_type","trial_index","time_elapsed","internal_node_id","ses_1","ses_2","ses_3","ses_4","ses_5","ses_6","ses_7","ses_8","ses_9","ses_10","coreself_1","coreself_2","coreself_3","coreself_4","coreself_5","coreself_6","coreself_7","coreself_8","coreself_9","coreself_10","SGPS_1","SGPS_2","SGPS_3","SGPS_4","SGPS_5","SGPS_6","SGPS_7","SGPS_8","SGPS_9","NPI1","NPI2","NPI3","NPI4","NPI5","NPI6","NPI7","NPI8","NPI9","NPI10","NPI11","NPI12","NPI13","NPI14","NPI15","hsns_1","hsns_2","hsns_3","hsns_4","hsns_5","trap1","hsns_6","hsns_7","hsns_8","hsns_9","hsns_10","subj_idx","friend_name","ParticipantID","value","success","user_agent","responses","item_order","radio_event_ids","radio_event_times","key_event_times","mouse_event_times","straightlining","zigzagging","honeypot","timeout","failed_images","failed_audio","failed_video","view_history","response_type","key_press","avg_frame_time","center_x","center_y","correct_response","correct","identity","Image","word","condition","task_id","screen_id","time_stamp","version_attrib","version_target","IAT","RT","varname","summary","version_attrib2","version_target2","question_order","correct_answer","trap1_item"
"18656","
   <p><div style = ""color: white;font-size:25px;"">您好，欢迎参加本次实验。</div> </p>
   <p><div style = ""color: white;font-size:25px;"">为充分保障您的权利，请确保您已经知晓并同意《参与实验同意书》以及《数据公开知情同意书》。</div></p>
   <p><div style = ""color: white;font-size:25px;"">如果您未见过上述内容，请咨询实验员。</div></p>
   <p><div style = ""color: white;font-size:25px;"">如果您选择继续实验，则表示您已经清楚两份知情同意书的内容并同意。</div></p>
   <p><div style = ""color: pink;font-size:30px;"">请确保您记得day0的实验编号，您将在本次实验输入该编号，若您忘记，请咨询实验员后作答。</div></p>
   <p><div style = ""color: lightblue;font-size:25px;"">请您尽可能认真地作答，我们将依据您在各问卷和按键任务中的作答质量发放报酬。</div></p>
   <p> <div style = ""color: green;font-size:25px;""><按空格键至下页></div> </p>
   "," ","html-keyboard-response","0","18658","0.0-0.0","4","4","4","4","4","4","4","4","4","4","5","5","5","5","5","5","5","5","5","5","1","1","1","1","1","1","1","1","1","1","0","1","1","0","0","0","1","0","1","1","0","0","0","1","5","1","1","2","1","5","2","2","1","5","1","633775896922161152","唐","289","","","","","","","","","","","","","","","","","","","","","","","","","","","","","","","","","","","","","","","","","",""
"","","","call-function","1","18659","0.0-1.0-0.0","4","4","4","4","4","4","4","4","4","4","5","5","5","5","5","5","5","5","5","5","1","1","1","1","1","1","1","1","1","1","0","1","1","0","0","0","1","0","1","1","0","0","0","1","5","1","1","2","1","5","2","2","1","5","1","633775896922161152","唐","289","","","","","","","","","","","","","","","","","","","","","","","","","","","","","","","","","","","","","","","","","",""
"17520","","{""friend_name"":""唐"",""ParticipantID"":""289""}","survey-html-form","2","36179","0.0-1.0-1.0","4","4","4","4","4","4","4","4","4","4","5","5","5","5","5","5","5","5","5","5","1","1","1","1","1","1","1","1","1","1","0","1","1","0","0","0","1","0","1","1","0","0","0","1","5","1","1","2","1","5","2","2","1","5","1","633775896922161152","唐","289","","","","","","","","","","","","","","","","","","","","","","","","","","","","","","","","","","","","","","","","","",""
"","","","fullscreen","3","37097","0.0-2.0","4","4","4","4","4","4","4","4","4","4","5","5","5","5","5","5","5","5","5","5","1","1","1","1","1","1","1","1","1","1","0","1","1","0","0","0","1","0","1","1","0","0","0","1","5","1","1","2","1","5","2","2","1","5","1","633775896922161152","唐","289","","true","{}","","","","","","","","","","","","","","","","","","","","","","","","","","","","","","","","","","","","","","",""
"21858.09999999404","","{""Q01"":""4"",""Q02"":""4"",""Q03"":""4"",""Q04"":""4"",""Q05"":""4"",""Q06"":""4"",""Q07"":""4"",""Q08"":""4"",""Q09"":""4"",""Q10"":""4""}","survey-template","4","58957","0.0-3.0","4","4","4","4","4","4","4","4","4","4","5","5","5","5","5","5","5","5","5","5","1","1","1","1","1","1","1","1","1","1","0","1","1","0","0","0","1","0","1","1","0","0","0","1","5","1","1","2","1","5","2","2","1","5","1","633775896922161152","唐","289","","","","{""Q01"":""4"",""Q02"":""4"",""Q03"":""4"",""Q04"":""4"",""Q05"":""4"",""Q06"":""4"",""Q07"":""4"",""Q08"":""4"",""Q09"":""4"",""Q10"":""4""}","[0,1,2,3,4,5,6,7,8,9]","[""Q01"",""Q02"",""Q03"",""Q04"",""Q05"",""Q06"",""Q07"",""Q08"",""Q09"",""Q10""]","[1393.2999999970198,2305.699999988079,3905.0999999940395,5337.0999999940395,7065.199999988079,8073,8778,9769.5,10249.5,10857.29999999702]","[]","[1393.2999999970198,2305.699999988079,3905.0999999940395,5337.0999999940395,6473.199999988079,7065.199999988079,8073,8778,9769.5,10249.5,10857.29999999702,21857.29999999702]","0.5","0.5555555555555556","0","","","","","","","","","","","","","","","","","","","","","","","","","","","","","",""
"14844.29999999702","","{""Q01"":""5"",""Q02"":""5"",""Q03"":""5"",""Q04"":""5"",""Q05"":""5"",""Q06"":""5"",""Q07"":""5"",""Q08"":""5"",""Q09"":""5"",""Q10"":""5""}","survey-template","5","73805","0.0-4.0","4","4","4","4","4","4","4","4","4","4","5","5","5","5","5","5","5","5","5","5","1","1","1","1","1","1","1","1","1","1","0","1","1","0","0","0","1","0","1","1","0","0","0","1","5","1","1","2","1","5","2","2","1","5","1","633775896922161152","唐","289","","","","{""Q01"":""5"",""Q02"":""5"",""Q03"":""5"",""Q04"":""5"",""Q05"":""5"",""Q06"":""5"",""Q07"":""5"",""Q08"":""5"",""Q09"":""5"",""Q10"":""5""}","[0,1,2,3,4,5,6,7,8,9]","[""Q02"",""Q01"",""Q03"",""Q04"",""Q05"",""Q06"",""Q07"",""Q08"",""Q09"",""Q10""]","[2203.3999999910593,2859.3999999910593,3907.5,5379.899999991059,6636,8635.59999999404,9507.5,10291.79999999702,11819.79999999702,12683.5]","[]","[1307.3999999910593,2203.3999999910593,2859.3999999910593,3907.5,5379.899999991059,6636,7699.70000000298,8635.59999999404,9507.5,10291.79999999702,11819.79999999702,12683.5,14843.5]","0.6","0.7777777777777778","0","","","","","","","","","","","","","","","","","","","","","","","","","","","","","",""
"","","","preload","6","74097","0.0-5.0","4","4","4","4","4","4","4","4","4","4","5","5","5","5","5","5","5","5","5","5","1","1","1","1","1","1","1","1","1","1","0","1","1","0","0","0","1","0","1","1","0","0","0","1","5","1","1","2","1","5","2","2","1","5","1","633775896922161152","唐","289","","true","","","","","","","","","","","false","[]","[]","[]","","","","","","","","","","","","","","","","","","","","","","","","","",""
"1019","","","instructions","7","75116","0.0-6.0","4","4","4","4","4","4","4","4","4","4","5","5","5","5","5","5","5","5","5","5","1","1","1","1","1","1","1","1","1","1","0","1","1","0","0","0","1","0","1","1","0","0","0","1","5","1","1","2","1","5","2","2","1","5","1","633775896922161152","唐","289","","","","","","","","","","","","","","","","","[{""page_index"":0,""viewing_time"":1019}]","","","","","","","","","","","","","","","","","","","","","","","","",""
"32327","","","instructions","8","107443","0.0-7.0-1.0-0.0","4","4","4","4","4","4","4","4","4","4","5","5","5","5","5","5","5","5","5","5","1","1","1","1","1","1","1","1","1","1","0","1","1","0","0","0","1","0","1","1","0","0","0","1","5","1","1","2","1","5","2","2","1","5","1","633775896922161152","唐","289","","","","","","","","","","","","","","","","","[{""page_index"":0,""viewing_time"":30160},{""page_index"":1,""viewing_time"":1456},{""page_index"":2,""viewing_time"":712}]","","","","","","","","","","","","","","","","","","","","","","","","",""
"670","","f","psychophysics","9","109117","0.0-7.0-1.0-1.0-0.0-0.0","4","4","4","4","4","4","4","4","4","4","5","5","5","5","5","5","5","5","5","5","1","1","1","1","1","1","1","1","1","1","0","1","1","0","0","0","1","0","1","1","0","0","0","1","5","1","1","2","1","5","2","2","1","5","1","633775896922161152","唐","289","","","","nonmatch","","","","","","","","","","","","","","key","f","16.652525252525166","768","428","f","true","nonmatch","img/square.png","菱形","方形","ALT1_2","prac_ALT1_2","","","","","","","","","","","",""
"null","<span style='color:GreenYellow; font-size: 70px;'>正确! </span>","null","html-keyboard-response","10","109618","0.0-7.0-1.0-1.0-0.0-1.0","4","4","4","4","4","4","4","4","4","4","5","5","5","5","5","5","5","5","5","5","1","1","1","1","1","1","1","1","1","1","0","1","1","0","0","0","1","0","1","1","0","0","0","1","5","1","1","2","1","5","2","2","1","5","1","633775896922161152","唐","289","","","","","","","","","","","","","","","","","","","","","","","","","","","","","","feedback_test","","","","","","","","","","","",""
"696","","f","psychophysics","11","111315","0.0-7.0-1.0-1.0-0.0-0.1","4","4","4","4","4","4","4","4","4","4","5","5","5","5","5","5","5","5","5","5","1","1","1","1","1","1","1","1","1","1","0","1","1","0","0","0","1","0","1","1","0","0","0","1","5","1","1","2","1","5","2","2","1","5","1","633775896922161152","唐","289","","","","nonmatch","","","","","","","","","","","","","","key","f","16.633999999999943","768","428","f","true","nonmatch","img/diamond.png","圆形","菱形","ALT1_2","prac_ALT1_2","","","","","","","","","","","",""
"null","<span style='color:GreenYellow; font-size: 70px;'>正确! </span>","null","html-keyboard-response","12","111816","0.0-7.0-1.0-1.0-0.0-1.1","4","4","4","4","4","4","4","4","4","4","5","5","5","5","5","5","5","5","5","5","1","1","1","1","1","1","1","1","1","1","0","1","1","0","0","0","1","0","1","1","0","0","0","1","5","1","1","2","1","5","2","2","1","5","1","633775896922161152","唐","289","","","","","","","","","","","","","","","","","","","","","","","","","","","","","","feedback_test","","","","","","","","","","","",""
"607","","j","psychophysics","13","113425","0.0-7.0-1.0-1.0-0.0-0.2","4","4","4","4","4","4","4","4","4","4","5","5","5","5","5","5","5","5","5","5","1","1","1","1","1","1","1","1","1","1","0","1","1","0","0","0","1","0","1","1","0","0","0","1","5","1","1","2","1","5","2","2","1","5","1","633775896922161152","唐","289","","","","match","","","","","","","","","","","","","","key","j","16.645263157894767","768","428","j","true","match","img/square.png","方形","方形","ALT1_2","prac_ALT1_2","","","","","","","","","","","",""
"null","<span style='color:GreenYellow; font-size: 70px;'>正确! </span>","null","html-keyboard-response","14","113926","0.0-7.0-1.0-1.0-0.0-1.2","4","4","4","4","4","4","4","4","4","4","5","5","5","5","5","5","5","5","5","5","1","1","1","1","1","1","1","1","1","1","0","1","1","0","0","0","1","0","1","1","0","0","0","1","5","1","1","2","1","5","2","2","1","5","1","633775896922161152","唐","289","","","","","","","","","","","","","","","","","","","","","","","","","","","","","","feedback_test","","","","","","","","","","","",""
"520","","j","psychophysics","15","115447","0.0-7.0-1.0-1.0-0.0-0.3","4","4","4","4","4","4","4","4","4","4","5","5","5","5","5","5","5","5","5","5","1","1","1","1","1","1","1","1","1","1","0","1","1","0","0","0","1","0","1","1","0","0","0","1","5","1","1","2","1","5","2","2","1","5","1","633775896922161152","唐","289","","","","match","","","","","","","","","","","","","","key","j","16.65","768","428","j","true","match","img/circle.png","圆形","圆形","ALT1_2","prac_ALT1_2","","","","","","","","","","","",""
"null","<span style='color:GreenYellow; font-size: 70px;'>正确! </span>","null","html-keyboard-response","16","115948","0.0-7.0-1.0-1.0-0.0-1.3","4","4","4","4","4","4","4","4","4","4","5","5","5","5","5","5","5","5","5","5","1","1","1","1","1","1","1","1","1","1","0","1","1","0","0","0","1","0","1","1","0","0","0","1","5","1","1","2","1","5","2","2","1","5","1","633775896922161152","唐","289","","","","","","","","","","","","","","","","","","","","","","","","","","","","","","feedback_test","","","","","","","","","","","",""
"655","","f","psychophysics","17","117604","0.0-7.0-1.0-1.0-0.0-0.4","4","4","4","4","4","4","4","4","4","4","5","5","5","5","5","5","5","5","5","5","1","1","1","1","1","1","1","1","1","1","0","1","1","0","0","0","1","0","1","1","0","0","0","1","5","1","1","2","1","5","2","2","1","5","1","633775896922161152","唐","289","","","","nonmatch","","","","","","","","","","","","","","key","f","16.658163265306122","768","428","f","true","nonmatch","img/circle.png","方形","圆形","ALT1_2","prac_ALT1_2","","","","","","","","","","","",""
"null","<span style='color:GreenYellow; font-size: 70px;'>正确! </span>","null","html-keyboard-response","18","118104","0.0-7.0-1.0-1.0-0.0-1.4","4","4","4","4","4","4","4","4","4","4","5","5","5","5","5","5","5","5","5","5","1","1","1","1","1","1","1","1","1","1","0","1","1","0","0","0","1","0","1","1","0","0","0","1","5","1","1","2","1","5","2","2","1","5","1","633775896922161152","唐","289","","","","","","","","","","","","","","","","","","","","","","","","","","","","","","feedback_test","","","","","","","","","","","",""
"669","","j","psychophysics","19","119776","0.0-7.0-1.0-1.0-0.0-0.5","4","4","4","4","4","4","4","4","4","4","5","5","5","5","5","5","5","5","5","5","1","1","1","1","1","1","1","1","1","1","0","1","1","0","0","0","1","0","1","1","0","0","0","1","5","1","1","2","1","5","2","2","1","5","1","633775896922161152","唐","289","","","","match","","","","","","","","","","","","","","key","j","16.65252525252531","768","428","j","true","match","img/hexagon.png","六边","六边","ALT1_2","prac_ALT1_2","","","","","","","","","","","",""
"null","<span style='color:GreenYellow; font-size: 70px;'>正确! </span>","null","html-keyboard-response","20","120276","0.0-7.0-1.0-1.0-0.0-1.5","4","4","4","4","4","4","4","4","4","4","5","5","5","5","5","5","5","5","5","5","1","1","1","1","1","1","1","1","1","1","0","1","1","0","0","0","1","0","1","1","0","0","0","1","5","1","1","2","1","5","2","2","1","5","1","633775896922161152","唐","289","","","","","","","","","","","","","","","","","","","","","","","","","","","","","","feedback_test","","","","","","","","","","","",""
"530","","j","psychophysics","21","121807","0.0-7.0-1.0-1.0-0.0-0.6","4","4","4","4","4","4","4","4","4","4","5","5","5","5","5","5","5","5","5","5","1","1","1","1","1","1","1","1","1","1","0","1","1","0","0","0","1","0","1","1","0","0","0","1","5","1","1","2","1","5","2","2","1","5","1","633775896922161152","唐","289","","","","match","","","","","","","","","","","","","","key","j","16.65","768","428","j","true","match","img/square.png","方形","方形","ALT1_2","prac_ALT1_2","","","","","","","","","","","",""
"null","<span style='color:GreenYellow; font-size: 70px;'>正确! </span>","null","html-keyboard-response","22","122309","0.0-7.0-1.0-1.0-0.0-1.6","4","4","4","4","4","4","4","4","4","4","5","5","5","5","5","5","5","5","5","5","1","1","1","1","1","1","1","1","1","1","0","1","1","0","0","0","1","0","1","1","0","0","0","1","5","1","1","2","1","5","2","2","1","5","1","633775896922161152","唐","289","","","","","","","","","","","","","","","","","","","","","","","","","","","","","","feedback_test","","","","","","","","","","","",""
"540","","f","psychophysics","23","123849","0.0-7.0-1.0-1.0-0.0-0.7","4","4","4","4","4","4","4","4","4","4","5","5","5","5","5","5","5","5","5","5","1","1","1","1","1","1","1","1","1","1","0","1","1","0","0","0","1","0","1","1","0","0","0","1","5","1","1","2","1","5","2","2","1","5","1","633775896922161152","唐","289","","","","nonmatch","","","","","","","","","","","","","","key","f","16.65054945054942","768","428","f","true","nonmatch","img/hexagon.png","圆形","六边","ALT1_2","prac_ALT1_2","","","","","","","","","","","",""
"null","<span style='color:GreenYellow; font-size: 70px;'>正确! </span>","null","html-keyboard-response","24","124350","0.0-7.0-1.0-1.0-0.0-1.7","4","4","4","4","4","4","4","4","4","4","5","5","5","5","5","5","5","5","5","5","1","1","1","1","1","1","1","1","1","1","0","1","1","0","0","0","1","0","1","1","0","0","0","1","5","1","1","2","1","5","2","2","1","5","1","633775896922161152","唐","289","","","","","","","","","","","","","","","","","","","","","","","","","","","","","","feedback_test","","","","","","","","","","","",""
"574","","j","psychophysics","25","125926","0.0-7.0-1.0-1.0-0.0-0.8","4","4","4","4","4","4","4","4","4","4","5","5","5","5","5","5","5","5","5","5","1","1","1","1","1","1","1","1","1","1","0","1","1","0","0","0","1","0","1","1","0","0","0","1","5","1","1","2","1","5","2","2","1","5","1","633775896922161152","唐","289","","","","match","","","","","","","","","","","","","","key","j","16.654255319148938","768","428","j","true","match","img/diamond.png","菱形","菱形","ALT1_2","prac_ALT1_2","","","","","","","","","","","",""
"null","<span style='color:GreenYellow; font-size: 70px;'>正确! </span>","null","html-keyboard-response","26","126427","0.0-7.0-1.0-1.0-0.0-1.8","4","4","4","4","4","4","4","4","4","4","5","5","5","5","5","5","5","5","5","5","1","1","1","1","1","1","1","1","1","1","0","1","1","0","0","0","1","0","1","1","0","0","0","1","5","1","1","2","1","5","2","2","1","5","1","633775896922161152","唐","289","","","","","","","","","","","","","","","","","","","","","","","","","","","","","","feedback_test","","","","","","","","","","","",""
"629","","j","psychophysics","27","128058","0.0-7.0-1.0-1.0-0.0-0.9","4","4","4","4","4","4","4","4","4","4","5","5","5","5","5","5","5","5","5","5","1","1","1","1","1","1","1","1","1","1","0","1","1","0","0","0","1","0","1","1","0","0","0","1","5","1","1","2","1","5","2","2","1","5","1","633775896922161152","唐","289","","","","match","","","","","","","","","","","","","","key","j","16.649484536082475","768","428","j","true","match","img/diamond.png","菱形","菱形","ALT1_2","prac_ALT1_2","","","","","","","","","","","",""
"null","<span style='color:GreenYellow; font-size: 70px;'>正确! </span>","null","html-keyboard-response","28","128559","0.0-7.0-1.0-1.0-0.0-1.9","4","4","4","4","4","4","4","4","4","4","5","5","5","5","5","5","5","5","5","5","1","1","1","1","1","1","1","1","1","1","0","1","1","0","0","0","1","0","1","1","0","0","0","1","5","1","1","2","1","5","2","2","1","5","1","633775896922161152","唐","289","","","","","","","","","","","","","","","","","","","","","","","","","","","","","","feedback_test","","","","","","","","","","","",""
"599","","f","psychophysics","29","130160","0.0-7.0-1.0-1.0-0.0-0.10","4","4","4","4","4","4","4","4","4","4","5","5","5","5","5","5","5","5","5","5","1","1","1","1","1","1","1","1","1","1","0","1","1","0","0","0","1","0","1","1","0","0","0","1","5","1","1","2","1","5","2","2","1","5","1","633775896922161152","唐","289","","","","nonmatch","","","","","","","","","","","","","","key","f","16.65157894736836","768","428","f","true","nonmatch","img/square.png","六边","方形","ALT1_2","prac_ALT1_2","","","","","","","","","","","",""
"null","<span style='color:GreenYellow; font-size: 70px;'>正确! </span>","null","html-keyboard-response","30","130661","0.0-7.0-1.0-1.0-0.0-1.10","4","4","4","4","4","4","4","4","4","4","5","5","5","5","5","5","5","5","5","5","1","1","1","1","1","1","1","1","1","1","0","1","1","0","0","0","1","0","1","1","0","0","0","1","5","1","1","2","1","5","2","2","1","5","1","633775896922161152","唐","289","","","","","","","","","","","","","","","","","","","","","","","","","","","","","","feedback_test","","","","","","","","","","","",""
"538","","f","psychophysics","31","132202","0.0-7.0-1.0-1.0-0.0-0.11","4","4","4","4","4","4","4","4","4","4","5","5","5","5","5","5","5","5","5","5","1","1","1","1","1","1","1","1","1","1","0","1","1","0","0","0","1","0","1","1","0","0","0","1","5","1","1","2","1","5","2","2","1","5","1","633775896922161152","唐","289","","","","nonmatch","","","","","","","","","","","","","","key","f","16.65326086956528","768","428","f","true","nonmatch","img/square.png","圆形","方形","ALT1_2","prac_ALT1_2","","","","","","","","","","","",""
"null","<span style='color:GreenYellow; font-size: 70px;'>正确! </span>","null","html-keyboard-response","32","132703","0.0-7.0-1.0-1.0-0.0-1.11","4","4","4","4","4","4","4","4","4","4","5","5","5","5","5","5","5","5","5","5","1","1","1","1","1","1","1","1","1","1","0","1","1","0","0","0","1","0","1","1","0","0","0","1","5","1","1","2","1","5","2","2","1","5","1","633775896922161152","唐","289","","","","","","","","","","","","","","","","","","","","","","","","","","","","","","feedback_test","","","","","","","","","","","",""
"546","","j","psychophysics","33","134250","0.0-7.0-1.0-1.0-0.0-0.12","4","4","4","4","4","4","4","4","4","4","5","5","5","5","5","5","5","5","5","5","1","1","1","1","1","1","1","1","1","1","0","1","1","0","0","0","1","0","1","1","0","0","0","1","5","1","1","2","1","5","2","2","1","5","1","633775896922161152","唐","289","","","","match","","","","","","","","","","","","","","key","j","16.651086956521677","768","428","j","true","match","img/hexagon.png","六边","六边","ALT1_2","prac_ALT1_2","","","","","","","","","","","",""
"null","<span style='color:GreenYellow; font-size: 70px;'>正确! </span>","null","html-keyboard-response","34","134751","0.0-7.0-1.0-1.0-0.0-1.12","4","4","4","4","4","4","4","4","4","4","5","5","5","5","5","5","5","5","5","5","1","1","1","1","1","1","1","1","1","1","0","1","1","0","0","0","1","0","1","1","0","0","0","1","5","1","1","2","1","5","2","2","1","5","1","633775896922161152","唐","289","","","","","","","","","","","","","","","","","","","","","","","","","","","","","","feedback_test","","","","","","","","","","","",""
"488","","f","psychophysics","35","136241","0.0-7.0-1.0-1.0-0.0-0.13","4","4","4","4","4","4","4","4","4","4","5","5","5","5","5","5","5","5","5","5","1","1","1","1","1","1","1","1","1","1","0","1","1","0","0","0","1","0","1","1","0","0","0","1","5","1","1","2","1","5","2","2","1","5","1","633775896922161152","唐","289","","","","nonmatch","","","","","","","","","","","","","","key","f","16.648863636363703","768","428","f","true","nonmatch","img/circle.png","菱形","圆形","ALT1_2","prac_ALT1_2","","","","","","","","","","","",""
"null","<span style='color:GreenYellow; font-size: 70px;'>正确! </span>","null","html-keyboard-response","36","136742","0.0-7.0-1.0-1.0-0.0-1.13","4","4","4","4","4","4","4","4","4","4","5","5","5","5","5","5","5","5","5","5","1","1","1","1","1","1","1","1","1","1","0","1","1","0","0","0","1","0","1","1","0","0","0","1","5","1","1","2","1","5","2","2","1","5","1","633775896922161152","唐","289","","","","","","","","","","","","","","","","","","","","","","","","","","","","","","feedback_test","","","","","","","","","","","",""
"710","","j","psychophysics","37","138454","0.0-7.0-1.0-1.0-0.0-0.14","4","4","4","4","4","4","4","4","4","4","5","5","5","5","5","5","5","5","5","5","1","1","1","1","1","1","1","1","1","1","0","1","1","0","0","0","1","0","1","1","0","0","0","1","5","1","1","2","1","5","2","2","1","5","1","633775896922161152","唐","289","","","","match","","","","","","","","","","","","","","key","j","16.651960784313726","768","428","j","true","match","img/circle.png","圆形","圆形","ALT1_2","prac_ALT1_2","","","","","","","","","","","",""
"null","<span style='color:GreenYellow; font-size: 70px;'>正确! </span>","null","html-keyboard-response","38","138954","0.0-7.0-1.0-1.0-0.0-1.14","4","4","4","4","4","4","4","4","4","4","5","5","5","5","5","5","5","5","5","5","1","1","1","1","1","1","1","1","1","1","0","1","1","0","0","0","1","0","1","1","0","0","0","1","5","1","1","2","1","5","2","2","1","5","1","633775896922161152","唐","289","","","","","","","","","","","","","","","","","","","","","","","","","","","","","","feedback_test","","","","","","","","","","","",""
"583","","f","psychophysics","39","140540","0.0-7.0-1.0-1.0-0.0-0.15","4","4","4","4","4","4","4","4","4","4","5","5","5","5","5","5","5","5","5","5","1","1","1","1","1","1","1","1","1","1","0","1","1","0","0","0","1","0","1","1","0","0","0","1","5","1","1","2","1","5","2","2","1","5","1","633775896922161152","唐","289","","","","nonmatch","","","","","","","","","","","","","","key","f","16.65106382978705","768","428","j","false","match","img/square.png","方形","方形","ALT1_2","prac_ALT1_2","","","","","","","","","","","",""
"null","<span style='color:red; font-size: 70px;'>错误! </span>","null","html-keyboard-response","40","141041","0.0-7.0-1.0-1.0-0.0-1.15","4","4","4","4","4","4","4","4","4","4","5","5","5","5","5","5","5","5","5","5","1","1","1","1","1","1","1","1","1","1","0","1","1","0","0","0","1","0","1","1","0","0","0","1","5","1","1","2","1","5","2","2","1","5","1","633775896922161152","唐","289","","","","","","","","","","","","","","","","","","","","","","","","","","","","","","feedback_test","","","","","","","","","","","",""
"594","","f","psychophysics","41","142637","0.0-7.0-1.0-1.0-0.0-0.16","4","4","4","4","4","4","4","4","4","4","5","5","5","5","5","5","5","5","5","5","1","1","1","1","1","1","1","1","1","1","0","1","1","0","0","0","1","0","1","1","0","0","0","1","5","1","1","2","1","5","2","2","1","5","1","633775896922161152","唐","289","","","","nonmatch","","","","","","","","","","","","","","key","f","16.648936170212767","768","428","f","true","nonmatch","img/diamond.png","方形","菱形","ALT1_2","prac_ALT1_2","","","","","","","","","","","",""
"null","<span style='color:GreenYellow; font-size: 70px;'>正确! </span>","null","html-keyboard-response","42","143137","0.0-7.0-1.0-1.0-0.0-1.16","4","4","4","4","4","4","4","4","4","4","5","5","5","5","5","5","5","5","5","5","1","1","1","1","1","1","1","1","1","1","0","1","1","0","0","0","1","0","1","1","0","0","0","1","5","1","1","2","1","5","2","2","1","5","1","633775896922161152","唐","289","","","","","","","","","","","","","","","","","","","","","","","","","","","","","","feedback_test","","","","","","","","","","","",""
"561","","j","psychophysics","43","144699","0.0-7.0-1.0-1.0-0.0-0.17","4","4","4","4","4","4","4","4","4","4","5","5","5","5","5","5","5","5","5","5","1","1","1","1","1","1","1","1","1","1","0","1","1","0","0","0","1","0","1","1","0","0","0","1","5","1","1","2","1","5","2","2","1","5","1","633775896922161152","唐","289","","","","match","","","","","","","","","","","","","","key","j","16.651086956521677","768","428","j","true","match","img/circle.png","圆形","圆形","ALT1_2","prac_ALT1_2","","","","","","","","","","","",""
"null","<span style='color:GreenYellow; font-size: 70px;'>正确! </span>","null","html-keyboard-response","44","145200","0.0-7.0-1.0-1.0-0.0-1.17","4","4","4","4","4","4","4","4","4","4","5","5","5","5","5","5","5","5","5","5","1","1","1","1","1","1","1","1","1","1","0","1","1","0","0","0","1","0","1","1","0","0","0","1","5","1","1","2","1","5","2","2","1","5","1","633775896922161152","唐","289","","","","","","","","","","","","","","","","","","","","","","","","","","","","","","feedback_test","","","","","","","","","","","",""
"500","","f","psychophysics","45","146701","0.0-7.0-1.0-1.0-0.0-0.18","4","4","4","4","4","4","4","4","4","4","5","5","5","5","5","5","5","5","5","5","1","1","1","1","1","1","1","1","1","1","0","1","1","0","0","0","1","0","1","1","0","0","0","1","5","1","1","2","1","5","2","2","1","5","1","633775896922161152","唐","289","","","","nonmatch","","","","","","","","","","","","","","key","f","16.65","768","428","f","true","nonmatch","img/circle.png","六边","圆形","ALT1_2","prac_ALT1_2","","","","","","","","","","","",""
"null","<span style='color:GreenYellow; font-size: 70px;'>正确! </span>","null","html-keyboard-response","46","147202","0.0-7.0-1.0-1.0-0.0-1.18","4","4","4","4","4","4","4","4","4","4","5","5","5","5","5","5","5","5","5","5","1","1","1","1","1","1","1","1","1","1","0","1","1","0","0","0","1","0","1","1","0","0","0","1","5","1","1","2","1","5","2","2","1","5","1","633775896922161152","唐","289","","","","","","","","","","","","","","","","","","","","","","","","","","","","","","feedback_test","","","","","","","","","","","",""
"700","","f","psychophysics","47","148903","0.0-7.0-1.0-1.0-0.0-0.19","4","4","4","4","4","4","4","4","4","4","5","5","5","5","5","5","5","5","5","5","1","1","1","1","1","1","1","1","1","1","0","1","1","0","0","0","1","0","1","1","0","0","0","1","5","1","1","2","1","5","2","2","1","5","1","633775896922161152","唐","289","","","","nonmatch","","","","","","","","","","","","","","key","f","16.644554455445313","768","428","f","true","nonmatch","img/hexagon.png","菱形","六边","ALT1_2","prac_ALT1_2","","","","","","","","","","","",""
"null","<span style='color:GreenYellow; font-size: 70px;'>正确! </span>","null","html-keyboard-response","48","149404","0.0-7.0-1.0-1.0-0.0-1.19","4","4","4","4","4","4","4","4","4","4","5","5","5","5","5","5","5","5","5","5","1","1","1","1","1","1","1","1","1","1","0","1","1","0","0","0","1","0","1","1","0","0","0","1","5","1","1","2","1","5","2","2","1","5","1","633775896922161152","唐","289","","","","","","","","","","","","","","","","","","","","","","","","","","","","","","feedback_test","","","","","","","","","","","",""
"599","","j","psychophysics","49","151004","0.0-7.0-1.0-1.0-0.0-0.20","4","4","4","4","4","4","4","4","4","4","5","5","5","5","5","5","5","5","5","5","1","1","1","1","1","1","1","1","1","1","0","1","1","0","0","0","1","0","1","1","0","0","0","1","5","1","1","2","1","5","2","2","1","5","1","633775896922161152","唐","289","","","","match","","","","","","","","","","","","","","key","j","16.65052631578966","768","428","j","true","match","img/diamond.png","菱形","菱形","ALT1_2","prac_ALT1_2","","","","","","","","","","","",""
"null","<span style='color:GreenYellow; font-size: 70px;'>正确! </span>","null","html-keyboard-response","50","151505","0.0-7.0-1.0-1.0-0.0-1.20","4","4","4","4","4","4","4","4","4","4","5","5","5","5","5","5","5","5","5","5","1","1","1","1","1","1","1","1","1","1","0","1","1","0","0","0","1","0","1","1","0","0","0","1","5","1","1","2","1","5","2","2","1","5","1","633775896922161152","唐","289","","","","","","","","","","","","","","","","","","","","","","","","","","","","","","feedback_test","","","","","","","","","","","",""
"530","","f","psychophysics","51","153036","0.0-7.0-1.0-1.0-0.0-0.21","4","4","4","4","4","4","4","4","4","4","5","5","5","5","5","5","5","5","5","5","1","1","1","1","1","1","1","1","1","1","0","1","1","0","0","0","1","0","1","1","0","0","0","1","5","1","1","2","1","5","2","2","1","5","1","633775896922161152","唐","289","","","","nonmatch","","","","","","","","","","","","","","key","f","16.64835164835165","768","428","f","true","nonmatch","img/diamond.png","六边","菱形","ALT1_2","prac_ALT1_2","","","","","","","","","","","",""
"null","<span style='color:GreenYellow; font-size: 70px;'>正确! </span>","null","html-keyboard-response","52","153538","0.0-7.0-1.0-1.0-0.0-1.21","4","4","4","4","4","4","4","4","4","4","5","5","5","5","5","5","5","5","5","5","1","1","1","1","1","1","1","1","1","1","0","1","1","0","0","0","1","0","1","1","0","0","0","1","5","1","1","2","1","5","2","2","1","5","1","633775896922161152","唐","289","","","","","","","","","","","","","","","","","","","","","","","","","","","","","","feedback_test","","","","","","","","","","","",""
"487","","j","psychophysics","53","155028","0.0-7.0-1.0-1.0-0.0-0.22","4","4","4","4","4","4","4","4","4","4","5","5","5","5","5","5","5","5","5","5","1","1","1","1","1","1","1","1","1","1","0","1","1","0","0","0","1","0","1","1","0","0","0","1","5","1","1","2","1","5","2","2","1","5","1","633775896922161152","唐","289","","","","match","","","","","","","","","","","","","","key","j","16.648314606741703","768","428","j","true","match","img/hexagon.png","六边","六边","ALT1_2","prac_ALT1_2","","","","","","","","","","","",""
"null","<span style='color:GreenYellow; font-size: 70px;'>正确! </span>","null","html-keyboard-response","54","155530","0.0-7.0-1.0-1.0-0.0-1.22","4","4","4","4","4","4","4","4","4","4","5","5","5","5","5","5","5","5","5","5","1","1","1","1","1","1","1","1","1","1","0","1","1","0","0","0","1","0","1","1","0","0","0","1","5","1","1","2","1","5","2","2","1","5","1","633775896922161152","唐","289","","","","","","","","","","","","","","","","","","","","","","","","","","","","","","feedback_test","","","","","","","","","","","",""
"579","","f","psychophysics","55","157110","0.0-7.0-1.0-1.0-0.0-0.23","4","4","4","4","4","4","4","4","4","4","5","5","5","5","5","5","5","5","5","5","1","1","1","1","1","1","1","1","1","1","0","1","1","0","0","0","1","0","1","1","0","0","0","1","5","1","1","2","1","5","2","2","1","5","1","633775896922161152","唐","289","","","","nonmatch","","","","","","","","","","","","","","key","f","16.650000000000063","768","428","f","true","nonmatch","img/hexagon.png","方形","六边","ALT1_2","prac_ALT1_2","","","","","","","","","","","",""
"null","<span style='color:GreenYellow; font-size: 70px;'>正确! </span>","null","html-keyboard-response","56","157612","0.0-7.0-1.0-1.0-0.0-1.23","4","4","4","4","4","4","4","4","4","4","5","5","5","5","5","5","5","5","5","5","1","1","1","1","1","1","1","1","1","1","0","1","1","0","0","0","1","0","1","1","0","0","0","1","5","1","1","2","1","5","2","2","1","5","1","633775896922161152","唐","289","","","","","","","","","","","","","","","","","","","","","","","","","","","","","","feedback_test","","","","","","","","","","","",""
"847","","j","psychophysics","57","159461","0.0-7.0-1.0-1.0-0.0-0.24","4","4","4","4","4","4","4","4","4","4","5","5","5","5","5","5","5","5","5","5","1","1","1","1","1","1","1","1","1","1","0","1","1","0","0","0","1","0","1","1","0","0","0","1","5","1","1","2","1","5","2","2","1","5","1","633775896922161152","唐","289","","","","match","","","","","","","","","","","","","","key","j","16.651818181818022","768","428","f","false","nonmatch","img/circle.png","六边","圆形","ALT1_2","prac_ALT1_2","","","","","","","","","","","",""
"null","<span style='color:red; font-size: 70px;'>错误! </span>","null","html-keyboard-response","58","159962","0.0-7.0-1.0-1.0-0.0-1.24","4","4","4","4","4","4","4","4","4","4","5","5","5","5","5","5","5","5","5","5","1","1","1","1","1","1","1","1","1","1","0","1","1","0","0","0","1","0","1","1","0","0","0","1","5","1","1","2","1","5","2","2","1","5","1","633775896922161152","唐","289","","","","","","","","","","","","","","","","","","","","","","","","","","","","","","feedback_test","","","","","","","","","","","",""
"634","","f","psychophysics","59","161599","0.0-7.0-1.0-1.0-0.0-0.25","4","4","4","4","4","4","4","4","4","4","5","5","5","5","5","5","5","5","5","5","1","1","1","1","1","1","1","1","1","1","0","1","1","0","0","0","1","0","1","1","0","0","0","1","5","1","1","2","1","5","2","2","1","5","1","633775896922161152","唐","289","","","","nonmatch","","","","","","","","","","","","","","key","f","16.651546391752397","768","428","f","true","nonmatch","img/diamond.png","六边","菱形","ALT1_2","prac_ALT1_2","","","","","","","","","","","",""
"null","<span style='color:GreenYellow; font-size: 70px;'>正确! </span>","null","html-keyboard-response","60","162101","0.0-7.0-1.0-1.0-0.0-1.25","4","4","4","4","4","4","4","4","4","4","5","5","5","5","5","5","5","5","5","5","1","1","1","1","1","1","1","1","1","1","0","1","1","0","0","0","1","0","1","1","0","0","0","1","5","1","1","2","1","5","2","2","1","5","1","633775896922161152","唐","289","","","","","","","","","","","","","","","","","","","","","","","","","","","","","","feedback_test","","","","","","","","","","","",""
"598","","j","psychophysics","61","163700","0.0-7.0-1.0-1.0-0.0-0.26","4","4","4","4","4","4","4","4","4","4","5","5","5","5","5","5","5","5","5","5","1","1","1","1","1","1","1","1","1","1","0","1","1","0","0","0","1","0","1","1","0","0","0","1","5","1","1","2","1","5","2","2","1","5","1","633775896922161152","唐","289","","","","match","","","","","","","","","","","","","","key","j","16.649473684210648","768","428","j","true","match","img/diamond.png","菱形","菱形","ALT1_2","prac_ALT1_2","","","","","","","","","","","",""
"null","<span style='color:GreenYellow; font-size: 70px;'>正确! </span>","null","html-keyboard-response","62","164202","0.0-7.0-1.0-1.0-0.0-1.26","4","4","4","4","4","4","4","4","4","4","5","5","5","5","5","5","5","5","5","5","1","1","1","1","1","1","1","1","1","1","0","1","1","0","0","0","1","0","1","1","0","0","0","1","5","1","1","2","1","5","2","2","1","5","1","633775896922161152","唐","289","","","","","","","","","","","","","","","","","","","","","","","","","","","","","","feedback_test","","","","","","","","","","","",""
"509","","f","psychophysics","63","165712","0.0-7.0-1.0-1.0-0.0-0.27","4","4","4","4","4","4","4","4","4","4","5","5","5","5","5","5","5","5","5","5","1","1","1","1","1","1","1","1","1","1","0","1","1","0","0","0","1","0","1","1","0","0","0","1","5","1","1","2","1","5","2","2","1","5","1","633775896922161152","唐","289","","","","nonmatch","","","","","","","","","","","","","","key","f","16.648314606741703","768","428","f","true","nonmatch","img/diamond.png","圆形","菱形","ALT1_2","prac_ALT1_2","","","","","","","","","","","",""
"null","<span style='color:GreenYellow; font-size: 70px;'>正确! </span>","null","html-keyboard-response","64","166213","0.0-7.0-1.0-1.0-0.0-1.27","4","4","4","4","4","4","4","4","4","4","5","5","5","5","5","5","5","5","5","5","1","1","1","1","1","1","1","1","1","1","0","1","1","0","0","0","1","0","1","1","0","0","0","1","5","1","1","2","1","5","2","2","1","5","1","633775896922161152","唐","289","","","","","","","","","","","","","","","","","","","","","","","","","","","","","","feedback_test","","","","","","","","","","","",""
"524","","f","psychophysics","65","167740","0.0-7.0-1.0-1.0-0.0-0.28","4","4","4","4","4","4","4","4","4","4","5","5","5","5","5","5","5","5","5","5","1","1","1","1","1","1","1","1","1","1","0","1","1","0","0","0","1","0","1","1","0","0","0","1","5","1","1","2","1","5","2","2","1","5","1","633775896922161152","唐","289","","","","nonmatch","","","","","","","","","","","","","","key","f","16.65054945054958","768","428","f","true","nonmatch","img/square.png","圆形","方形","ALT1_2","prac_ALT1_2","","","","","","","","","","","",""
"null","<span style='color:GreenYellow; font-size: 70px;'>正确! </span>","null","html-keyboard-response","66","168241","0.0-7.0-1.0-1.0-0.0-1.28","4","4","4","4","4","4","4","4","4","4","5","5","5","5","5","5","5","5","5","5","1","1","1","1","1","1","1","1","1","1","0","1","1","0","0","0","1","0","1","1","0","0","0","1","5","1","1","2","1","5","2","2","1","5","1","633775896922161152","唐","289","","","","","","","","","","","","","","","","","","","","","","","","","","","","","","feedback_test","","","","","","","","","","","",""
"520","","j","psychophysics","67","169762","0.0-7.0-1.0-1.0-0.0-0.29","4","4","4","4","4","4","4","4","4","4","5","5","5","5","5","5","5","5","5","5","1","1","1","1","1","1","1","1","1","1","0","1","1","0","0","0","1","0","1","1","0","0","0","1","5","1","1","2","1","5","2","2","1","5","1","633775896922161152","唐","289","","","","match","","","","","","","","","","","","","","key","j","16.653333333333205","768","428","j","true","match","img/circle.png","圆形","圆形","ALT1_2","prac_ALT1_2","","","","","","","","","","","",""
"null","<span style='color:GreenYellow; font-size: 70px;'>正确! </span>","null","html-keyboard-response","68","170263","0.0-7.0-1.0-1.0-0.0-1.29","4","4","4","4","4","4","4","4","4","4","5","5","5","5","5","5","5","5","5","5","1","1","1","1","1","1","1","1","1","1","0","1","1","0","0","0","1","0","1","1","0","0","0","1","5","1","1","2","1","5","2","2","1","5","1","633775896922161152","唐","289","","","","","","","","","","","","","","","","","","","","","","","","","","","","","","feedback_test","","","","","","","","","","","",""
"589","","f","psychophysics","69","171853","0.0-7.0-1.0-1.0-0.0-0.30","4","4","4","4","4","4","4","4","4","4","5","5","5","5","5","5","5","5","5","5","1","1","1","1","1","1","1","1","1","1","0","1","1","0","0","0","1","0","1","1","0","0","0","1","5","1","1","2","1","5","2","2","1","5","1","633775896922161152","唐","289","","","","nonmatch","","","","","","","","","","","","","","key","f","16.646808510638174","768","428","f","true","nonmatch","img/square.png","菱形","方形","ALT1_2","prac_ALT1_2","","","","","","","","","","","",""
"null","<span style='color:GreenYellow; font-size: 70px;'>正确! </span>","null","html-keyboard-response","70","172355","0.0-7.0-1.0-1.0-0.0-1.30","4","4","4","4","4","4","4","4","4","4","5","5","5","5","5","5","5","5","5","5","1","1","1","1","1","1","1","1","1","1","0","1","1","0","0","0","1","0","1","1","0","0","0","1","5","1","1","2","1","5","2","2","1","5","1","633775896922161152","唐","289","","","","","","","","","","","","","","","","","","","","","","","","","","","","","","feedback_test","","","","","","","","","","","",""
"450","","j","psychophysics","71","173806","0.0-7.0-1.0-1.0-0.0-0.31","4","4","4","4","4","4","4","4","4","4","5","5","5","5","5","5","5","5","5","5","1","1","1","1","1","1","1","1","1","1","0","1","1","0","0","0","1","0","1","1","0","0","0","1","5","1","1","2","1","5","2","2","1","5","1","633775896922161152","唐","289","","","","match","","","","","","","","","","","","","","key","j","16.655813953488305","768","428","j","true","match","img/circle.png","圆形","圆形","ALT1_2","prac_ALT1_2","","","","","","","","","","","",""
"null","<span style='color:GreenYellow; font-size: 70px;'>正确! </span>","null","html-keyboard-response","72","174307","0.0-7.0-1.0-1.0-0.0-1.31","4","4","4","4","4","4","4","4","4","4","5","5","5","5","5","5","5","5","5","5","1","1","1","1","1","1","1","1","1","1","0","1","1","0","0","0","1","0","1","1","0","0","0","1","5","1","1","2","1","5","2","2","1","5","1","633775896922161152","唐","289","","","","","","","","","","","","","","","","","","","","","","","","","","","","","","feedback_test","","","","","","","","","","","",""
"559","","j","psychophysics","73","175867","0.0-7.0-1.0-1.0-0.0-0.32","4","4","4","4","4","4","4","4","4","4","5","5","5","5","5","5","5","5","5","5","1","1","1","1","1","1","1","1","1","1","0","1","1","0","0","0","1","0","1","1","0","0","0","1","5","1","1","2","1","5","2","2","1","5","1","633775896922161152","唐","289","","","","match","","","","","","","","","","","","","","key","j","16.64946236559165","768","428","j","true","match","img/circle.png","圆形","圆形","ALT1_2","prac_ALT1_2","","","","","","","","","","","",""
"null","<span style='color:GreenYellow; font-size: 70px;'>正确! </span>","null","html-keyboard-response","74","176368","0.0-7.0-1.0-1.0-0.0-1.32","4","4","4","4","4","4","4","4","4","4","5","5","5","5","5","5","5","5","5","5","1","1","1","1","1","1","1","1","1","1","0","1","1","0","0","0","1","0","1","1","0","0","0","1","5","1","1","2","1","5","2","2","1","5","1","633775896922161152","唐","289","","","","","","","","","","","","","","","","","","","","","","","","","","","","","","feedback_test","","","","","","","","","","","",""
"440","","f","psychophysics","75","177810","0.0-7.0-1.0-1.0-0.0-0.33","4","4","4","4","4","4","4","4","4","4","5","5","5","5","5","5","5","5","5","5","1","1","1","1","1","1","1","1","1","1","0","1","1","0","0","0","1","0","1","1","0","0","0","1","5","1","1","2","1","5","2","2","1","5","1","633775896922161152","唐","289","","","","nonmatch","","","","","","","","","","","","","","key","f","16.64999999999993","768","428","f","true","nonmatch","img/hexagon.png","圆形","六边","ALT1_2","prac_ALT1_2","","","","","","","","","","","",""
"null","<span style='color:GreenYellow; font-size: 70px;'>正确! </span>","null","html-keyboard-response","76","178312","0.0-7.0-1.0-1.0-0.0-1.33","4","4","4","4","4","4","4","4","4","4","5","5","5","5","5","5","5","5","5","5","1","1","1","1","1","1","1","1","1","1","0","1","1","0","0","0","1","0","1","1","0","0","0","1","5","1","1","2","1","5","2","2","1","5","1","633775896922161152","唐","289","","","","","","","","","","","","","","","","","","","","","","","","","","","","","","feedback_test","","","","","","","","","","","",""
"513","","j","psychophysics","77","179827","0.0-7.0-1.0-1.0-0.0-0.34","4","4","4","4","4","4","4","4","4","4","5","5","5","5","5","5","5","5","5","5","1","1","1","1","1","1","1","1","1","1","0","1","1","0","0","0","1","0","1","1","0","0","0","1","5","1","1","2","1","5","2","2","1","5","1","633775896922161152","唐","289","","","","match","","","","","","","","","","","","","","key","j","16.651111111111177","768","428","j","true","match","img/square.png","方形","方形","ALT1_2","prac_ALT1_2","","","","","","","","","","","",""
"null","<span style='color:GreenYellow; font-size: 70px;'>正确! </span>","null","html-keyboard-response","78","180328","0.0-7.0-1.0-1.0-0.0-1.34","4","4","4","4","4","4","4","4","4","4","5","5","5","5","5","5","5","5","5","5","1","1","1","1","1","1","1","1","1","1","0","1","1","0","0","0","1","0","1","1","0","0","0","1","5","1","1","2","1","5","2","2","1","5","1","633775896922161152","唐","289","","","","","","","","","","","","","","","","","","","","","","","","","","","","","","feedback_test","","","","","","","","","","","",""
"545","","j","psychophysics","79","181874","0.0-7.0-1.0-1.0-0.0-0.35","4","4","4","4","4","4","4","4","4","4","5","5","5","5","5","5","5","5","5","5","1","1","1","1","1","1","1","1","1","1","0","1","1","0","0","0","1","0","1","1","0","0","0","1","5","1","1","2","1","5","2","2","1","5","1","633775896922161152","唐","289","","","","match","","","","","","","","","","","","","","key","j","16.652173913043477","768","428","j","true","match","img/square.png","方形","方形","ALT1_2","prac_ALT1_2","","","","","","","","","","","",""
"null","<span style='color:GreenYellow; font-size: 70px;'>正确! </span>","null","html-keyboard-response","80","182376","0.0-7.0-1.0-1.0-0.0-1.35","4","4","4","4","4","4","4","4","4","4","5","5","5","5","5","5","5","5","5","5","1","1","1","1","1","1","1","1","1","1","0","1","1","0","0","0","1","0","1","1","0","0","0","1","5","1","1","2","1","5","2","2","1","5","1","633775896922161152","唐","289","","","","","","","","","","","","","","","","","","","","","","","","","","","","","","feedback_test","","","","","","","","","","","",""
"719","","f","psychophysics","81","184096","0.0-7.0-1.0-1.0-0.0-0.36","4","4","4","4","4","4","4","4","4","4","5","5","5","5","5","5","5","5","5","5","1","1","1","1","1","1","1","1","1","1","0","1","1","0","0","0","1","0","1","1","0","0","0","1","5","1","1","2","1","5","2","2","1","5","1","633775896922161152","唐","289","","","","nonmatch","","","","","","","","","","","","","","key","f","16.64607843137249","768","428","j","false","match","img/hexagon.png","六边","六边","ALT1_2","prac_ALT1_2","","","","","","","","","","","",""
"null","<span style='color:red; font-size: 70px;'>错误! </span>","null","html-keyboard-response","82","184598","0.0-7.0-1.0-1.0-0.0-1.36","4","4","4","4","4","4","4","4","4","4","5","5","5","5","5","5","5","5","5","5","1","1","1","1","1","1","1","1","1","1","0","1","1","0","0","0","1","0","1","1","0","0","0","1","5","1","1","2","1","5","2","2","1","5","1","633775896922161152","唐","289","","","","","","","","","","","","","","","","","","","","","","","","","","","","","","feedback_test","","","","","","","","","","","",""
"614","","f","psychophysics","83","186212","0.0-7.0-1.0-1.0-0.0-0.37","4","4","4","4","4","4","4","4","4","4","5","5","5","5","5","5","5","5","5","5","1","1","1","1","1","1","1","1","1","1","0","1","1","0","0","0","1","0","1","1","0","0","0","1","5","1","1","2","1","5","2","2","1","5","1","633775896922161152","唐","289","","","","nonmatch","","","","","","","","","","","","","","key","f","16.645263157894615","768","428","f","true","nonmatch","img/square.png","六边","方形","ALT1_2","prac_ALT1_2","","","","","","","","","","","",""
"null","<span style='color:GreenYellow; font-size: 70px;'>正确! </span>","null","html-keyboard-response","84","186714","0.0-7.0-1.0-1.0-0.0-1.37","4","4","4","4","4","4","4","4","4","4","5","5","5","5","5","5","5","5","5","5","1","1","1","1","1","1","1","1","1","1","0","1","1","0","0","0","1","0","1","1","0","0","0","1","5","1","1","2","1","5","2","2","1","5","1","633775896922161152","唐","289","","","","","","","","","","","","","","","","","","","","","","","","","","","","","","feedback_test","","","","","","","","","","","",""
"725","","j","psychophysics","85","188440","0.0-7.0-1.0-1.0-0.0-0.38","4","4","4","4","4","4","4","4","4","4","5","5","5","5","5","5","5","5","5","5","1","1","1","1","1","1","1","1","1","1","0","1","1","0","0","0","1","0","1","1","0","0","0","1","5","1","1","2","1","5","2","2","1","5","1","633775896922161152","唐","289","","","","match","","","","","","","","","","","","","","key","j","16.650980392156807","768","428","j","true","match","img/diamond.png","菱形","菱形","ALT1_2","prac_ALT1_2","","","","","","","","","","","",""
"null","<span style='color:GreenYellow; font-size: 70px;'>正确! </span>","null","html-keyboard-response","86","188942","0.0-7.0-1.0-1.0-0.0-1.38","4","4","4","4","4","4","4","4","4","4","5","5","5","5","5","5","5","5","5","5","1","1","1","1","1","1","1","1","1","1","0","1","1","0","0","0","1","0","1","1","0","0","0","1","5","1","1","2","1","5","2","2","1","5","1","633775896922161152","唐","289","","","","","","","","","","","","","","","","","","","","","","","","","","","","","","feedback_test","","","","","","","","","","","",""
"549","","f","psychophysics","87","190491","0.0-7.0-1.0-1.0-0.0-0.39","4","4","4","4","4","4","4","4","4","4","5","5","5","5","5","5","5","5","5","5","1","1","1","1","1","1","1","1","1","1","0","1","1","0","0","0","1","0","1","1","0","0","0","1","5","1","1","2","1","5","2","2","1","5","1","633775896922161152","唐","289","","","","nonmatch","","","","","","","","","","","","","","key","f","16.651086956521677","768","428","f","true","nonmatch","img/circle.png","菱形","圆形","ALT1_2","prac_ALT1_2","","","","","","","","","","","",""
"null","<span style='color:GreenYellow; font-size: 70px;'>正确! </span>","null","html-keyboard-response","88","190992","0.0-7.0-1.0-1.0-0.0-1.39","4","4","4","4","4","4","4","4","4","4","5","5","5","5","5","5","5","5","5","5","1","1","1","1","1","1","1","1","1","1","0","1","1","0","0","0","1","0","1","1","0","0","0","1","5","1","1","2","1","5","2","2","1","5","1","633775896922161152","唐","289","","","","","","","","","","","","","","","","","","","","","","","","","","","","","","feedback_test","","","","","","","","","","","",""
"507","","f","psychophysics","89","192500","0.0-7.0-1.0-1.0-0.0-0.40","4","4","4","4","4","4","4","4","4","4","5","5","5","5","5","5","5","5","5","5","1","1","1","1","1","1","1","1","1","1","0","1","1","0","0","0","1","0","1","1","0","0","0","1","5","1","1","2","1","5","2","2","1","5","1","633775896922161152","唐","289","","","","nonmatch","","","","","","","","","","","","","","key","f","16.64719101123602","768","428","f","true","nonmatch","img/circle.png","方形","圆形","ALT1_2","prac_ALT1_2","","","","","","","","","","","",""
"null","<span style='color:GreenYellow; font-size: 70px;'>正确! </span>","null","html-keyboard-response","90","193001","0.0-7.0-1.0-1.0-0.0-1.40","4","4","4","4","4","4","4","4","4","4","5","5","5","5","5","5","5","5","5","5","1","1","1","1","1","1","1","1","1","1","0","1","1","0","0","0","1","0","1","1","0","0","0","1","5","1","1","2","1","5","2","2","1","5","1","633775896922161152","唐","289","","","","","","","","","","","","","","","","","","","","","","","","","","","","","","feedback_test","","","","","","","","","","","",""
"497","","j","psychophysics","91","194500","0.0-7.0-1.0-1.0-0.0-0.41","4","4","4","4","4","4","4","4","4","4","5","5","5","5","5","5","5","5","5","5","1","1","1","1","1","1","1","1","1","1","0","1","1","0","0","0","1","0","1","1","0","0","0","1","5","1","1","2","1","5","2","2","1","5","1","633775896922161152","唐","289","","","","match","","","","","","","","","","","","","","key","j","16.651685393258425","768","428","j","true","match","img/hexagon.png","六边","六边","ALT1_2","prac_ALT1_2","","","","","","","","","","","",""
"null","<span style='color:GreenYellow; font-size: 70px;'>正确! </span>","null","html-keyboard-response","92","195001","0.0-7.0-1.0-1.0-0.0-1.41","4","4","4","4","4","4","4","4","4","4","5","5","5","5","5","5","5","5","5","5","1","1","1","1","1","1","1","1","1","1","0","1","1","0","0","0","1","0","1","1","0","0","0","1","5","1","1","2","1","5","2","2","1","5","1","633775896922161152","唐","289","","","","","","","","","","","","","","","","","","","","","","","","","","","","","","feedback_test","","","","","","","","","","","",""
"555","","f","psychophysics","93","196558","0.0-7.0-1.0-1.0-0.0-0.42","4","4","4","4","4","4","4","4","4","4","5","5","5","5","5","5","5","5","5","5","1","1","1","1","1","1","1","1","1","1","0","1","1","0","0","0","1","0","1","1","0","0","0","1","5","1","1","2","1","5","2","2","1","5","1","633775896922161152","唐","289","","","","nonmatch","","","","","","","","","","","","","","key","f","16.65376344086009","768","428","f","true","nonmatch","img/diamond.png","方形","菱形","ALT1_2","prac_ALT1_2","","","","","","","","","","","",""
"null","<span style='color:GreenYellow; font-size: 70px;'>正确! </span>","null","html-keyboard-response","94","197059","0.0-7.0-1.0-1.0-0.0-1.42","4","4","4","4","4","4","4","4","4","4","5","5","5","5","5","5","5","5","5","5","1","1","1","1","1","1","1","1","1","1","0","1","1","0","0","0","1","0","1","1","0","0","0","1","5","1","1","2","1","5","2","2","1","5","1","633775896922161152","唐","289","","","","","","","","","","","","","","","","","","","","","","","","","","","","","","feedback_test","","","","","","","","","","","",""
"554","","f","psychophysics","95","198615","0.0-7.0-1.0-1.0-0.0-0.43","4","4","4","4","4","4","4","4","4","4","5","5","5","5","5","5","5","5","5","5","1","1","1","1","1","1","1","1","1","1","0","1","1","0","0","0","1","0","1","1","0","0","0","1","5","1","1","2","1","5","2","2","1","5","1","633775896922161152","唐","289","","","","nonmatch","","","","","","","","","","","","","","key","f","16.652173913043477","768","428","f","true","nonmatch","img/hexagon.png","方形","六边","ALT1_2","prac_ALT1_2","","","","","","","","","","","",""
"null","<span style='color:GreenYellow; font-size: 70px;'>正确! </span>","null","html-keyboard-response","96","199116","0.0-7.0-1.0-1.0-0.0-1.43","4","4","4","4","4","4","4","4","4","4","5","5","5","5","5","5","5","5","5","5","1","1","1","1","1","1","1","1","1","1","0","1","1","0","0","0","1","0","1","1","0","0","0","1","5","1","1","2","1","5","2","2","1","5","1","633775896922161152","唐","289","","","","","","","","","","","","","","","","","","","","","","","","","","","","","","feedback_test","","","","","","","","","","","",""
"569","","f","psychophysics","97","200687","0.0-7.0-1.0-1.0-0.0-0.44","4","4","4","4","4","4","4","4","4","4","5","5","5","5","5","5","5","5","5","5","1","1","1","1","1","1","1","1","1","1","0","1","1","0","0","0","1","0","1","1","0","0","0","1","5","1","1","2","1","5","2","2","1","5","1","633775896922161152","唐","289","","","","nonmatch","","","","","","","","","","","","","","key","f","16.652127659574653","768","428","f","true","nonmatch","img/hexagon.png","菱形","六边","ALT1_2","prac_ALT1_2","","","","","","","","","","","",""
"null","<span style='color:GreenYellow; font-size: 70px;'>正确! </span>","null","html-keyboard-response","98","201189","0.0-7.0-1.0-1.0-0.0-1.44","4","4","4","4","4","4","4","4","4","4","5","5","5","5","5","5","5","5","5","5","1","1","1","1","1","1","1","1","1","1","0","1","1","0","0","0","1","0","1","1","0","0","0","1","5","1","1","2","1","5","2","2","1","5","1","633775896922161152","唐","289","","","","","","","","","","","","","","","","","","","","","","","","","","","","","","feedback_test","","","","","","","","","","","",""
"564","","j","psychophysics","99","202755","0.0-7.0-1.0-1.0-0.0-0.45","4","4","4","4","4","4","4","4","4","4","5","5","5","5","5","5","5","5","5","5","1","1","1","1","1","1","1","1","1","1","0","1","1","0","0","0","1","0","1","1","0","0","0","1","5","1","1","2","1","5","2","2","1","5","1","633775896922161152","唐","289","","","","match","","","","","","","","","","","","","","key","j","16.655913978494624","768","428","j","true","match","img/diamond.png","菱形","菱形","ALT1_2","prac_ALT1_2","","","","","","","","","","","",""
"null","<span style='color:GreenYellow; font-size: 70px;'>正确! </span>","null","html-keyboard-response","100","203256","0.0-7.0-1.0-1.0-0.0-1.45","4","4","4","4","4","4","4","4","4","4","5","5","5","5","5","5","5","5","5","5","1","1","1","1","1","1","1","1","1","1","0","1","1","0","0","0","1","0","1","1","0","0","0","1","5","1","1","2","1","5","2","2","1","5","1","633775896922161152","唐","289","","","","","","","","","","","","","","","","","","","","","","","","","","","","","","feedback_test","","","","","","","","","","","",""
"614","","j","psychophysics","101","204871","0.0-7.0-1.0-1.0-0.0-0.46","4","4","4","4","4","4","4","4","4","4","5","5","5","5","5","5","5","5","5","5","1","1","1","1","1","1","1","1","1","1","0","1","1","0","0","0","1","0","1","1","0","0","0","1","5","1","1","2","1","5","2","2","1","5","1","633775896922161152","唐","289","","","","match","","","","","","","","","","","","","","key","j","16.652083333333394","768","428","j","true","match","img/hexagon.png","六边","六边","ALT1_2","prac_ALT1_2","","","","","","","","","","","",""
"null","<span style='color:GreenYellow; font-size: 70px;'>正确! </span>","null","html-keyboard-response","102","205371","0.0-7.0-1.0-1.0-0.0-1.46","4","4","4","4","4","4","4","4","4","4","5","5","5","5","5","5","5","5","5","5","1","1","1","1","1","1","1","1","1","1","0","1","1","0","0","0","1","0","1","1","0","0","0","1","5","1","1","2","1","5","2","2","1","5","1","633775896922161152","唐","289","","","","","","","","","","","","","","","","","","","","","","","","","","","","","","feedback_test","","","","","","","","","","","",""
"525","","j","psychophysics","103","206898","0.0-7.0-1.0-1.0-0.0-0.47","4","4","4","4","4","4","4","4","4","4","5","5","5","5","5","5","5","5","5","5","1","1","1","1","1","1","1","1","1","1","0","1","1","0","0","0","1","0","1","1","0","0","0","1","5","1","1","2","1","5","2","2","1","5","1","633775896922161152","唐","289","","","","match","","","","","","","","","","","","","","key","j","16.65054945054958","768","428","j","true","match","img/square.png","方形","方形","ALT1_2","prac_ALT1_2","","","","","","","","","","","",""
"null","<span style='color:GreenYellow; font-size: 70px;'>正确! </span>","null","html-keyboard-response","104","207399","0.0-7.0-1.0-1.0-0.0-1.47","4","4","4","4","4","4","4","4","4","4","5","5","5","5","5","5","5","5","5","5","1","1","1","1","1","1","1","1","1","1","0","1","1","0","0","0","1","0","1","1","0","0","0","1","5","1","1","2","1","5","2","2","1","5","1","633775896922161152","唐","289","","","","","","","","","","","","","","","","","","","","","","","","","","","","","","feedback_test","","","","","","","","","","","",""
"5399","<style>.context{color:white; font-size: 35px; line-height:40px}</style>                          <div><p class='context'>您正确回答了94% 的试次。</p><p class='context'>您的平均反应时为571毫秒。</p><p class='context'>恭喜您完成练习。按空格键进入正式实验。</p><p class='footer' style='font-size: 35px; line-height:40px;'>请在进入正式实验实验之前将您的<span style='color: lightgreen;'>食指</span>放在电脑键盘的相应键位上进行按键。</p>"," ","html-keyboard-response","105","212799","0.0-7.0-1.0-2.0","4","4","4","4","4","4","4","4","4","4","5","5","5","5","5","5","5","5","5","5","1","1","1","1","1","1","1","1","1","1","0","1","1","0","0","0","1","0","1","1","0","0","0","1","5","1","1","2","1","5","2","2","1","5","1","633775896922161152","唐","289","","","","","","","","","","","","","","","","","","","","","","","","","","","","","","","","","","","","","","","","","",""
"23742","
  <p style='color: white; font-size: 22px'>请您将手指放在按键上，准备进入正式的匹配任务。</p>
  <p> <div style = ""color: green""><按空格键进入下一阶段的匹配任务></div></p>
  "," ","html-keyboard-response","106","236545","0.0-7.0-1.0-3.0","4","4","4","4","4","4","4","4","4","4","5","5","5","5","5","5","5","5","5","5","1","1","1","1","1","1","1","1","1","1","0","1","1","0","0","0","1","0","1","1","0","0","0","1","5","1","1","2","1","5","2","2","1","5","1","633775896922161152","唐","289","","","","","","","","","","","","","","","","","","","","","","","","","","","","","","","","","","","","","","","","","",""
"537","","j","psychophysics","107","238085","0.0-7.0-1.0-4.0-0.0-0.0","4","4","4","4","4","4","4","4","4","4","5","5","5","5","5","5","5","5","5","5","1","1","1","1","1","1","1","1","1","1","0","1","1","0","0","0","1","0","1","1","0","0","0","1","5","1","1","2","1","5","2","2","1","5","1","633775896922161152","唐","289","","","","match","","","","","","","","","","","","","","key","j","16.651086956521677","768","428","j","true","match","img/square.png","方形","方形","ALT1","formal_ALT1_2","","","","","","","","","","","",""
"null","<span style='color:GreenYellow; font-size: 70px;'>正确! </span>","null","html-keyboard-response","108","238586","0.0-7.0-1.0-4.0-0.0-1.0","4","4","4","4","4","4","4","4","4","4","5","5","5","5","5","5","5","5","5","5","1","1","1","1","1","1","1","1","1","1","0","1","1","0","0","0","1","0","1","1","0","0","0","1","5","1","1","2","1","5","2","2","1","5","1","633775896922161152","唐","289","","","","","","","","","","","","","","","","","","","","","","","","","","","","","","feedback_test","","","","","","","","","","","",""
"600","","f","psychophysics","109","240187","0.0-7.0-1.0-4.0-0.0-0.1","4","4","4","4","4","4","4","4","4","4","5","5","5","5","5","5","5","5","5","5","1","1","1","1","1","1","1","1","1","1","0","1","1","0","0","0","1","0","1","1","0","0","0","1","5","1","1","2","1","5","2","2","1","5","1","633775896922161152","唐","289","","","","nonmatch","","","","","","","","","","","","","","key","f","16.651578947368666","768","428","f","true","nonmatch","img/diamond.png","六边","菱形","ALT1","formal_ALT1_2","","","","","","","","","","","",""
"null","<span style='color:GreenYellow; font-size: 70px;'>正确! </span>","null","html-keyboard-response","110","240688","0.0-7.0-1.0-4.0-0.0-1.1","4","4","4","4","4","4","4","4","4","4","5","5","5","5","5","5","5","5","5","5","1","1","1","1","1","1","1","1","1","1","0","1","1","0","0","0","1","0","1","1","0","0","0","1","5","1","1","2","1","5","2","2","1","5","1","633775896922161152","唐","289","","","","","","","","","","","","","","","","","","","","","","","","","","","","","","feedback_test","","","","","","","","","","","",""
"594","","j","psychophysics","111","242284","0.0-7.0-1.0-4.0-0.0-0.2","4","4","4","4","4","4","4","4","4","4","5","5","5","5","5","5","5","5","5","5","1","1","1","1","1","1","1","1","1","1","0","1","1","0","0","0","1","0","1","1","0","0","0","1","5","1","1","2","1","5","2","2","1","5","1","633775896922161152","唐","289","","","","match","","","","","","","","","","","","","","key","j","16.65368421052638","768","428","j","true","match","img/square.png","方形","方形","ALT1","formal_ALT1_2","","","","","","","","","","","",""
"null","<span style='color:GreenYellow; font-size: 70px;'>正确! </span>","null","html-keyboard-response","112","242785","0.0-7.0-1.0-4.0-0.0-1.2","4","4","4","4","4","4","4","4","4","4","5","5","5","5","5","5","5","5","5","5","1","1","1","1","1","1","1","1","1","1","0","1","1","0","0","0","1","0","1","1","0","0","0","1","5","1","1","2","1","5","2","2","1","5","1","633775896922161152","唐","289","","","","","","","","","","","","","","","","","","","","","","","","","","","","","","feedback_test","","","","","","","","","","","",""
"549","","j","psychophysics","113","244335","0.0-7.0-1.0-4.0-0.0-0.3","4","4","4","4","4","4","4","4","4","4","5","5","5","5","5","5","5","5","5","5","1","1","1","1","1","1","1","1","1","1","0","1","1","0","0","0","1","0","1","1","0","0","0","1","5","1","1","2","1","5","2","2","1","5","1","633775896922161152","唐","289","","","","match","","","","","","","","","","","","","","key","j","16.64891304347807","768","428","j","true","match","img/circle.png","圆形","圆形","ALT1","formal_ALT1_2","","","","","","","","","","","",""
"null","<span style='color:GreenYellow; font-size: 70px;'>正确! </span>","null","html-keyboard-response","114","244837","0.0-7.0-1.0-4.0-0.0-1.3","4","4","4","4","4","4","4","4","4","4","5","5","5","5","5","5","5","5","5","5","1","1","1","1","1","1","1","1","1","1","0","1","1","0","0","0","1","0","1","1","0","0","0","1","5","1","1","2","1","5","2","2","1","5","1","633775896922161152","唐","289","","","","","","","","","","","","","","","","","","","","","","","","","","","","","","feedback_test","","","","","","","","","","","",""
"524","","f","psychophysics","115","246362","0.0-7.0-1.0-4.0-0.0-0.4","4","4","4","4","4","4","4","4","4","4","5","5","5","5","5","5","5","5","5","5","1","1","1","1","1","1","1","1","1","1","0","1","1","0","0","0","1","0","1","1","0","0","0","1","5","1","1","2","1","5","2","2","1","5","1","633775896922161152","唐","289","","","","nonmatch","","","","","","","","","","","","","","key","f","16.651648351648223","768","428","f","true","nonmatch","img/circle.png","六边","圆形","ALT1","formal_ALT1_2","","","","","","","","","","","",""
"null","<span style='color:GreenYellow; font-size: 70px;'>正确! </span>","null","html-keyboard-response","116","246863","0.0-7.0-1.0-4.0-0.0-1.4","4","4","4","4","4","4","4","4","4","4","5","5","5","5","5","5","5","5","5","5","1","1","1","1","1","1","1","1","1","1","0","1","1","0","0","0","1","0","1","1","0","0","0","1","5","1","1","2","1","5","2","2","1","5","1","633775896922161152","唐","289","","","","","","","","","","","","","","","","","","","","","","","","","","","","","","feedback_test","","","","","","","","","","","",""
"556","","j","psychophysics","117","248421","0.0-7.0-1.0-4.0-0.0-0.5","4","4","4","4","4","4","4","4","4","4","5","5","5","5","5","5","5","5","5","5","1","1","1","1","1","1","1","1","1","1","0","1","1","0","0","0","1","0","1","1","0","0","0","1","5","1","1","2","1","5","2","2","1","5","1","633775896922161152","唐","289","","","","match","","","","","","","","","","","","","","key","j","16.651086956521677","768","428","j","true","match","img/square.png","方形","方形","ALT1","formal_ALT1_2","","","","","","","","","","","",""
"null","<span style='color:GreenYellow; font-size: 70px;'>正确! </span>","null","html-keyboard-response","118","248921","0.0-7.0-1.0-4.0-0.0-1.5","4","4","4","4","4","4","4","4","4","4","5","5","5","5","5","5","5","5","5","5","1","1","1","1","1","1","1","1","1","1","0","1","1","0","0","0","1","0","1","1","0","0","0","1","5","1","1","2","1","5","2","2","1","5","1","633775896922161152","唐","289","","","","","","","","","","","","","","","","","","","","","","","","","","","","","","feedback_test","","","","","","","","","","","",""
"508","","f","psychophysics","119","250431","0.0-7.0-1.0-4.0-0.0-0.6","4","4","4","4","4","4","4","4","4","4","5","5","5","5","5","5","5","5","5","5","1","1","1","1","1","1","1","1","1","1","0","1","1","0","0","0","1","0","1","1","0","0","0","1","5","1","1","2","1","5","2","2","1","5","1","633775896922161152","唐","289","","","","nonmatch","","","","","","","","","","","","","","key","f","16.653333333333528","768","428","f","true","nonmatch","img/diamond.png","方形","菱形","ALT1","formal_ALT1_2","","","","","","","","","","","",""
"null","<span style='color:GreenYellow; font-size: 70px;'>正确! </span>","null","html-keyboard-response","120","250931","0.0-7.0-1.0-4.0-0.0-1.6","4","4","4","4","4","4","4","4","4","4","5","5","5","5","5","5","5","5","5","5","1","1","1","1","1","1","1","1","1","1","0","1","1","0","0","0","1","0","1","1","0","0","0","1","5","1","1","2","1","5","2","2","1","5","1","633775896922161152","唐","289","","","","","","","","","","","","","","","","","","","","","","","","","","","","","","feedback_test","","","","","","","","","","","",""
"536","","j","psychophysics","121","252469","0.0-7.0-1.0-4.0-0.0-0.7","4","4","4","4","4","4","4","4","4","4","5","5","5","5","5","5","5","5","5","5","1","1","1","1","1","1","1","1","1","1","0","1","1","0","0","0","1","0","1","1","0","0","0","1","5","1","1","2","1","5","2","2","1","5","1","633775896922161152","唐","289","","","","match","","","","","","","","","","","","","","key","j","16.651648351648223","768","428","j","true","match","img/hexagon.png","六边","六边","ALT1","formal_ALT1_2","","","","","","","","","","","",""
"null","<span style='color:GreenYellow; font-size: 70px;'>正确! </span>","null","html-keyboard-response","122","252970","0.0-7.0-1.0-4.0-0.0-1.7","4","4","4","4","4","4","4","4","4","4","5","5","5","5","5","5","5","5","5","5","1","1","1","1","1","1","1","1","1","1","0","1","1","0","0","0","1","0","1","1","0","0","0","1","5","1","1","2","1","5","2","2","1","5","1","633775896922161152","唐","289","","","","","","","","","","","","","","","","","","","","","","","","","","","","","","feedback_test","","","","","","","","","","","",""
"586","","j","psychophysics","123","254559","0.0-7.0-1.0-4.0-0.0-0.8","4","4","4","4","4","4","4","4","4","4","5","5","5","5","5","5","5","5","5","5","1","1","1","1","1","1","1","1","1","1","0","1","1","0","0","0","1","0","1","1","0","0","0","1","5","1","1","2","1","5","2","2","1","5","1","633775896922161152","唐","289","","","","match","","","","","","","","","","","","","","key","j","16.652127659574653","768","428","j","true","match","img/circle.png","圆形","圆形","ALT1","formal_ALT1_2","","","","","","","","","","","",""
"null","<span style='color:GreenYellow; font-size: 70px;'>正确! </span>","null","html-keyboard-response","124","255060","0.0-7.0-1.0-4.0-0.0-1.8","4","4","4","4","4","4","4","4","4","4","5","5","5","5","5","5","5","5","5","5","1","1","1","1","1","1","1","1","1","1","0","1","1","0","0","0","1","0","1","1","0","0","0","1","5","1","1","2","1","5","2","2","1","5","1","633775896922161152","唐","289","","","","","","","","","","","","","","","","","","","","","","","","","","","","","","feedback_test","","","","","","","","","","","",""
"539","","f","psychophysics","125","256601","0.0-7.0-1.0-4.0-0.0-0.9","4","4","4","4","4","4","4","4","4","4","5","5","5","5","5","5","5","5","5","5","1","1","1","1","1","1","1","1","1","1","0","1","1","0","0","0","1","0","1","1","0","0","0","1","5","1","1","2","1","5","2","2","1","5","1","633775896922161152","唐","289","","","","nonmatch","","","","","","","","","","","","","","key","f","16.645652173912982","768","428","f","true","nonmatch","img/hexagon.png","圆形","六边","ALT1","formal_ALT1_2","","","","","","","","","","","",""
"null","<span style='color:GreenYellow; font-size: 70px;'>正确! </span>","null","html-keyboard-response","126","257102","0.0-7.0-1.0-4.0-0.0-1.9","4","4","4","4","4","4","4","4","4","4","5","5","5","5","5","5","5","5","5","5","1","1","1","1","1","1","1","1","1","1","0","1","1","0","0","0","1","0","1","1","0","0","0","1","5","1","1","2","1","5","2","2","1","5","1","633775896922161152","唐","289","","","","","","","","","","","","","","","","","","","","","","","","","","","","","","feedback_test","","","","","","","","","","","",""
"630","","j","psychophysics","127","258733","0.0-7.0-1.0-4.0-0.0-0.10","4","4","4","4","4","4","4","4","4","4","5","5","5","5","5","5","5","5","5","5","1","1","1","1","1","1","1","1","1","1","0","1","1","0","0","0","1","0","1","1","0","0","0","1","5","1","1","2","1","5","2","2","1","5","1","633775896922161152","唐","289","","","","match","","","","","","","","","","","","","","key","j","16.648453608247664","768","428","j","true","match","img/circle.png","圆形","圆形","ALT1","formal_ALT1_2","","","","","","","","","","","",""
"null","<span style='color:GreenYellow; font-size: 70px;'>正确! </span>","null","html-keyboard-response","128","259233","0.0-7.0-1.0-4.0-0.0-1.10","4","4","4","4","4","4","4","4","4","4","5","5","5","5","5","5","5","5","5","5","1","1","1","1","1","1","1","1","1","1","0","1","1","0","0","0","1","0","1","1","0","0","0","1","5","1","1","2","1","5","2","2","1","5","1","633775896922161152","唐","289","","","","","","","","","","","","","","","","","","","","","","","","","","","","","","feedback_test","","","","","","","","","","","",""
"594","","f","psychophysics","129","260829","0.0-7.0-1.0-4.0-0.0-0.11","4","4","4","4","4","4","4","4","4","4","5","5","5","5","5","5","5","5","5","5","1","1","1","1","1","1","1","1","1","1","0","1","1","0","0","0","1","0","1","1","0","0","0","1","5","1","1","2","1","5","2","2","1","5","1","633775896922161152","唐","289","","","","nonmatch","","","","","","","","","","","","","","key","f","16.652127659574653","768","428","f","true","nonmatch","img/hexagon.png","菱形","六边","ALT1","formal_ALT1_2","","","","","","","","","","","",""
"null","<span style='color:GreenYellow; font-size: 70px;'>正确! </span>","null","html-keyboard-response","130","261331","0.0-7.0-1.0-4.0-0.0-1.11","4","4","4","4","4","4","4","4","4","4","5","5","5","5","5","5","5","5","5","5","1","1","1","1","1","1","1","1","1","1","0","1","1","0","0","0","1","0","1","1","0","0","0","1","5","1","1","2","1","5","2","2","1","5","1","633775896922161152","唐","289","","","","","","","","","","","","","","","","","","","","","","","","","","","","","","feedback_test","","","","","","","","","","","",""
"554","","j","psychophysics","131","262886","0.0-7.0-1.0-4.0-0.0-0.12","4","4","4","4","4","4","4","4","4","4","5","5","5","5","5","5","5","5","5","5","1","1","1","1","1","1","1","1","1","1","0","1","1","0","0","0","1","0","1","1","0","0","0","1","5","1","1","2","1","5","2","2","1","5","1","633775896922161152","唐","289","","","","match","","","","","","","","","","","","","","key","j","16.652173913043477","768","428","j","true","match","img/hexagon.png","六边","六边","ALT1","formal_ALT1_2","","","","","","","","","","","",""
"null","<span style='color:GreenYellow; font-size: 70px;'>正确! </span>","null","html-keyboard-response","132","263387","0.0-7.0-1.0-4.0-0.0-1.12","4","4","4","4","4","4","4","4","4","4","5","5","5","5","5","5","5","5","5","5","1","1","1","1","1","1","1","1","1","1","0","1","1","0","0","0","1","0","1","1","0","0","0","1","5","1","1","2","1","5","2","2","1","5","1","633775896922161152","唐","289","","","","","","","","","","","","","","","","","","","","","","","","","","","","","","feedback_test","","","","","","","","","","","",""
"489","","f","psychophysics","133","264878","0.0-7.0-1.0-4.0-0.0-0.13","4","4","4","4","4","4","4","4","4","4","5","5","5","5","5","5","5","5","5","5","1","1","1","1","1","1","1","1","1","1","0","1","1","0","0","0","1","0","1","1","0","0","0","1","5","1","1","2","1","5","2","2","1","5","1","633775896922161152","唐","289","","","","nonmatch","","","","","","","","","","","","","","key","f","16.651685393258425","768","428","f","true","nonmatch","img/circle.png","方形","圆形","ALT1","formal_ALT1_2","","","","","","","","","","","",""
"null","<span style='color:GreenYellow; font-size: 70px;'>正确! </span>","null","html-keyboard-response","134","265378","0.0-7.0-1.0-4.0-0.0-1.13","4","4","4","4","4","4","4","4","4","4","5","5","5","5","5","5","5","5","5","5","1","1","1","1","1","1","1","1","1","1","0","1","1","0","0","0","1","0","1","1","0","0","0","1","5","1","1","2","1","5","2","2","1","5","1","633775896922161152","唐","289","","","","","","","","","","","","","","","","","","","","","","","","","","","","","","feedback_test","","","","","","","","","","","",""
"535","","f","psychophysics","135","266915","0.0-7.0-1.0-4.0-0.0-0.14","4","4","4","4","4","4","4","4","4","4","5","5","5","5","5","5","5","5","5","5","1","1","1","1","1","1","1","1","1","1","0","1","1","0","0","0","1","0","1","1","0","0","0","1","5","1","1","2","1","5","2","2","1","5","1","633775896922161152","唐","289","","","","nonmatch","","","","","","","","","","","","","","key","f","16.653846153846153","768","428","f","true","nonmatch","img/square.png","六边","方形","ALT1","formal_ALT1_2","","","","","","","","","","","",""
"null","<span style='color:GreenYellow; font-size: 70px;'>正确! </span>","null","html-keyboard-response","136","267416","0.0-7.0-1.0-4.0-0.0-1.14","4","4","4","4","4","4","4","4","4","4","5","5","5","5","5","5","5","5","5","5","1","1","1","1","1","1","1","1","1","1","0","1","1","0","0","0","1","0","1","1","0","0","0","1","5","1","1","2","1","5","2","2","1","5","1","633775896922161152","唐","289","","","","","","","","","","","","","","","","","","","","","","","","","","","","","","feedback_test","","","","","","","","","","","",""
"624","","f","psychophysics","137","269042","0.0-7.0-1.0-4.0-0.0-0.15","4","4","4","4","4","4","4","4","4","4","5","5","5","5","5","5","5","5","5","5","1","1","1","1","1","1","1","1","1","1","0","1","1","0","0","0","1","0","1","1","0","0","0","1","5","1","1","2","1","5","2","2","1","5","1","633775896922161152","唐","289","","","","nonmatch","","","","","","","","","","","","","","key","f","16.652577319587508","768","428","f","true","nonmatch","img/square.png","菱形","方形","ALT1","formal_ALT1_2","","","","","","","","","","","",""
"null","<span style='color:GreenYellow; font-size: 70px;'>正确! </span>","null","html-keyboard-response","138","269542","0.0-7.0-1.0-4.0-0.0-1.15","4","4","4","4","4","4","4","4","4","4","5","5","5","5","5","5","5","5","5","5","1","1","1","1","1","1","1","1","1","1","0","1","1","0","0","0","1","0","1","1","0","0","0","1","5","1","1","2","1","5","2","2","1","5","1","633775896922161152","唐","289","","","","","","","","","","","","","","","","","","","","","","","","","","","","","","feedback_test","","","","","","","","","","","",""
"574","","j","psychophysics","139","271118","0.0-7.0-1.0-4.0-0.0-0.16","4","4","4","4","4","4","4","4","4","4","5","5","5","5","5","5","5","5","5","5","1","1","1","1","1","1","1","1","1","1","0","1","1","0","0","0","1","0","1","1","0","0","0","1","5","1","1","2","1","5","2","2","1","5","1","633775896922161152","唐","289","","","","match","","","","","","","","","","","","","","key","j","16.648387096774695","768","428","j","true","match","img/diamond.png","菱形","菱形","ALT1","formal_ALT1_2","","","","","","","","","","","",""
"null","<span style='color:GreenYellow; font-size: 70px;'>正确! </span>","null","html-keyboard-response","140","271619","0.0-7.0-1.0-4.0-0.0-1.16","4","4","4","4","4","4","4","4","4","4","5","5","5","5","5","5","5","5","5","5","1","1","1","1","1","1","1","1","1","1","0","1","1","0","0","0","1","0","1","1","0","0","0","1","5","1","1","2","1","5","2","2","1","5","1","633775896922161152","唐","289","","","","","","","","","","","","","","","","","","","","","","","","","","","","","","feedback_test","","","","","","","","","","","",""
"565","","f","psychophysics","141","273186","0.0-7.0-1.0-4.0-0.0-0.17","4","4","4","4","4","4","4","4","4","4","5","5","5","5","5","5","5","5","5","5","1","1","1","1","1","1","1","1","1","1","0","1","1","0","0","0","1","0","1","1","0","0","0","1","5","1","1","2","1","5","2","2","1","5","1","633775896922161152","唐","289","","","","nonmatch","","","","","","","","","","","","","","key","f","16.651612903225555","768","428","f","true","nonmatch","img/hexagon.png","方形","六边","ALT1","formal_ALT1_2","","","","","","","","","","","",""
"null","<span style='color:GreenYellow; font-size: 70px;'>正确! </span>","null","html-keyboard-response","142","273686","0.0-7.0-1.0-4.0-0.0-1.17","4","4","4","4","4","4","4","4","4","4","5","5","5","5","5","5","5","5","5","5","1","1","1","1","1","1","1","1","1","1","0","1","1","0","0","0","1","0","1","1","0","0","0","1","5","1","1","2","1","5","2","2","1","5","1","633775896922161152","唐","289","","","","","","","","","","","","","","","","","","","","","","","","","","","","","","feedback_test","","","","","","","","","","","",""
"683","","j","psychophysics","143","275371","0.0-7.0-1.0-4.0-0.0-0.18","4","4","4","4","4","4","4","4","4","4","5","5","5","5","5","5","5","5","5","5","1","1","1","1","1","1","1","1","1","1","0","1","1","0","0","0","1","0","1","1","0","0","0","1","5","1","1","2","1","5","2","2","1","5","1","633775896922161152","唐","289","","","","match","","","","","","","","","","","","","","key","j","16.646999999999533","768","428","j","true","match","img/hexagon.png","六边","六边","ALT1","formal_ALT1_2","","","","","","","","","","","",""
"null","<span style='color:GreenYellow; font-size: 70px;'>正确! </span>","null","html-keyboard-response","144","275873","0.0-7.0-1.0-4.0-0.0-1.18","4","4","4","4","4","4","4","4","4","4","5","5","5","5","5","5","5","5","5","5","1","1","1","1","1","1","1","1","1","1","0","1","1","0","0","0","1","0","1","1","0","0","0","1","5","1","1","2","1","5","2","2","1","5","1","633775896922161152","唐","289","","","","","","","","","","","","","","","","","","","","","","","","","","","","","","feedback_test","","","","","","","","","","","",""
"566","","f","psychophysics","145","277443","0.0-7.0-1.0-4.0-0.0-0.19","4","4","4","4","4","4","4","4","4","4","5","5","5","5","5","5","5","5","5","5","1","1","1","1","1","1","1","1","1","1","0","1","1","0","0","0","1","0","1","1","0","0","0","1","5","1","1","2","1","5","2","2","1","5","1","633775896922161152","唐","289","","","","nonmatch","","","","","","","","","","","","","","key","f","16.650537634408604","768","428","f","true","nonmatch","img/circle.png","菱形","圆形","ALT1","formal_ALT1_2","","","","","","","","","","","",""
"null","<span style='color:GreenYellow; font-size: 70px;'>正确! </span>","null","html-keyboard-response","146","277944","0.0-7.0-1.0-4.0-0.0-1.19","4","4","4","4","4","4","4","4","4","4","5","5","5","5","5","5","5","5","5","5","1","1","1","1","1","1","1","1","1","1","0","1","1","0","0","0","1","0","1","1","0","0","0","1","5","1","1","2","1","5","2","2","1","5","1","633775896922161152","唐","289","","","","","","","","","","","","","","","","","","","","","","","","","","","","","","feedback_test","","","","","","","","","","","",""
"674","","j","psychophysics","147","279619","0.0-7.0-1.0-4.0-0.0-0.20","4","4","4","4","4","4","4","4","4","4","5","5","5","5","5","5","5","5","5","5","1","1","1","1","1","1","1","1","1","1","0","1","1","0","0","0","1","0","1","1","0","0","0","1","5","1","1","2","1","5","2","2","1","5","1","633775896922161152","唐","289","","","","match","","","","","","","","","","","","","","key","j","16.655","768","428","j","true","match","img/diamond.png","菱形","菱形","ALT1","formal_ALT1_2","","","","","","","","","","","",""
"null","<span style='color:GreenYellow; font-size: 70px;'>正确! </span>","null","html-keyboard-response","148","280120","0.0-7.0-1.0-4.0-0.0-1.20","4","4","4","4","4","4","4","4","4","4","5","5","5","5","5","5","5","5","5","5","1","1","1","1","1","1","1","1","1","1","0","1","1","0","0","0","1","0","1","1","0","0","0","1","5","1","1","2","1","5","2","2","1","5","1","633775896922161152","唐","289","","","","","","","","","","","","","","","","","","","","","","","","","","","","","","feedback_test","","","","","","","","","","","",""
"520","","f","psychophysics","149","281641","0.0-7.0-1.0-4.0-0.0-0.21","4","4","4","4","4","4","4","4","4","4","5","5","5","5","5","5","5","5","5","5","1","1","1","1","1","1","1","1","1","1","0","1","1","0","0","0","1","0","1","1","0","0","0","1","5","1","1","2","1","5","2","2","1","5","1","633775896922161152","唐","289","","","","nonmatch","","","","","","","","","","","","","","key","f","16.652222222221706","768","428","f","true","nonmatch","img/square.png","圆形","方形","ALT1","formal_ALT1_2","","","","","","","","","","","",""
"null","<span style='color:GreenYellow; font-size: 70px;'>正确! </span>","null","html-keyboard-response","150","282142","0.0-7.0-1.0-4.0-0.0-1.21","4","4","4","4","4","4","4","4","4","4","5","5","5","5","5","5","5","5","5","5","1","1","1","1","1","1","1","1","1","1","0","1","1","0","0","0","1","0","1","1","0","0","0","1","5","1","1","2","1","5","2","2","1","5","1","633775896922161152","唐","289","","","","","","","","","","","","","","","","","","","","","","","","","","","","","","feedback_test","","","","","","","","","","","",""
"504","","f","psychophysics","151","283648","0.0-7.0-1.0-4.0-0.0-0.22","4","4","4","4","4","4","4","4","4","4","5","5","5","5","5","5","5","5","5","5","1","1","1","1","1","1","1","1","1","1","0","1","1","0","0","0","1","0","1","1","0","0","0","1","5","1","1","2","1","5","2","2","1","5","1","633775896922161152","唐","289","","","","nonmatch","","","","","","","","","","","","","","key","f","16.647191011235694","768","428","f","true","nonmatch","img/diamond.png","圆形","菱形","ALT1","formal_ALT1_2","","","","","","","","","","","",""
"null","<span style='color:GreenYellow; font-size: 70px;'>正确! </span>","null","html-keyboard-response","152","284149","0.0-7.0-1.0-4.0-0.0-1.22","4","4","4","4","4","4","4","4","4","4","5","5","5","5","5","5","5","5","5","5","1","1","1","1","1","1","1","1","1","1","0","1","1","0","0","0","1","0","1","1","0","0","0","1","5","1","1","2","1","5","2","2","1","5","1","633775896922161152","唐","289","","","","","","","","","","","","","","","","","","","","","","","","","","","","","","feedback_test","","","","","","","","","","","",""
"643","","j","psychophysics","153","285794","0.0-7.0-1.0-4.0-0.0-0.23","4","4","4","4","4","4","4","4","4","4","5","5","5","5","5","5","5","5","5","5","1","1","1","1","1","1","1","1","1","1","0","1","1","0","0","0","1","0","1","1","0","0","0","1","5","1","1","2","1","5","2","2","1","5","1","633775896922161152","唐","289","","","","match","","","","","","","","","","","","","","key","j","16.65000000000012","768","428","j","true","match","img/diamond.png","菱形","菱形","ALT1","formal_ALT1_2","","","","","","","","","","","",""
"null","<span style='color:GreenYellow; font-size: 70px;'>正确! </span>","null","html-keyboard-response","154","286297","0.0-7.0-1.0-4.0-0.0-1.23","4","4","4","4","4","4","4","4","4","4","5","5","5","5","5","5","5","5","5","5","1","1","1","1","1","1","1","1","1","1","0","1","1","0","0","0","1","0","1","1","0","0","0","1","5","1","1","2","1","5","2","2","1","5","1","633775896922161152","唐","289","","","","","","","","","","","","","","","","","","","","","","","","","","","","","","feedback_test","","","","","","","","","","","",""
"654","","j","psychophysics","155","287952","0.0-7.0-1.0-4.0-0.0-0.24","4","4","4","4","4","4","4","4","4","4","5","5","5","5","5","5","5","5","5","5","1","1","1","1","1","1","1","1","1","1","0","1","1","0","0","0","1","0","1","1","0","0","0","1","5","1","1","2","1","5","2","2","1","5","1","633775896922161152","唐","289","","","","match","","","","","","","","","","","","","","key","j","16.65000000000012","768","428","j","true","match","img/circle.png","圆形","圆形","ALT1","formal_ALT1_2","","","","","","","","","","","",""
"null","<span style='color:GreenYellow; font-size: 70px;'>正确! </span>","null","html-keyboard-response","156","288454","0.0-7.0-1.0-4.0-0.0-1.24","4","4","4","4","4","4","4","4","4","4","5","5","5","5","5","5","5","5","5","5","1","1","1","1","1","1","1","1","1","1","0","1","1","0","0","0","1","0","1","1","0","0","0","1","5","1","1","2","1","5","2","2","1","5","1","633775896922161152","唐","289","","","","","","","","","","","","","","","","","","","","","","","","","","","","","","feedback_test","","","","","","","","","","","",""
"503","","f","psychophysics","157","289958","0.0-7.0-1.0-4.0-0.0-0.25","4","4","4","4","4","4","4","4","4","4","5","5","5","5","5","5","5","5","5","5","1","1","1","1","1","1","1","1","1","1","0","1","1","0","0","0","1","0","1","1","0","0","0","1","5","1","1","2","1","5","2","2","1","5","1","633775896922161152","唐","289","","","","nonmatch","","","","","","","","","","","","","","key","f","16.65056179775307","768","428","f","true","nonmatch","img/square.png","六边","方形","ALT1","formal_ALT1_2","","","","","","","","","","","",""
"null","<span style='color:GreenYellow; font-size: 70px;'>正确! </span>","null","html-keyboard-response","158","290459","0.0-7.0-1.0-4.0-0.0-1.25","4","4","4","4","4","4","4","4","4","4","5","5","5","5","5","5","5","5","5","5","1","1","1","1","1","1","1","1","1","1","0","1","1","0","0","0","1","0","1","1","0","0","0","1","5","1","1","2","1","5","2","2","1","5","1","633775896922161152","唐","289","","","","","","","","","","","","","","","","","","","","","","","","","","","","","","feedback_test","","","","","","","","","","","",""
"704","","j","psychophysics","159","292164","0.0-7.0-1.0-4.0-0.0-0.26","4","4","4","4","4","4","4","4","4","4","5","5","5","5","5","5","5","5","5","5","1","1","1","1","1","1","1","1","1","1","0","1","1","0","0","0","1","0","1","1","0","0","0","1","5","1","1","2","1","5","2","2","1","5","1","633775896922161152","唐","289","","","","match","","","","","","","","","","","","","","key","j","16.647524752475476","768","428","j","true","match","img/hexagon.png","六边","六边","ALT1","formal_ALT1_2","","","","","","","","","","","",""
"null","<span style='color:GreenYellow; font-size: 70px;'>正确! </span>","null","html-keyboard-response","160","292666","0.0-7.0-1.0-4.0-0.0-1.26","4","4","4","4","4","4","4","4","4","4","5","5","5","5","5","5","5","5","5","5","1","1","1","1","1","1","1","1","1","1","0","1","1","0","0","0","1","0","1","1","0","0","0","1","5","1","1","2","1","5","2","2","1","5","1","633775896922161152","唐","289","","","","","","","","","","","","","","","","","","","","","","","","","","","","","","feedback_test","","","","","","","","","","","",""
"619","","j","psychophysics","161","294286","0.0-7.0-1.0-4.0-0.0-0.27","4","4","4","4","4","4","4","4","4","4","5","5","5","5","5","5","5","5","5","5","1","1","1","1","1","1","1","1","1","1","0","1","1","0","0","0","1","0","1","1","0","0","0","1","5","1","1","2","1","5","2","2","1","5","1","633775896922161152","唐","289","","","","match","","","","","","","","","","","","","","key","j","16.650000000000244","768","428","j","true","match","img/square.png","方形","方形","ALT1","formal_ALT1_2","","","","","","","","","","","",""
"null","<span style='color:GreenYellow; font-size: 70px;'>正确! </span>","null","html-keyboard-response","162","294788","0.0-7.0-1.0-4.0-0.0-1.27","4","4","4","4","4","4","4","4","4","4","5","5","5","5","5","5","5","5","5","5","1","1","1","1","1","1","1","1","1","1","0","1","1","0","0","0","1","0","1","1","0","0","0","1","5","1","1","2","1","5","2","2","1","5","1","633775896922161152","唐","289","","","","","","","","","","","","","","","","","","","","","","","","","","","","","","feedback_test","","","","","","","","","","","",""
"683","","f","psychophysics","163","296472","0.0-7.0-1.0-4.0-0.0-0.28","4","4","4","4","4","4","4","4","4","4","5","5","5","5","5","5","5","5","5","5","1","1","1","1","1","1","1","1","1","1","0","1","1","0","0","0","1","0","1","1","0","0","0","1","5","1","1","2","1","5","2","2","1","5","1","633775896922161152","唐","289","","","","nonmatch","","","","","","","","","","","","","","key","f","16.65099999999977","768","428","f","true","nonmatch","img/hexagon.png","菱形","六边","ALT1","formal_ALT1_2","","","","","","","","","","","",""
"null","<span style='color:GreenYellow; font-size: 70px;'>正确! </span>","null","html-keyboard-response","164","296974","0.0-7.0-1.0-4.0-0.0-1.28","4","4","4","4","4","4","4","4","4","4","5","5","5","5","5","5","5","5","5","5","1","1","1","1","1","1","1","1","1","1","0","1","1","0","0","0","1","0","1","1","0","0","0","1","5","1","1","2","1","5","2","2","1","5","1","633775896922161152","唐","289","","","","","","","","","","","","","","","","","","","","","","","","","","","","","","feedback_test","","","","","","","","","","","",""
"514","","f","psychophysics","165","298489","0.0-7.0-1.0-4.0-0.0-0.29","4","4","4","4","4","4","4","4","4","4","5","5","5","5","5","5","5","5","5","5","1","1","1","1","1","1","1","1","1","1","0","1","1","0","0","0","1","0","1","1","0","0","0","1","5","1","1","2","1","5","2","2","1","5","1","633775896922161152","唐","289","","","","nonmatch","","","","","","","","","","","","","","key","f","16.65","768","428","f","true","nonmatch","img/circle.png","方形","圆形","ALT1","formal_ALT1_2","","","","","","","","","","","",""
"null","<span style='color:GreenYellow; font-size: 70px;'>正确! </span>","null","html-keyboard-response","166","298991","0.0-7.0-1.0-4.0-0.0-1.29","4","4","4","4","4","4","4","4","4","4","5","5","5","5","5","5","5","5","5","5","1","1","1","1","1","1","1","1","1","1","0","1","1","0","0","0","1","0","1","1","0","0","0","1","5","1","1","2","1","5","2","2","1","5","1","633775896922161152","唐","289","","","","","","","","","","","","","","","","","","","","","","","","","","","","","","feedback_test","","","","","","","","","","","",""
"689","","f","psychophysics","167","300682","0.0-7.0-1.0-4.0-0.0-0.30","4","4","4","4","4","4","4","4","4","4","5","5","5","5","5","5","5","5","5","5","1","1","1","1","1","1","1","1","1","1","0","1","1","0","0","0","1","0","1","1","0","0","0","1","5","1","1","2","1","5","2","2","1","5","1","633775896922161152","唐","289","","","","nonmatch","","","","","","","","","","","","","","key","f","16.65544554455457","768","428","f","true","nonmatch","img/diamond.png","圆形","菱形","ALT1","formal_ALT1_2","","","","","","","","","","","",""
"null","<span style='color:GreenYellow; font-size: 70px;'>正确! </span>","null","html-keyboard-response","168","301184","0.0-7.0-1.0-4.0-0.0-1.30","4","4","4","4","4","4","4","4","4","4","5","5","5","5","5","5","5","5","5","5","1","1","1","1","1","1","1","1","1","1","0","1","1","0","0","0","1","0","1","1","0","0","0","1","5","1","1","2","1","5","2","2","1","5","1","633775896922161152","唐","289","","","","","","","","","","","","","","","","","","","","","","","","","","","","","","feedback_test","","","","","","","","","","","",""
"557","","f","psychophysics","169","302743","0.0-7.0-1.0-4.0-0.0-0.31","4","4","4","4","4","4","4","4","4","4","5","5","5","5","5","5","5","5","5","5","1","1","1","1","1","1","1","1","1","1","0","1","1","0","0","0","1","0","1","1","0","0","0","1","5","1","1","2","1","5","2","2","1","5","1","633775896922161152","唐","289","","","","nonmatch","","","","","","","","","","","","","","key","f","16.64946236559165","768","428","f","true","nonmatch","img/square.png","圆形","方形","ALT1","formal_ALT1_2","","","","","","","","","","","",""
"null","<span style='color:GreenYellow; font-size: 70px;'>正确! </span>","null","html-keyboard-response","170","303245","0.0-7.0-1.0-4.0-0.0-1.31","4","4","4","4","4","4","4","4","4","4","5","5","5","5","5","5","5","5","5","5","1","1","1","1","1","1","1","1","1","1","0","1","1","0","0","0","1","0","1","1","0","0","0","1","5","1","1","2","1","5","2","2","1","5","1","633775896922161152","唐","289","","","","","","","","","","","","","","","","","","","","","","","","","","","","","","feedback_test","","","","","","","","","","","",""
"553","","f","psychophysics","171","304800","0.0-7.0-1.0-4.0-0.0-0.32","4","4","4","4","4","4","4","4","4","4","5","5","5","5","5","5","5","5","5","5","1","1","1","1","1","1","1","1","1","1","0","1","1","0","0","0","1","0","1","1","0","0","0","1","5","1","1","2","1","5","2","2","1","5","1","633775896922161152","唐","289","","","","nonmatch","","","","","","","","","","","","","","key","f","16.653260869564964","768","428","f","true","nonmatch","img/hexagon.png","方形","六边","ALT1","formal_ALT1_2","","","","","","","","","","","",""
"null","<span style='color:GreenYellow; font-size: 70px;'>正确! </span>","null","html-keyboard-response","172","305301","0.0-7.0-1.0-4.0-0.0-1.32","4","4","4","4","4","4","4","4","4","4","5","5","5","5","5","5","5","5","5","5","1","1","1","1","1","1","1","1","1","1","0","1","1","0","0","0","1","0","1","1","0","0","0","1","5","1","1","2","1","5","2","2","1","5","1","633775896922161152","唐","289","","","","","","","","","","","","","","","","","","","","","","","","","","","","","","feedback_test","","","","","","","","","","","",""
"490","","f","psychophysics","173","306792","0.0-7.0-1.0-4.0-0.0-0.33","4","4","4","4","4","4","4","4","4","4","5","5","5","5","5","5","5","5","5","5","1","1","1","1","1","1","1","1","1","1","0","1","1","0","0","0","1","0","1","1","0","0","0","1","5","1","1","2","1","5","2","2","1","5","1","633775896922161152","唐","289","","","","nonmatch","","","","","","","","","","","","","","key","f","16.651685393258425","768","428","f","true","nonmatch","img/circle.png","六边","圆形","ALT1","formal_ALT1_2","","","","","","","","","","","",""
"null","<span style='color:GreenYellow; font-size: 70px;'>正确! </span>","null","html-keyboard-response","174","307293","0.0-7.0-1.0-4.0-0.0-1.33","4","4","4","4","4","4","4","4","4","4","5","5","5","5","5","5","5","5","5","5","1","1","1","1","1","1","1","1","1","1","0","1","1","0","0","0","1","0","1","1","0","0","0","1","5","1","1","2","1","5","2","2","1","5","1","633775896922161152","唐","289","","","","","","","","","","","","","","","","","","","","","","","","","","","","","","feedback_test","","","","","","","","","","","",""
"575","","f","psychophysics","175","308869","0.0-7.0-1.0-4.0-0.0-0.34","4","4","4","4","4","4","4","4","4","4","5","5","5","5","5","5","5","5","5","5","1","1","1","1","1","1","1","1","1","1","0","1","1","0","0","0","1","0","1","1","0","0","0","1","5","1","1","2","1","5","2","2","1","5","1","633775896922161152","唐","289","","","","nonmatch","","","","","","","","","","","","","","key","f","16.645744680851188","768","428","f","true","nonmatch","img/hexagon.png","圆形","六边","ALT1","formal_ALT1_2","","","","","","","","","","","",""
"null","<span style='color:GreenYellow; font-size: 70px;'>正确! </span>","null","html-keyboard-response","176","309370","0.0-7.0-1.0-4.0-0.0-1.34","4","4","4","4","4","4","4","4","4","4","5","5","5","5","5","5","5","5","5","5","1","1","1","1","1","1","1","1","1","1","0","1","1","0","0","0","1","0","1","1","0","0","0","1","5","1","1","2","1","5","2","2","1","5","1","633775896922161152","唐","289","","","","","","","","","","","","","","","","","","","","","","","","","","","","","","feedback_test","","","","","","","","","","","",""
"724","","j","psychophysics","177","311095","0.0-7.0-1.0-4.0-0.0-0.35","4","4","4","4","4","4","4","4","4","4","5","5","5","5","5","5","5","5","5","5","1","1","1","1","1","1","1","1","1","1","0","1","1","0","0","0","1","0","1","1","0","0","0","1","5","1","1","2","1","5","2","2","1","5","1","633775896922161152","唐","289","","","","match","","","","","","","","","","","","","","key","j","16.64901960784325","768","428","j","true","match","img/circle.png","圆形","圆形","ALT1","formal_ALT1_2","","","","","","","","","","","",""
"null","<span style='color:GreenYellow; font-size: 70px;'>正确! </span>","null","html-keyboard-response","178","311596","0.0-7.0-1.0-4.0-0.0-1.35","4","4","4","4","4","4","4","4","4","4","5","5","5","5","5","5","5","5","5","5","1","1","1","1","1","1","1","1","1","1","0","1","1","0","0","0","1","0","1","1","0","0","0","1","5","1","1","2","1","5","2","2","1","5","1","633775896922161152","唐","289","","","","","","","","","","","","","","","","","","","","","","","","","","","","","","feedback_test","","","","","","","","","","","",""
"524","","f","psychophysics","179","313122","0.0-7.0-1.0-4.0-0.0-0.36","4","4","4","4","4","4","4","4","4","4","5","5","5","5","5","5","5","5","5","5","1","1","1","1","1","1","1","1","1","1","0","1","1","0","0","0","1","0","1","1","0","0","0","1","5","1","1","2","1","5","2","2","1","5","1","633775896922161152","唐","289","","","","nonmatch","","","","","","","","","","","","","","key","f","16.635555555555683","768","428","f","true","nonmatch","img/diamond.png","六边","菱形","ALT1","formal_ALT1_2","","","","","","","","","","","",""
"null","<span style='color:GreenYellow; font-size: 70px;'>正确! </span>","null","html-keyboard-response","180","313623","0.0-7.0-1.0-4.0-0.0-1.36","4","4","4","4","4","4","4","4","4","4","5","5","5","5","5","5","5","5","5","5","1","1","1","1","1","1","1","1","1","1","0","1","1","0","0","0","1","0","1","1","0","0","0","1","5","1","1","2","1","5","2","2","1","5","1","633775896922161152","唐","289","","","","","","","","","","","","","","","","","","","","","","","","","","","","","","feedback_test","","","","","","","","","","","",""
"640","","f","psychophysics","181","315264","0.0-7.0-1.0-4.0-0.0-0.37","4","4","4","4","4","4","4","4","4","4","5","5","5","5","5","5","5","5","5","5","1","1","1","1","1","1","1","1","1","1","0","1","1","0","0","0","1","0","1","1","0","0","0","1","5","1","1","2","1","5","2","2","1","5","1","633775896922161152","唐","289","","","","nonmatch","","","","","","","","","","","","","","key","f","16.654081632652822","768","428","f","true","nonmatch","img/square.png","菱形","方形","ALT1","formal_ALT1_2","","","","","","","","","","","",""
