"rt","stimulus","response","trial_type","trial_index","time_elapsed","internal_node_id","ses_1","ses_2","ses_3","ses_4","ses_5","ses_6","ses_7","ses_8","ses_9","ses_10","coreself_1","coreself_2","coreself_3","coreself_4","coreself_5","coreself_6","coreself_7","coreself_8","coreself_9","coreself_10","SGPS_1","SGPS_2","SGPS_3","SGPS_4","SGPS_5","SGPS_6","SGPS_7","SGPS_8","SGPS_9","NPI1","NPI2","NPI3","NPI4","NPI5","NPI6","NPI7","NPI8","NPI9","NPI10","NPI11","NPI12","NPI13","NPI14","NPI15","hsns_1","hsns_2","hsns_3","hsns_4","hsns_5","trap1","hsns_6","hsns_7","hsns_8","hsns_9","hsns_10","subj_idx","friend_name","ParticipantID","value","success","user_agent","responses","item_order","radio_event_ids","radio_event_times","key_event_times","mouse_event_times","straightlining","zigzagging","honeypot","timeout","failed_images","failed_audio","failed_video","view_history","response_type","key_press","avg_frame_time","center_x","center_y","correct_response","correct","identity","Image","word","condition","task_id","screen_id","time_stamp","version_attrib","version_target","IAT","RT","varname","summary","version_attrib2","version_target2","question_order","correct_answer","trap1_item"
"7606","
   <p><div style = ""color: white;font-size:25px;"">您好，欢迎参加本次实验。</div> </p>
   <p><div style = ""color: white;font-size:25px;"">为充分保障您的权利，请确保您已经知晓并同意《参与实验同意书》以及《数据公开知情同意书》。</div></p>
   <p><div style = ""color: white;font-size:25px;"">如果您未见过上述内容，请咨询实验员。</div></p>
   <p><div style = ""color: white;font-size:25px;"">如果您选择继续实验，则表示您已经清楚两份知情同意书的内容并同意。</div></p>
   <p><div style = ""color: pink;font-size:30px;"">请确保您记得day0的实验编号，您将在本次实验输入该编号，若您忘记，请咨询实验员后作答。</div></p>
   <p><div style = ""color: lightblue;font-size:25px;"">请您尽可能认真地作答，我们将依据您在各问卷和按键任务中的作答质量发放报酬。</div></p>
   <p> <div style = ""color: green;font-size:25px;""><按空格键至下页></div> </p>
   "," ","html-keyboard-response","0","7607","0.0-0.0","3","3","3","3","2","3","3","1","3","2","4","2","1","2","2","3","3","2","4","4","4","3","4","4","3","4","4","2","4","1","0","1","1","0","0","1","1","0","1","0","0","0","0","1","4","4","5","2","4","2","4","3","4","4","4","729238735765639170","张","565","","","","","","","","","","","","","","","","","","","","","","","","","","","","","","","","","","","","","","","","","",""
"","","","call-function","1","7608","0.0-1.0-0.0","3","3","3","3","2","3","3","1","3","2","4","2","1","2","2","3","3","2","4","4","4","3","4","4","3","4","4","2","4","1","0","1","1","0","0","1","1","0","1","0","0","0","0","1","4","4","5","2","4","2","4","3","4","4","4","729238735765639170","张","565","","","","","","","","","","","","","","","","","","","","","","","","","","","","","","","","","","","","","","","","","",""
"23352","","{""friend_name"":""张"",""ParticipantID"":""565""}","survey-html-form","2","30971","0.0-1.0-1.0","3","3","3","3","2","3","3","1","3","2","4","2","1","2","2","3","3","2","4","4","4","3","4","4","3","4","4","2","4","1","0","1","1","0","0","1","1","0","1","0","0","0","0","1","4","4","5","2","4","2","4","3","4","4","4","729238735765639170","张","565","","","","","","","","","","","","","","","","","","","","","","","","","","","","","","","","","","","","","","","","","",""
"","","","fullscreen","3","48921","0.0-2.0","3","3","3","3","2","3","3","1","3","2","4","2","1","2","2","3","3","2","4","4","4","3","4","4","3","4","4","2","4","1","0","1","1","0","0","1","1","0","1","0","0","0","0","1","4","4","5","2","4","2","4","3","4","4","4","729238735765639170","张","565","","true","{}","","","","","","","","","","","","","","","","","","","","","","","","","","","","","","","","","","","","","","",""
"35349.7000002861","","{""Q01"":""3"",""Q02"":""3"",""Q03"":""3"",""Q04"":""3"",""Q05"":""2"",""Q06"":""3"",""Q07"":""3"",""Q08"":""1"",""Q09"":""3"",""Q10"":""2""}","survey-template","4","84274","0.0-3.0","3","3","3","3","2","3","3","1","3","2","4","2","1","2","2","3","3","2","4","4","4","3","4","4","3","4","4","2","4","1","0","1","1","0","0","1","1","0","1","0","0","0","0","1","4","4","5","2","4","2","4","3","4","4","4","729238735765639170","张","565","","","","{""Q01"":""3"",""Q02"":""3"",""Q03"":""3"",""Q04"":""3"",""Q05"":""2"",""Q06"":""3"",""Q07"":""3"",""Q08"":""1"",""Q09"":""3"",""Q10"":""2""}","[0,1,2,3,4,5,6,7,8,9]","[""Q01"",""Q03"",""Q04"",""Q05"",""Q06"",""Q08"",""Q09"",""Q10"",""Q02"",""Q02"",""Q07""]","[3500.9000000953674,6476.599999904633,8220.800000190735,10244.800000190735,11613,17708.700000286102,22052.900000095367,23037.099999904633,26341,29108.800000190735,34596.7000002861]","[]","[3500.9000000953674,4716.800000190735,6476.599999904633,8220.800000190735,10244.800000190735,11613,12788.700000286102,17708.700000286102,20716.800000190735,22052.900000095367,23037.099999904633,24212.900000095367,26341,29108.800000190735,30436.599999904633,33348.7000002861,33940.5,34596.7000002861,35348.7000002861]","0.7","0.4444444444444444","0","","","","","","","","","","","","","","","","","","","","","","","","","","","","","",""
"21620.300000190735","","{""Q01"":""4"",""Q02"":""2"",""Q03"":""1"",""Q04"":""2"",""Q05"":""2"",""Q06"":""3"",""Q07"":""3"",""Q08"":""2"",""Q09"":""4"",""Q10"":""4""}","survey-template","5","105898","0.0-4.0","3","3","3","3","2","3","3","1","3","2","4","2","1","2","2","3","3","2","4","4","4","3","4","4","3","4","4","2","4","1","0","1","1","0","0","1","1","0","1","0","0","0","0","1","4","4","5","2","4","2","4","3","4","4","4","729238735765639170","张","565","","","","{""Q01"":""4"",""Q02"":""2"",""Q03"":""1"",""Q04"":""2"",""Q05"":""2"",""Q06"":""3"",""Q07"":""3"",""Q08"":""2"",""Q09"":""4"",""Q10"":""4""}","[0,1,2,3,4,5,6,7,8,9]","[""Q01"",""Q02"",""Q03"",""Q04"",""Q05"",""Q06"",""Q07"",""Q07"",""Q08"",""Q09"",""Q10""]","[3746.9000000953674,6451.5,7611.60000038147,11387.200000286102,12443.200000286102,13267.300000190735,14099,17083.200000286102,18331.5,19323.200000286102,20890.700000286102]","[]","[3746.9000000953674,6451.5,7611.60000038147,10003.60000038147,11387.200000286102,12443.200000286102,13267.300000190735,14099,17083.200000286102,18331.5,19323.200000286102,20890.700000286102,21619.300000190735]","0.5","0.3333333333333333","0","","","","","","","","","","","","","","","","","","","","","","","","","","","","","",""
"","","","preload","6","106348","0.0-5.0","3","3","3","3","2","3","3","1","3","2","4","2","1","2","2","3","3","2","4","4","4","3","4","4","3","4","4","2","4","1","0","1","1","0","0","1","1","0","1","0","0","0","0","1","4","4","5","2","4","2","4","3","4","4","4","729238735765639170","张","565","","true","","","","","","","","","","","false","[]","[]","[]","","","","","","","","","","","","","","","","","","","","","","","","","",""
"20052","","","instructions","7","126401","0.0-6.0","3","3","3","3","2","3","3","1","3","2","4","2","1","2","2","3","3","2","4","4","4","3","4","4","3","4","4","2","4","1","0","1","1","0","0","1","1","0","1","0","0","0","0","1","4","4","5","2","4","2","4","3","4","4","4","729238735765639170","张","565","","","","","","","","","","","","","","","","","[{""page_index"":0,""viewing_time"":20051}]","","","","","","","","","","","","","","","","","","","","","","","","",""
"41475","","","instructions","8","167877","0.0-7.0-0.0-0.0","3","3","3","3","2","3","3","1","3","2","4","2","1","2","2","3","3","2","4","4","4","3","4","4","3","4","4","2","4","1","0","1","1","0","0","1","1","0","1","0","0","0","0","1","4","4","5","2","4","2","4","3","4","4","4","729238735765639170","张","565","","","","","","","","","","","","","","","","","[{""page_index"":0,""viewing_time"":20215},{""page_index"":1,""viewing_time"":18466},{""page_index"":2,""viewing_time"":2795}]","","","","","","","","","","","","","","","","","","","","","","","","",""
"null","","null","psychophysics","9","170086","0.0-7.0-0.0-1.0-0.0-0.0","3","3","3","3","2","3","3","1","3","2","4","2","1","2","2","3","3","2","4","4","4","3","4","4","3","4","4","2","4","1","0","1","1","0","0","1","1","0","1","0","0","0","0","1","4","4","5","2","4","2","4","3","4","4","4","729238735765639170","张","565","","","","null","","","","","","","","","","","","","","key","null","16.6243969465649","640","396","j","false","match","img/hexagon.png","六边","六边","ALT1_1","prac_ALT1_1","","","","","","","","","","","",""
"null","<span class='add_' style='color:yellow; font-size: 70px;'> 太慢! </span>","null","html-keyboard-response","10","170600","0.0-7.0-0.0-1.0-0.0-1.0","3","3","3","3","2","3","3","1","3","2","4","2","1","2","2","3","3","2","4","4","4","3","4","4","3","4","4","2","4","1","0","1","1","0","0","1","1","0","1","0","0","0","0","1","4","4","5","2","4","2","4","3","4","4","4","729238735765639170","张","565","","","","","","","","","","","","","","","","","","","","","","","","","","","","","","feedback_test","","","","","","","","","","","",""
"709","","f","psychophysics","11","172311","0.0-7.0-0.0-1.0-0.0-0.1","3","3","3","3","2","3","3","1","3","2","4","2","1","2","2","3","3","2","4","4","4","3","4","4","3","4","4","2","4","1","0","1","1","0","0","1","1","0","1","0","0","0","0","1","4","4","5","2","4","2","4","3","4","4","4","729238735765639170","张","565","","","","nonmatch","","","","","","","","","","","","","","key","f","16.669686274509704","640","396","f","true","nonmatch","img/hexagon.png","三角","六边","ALT1_1","prac_ALT1_1","","","","","","","","","","","",""
"null","<span style='color:GreenYellow; font-size: 70px;'>正确! </span>","null","html-keyboard-response","12","172812","0.0-7.0-0.0-1.0-0.0-1.1","3","3","3","3","2","3","3","1","3","2","4","2","1","2","2","3","3","2","4","4","4","3","4","4","3","4","4","2","4","1","0","1","1","0","0","1","1","0","1","0","0","0","0","1","4","4","5","2","4","2","4","3","4","4","4","729238735765639170","张","565","","","","","","","","","","","","","","","","","","","","","","","","","","","","","","feedback_test","","","","","","","","","","","",""
"627","","j","psychophysics","13","174440","0.0-7.0-0.0-1.0-0.0-0.2","3","3","3","3","2","3","3","1","3","2","4","2","1","2","2","3","3","2","4","4","4","3","4","4","3","4","4","2","4","1","0","1","1","0","0","1","1","0","1","0","0","0","0","1","4","4","5","2","4","2","4","3","4","4","4","729238735765639170","张","565","","","","match","","","","","","","","","","","","","","key","j","16.66685416666678","640","396","j","true","match","img/square.png","方形","方形","ALT1_1","prac_ALT1_1","","","","","","","","","","","",""
"null","<span style='color:GreenYellow; font-size: 70px;'>正确! </span>","null","html-keyboard-response","14","174947","0.0-7.0-0.0-1.0-0.0-1.2","3","3","3","3","2","3","3","1","3","2","4","2","1","2","2","3","3","2","4","4","4","3","4","4","3","4","4","2","4","1","0","1","1","0","0","1","1","0","1","0","0","0","0","1","4","4","5","2","4","2","4","3","4","4","4","729238735765639170","张","565","","","","","","","","","","","","","","","","","","","","","","","","","","","","","","feedback_test","","","","","","","","","","","",""
"694","","f","psychophysics","15","176643","0.0-7.0-0.0-1.0-0.0-0.3","3","3","3","3","2","3","3","1","3","2","4","2","1","2","2","3","3","2","4","4","4","3","4","4","3","4","4","2","4","1","0","1","1","0","0","1","1","0","1","0","0","0","0","1","4","4","5","2","4","2","4","3","4","4","4","729238735765639170","张","565","","","","nonmatch","","","","","","","","","","","","","","key","f","16.665810000000057","640","396","f","true","nonmatch","img/triangle.png","椭圆","三角","ALT1_1","prac_ALT1_1","","","","","","","","","","","",""
"null","<span style='color:GreenYellow; font-size: 70px;'>正确! </span>","null","html-keyboard-response","16","177150","0.0-7.0-0.0-1.0-0.0-1.3","3","3","3","3","2","3","3","1","3","2","4","2","1","2","2","3","3","2","4","4","4","3","4","4","3","4","4","2","4","1","0","1","1","0","0","1","1","0","1","0","0","0","0","1","4","4","5","2","4","2","4","3","4","4","4","729238735765639170","张","565","","","","","","","","","","","","","","","","","","","","","","","","","","","","","","feedback_test","","","","","","","","","","","",""
"787","","j","psychophysics","17","178940","0.0-7.0-0.0-1.0-0.0-0.4","3","3","3","3","2","3","3","1","3","2","4","2","1","2","2","3","3","2","4","4","4","3","4","4","3","4","4","2","4","1","0","1","1","0","0","1","1","0","1","0","0","0","0","1","4","4","5","2","4","2","4","3","4","4","4","729238735765639170","张","565","","","","match","","","","","","","","","","","","","","key","j","16.588688679245127","640","396","f","false","nonmatch","img/hexagon.png","方形","六边","ALT1_1","prac_ALT1_1","","","","","","","","","","","",""
"null","<span style='color:red; font-size: 70px;'>错误! </span>","null","html-keyboard-response","18","179441","0.0-7.0-0.0-1.0-0.0-1.4","3","3","3","3","2","3","3","1","3","2","4","2","1","2","2","3","3","2","4","4","4","3","4","4","3","4","4","2","4","1","0","1","1","0","0","1","1","0","1","0","0","0","0","1","4","4","5","2","4","2","4","3","4","4","4","729238735765639170","张","565","","","","","","","","","","","","","","","","","","","","","","","","","","","","","","feedback_test","","","","","","","","","","","",""
"836","","f","psychophysics","19","181280","0.0-7.0-0.0-1.0-0.0-0.5","3","3","3","3","2","3","3","1","3","2","4","2","1","2","2","3","3","2","4","4","4","3","4","4","3","4","4","2","4","1","0","1","1","0","0","1","1","0","1","0","0","0","0","1","4","4","5","2","4","2","4","3","4","4","4","729238735765639170","张","565","","","","nonmatch","","","","","","","","","","","","","","key","f","16.668605504587127","640","396","f","true","nonmatch","img/triangle.png","方形","三角","ALT1_1","prac_ALT1_1","","","","","","","","","","","",""
"null","<span style='color:GreenYellow; font-size: 70px;'>正确! </span>","null","html-keyboard-response","20","181789","0.0-7.0-0.0-1.0-0.0-1.5","3","3","3","3","2","3","3","1","3","2","4","2","1","2","2","3","3","2","4","4","4","3","4","4","3","4","4","2","4","1","0","1","1","0","0","1","1","0","1","0","0","0","0","1","4","4","5","2","4","2","4","3","4","4","4","729238735765639170","张","565","","","","","","","","","","","","","","","","","","","","","","","","","","","","","","feedback_test","","","","","","","","","","","",""
"633","","j","psychophysics","21","183423","0.0-7.0-0.0-1.0-0.0-0.6","3","3","3","3","2","3","3","1","3","2","4","2","1","2","2","3","3","2","4","4","4","3","4","4","3","4","4","2","4","1","0","1","1","0","0","1","1","0","1","0","0","0","0","1","4","4","5","2","4","2","4","3","4","4","4","729238735765639170","张","565","","","","match","","","","","","","","","","","","","","key","j","16.66793814432998","640","396","j","true","match","img/ellipse.png","椭圆","椭圆","ALT1_1","prac_ALT1_1","","","","","","","","","","","",""
"null","<span style='color:GreenYellow; font-size: 70px;'>正确! </span>","null","html-keyboard-response","22","183931","0.0-7.0-0.0-1.0-0.0-1.6","3","3","3","3","2","3","3","1","3","2","4","2","1","2","2","3","3","2","4","4","4","3","4","4","3","4","4","2","4","1","0","1","1","0","0","1","1","0","1","0","0","0","0","1","4","4","5","2","4","2","4","3","4","4","4","729238735765639170","张","565","","","","","","","","","","","","","","","","","","","","","","","","","","","","","","feedback_test","","","","","","","","","","","",""
"679","","j","psychophysics","23","185612","0.0-7.0-0.0-1.0-0.0-0.7","3","3","3","3","2","3","3","1","3","2","4","2","1","2","2","3","3","2","4","4","4","3","4","4","3","4","4","2","4","1","0","1","1","0","0","1","1","0","1","0","0","0","0","1","4","4","5","2","4","2","4","3","4","4","4","729238735765639170","张","565","","","","match","","","","","","","","","","","","","","key","j","16.66944444444468","640","396","j","true","match","img/hexagon.png","六边","六边","ALT1_1","prac_ALT1_1","","","","","","","","","","","",""
"null","<span style='color:GreenYellow; font-size: 70px;'>正确! </span>","null","html-keyboard-response","24","186120","0.0-7.0-0.0-1.0-0.0-1.7","3","3","3","3","2","3","3","1","3","2","4","2","1","2","2","3","3","2","4","4","4","3","4","4","3","4","4","2","4","1","0","1","1","0","0","1","1","0","1","0","0","0","0","1","4","4","5","2","4","2","4","3","4","4","4","729238735765639170","张","565","","","","","","","","","","","","","","","","","","","","","","","","","","","","","","feedback_test","","","","","","","","","","","",""
"555","","f","psychophysics","25","187676","0.0-7.0-0.0-1.0-0.0-0.8","3","3","3","3","2","3","3","1","3","2","4","2","1","2","2","3","3","2","4","4","4","3","4","4","3","4","4","2","4","1","0","1","1","0","0","1","1","0","1","0","0","0","0","1","4","4","5","2","4","2","4","3","4","4","4","729238735765639170","张","565","","","","nonmatch","","","","","","","","","","","","","","key","f","16.594282608695643","640","396","j","false","match","img/triangle.png","三角","三角","ALT1_1","prac_ALT1_1","","","","","","","","","","","",""
"null","<span style='color:red; font-size: 70px;'>错误! </span>","null","html-keyboard-response","26","188178","0.0-7.0-0.0-1.0-0.0-1.8","3","3","3","3","2","3","3","1","3","2","4","2","1","2","2","3","3","2","4","4","4","3","4","4","3","4","4","2","4","1","0","1","1","0","0","1","1","0","1","0","0","0","0","1","4","4","5","2","4","2","4","3","4","4","4","729238735765639170","张","565","","","","","","","","","","","","","","","","","","","","","","","","","","","","","","feedback_test","","","","","","","","","","","",""
"772","","f","psychophysics","27","189953","0.0-7.0-0.0-1.0-0.0-0.9","3","3","3","3","2","3","3","1","3","2","4","2","1","2","2","3","3","2","4","4","4","3","4","4","3","4","4","2","4","1","0","1","1","0","0","1","1","0","1","0","0","0","0","1","4","4","5","2","4","2","4","3","4","4","4","729238735765639170","张","565","","","","nonmatch","","","","","","","","","","","","","","key","f","16.60828571428567","640","396","f","true","nonmatch","img/hexagon.png","椭圆","六边","ALT1_1","prac_ALT1_1","","","","","","","","","","","",""
"null","<span style='color:GreenYellow; font-size: 70px;'>正确! </span>","null","html-keyboard-response","28","190462","0.0-7.0-0.0-1.0-0.0-1.9","3","3","3","3","2","3","3","1","3","2","4","2","1","2","2","3","3","2","4","4","4","3","4","4","3","4","4","2","4","1","0","1","1","0","0","1","1","0","1","0","0","0","0","1","4","4","5","2","4","2","4","3","4","4","4","729238735765639170","张","565","","","","","","","","","","","","","","","","","","","","","","","","","","","","","","feedback_test","","","","","","","","","","","",""
"477","","j","psychophysics","29","191939","0.0-7.0-0.0-1.0-0.0-0.10","3","3","3","3","2","3","3","1","3","2","4","2","1","2","2","3","3","2","4","4","4","3","4","4","3","4","4","2","4","1","0","1","1","0","0","1","1","0","1","0","0","0","0","1","4","4","5","2","4","2","4","3","4","4","4","729238735765639170","张","565","","","","match","","","","","","","","","","","","","","key","j","16.669261363636576","640","396","j","true","match","img/triangle.png","三角","三角","ALT1_1","prac_ALT1_1","","","","","","","","","","","",""
"null","<span style='color:GreenYellow; font-size: 70px;'>正确! </span>","null","html-keyboard-response","30","192446","0.0-7.0-0.0-1.0-0.0-1.10","3","3","3","3","2","3","3","1","3","2","4","2","1","2","2","3","3","2","4","4","4","3","4","4","3","4","4","2","4","1","0","1","1","0","0","1","1","0","1","0","0","0","0","1","4","4","5","2","4","2","4","3","4","4","4","729238735765639170","张","565","","","","","","","","","","","","","","","","","","","","","","","","","","","","","","feedback_test","","","","","","","","","","","",""
"685","","j","psychophysics","31","194133","0.0-7.0-0.0-1.0-0.0-0.11","3","3","3","3","2","3","3","1","3","2","4","2","1","2","2","3","3","2","4","4","4","3","4","4","3","4","4","2","4","1","0","1","1","0","0","1","1","0","1","0","0","0","0","1","4","4","5","2","4","2","4","3","4","4","4","729238735765639170","张","565","","","","match","","","","","","","","","","","","","","key","j","16.66518000000011","640","396","j","true","match","img/triangle.png","三角","三角","ALT1_1","prac_ALT1_1","","","","","","","","","","","",""
"null","<span style='color:GreenYellow; font-size: 70px;'>正确! </span>","null","html-keyboard-response","32","194634","0.0-7.0-0.0-1.0-0.0-1.11","3","3","3","3","2","3","3","1","3","2","4","2","1","2","2","3","3","2","4","4","4","3","4","4","3","4","4","2","4","1","0","1","1","0","0","1","1","0","1","0","0","0","0","1","4","4","5","2","4","2","4","3","4","4","4","729238735765639170","张","565","","","","","","","","","","","","","","","","","","","","","","","","","","","","","","feedback_test","","","","","","","","","","","",""
"804","","f","psychophysics","33","196440","0.0-7.0-0.0-1.0-0.0-0.12","3","3","3","3","2","3","3","1","3","2","4","2","1","2","2","3","3","2","4","4","4","3","4","4","3","4","4","2","4","1","0","1","1","0","0","1","1","0","1","0","0","0","0","1","4","4","5","2","4","2","4","3","4","4","4","729238735765639170","张","565","","","","nonmatch","","","","","","","","","","","","","","key","f","16.666523364485975","640","396","f","true","nonmatch","img/ellipse.png","六边","椭圆","ALT1_1","prac_ALT1_1","","","","","","","","","","","",""
"null","<span style='color:GreenYellow; font-size: 70px;'>正确! </span>","null","html-keyboard-response","34","196948","0.0-7.0-0.0-1.0-0.0-1.12","3","3","3","3","2","3","3","1","3","2","4","2","1","2","2","3","3","2","4","4","4","3","4","4","3","4","4","2","4","1","0","1","1","0","0","1","1","0","1","0","0","0","0","1","4","4","5","2","4","2","4","3","4","4","4","729238735765639170","张","565","","","","","","","","","","","","","","","","","","","","","","","","","","","","","","feedback_test","","","","","","","","","","","",""
"646","","j","psychophysics","35","198596","0.0-7.0-0.0-1.0-0.0-0.13","3","3","3","3","2","3","3","1","3","2","4","2","1","2","2","3","3","2","4","4","4","3","4","4","3","4","4","2","4","1","0","1","1","0","0","1","1","0","1","0","0","0","0","1","4","4","5","2","4","2","4","3","4","4","4","729238735765639170","张","565","","","","match","","","","","","","","","","","","","","key","j","16.60285567010323","640","396","j","true","match","img/ellipse.png","椭圆","椭圆","ALT1_1","prac_ALT1_1","","","","","","","","","","","",""
"null","<span style='color:GreenYellow; font-size: 70px;'>正确! </span>","null","html-keyboard-response","36","199111","0.0-7.0-0.0-1.0-0.0-1.13","3","3","3","3","2","3","3","1","3","2","4","2","1","2","2","3","3","2","4","4","4","3","4","4","3","4","4","2","4","1","0","1","1","0","0","1","1","0","1","0","0","0","0","1","4","4","5","2","4","2","4","3","4","4","4","729238735765639170","张","565","","","","","","","","","","","","","","","","","","","","","","","","","","","","","","feedback_test","","","","","","","","","","","",""
"628","","j","psychophysics","37","200743","0.0-7.0-0.0-1.0-0.0-0.14","3","3","3","3","2","3","3","1","3","2","4","2","1","2","2","3","3","2","4","4","4","3","4","4","3","4","4","2","4","1","0","1","1","0","0","1","1","0","1","0","0","0","0","1","4","4","5","2","4","2","4","3","4","4","4","729238735765639170","张","565","","","","match","","","","","","","","","","","","","","key","j","16.669123711340195","640","396","j","true","match","img/square.png","方形","方形","ALT1_1","prac_ALT1_1","","","","","","","","","","","",""
"null","<span style='color:GreenYellow; font-size: 70px;'>正确! </span>","null","html-keyboard-response","38","201248","0.0-7.0-0.0-1.0-0.0-1.14","3","3","3","3","2","3","3","1","3","2","4","2","1","2","2","3","3","2","4","4","4","3","4","4","3","4","4","2","4","1","0","1","1","0","0","1","1","0","1","0","0","0","0","1","4","4","5","2","4","2","4","3","4","4","4","729238735765639170","张","565","","","","","","","","","","","","","","","","","","","","","","","","","","","","","","feedback_test","","","","","","","","","","","",""
"842","","f","psychophysics","39","203092","0.0-7.0-0.0-1.0-0.0-0.15","3","3","3","3","2","3","3","1","3","2","4","2","1","2","2","3","3","2","4","4","4","3","4","4","3","4","4","2","4","1","0","1","1","0","0","1","1","0","1","0","0","0","0","1","4","4","5","2","4","2","4","3","4","4","4","729238735765639170","张","565","","","","nonmatch","","","","","","","","","","","","","","key","f","16.66560550458722","640","396","f","true","nonmatch","img/square.png","三角","方形","ALT1_1","prac_ALT1_1","","","","","","","","","","","",""
"null","<span style='color:GreenYellow; font-size: 70px;'>正确! </span>","null","html-keyboard-response","40","203597","0.0-7.0-0.0-1.0-0.0-1.15","3","3","3","3","2","3","3","1","3","2","4","2","1","2","2","3","3","2","4","4","4","3","4","4","3","4","4","2","4","1","0","1","1","0","0","1","1","0","1","0","0","0","0","1","4","4","5","2","4","2","4","3","4","4","4","729238735765639170","张","565","","","","","","","","","","","","","","","","","","","","","","","","","","","","","","feedback_test","","","","","","","","","","","",""
"529","","j","psychophysics","41","205128","0.0-7.0-0.0-1.0-0.0-0.16","3","3","3","3","2","3","3","1","3","2","4","2","1","2","2","3","3","2","4","4","4","3","4","4","3","4","4","2","4","1","0","1","1","0","0","1","1","0","1","0","0","0","0","1","4","4","5","2","4","2","4","3","4","4","4","729238735765639170","张","565","","","","match","","","","","","","","","","","","","","key","j","16.60158888888901","640","396","j","true","match","img/square.png","方形","方形","ALT1_1","prac_ALT1_1","","","","","","","","","","","",""
"null","<span style='color:GreenYellow; font-size: 70px;'>正确! </span>","null","html-keyboard-response","42","205632","0.0-7.0-0.0-1.0-0.0-1.16","3","3","3","3","2","3","3","1","3","2","4","2","1","2","2","3","3","2","4","4","4","3","4","4","3","4","4","2","4","1","0","1","1","0","0","1","1","0","1","0","0","0","0","1","4","4","5","2","4","2","4","3","4","4","4","729238735765639170","张","565","","","","","","","","","","","","","","","","","","","","","","","","","","","","","","feedback_test","","","","","","","","","","","",""
"555","","j","psychophysics","43","207189","0.0-7.0-0.0-1.0-0.0-0.17","3","3","3","3","2","3","3","1","3","2","4","2","1","2","2","3","3","2","4","4","4","3","4","4","3","4","4","2","4","1","0","1","1","0","0","1","1","0","1","0","0","0","0","1","4","4","5","2","4","2","4","3","4","4","4","729238735765639170","张","565","","","","match","","","","","","","","","","","","","","key","j","16.601717391304113","640","396","j","true","match","img/hexagon.png","六边","六边","ALT1_1","prac_ALT1_1","","","","","","","","","","","",""
"null","<span style='color:GreenYellow; font-size: 70px;'>正确! </span>","null","html-keyboard-response","44","207700","0.0-7.0-0.0-1.0-0.0-1.17","3","3","3","3","2","3","3","1","3","2","4","2","1","2","2","3","3","2","4","4","4","3","4","4","3","4","4","2","4","1","0","1","1","0","0","1","1","0","1","0","0","0","0","1","4","4","5","2","4","2","4","3","4","4","4","729238735765639170","张","565","","","","","","","","","","","","","","","","","","","","","","","","","","","","","","feedback_test","","","","","","","","","","","",""
"842","","f","psychophysics","45","209545","0.0-7.0-0.0-1.0-0.0-0.18","3","3","3","3","2","3","3","1","3","2","4","2","1","2","2","3","3","2","4","4","4","3","4","4","3","4","4","2","4","1","0","1","1","0","0","1","1","0","1","0","0","0","0","1","4","4","5","2","4","2","4","3","4","4","4","729238735765639170","张","565","","","","nonmatch","","","","","","","","","","","","","","key","f","16.670118181818346","640","396","f","true","nonmatch","img/ellipse.png","三角","椭圆","ALT1_1","prac_ALT1_1","","","","","","","","","","","",""
"null","<span style='color:GreenYellow; font-size: 70px;'>正确! </span>","null","html-keyboard-response","46","210051","0.0-7.0-0.0-1.0-0.0-1.18","3","3","3","3","2","3","3","1","3","2","4","2","1","2","2","3","3","2","4","4","4","3","4","4","3","4","4","2","4","1","0","1","1","0","0","1","1","0","1","0","0","0","0","1","4","4","5","2","4","2","4","3","4","4","4","729238735765639170","张","565","","","","","","","","","","","","","","","","","","","","","","","","","","","","","","feedback_test","","","","","","","","","","","",""
"653","","f","psychophysics","47","211705","0.0-7.0-0.0-1.0-0.0-0.19","3","3","3","3","2","3","3","1","3","2","4","2","1","2","2","3","3","2","4","4","4","3","4","4","3","4","4","2","4","1","0","1","1","0","0","1","1","0","1","0","0","0","0","1","4","4","5","2","4","2","4","3","4","4","4","729238735765639170","张","565","","","","nonmatch","","","","","","","","","","","","","","key","f","16.604591836734695","640","396","f","true","nonmatch","img/ellipse.png","方形","椭圆","ALT1_1","prac_ALT1_1","","","","","","","","","","","",""
"null","<span style='color:GreenYellow; font-size: 70px;'>正确! </span>","null","html-keyboard-response","48","212212","0.0-7.0-0.0-1.0-0.0-1.19","3","3","3","3","2","3","3","1","3","2","4","2","1","2","2","3","3","2","4","4","4","3","4","4","3","4","4","2","4","1","0","1","1","0","0","1","1","0","1","0","0","0","0","1","4","4","5","2","4","2","4","3","4","4","4","729238735765639170","张","565","","","","","","","","","","","","","","","","","","","","","","","","","","","","","","feedback_test","","","","","","","","","","","",""
"701","","j","psychophysics","49","213915","0.0-7.0-0.0-1.0-0.0-0.20","3","3","3","3","2","3","3","1","3","2","4","2","1","2","2","3","3","2","4","4","4","3","4","4","3","4","4","2","4","1","0","1","1","0","0","1","1","0","1","0","0","0","0","1","4","4","5","2","4","2","4","3","4","4","4","729238735765639170","张","565","","","","match","","","","","","","","","","","","","","key","j","16.666138613861374","640","396","f","false","nonmatch","img/square.png","六边","方形","ALT1_1","prac_ALT1_1","","","","","","","","","","","",""
"null","<span style='color:red; font-size: 70px;'>错误! </span>","null","html-keyboard-response","50","214420","0.0-7.0-0.0-1.0-0.0-1.20","3","3","3","3","2","3","3","1","3","2","4","2","1","2","2","3","3","2","4","4","4","3","4","4","3","4","4","2","4","1","0","1","1","0","0","1","1","0","1","0","0","0","0","1","4","4","5","2","4","2","4","3","4","4","4","729238735765639170","张","565","","","","","","","","","","","","","","","","","","","","","","","","","","","","","","feedback_test","","","","","","","","","","","",""
"521","","j","psychophysics","51","215949","0.0-7.0-0.0-1.0-0.0-0.21","3","3","3","3","2","3","3","1","3","2","4","2","1","2","2","3","3","2","4","4","4","3","4","4","3","4","4","2","4","1","0","1","1","0","0","1","1","0","1","0","0","0","0","1","4","4","5","2","4","2","4","3","4","4","4","729238735765639170","张","565","","","","match","","","","","","","","","","","","","","key","j","16.66691208791223","640","396","f","false","nonmatch","img/triangle.png","六边","三角","ALT1_1","prac_ALT1_1","","","","","","","","","","","",""
"null","<span style='color:red; font-size: 70px;'>错误! </span>","null","html-keyboard-response","52","216456","0.0-7.0-0.0-1.0-0.0-1.21","3","3","3","3","2","3","3","1","3","2","4","2","1","2","2","3","3","2","4","4","4","3","4","4","3","4","4","2","4","1","0","1","1","0","0","1","1","0","1","0","0","0","0","1","4","4","5","2","4","2","4","3","4","4","4","729238735765639170","张","565","","","","","","","","","","","","","","","","","","","","","","","","","","","","","","feedback_test","","","","","","","","","","","",""
"533","","j","psychophysics","53","217990","0.0-7.0-0.0-1.0-0.0-0.22","3","3","3","3","2","3","3","1","3","2","4","2","1","2","2","3","3","2","4","4","4","3","4","4","3","4","4","2","4","1","0","1","1","0","0","1","1","0","1","0","0","0","0","1","4","4","5","2","4","2","4","3","4","4","4","729238735765639170","张","565","","","","match","","","","","","","","","","","","","","key","j","16.601044444444252","640","396","j","true","match","img/ellipse.png","椭圆","椭圆","ALT1_1","prac_ALT1_1","","","","","","","","","","","",""
"null","<span style='color:GreenYellow; font-size: 70px;'>正确! </span>","null","html-keyboard-response","54","218497","0.0-7.0-0.0-1.0-0.0-1.22","3","3","3","3","2","3","3","1","3","2","4","2","1","2","2","3","3","2","4","4","4","3","4","4","3","4","4","2","4","1","0","1","1","0","0","1","1","0","1","0","0","0","0","1","4","4","5","2","4","2","4","3","4","4","4","729238735765639170","张","565","","","","","","","","","","","","","","","","","","","","","","","","","","","","","","feedback_test","","","","","","","","","","","",""
"577","","f","psychophysics","55","220076","0.0-7.0-0.0-1.0-0.0-0.23","3","3","3","3","2","3","3","1","3","2","4","2","1","2","2","3","3","2","4","4","4","3","4","4","3","4","4","2","4","1","0","1","1","0","0","1","1","0","1","0","0","0","0","1","4","4","5","2","4","2","4","3","4","4","4","729238735765639170","张","565","","","","nonmatch","","","","","","","","","","","","","","key","f","16.670765957446765","640","396","f","true","nonmatch","img/square.png","椭圆","方形","ALT1_1","prac_ALT1_1","","","","","","","","","","","",""
"null","<span style='color:GreenYellow; font-size: 70px;'>正确! </span>","null","html-keyboard-response","56","220577","0.0-7.0-0.0-1.0-0.0-1.23","3","3","3","3","2","3","3","1","3","2","4","2","1","2","2","3","3","2","4","4","4","3","4","4","3","4","4","2","4","1","0","1","1","0","0","1","1","0","1","0","0","0","0","1","4","4","5","2","4","2","4","3","4","4","4","729238735765639170","张","565","","","","","","","","","","","","","","","","","","","","","","","","","","","","","","feedback_test","","","","","","","","","","","",""
"744","","j","psychophysics","57","222323","0.0-7.0-0.0-1.0-0.0-0.24","3","3","3","3","2","3","3","1","3","2","4","2","1","2","2","3","3","2","4","4","4","3","4","4","3","4","4","2","4","1","0","1","1","0","0","1","1","0","1","0","0","0","0","1","4","4","5","2","4","2","4","3","4","4","4","729238735765639170","张","565","","","","match","","","","","","","","","","","","","","key","j","16.668615384615315","640","396","j","true","match","img/square.png","方形","方形","ALT1_1","prac_ALT1_1","","","","","","","","","","","",""
"null","<span style='color:GreenYellow; font-size: 70px;'>正确! </span>","null","html-keyboard-response","58","222824","0.0-7.0-0.0-1.0-0.0-1.24","3","3","3","3","2","3","3","1","3","2","4","2","1","2","2","3","3","2","4","4","4","3","4","4","3","4","4","2","4","1","0","1","1","0","0","1","1","0","1","0","0","0","0","1","4","4","5","2","4","2","4","3","4","4","4","729238735765639170","张","565","","","","","","","","","","","","","","","","","","","","","","","","","","","","","","feedback_test","","","","","","","","","","","",""
"594","","f","psychophysics","59","224420","0.0-7.0-0.0-1.0-0.0-0.25","3","3","3","3","2","3","3","1","3","2","4","2","1","2","2","3","3","2","4","4","4","3","4","4","3","4","4","2","4","1","0","1","1","0","0","1","1","0","1","0","0","0","0","1","4","4","5","2","4","2","4","3","4","4","4","729238735765639170","张","565","","","","nonmatch","","","","","","","","","","","","","","key","f","16.66640425531907","640","396","f","true","nonmatch","img/square.png","椭圆","方形","ALT1_1","prac_ALT1_1","","","","","","","","","","","",""
"null","<span style='color:GreenYellow; font-size: 70px;'>正确! </span>","null","html-keyboard-response","60","224922","0.0-7.0-0.0-1.0-0.0-1.25","3","3","3","3","2","3","3","1","3","2","4","2","1","2","2","3","3","2","4","4","4","3","4","4","3","4","4","2","4","1","0","1","1","0","0","1","1","0","1","0","0","0","0","1","4","4","5","2","4","2","4","3","4","4","4","729238735765639170","张","565","","","","","","","","","","","","","","","","","","","","","","","","","","","","","","feedback_test","","","","","","","","","","","",""
"493","","j","psychophysics","61","226418","0.0-7.0-0.0-1.0-0.0-0.26","3","3","3","3","2","3","3","1","3","2","4","2","1","2","2","3","3","2","4","4","4","3","4","4","3","4","4","2","4","1","0","1","1","0","0","1","1","0","1","0","0","0","0","1","4","4","5","2","4","2","4","3","4","4","4","729238735765639170","张","565","","","","match","","","","","","","","","","","","","","key","j","16.667752808988684","640","396","j","true","match","img/hexagon.png","六边","六边","ALT1_1","prac_ALT1_1","","","","","","","","","","","",""
"null","<span style='color:GreenYellow; font-size: 70px;'>正确! </span>","null","html-keyboard-response","62","226922","0.0-7.0-0.0-1.0-0.0-1.26","3","3","3","3","2","3","3","1","3","2","4","2","1","2","2","3","3","2","4","4","4","3","4","4","3","4","4","2","4","1","0","1","1","0","0","1","1","0","1","0","0","0","0","1","4","4","5","2","4","2","4","3","4","4","4","729238735765639170","张","565","","","","","","","","","","","","","","","","","","","","","","","","","","","","","","feedback_test","","","","","","","","","","","",""
"532","","f","psychophysics","63","228456","0.0-7.0-0.0-1.0-0.0-0.27","3","3","3","3","2","3","3","1","3","2","4","2","1","2","2","3","3","2","4","4","4","3","4","4","3","4","4","2","4","1","0","1","1","0","0","1","1","0","1","0","0","0","0","1","4","4","5","2","4","2","4","3","4","4","4","729238735765639170","张","565","","","","nonmatch","","","","","","","","","","","","","","key","f","16.60143333333318","640","396","f","true","nonmatch","img/ellipse.png","三角","椭圆","ALT1_1","prac_ALT1_1","","","","","","","","","","","",""
"null","<span style='color:GreenYellow; font-size: 70px;'>正确! </span>","null","html-keyboard-response","64","228966","0.0-7.0-0.0-1.0-0.0-1.27","3","3","3","3","2","3","3","1","3","2","4","2","1","2","2","3","3","2","4","4","4","3","4","4","3","4","4","2","4","1","0","1","1","0","0","1","1","0","1","0","0","0","0","1","4","4","5","2","4","2","4","3","4","4","4","729238735765639170","张","565","","","","","","","","","","","","","","","","","","","","","","","","","","","","","","feedback_test","","","","","","","","","","","",""
"642","","j","psychophysics","65","230610","0.0-7.0-0.0-1.0-0.0-0.28","3","3","3","3","2","3","3","1","3","2","4","2","1","2","2","3","3","2","4","4","4","3","4","4","3","4","4","2","4","1","0","1","1","0","0","1","1","0","1","0","0","0","0","1","4","4","5","2","4","2","4","3","4","4","4","729238735765639170","张","565","","","","match","","","","","","","","","","","","","","key","j","16.66611340206168","640","396","f","false","nonmatch","img/triangle.png","六边","三角","ALT1_1","prac_ALT1_1","","","","","","","","","","","",""
"null","<span style='color:red; font-size: 70px;'>错误! </span>","null","html-keyboard-response","66","231121","0.0-7.0-0.0-1.0-0.0-1.28","3","3","3","3","2","3","3","1","3","2","4","2","1","2","2","3","3","2","4","4","4","3","4","4","3","4","4","2","4","1","0","1","1","0","0","1","1","0","1","0","0","0","0","1","4","4","5","2","4","2","4","3","4","4","4","729238735765639170","张","565","","","","","","","","","","","","","","","","","","","","","","","","","","","","","","feedback_test","","","","","","","","","","","",""
"615","","f","psychophysics","67","232738","0.0-7.0-0.0-1.0-0.0-0.29","3","3","3","3","2","3","3","1","3","2","4","2","1","2","2","3","3","2","4","4","4","3","4","4","3","4","4","2","4","1","0","1","1","0","0","1","1","0","1","0","0","0","0","1","4","4","5","2","4","2","4","3","4","4","4","729238735765639170","张","565","","","","nonmatch","","","","","","","","","","","","","","key","f","16.666368421052557","640","396","f","true","nonmatch","img/square.png","三角","方形","ALT1_1","prac_ALT1_1","","","","","","","","","","","",""
"null","<span style='color:GreenYellow; font-size: 70px;'>正确! </span>","null","html-keyboard-response","68","233242","0.0-7.0-0.0-1.0-0.0-1.29","3","3","3","3","2","3","3","1","3","2","4","2","1","2","2","3","3","2","4","4","4","3","4","4","3","4","4","2","4","1","0","1","1","0","0","1","1","0","1","0","0","0","0","1","4","4","5","2","4","2","4","3","4","4","4","729238735765639170","张","565","","","","","","","","","","","","","","","","","","","","","","","","","","","","","","feedback_test","","","","","","","","","","","",""
"745","","j","psychophysics","69","234989","0.0-7.0-0.0-1.0-0.0-0.30","3","3","3","3","2","3","3","1","3","2","4","2","1","2","2","3","3","2","4","4","4","3","4","4","3","4","4","2","4","1","0","1","1","0","0","1","1","0","1","0","0","0","0","1","4","4","5","2","4","2","4","3","4","4","4","729238735765639170","张","565","","","","match","","","","","","","","","","","","","","key","j","16.668586538461497","640","396","j","true","match","img/square.png","方形","方形","ALT1_1","prac_ALT1_1","","","","","","","","","","","",""
"null","<span style='color:GreenYellow; font-size: 70px;'>正确! </span>","null","html-keyboard-response","70","235494","0.0-7.0-0.0-1.0-0.0-1.30","3","3","3","3","2","3","3","1","3","2","4","2","1","2","2","3","3","2","4","4","4","3","4","4","3","4","4","2","4","1","0","1","1","0","0","1","1","0","1","0","0","0","0","1","4","4","5","2","4","2","4","3","4","4","4","729238735765639170","张","565","","","","","","","","","","","","","","","","","","","","","","","","","","","","","","feedback_test","","","","","","","","","","","",""
"622","","j","psychophysics","71","237117","0.0-7.0-0.0-1.0-0.0-0.31","3","3","3","3","2","3","3","1","3","2","4","2","1","2","2","3","3","2","4","4","4","3","4","4","3","4","4","2","4","1","0","1","1","0","0","1","1","0","1","0","0","0","0","1","4","4","5","2","4","2","4","3","4","4","4","729238735765639170","张","565","","","","match","","","","","","","","","","","","","","key","j","16.66859375000028","640","396","j","true","match","img/triangle.png","三角","三角","ALT1_1","prac_ALT1_1","","","","","","","","","","","",""
"null","<span style='color:GreenYellow; font-size: 70px;'>正确! </span>","null","html-keyboard-response","72","237626","0.0-7.0-0.0-1.0-0.0-1.31","3","3","3","3","2","3","3","1","3","2","4","2","1","2","2","3","3","2","4","4","4","3","4","4","3","4","4","2","4","1","0","1","1","0","0","1","1","0","1","0","0","0","0","1","4","4","5","2","4","2","4","3","4","4","4","729238735765639170","张","565","","","","","","","","","","","","","","","","","","","","","","","","","","","","","","feedback_test","","","","","","","","","","","",""
"1170","","f","psychophysics","73","239798","0.0-7.0-0.0-1.0-0.0-0.32","3","3","3","3","2","3","3","1","3","2","4","2","1","2","2","3","3","2","4","4","4","3","4","4","3","4","4","2","4","1","0","1","1","0","0","1","1","0","1","0","0","0","0","1","4","4","5","2","4","2","4","3","4","4","4","729238735765639170","张","565","","","","nonmatch","","","","","","","","","","","","","","key","f","16.66873846153836","640","396","f","true","nonmatch","img/hexagon.png","方形","六边","ALT1_1","prac_ALT1_1","","","","","","","","","","","",""
"null","<span style='color:GreenYellow; font-size: 70px;'>正确! </span>","null","html-keyboard-response","74","240299","0.0-7.0-0.0-1.0-0.0-1.32","3","3","3","3","2","3","3","1","3","2","4","2","1","2","2","3","3","2","4","4","4","3","4","4","3","4","4","2","4","1","0","1","1","0","0","1","1","0","1","0","0","0","0","1","4","4","5","2","4","2","4","3","4","4","4","729238735765639170","张","565","","","","","","","","","","","","","","","","","","","","","","","","","","","","","","feedback_test","","","","","","","","","","","",""
"532","","j","psychophysics","75","241833","0.0-7.0-0.0-1.0-0.0-0.33","3","3","3","3","2","3","3","1","3","2","4","2","1","2","2","3","3","2","4","4","4","3","4","4","3","4","4","2","4","1","0","1","1","0","0","1","1","0","1","0","0","0","0","1","4","4","5","2","4","2","4","3","4","4","4","729238735765639170","张","565","","","","match","","","","","","","","","","","","","","key","j","16.66864835164845","640","396","j","true","match","img/triangle.png","三角","三角","ALT1_1","prac_ALT1_1","","","","","","","","","","","",""
"null","<span style='color:GreenYellow; font-size: 70px;'>正确! </span>","null","html-keyboard-response","76","242334","0.0-7.0-0.0-1.0-0.0-1.33","3","3","3","3","2","3","3","1","3","2","4","2","1","2","2","3","3","2","4","4","4","3","4","4","3","4","4","2","4","1","0","1","1","0","0","1","1","0","1","0","0","0","0","1","4","4","5","2","4","2","4","3","4","4","4","729238735765639170","张","565","","","","","","","","","","","","","","","","","","","","","","","","","","","","","","feedback_test","","","","","","","","","","","",""
"704","","j","psychophysics","77","244040","0.0-7.0-0.0-1.0-0.0-0.34","3","3","3","3","2","3","3","1","3","2","4","2","1","2","2","3","3","2","4","4","4","3","4","4","3","4","4","2","4","1","0","1","1","0","0","1","1","0","1","0","0","0","0","1","4","4","5","2","4","2","4","3","4","4","4","729238735765639170","张","565","","","","match","","","","","","","","","","","","","","key","j","16.60739603960376","640","396","j","true","match","img/ellipse.png","椭圆","椭圆","ALT1_1","prac_ALT1_1","","","","","","","","","","","",""
"null","<span style='color:GreenYellow; font-size: 70px;'>正确! </span>","null","html-keyboard-response","78","244544","0.0-7.0-0.0-1.0-0.0-1.34","3","3","3","3","2","3","3","1","3","2","4","2","1","2","2","3","3","2","4","4","4","3","4","4","3","4","4","2","4","1","0","1","1","0","0","1","1","0","1","0","0","0","0","1","4","4","5","2","4","2","4","3","4","4","4","729238735765639170","张","565","","","","","","","","","","","","","","","","","","","","","","","","","","","","","","feedback_test","","","","","","","","","","","",""
"588","","j","psychophysics","79","246139","0.0-7.0-0.0-1.0-0.0-0.35","3","3","3","3","2","3","3","1","3","2","4","2","1","2","2","3","3","2","4","4","4","3","4","4","3","4","4","2","4","1","0","1","1","0","0","1","1","0","1","0","0","0","0","1","4","4","5","2","4","2","4","3","4","4","4","729238735765639170","张","565","","","","match","","","","","","","","","","","","","","key","j","16.665136842105206","640","396","j","true","match","img/hexagon.png","六边","六边","ALT1_1","prac_ALT1_1","","","","","","","","","","","",""
"null","<span style='color:GreenYellow; font-size: 70px;'>正确! </span>","null","html-keyboard-response","80","246644","0.0-7.0-0.0-1.0-0.0-1.35","3","3","3","3","2","3","3","1","3","2","4","2","1","2","2","3","3","2","4","4","4","3","4","4","3","4","4","2","4","1","0","1","1","0","0","1","1","0","1","0","0","0","0","1","4","4","5","2","4","2","4","3","4","4","4","729238735765639170","张","565","","","","","","","","","","","","","","","","","","","","","","","","","","","","","","feedback_test","","","","","","","","","","","",""
"606","","f","psychophysics","81","248253","0.0-7.0-0.0-1.0-0.0-0.36","3","3","3","3","2","3","3","1","3","2","4","2","1","2","2","3","3","2","4","4","4","3","4","4","3","4","4","2","4","1","0","1","1","0","0","1","1","0","1","0","0","0","0","1","4","4","5","2","4","2","4","3","4","4","4","729238735765639170","张","565","","","","nonmatch","","","","","","","","","","","","","","key","f","16.668072916666762","640","396","j","false","match","img/ellipse.png","椭圆","椭圆","ALT1_1","prac_ALT1_1","","","","","","","","","","","",""
"null","<span style='color:red; font-size: 70px;'>错误! </span>","null","html-keyboard-response","82","248754","0.0-7.0-0.0-1.0-0.0-1.36","3","3","3","3","2","3","3","1","3","2","4","2","1","2","2","3","3","2","4","4","4","3","4","4","3","4","4","2","4","1","0","1","1","0","0","1","1","0","1","0","0","0","0","1","4","4","5","2","4","2","4","3","4","4","4","729238735765639170","张","565","","","","","","","","","","","","","","","","","","","","","","","","","","","","","","feedback_test","","","","","","","","","","","",""
"492","","j","psychophysics","83","250247","0.0-7.0-0.0-1.0-0.0-0.37","3","3","3","3","2","3","3","1","3","2","4","2","1","2","2","3","3","2","4","4","4","3","4","4","3","4","4","2","4","1","0","1","1","0","0","1","1","0","1","0","0","0","0","1","4","4","5","2","4","2","4","3","4","4","4","729238735765639170","张","565","","","","match","","","","","","","","","","","","","","key","j","16.598681818181912","640","396","j","true","match","img/ellipse.png","椭圆","椭圆","ALT1_1","prac_ALT1_1","","","","","","","","","","","",""
"null","<span style='color:GreenYellow; font-size: 70px;'>正确! </span>","null","html-keyboard-response","84","250753","0.0-7.0-0.0-1.0-0.0-1.37","3","3","3","3","2","3","3","1","3","2","4","2","1","2","2","3","3","2","4","4","4","3","4","4","3","4","4","2","4","1","0","1","1","0","0","1","1","0","1","0","0","0","0","1","4","4","5","2","4","2","4","3","4","4","4","729238735765639170","张","565","","","","","","","","","","","","","","","","","","","","","","","","","","","","","","feedback_test","","","","","","","","","","","",""
"null","","null","psychophysics","85","252972","0.0-7.0-0.0-1.0-0.0-0.38","3","3","3","3","2","3","3","1","3","2","4","2","1","2","2","3","3","2","4","4","4","3","4","4","3","4","4","2","4","1","0","1","1","0","0","1","1","0","1","0","0","0","0","1","4","4","5","2","4","2","4","3","4","4","4","729238735765639170","张","565","","","","null","","","","","","","","","","","","","","key","null","16.620893129770987","640","396","f","false","nonmatch","img/hexagon.png","椭圆","六边","ALT1_1","prac_ALT1_1","","","","","","","","","","","",""
"null","<span class='add_' style='color:yellow; font-size: 70px;'> 太慢! </span>","null","html-keyboard-response","86","253481","0.0-7.0-0.0-1.0-0.0-1.38","3","3","3","3","2","3","3","1","3","2","4","2","1","2","2","3","3","2","4","4","4","3","4","4","3","4","4","2","4","1","0","1","1","0","0","1","1","0","1","0","0","0","0","1","4","4","5","2","4","2","4","3","4","4","4","729238735765639170","张","565","","","","","","","","","","","","","","","","","","","","","","","","","","","","","","feedback_test","","","","","","","","","","","",""
"626","","j","psychophysics","87","255110","0.0-7.0-0.0-1.0-0.0-0.39","3","3","3","3","2","3","3","1","3","2","4","2","1","2","2","3","3","2","4","4","4","3","4","4","3","4","4","2","4","1","0","1","1","0","0","1","1","0","1","0","0","0","0","1","4","4","5","2","4","2","4","3","4","4","4","729238735765639170","张","565","","","","match","","","","","","","","","","","","","","key","j","16.6662291666665","640","396","f","false","nonmatch","img/ellipse.png","六边","椭圆","ALT1_1","prac_ALT1_1","","","","","","","","","","","",""
"null","<span style='color:red; font-size: 70px;'>错误! </span>","null","html-keyboard-response","88","255612","0.0-7.0-0.0-1.0-0.0-1.39","3","3","3","3","2","3","3","1","3","2","4","2","1","2","2","3","3","2","4","4","4","3","4","4","3","4","4","2","4","1","0","1","1","0","0","1","1","0","1","0","0","0","0","1","4","4","5","2","4","2","4","3","4","4","4","729238735765639170","张","565","","","","","","","","","","","","","","","","","","","","","","","","","","","","","","feedback_test","","","","","","","","","","","",""
"752","","f","psychophysics","89","257365","0.0-7.0-0.0-1.0-0.0-0.40","3","3","3","3","2","3","3","1","3","2","4","2","1","2","2","3","3","2","4","4","4","3","4","4","3","4","4","2","4","1","0","1","1","0","0","1","1","0","1","0","0","0","0","1","4","4","5","2","4","2","4","3","4","4","4","729238735765639170","张","565","","","","nonmatch","","","","","","","","","","","","","","key","f","16.611192307692153","640","396","f","true","nonmatch","img/square.png","六边","方形","ALT1_1","prac_ALT1_1","","","","","","","","","","","",""
"null","<span style='color:GreenYellow; font-size: 70px;'>正确! </span>","null","html-keyboard-response","90","257873","0.0-7.0-0.0-1.0-0.0-1.40","3","3","3","3","2","3","3","1","3","2","4","2","1","2","2","3","3","2","4","4","4","3","4","4","3","4","4","2","4","1","0","1","1","0","0","1","1","0","1","0","0","0","0","1","4","4","5","2","4","2","4","3","4","4","4","729238735765639170","张","565","","","","","","","","","","","","","","","","","","","","","","","","","","","","","","feedback_test","","","","","","","","","","","",""
"642","","j","psychophysics","91","259517","0.0-7.0-0.0-1.0-0.0-0.41","3","3","3","3","2","3","3","1","3","2","4","2","1","2","2","3","3","2","4","4","4","3","4","4","3","4","4","2","4","1","0","1","1","0","0","1","1","0","1","0","0","0","0","1","4","4","5","2","4","2","4","3","4","4","4","729238735765639170","张","565","","","","match","","","","","","","","","","","","","","key","j","16.610319587628876","640","396","j","true","match","img/square.png","方形","方形","ALT1_1","prac_ALT1_1","","","","","","","","","","","",""
"null","<span style='color:GreenYellow; font-size: 70px;'>正确! </span>","null","html-keyboard-response","92","260030","0.0-7.0-0.0-1.0-0.0-1.41","3","3","3","3","2","3","3","1","3","2","4","2","1","2","2","3","3","2","4","4","4","3","4","4","3","4","4","2","4","1","0","1","1","0","0","1","1","0","1","0","0","0","0","1","4","4","5","2","4","2","4","3","4","4","4","729238735765639170","张","565","","","","","","","","","","","","","","","","","","","","","","","","","","","","","","feedback_test","","","","","","","","","","","",""
"649","","f","psychophysics","93","261680","0.0-7.0-0.0-1.0-0.0-0.42","3","3","3","3","2","3","3","1","3","2","4","2","1","2","2","3","3","2","4","4","4","3","4","4","3","4","4","2","4","1","0","1","1","0","0","1","1","0","1","0","0","0","0","1","4","4","5","2","4","2","4","3","4","4","4","729238735765639170","张","565","","","","nonmatch","","","","","","","","","","","","","","key","f","16.66893814433007","640","396","f","true","nonmatch","img/hexagon.png","三角","六边","ALT1_1","prac_ALT1_1","","","","","","","","","","","",""
"null","<span style='color:GreenYellow; font-size: 70px;'>正确! </span>","null","html-keyboard-response","94","262192","0.0-7.0-0.0-1.0-0.0-1.42","3","3","3","3","2","3","3","1","3","2","4","2","1","2","2","3","3","2","4","4","4","3","4","4","3","4","4","2","4","1","0","1","1","0","0","1","1","0","1","0","0","0","0","1","4","4","5","2","4","2","4","3","4","4","4","729238735765639170","张","565","","","","","","","","","","","","","","","","","","","","","","","","","","","","","","feedback_test","","","","","","","","","","","",""
"573","","j","psychophysics","95","263766","0.0-7.0-0.0-1.0-0.0-0.43","3","3","3","3","2","3","3","1","3","2","4","2","1","2","2","3","3","2","4","4","4","3","4","4","3","4","4","2","4","1","0","1","1","0","0","1","1","0","1","0","0","0","0","1","4","4","5","2","4","2","4","3","4","4","4","729238735765639170","张","565","","","","match","","","","","","","","","","","","","","key","j","16.66684042553212","640","396","j","true","match","img/hexagon.png","六边","六边","ALT1_1","prac_ALT1_1","","","","","","","","","","","",""
"null","<span style='color:GreenYellow; font-size: 70px;'>正确! </span>","null","html-keyboard-response","96","264271","0.0-7.0-0.0-1.0-0.0-1.43","3","3","3","3","2","3","3","1","3","2","4","2","1","2","2","3","3","2","4","4","4","3","4","4","3","4","4","2","4","1","0","1","1","0","0","1","1","0","1","0","0","0","0","1","4","4","5","2","4","2","4","3","4","4","4","729238735765639170","张","565","","","","","","","","","","","","","","","","","","","","","","","","","","","","","","feedback_test","","","","","","","","","","","",""
"633","","f","psychophysics","97","265910","0.0-7.0-0.0-1.0-0.0-0.44","3","3","3","3","2","3","3","1","3","2","4","2","1","2","2","3","3","2","4","4","4","3","4","4","3","4","4","2","4","1","0","1","1","0","0","1","1","0","1","0","0","0","0","1","4","4","5","2","4","2","4","3","4","4","4","729238735765639170","张","565","","","","nonmatch","","","","","","","","","","","","","","key","f","16.66965979381438","640","396","f","true","nonmatch","img/ellipse.png","方形","椭圆","ALT1_1","prac_ALT1_1","","","","","","","","","","","",""
"null","<span style='color:GreenYellow; font-size: 70px;'>正确! </span>","null","html-keyboard-response","98","266414","0.0-7.0-0.0-1.0-0.0-1.44","3","3","3","3","2","3","3","1","3","2","4","2","1","2","2","3","3","2","4","4","4","3","4","4","3","4","4","2","4","1","0","1","1","0","0","1","1","0","1","0","0","0","0","1","4","4","5","2","4","2","4","3","4","4","4","729238735765639170","张","565","","","","","","","","","","","","","","","","","","","","","","","","","","","","","","feedback_test","","","","","","","","","","","",""
"466","","j","psychophysics","99","267887","0.0-7.0-0.0-1.0-0.0-0.45","3","3","3","3","2","3","3","1","3","2","4","2","1","2","2","3","3","2","4","4","4","3","4","4","3","4","4","2","4","1","0","1","1","0","0","1","1","0","1","0","0","0","0","1","4","4","5","2","4","2","4","3","4","4","4","729238735765639170","张","565","","","","match","","","","","","","","","","","","","","key","j","16.665356321839063","640","396","j","true","match","img/triangle.png","三角","三角","ALT1_1","prac_ALT1_1","","","","","","","","","","","",""
"null","<span style='color:GreenYellow; font-size: 70px;'>正确! </span>","null","html-keyboard-response","100","268390","0.0-7.0-0.0-1.0-0.0-1.45","3","3","3","3","2","3","3","1","3","2","4","2","1","2","2","3","3","2","4","4","4","3","4","4","3","4","4","2","4","1","0","1","1","0","0","1","1","0","1","0","0","0","0","1","4","4","5","2","4","2","4","3","4","4","4","729238735765639170","张","565","","","","","","","","","","","","","","","","","","","","","","","","","","","","","","feedback_test","","","","","","","","","","","",""
"588","","f","psychophysics","101","269981","0.0-7.0-0.0-1.0-0.0-0.46","3","3","3","3","2","3","3","1","3","2","4","2","1","2","2","3","3","2","4","4","4","3","4","4","3","4","4","2","4","1","0","1","1","0","0","1","1","0","1","0","0","0","0","1","4","4","5","2","4","2","4","3","4","4","4","729238735765639170","张","565","","","","nonmatch","","","","","","","","","","","","","","key","f","16.663861702127566","640","396","f","true","nonmatch","img/triangle.png","椭圆","三角","ALT1_1","prac_ALT1_1","","","","","","","","","","","",""
"null","<span style='color:GreenYellow; font-size: 70px;'>正确! </span>","null","html-keyboard-response","102","270495","0.0-7.0-0.0-1.0-0.0-1.46","3","3","3","3","2","3","3","1","3","2","4","2","1","2","2","3","3","2","4","4","4","3","4","4","3","4","4","2","4","1","0","1","1","0","0","1","1","0","1","0","0","0","0","1","4","4","5","2","4","2","4","3","4","4","4","729238735765639170","张","565","","","","","","","","","","","","","","","","","","","","","","","","","","","","","","feedback_test","","","","","","","","","","","",""
"741","","f","psychophysics","103","272238","0.0-7.0-0.0-1.0-0.0-0.47","3","3","3","3","2","3","3","1","3","2","4","2","1","2","2","3","3","2","4","4","4","3","4","4","3","4","4","2","4","1","0","1","1","0","0","1","1","0","1","0","0","0","0","1","4","4","5","2","4","2","4","3","4","4","4","729238735765639170","张","565","","","","nonmatch","","","","","","","","","","","","","","key","f","16.663407766990346","640","396","f","true","nonmatch","img/triangle.png","方形","三角","ALT1_1","prac_ALT1_1","","","","","","","","","","","",""
"null","<span style='color:GreenYellow; font-size: 70px;'>正确! </span>","null","html-keyboard-response","104","272740","0.0-7.0-0.0-1.0-0.0-1.47","3","3","3","3","2","3","3","1","3","2","4","2","1","2","2","3","3","2","4","4","4","3","4","4","3","4","4","2","4","1","0","1","1","0","0","1","1","0","1","0","0","0","0","1","4","4","5","2","4","2","4","3","4","4","4","729238735765639170","张","565","","","","","","","","","","","","","","","","","","","","","","","","","","","","","","feedback_test","","","","","","","","","","","",""
"10670","<style>.context{color:white; font-size: 35px; line-height:40px}</style>                            <div><p class='context'>您正确回答了81% 的试次。</p><p class='context'>您的平均反应时为656毫秒。</p><p class='context'>恭喜您完成练习。按空格键进入正式实验。</p><p class='footer' style='font-size: 35px; line-height:40px;'>请在进入正式实验之前将您的<span style='color: lightgreen;'>食指</span>放在电脑键盘的相应键位上进行按键。</p>"," ","html-keyboard-response","105","283413","0.0-7.0-0.0-2.0","3","3","3","3","2","3","3","1","3","2","4","2","1","2","2","3","3","2","4","4","4","3","4","4","3","4","4","2","4","1","0","1","1","0","0","1","1","0","1","0","0","0","0","1","4","4","5","2","4","2","4","3","4","4","4","729238735765639170","张","565","","","","","","","","","","","","","","","","","","","","","","","","","","","","","","","","","","","","","","","","","",""
"2732","
    <p style='color: white; font-size: 22px'>请您将手指放在按键上，准备进入正式的匹配任务。</p>
    <p> <div style = ""color: green""><按空格键进入下一阶段的匹配任务></div></p>
    "," ","html-keyboard-response","106","286147","0.0-7.0-0.0-3.0","3","3","3","3","2","3","3","1","3","2","4","2","1","2","2","3","3","2","4","4","4","3","4","4","3","4","4","2","4","1","0","1","1","0","0","1","1","0","1","0","0","0","0","1","4","4","5","2","4","2","4","3","4","4","4","729238735765639170","张","565","","","","","","","","","","","","","","","","","","","","","","","","","","","","","","","","","","","","","","","","","",""
"645","","f","psychophysics","107","287793","0.0-7.0-0.0-4.0-0.0-0.0","3","3","3","3","2","3","3","1","3","2","4","2","1","2","2","3","3","2","4","4","4","3","4","4","3","4","4","2","4","1","0","1","1","0","0","1","1","0","1","0","0","0","0","1","4","4","5","2","4","2","4","3","4","4","4","729238735765639170","张","565","","","","nonmatch","","","","","","","","","","","","","","key","f","16.66720408163264","640","396","f","true","nonmatch","img/square.png","椭圆","方形","ALT1","formal_ALT1_1","","","","","","","","","","","",""
"null","<span style='color:GreenYellow; font-size: 70px;'>正确! </span>","null","html-keyboard-response","108","288308","0.0-7.0-0.0-4.0-0.0-1.0","3","3","3","3","2","3","3","1","3","2","4","2","1","2","2","3","3","2","4","4","4","3","4","4","3","4","4","2","4","1","0","1","1","0","0","1","1","0","1","0","0","0","0","1","4","4","5","2","4","2","4","3","4","4","4","729238735765639170","张","565","","","","","","","","","","","","","","","","","","","","","","","","","","","","","","feedback_test","","","","","","","","","","","",""
"633","","f","psychophysics","109","289943","0.0-7.0-0.0-4.0-0.0-0.1","3","3","3","3","2","3","3","1","3","2","4","2","1","2","2","3","3","2","4","4","4","3","4","4","3","4","4","2","4","1","0","1","1","0","0","1","1","0","1","0","0","0","0","1","4","4","5","2","4","2","4","3","4","4","4","729238735765639170","张","565","","","","nonmatch","","","","","","","","","","","","","","key","f","16.66493814433001","640","396","f","true","nonmatch","img/hexagon.png","椭圆","六边","ALT1","formal_ALT1_1","","","","","","","","","","","",""
"null","<span style='color:GreenYellow; font-size: 70px;'>正确! </span>","null","html-keyboard-response","110","290457","0.0-7.0-0.0-4.0-0.0-1.1","3","3","3","3","2","3","3","1","3","2","4","2","1","2","2","3","3","2","4","4","4","3","4","4","3","4","4","2","4","1","0","1","1","0","0","1","1","0","1","0","0","0","0","1","4","4","5","2","4","2","4","3","4","4","4","729238735765639170","张","565","","","","","","","","","","","","","","","","","","","","","","","","","","","","","","feedback_test","","","","","","","","","","","",""
"534","","j","psychophysics","111","291993","0.0-7.0-0.0-4.0-0.0-0.2","3","3","3","3","2","3","3","1","3","2","4","2","1","2","2","3","3","2","4","4","4","3","4","4","3","4","4","2","4","1","0","1","1","0","0","1","1","0","1","0","0","0","0","1","4","4","5","2","4","2","4","3","4","4","4","729238735765639170","张","565","","","","match","","","","","","","","","","","","","","key","j","16.66846739130383","640","396","j","true","match","img/square.png","方形","方形","ALT1","formal_ALT1_1","","","","","","","","","","","",""
"null","<span style='color:GreenYellow; font-size: 70px;'>正确! </span>","null","html-keyboard-response","112","292498","0.0-7.0-0.0-4.0-0.0-1.2","3","3","3","3","2","3","3","1","3","2","4","2","1","2","2","3","3","2","4","4","4","3","4","4","3","4","4","2","4","1","0","1","1","0","0","1","1","0","1","0","0","0","0","1","4","4","5","2","4","2","4","3","4","4","4","729238735765639170","张","565","","","","","","","","","","","","","","","","","","","","","","","","","","","","","","feedback_test","","","","","","","","","","","",""
"649","","j","psychophysics","113","294148","0.0-7.0-0.0-4.0-0.0-0.3","3","3","3","3","2","3","3","1","3","2","4","2","1","2","2","3","3","2","4","4","4","3","4","4","3","4","4","2","4","1","0","1","1","0","0","1","1","0","1","0","0","0","0","1","4","4","5","2","4","2","4","3","4","4","4","729238735765639170","张","565","","","","match","","","","","","","","","","","","","","key","j","16.605773195875784","640","396","j","true","match","img/hexagon.png","六边","六边","ALT1","formal_ALT1_1","","","","","","","","","","","",""
"null","<span style='color:GreenYellow; font-size: 70px;'>正确! </span>","null","html-keyboard-response","114","294651","0.0-7.0-0.0-4.0-0.0-1.3","3","3","3","3","2","3","3","1","3","2","4","2","1","2","2","3","3","2","4","4","4","3","4","4","3","4","4","2","4","1","0","1","1","0","0","1","1","0","1","0","0","0","0","1","4","4","5","2","4","2","4","3","4","4","4","729238735765639170","张","565","","","","","","","","","","","","","","","","","","","","","","","","","","","","","","feedback_test","","","","","","","","","","","",""
"688","","f","psychophysics","115","296341","0.0-7.0-0.0-4.0-0.0-0.4","3","3","3","3","2","3","3","1","3","2","4","2","1","2","2","3","3","2","4","4","4","3","4","4","3","4","4","2","4","1","0","1","1","0","0","1","1","0","1","0","0","0","0","1","4","4","5","2","4","2","4","3","4","4","4","729238735765639170","张","565","","","","nonmatch","","","","","","","","","","","","","","key","f","16.66641000000003","640","396","f","true","nonmatch","img/ellipse.png","六边","椭圆","ALT1","formal_ALT1_1","","","","","","","","","","","",""
"null","<span style='color:GreenYellow; font-size: 70px;'>正确! </span>","null","html-keyboard-response","116","296849","0.0-7.0-0.0-4.0-0.0-1.4","3","3","3","3","2","3","3","1","3","2","4","2","1","2","2","3","3","2","4","4","4","3","4","4","3","4","4","2","4","1","0","1","1","0","0","1","1","0","1","0","0","0","0","1","4","4","5","2","4","2","4","3","4","4","4","729238735765639170","张","565","","","","","","","","","","","","","","","","","","","","","","","","","","","","","","feedback_test","","","","","","","","","","","",""
"963","","j","psychophysics","117","298815","0.0-7.0-0.0-4.0-0.0-0.5","3","3","3","3","2","3","3","1","3","2","4","2","1","2","2","3","3","2","4","4","4","3","4","4","3","4","4","2","4","1","0","1","1","0","0","1","1","0","1","0","0","0","0","1","4","4","5","2","4","2","4","3","4","4","4","729238735765639170","张","565","","","","match","","","","","","","","","","","","","","key","j","16.667239316239154","640","396","j","true","match","img/hexagon.png","六边","六边","ALT1","formal_ALT1_1","","","","","","","","","","","",""
"null","<span style='color:GreenYellow; font-size: 70px;'>正确! </span>","null","html-keyboard-response","118","299320","0.0-7.0-0.0-4.0-0.0-1.5","3","3","3","3","2","3","3","1","3","2","4","2","1","2","2","3","3","2","4","4","4","3","4","4","3","4","4","2","4","1","0","1","1","0","0","1","1","0","1","0","0","0","0","1","4","4","5","2","4","2","4","3","4","4","4","729238735765639170","张","565","","","","","","","","","","","","","","","","","","","","","","","","","","","","","","feedback_test","","","","","","","","","","","",""
"637","","f","psychophysics","119","300965","0.0-7.0-0.0-4.0-0.0-0.6","3","3","3","3","2","3","3","1","3","2","4","2","1","2","2","3","3","2","4","4","4","3","4","4","3","4","4","2","4","1","0","1","1","0","0","1","1","0","1","0","0","0","0","1","4","4","5","2","4","2","4","3","4","4","4","729238735765639170","张","565","","","","nonmatch","","","","","","","","","","","","","","key","f","16.670377551020856","640","396","f","true","nonmatch","img/hexagon.png","三角","六边","ALT1","formal_ALT1_1","","","","","","","","","","","",""
"null","<span style='color:GreenYellow; font-size: 70px;'>正确! </span>","null","html-keyboard-response","120","301466","0.0-7.0-0.0-4.0-0.0-1.6","3","3","3","3","2","3","3","1","3","2","4","2","1","2","2","3","3","2","4","4","4","3","4","4","3","4","4","2","4","1","0","1","1","0","0","1","1","0","1","0","0","0","0","1","4","4","5","2","4","2","4","3","4","4","4","729238735765639170","张","565","","","","","","","","","","","","","","","","","","","","","","","","","","","","","","feedback_test","","","","","","","","","","","",""
"592","","j","psychophysics","121","303058","0.0-7.0-0.0-4.0-0.0-0.7","3","3","3","3","2","3","3","1","3","2","4","2","1","2","2","3","3","2","4","4","4","3","4","4","3","4","4","2","4","1","0","1","1","0","0","1","1","0","1","0","0","0","0","1","4","4","5","2","4","2","4","3","4","4","4","729238735765639170","张","565","","","","match","","","","","","","","","","","","","","key","j","16.6646382978726","640","396","j","true","match","img/ellipse.png","椭圆","椭圆","ALT1","formal_ALT1_1","","","","","","","","","","","",""
"null","<span style='color:GreenYellow; font-size: 70px;'>正确! </span>","null","html-keyboard-response","122","303560","0.0-7.0-0.0-4.0-0.0-1.7","3","3","3","3","2","3","3","1","3","2","4","2","1","2","2","3","3","2","4","4","4","3","4","4","3","4","4","2","4","1","0","1","1","0","0","1","1","0","1","0","0","0","0","1","4","4","5","2","4","2","4","3","4","4","4","729238735765639170","张","565","","","","","","","","","","","","","","","","","","","","","","","","","","","","","","feedback_test","","","","","","","","","","","",""
"639","","f","psychophysics","123","305198","0.0-7.0-0.0-4.0-0.0-0.8","3","3","3","3","2","3","3","1","3","2","4","2","1","2","2","3","3","2","4","4","4","3","4","4","3","4","4","2","4","1","0","1","1","0","0","1","1","0","1","0","0","0","0","1","4","4","5","2","4","2","4","3","4","4","4","729238735765639170","张","565","","","","nonmatch","","","","","","","","","","","","","","key","f","16.66999999999974","640","396","f","true","nonmatch","img/triangle.png","六边","三角","ALT1","formal_ALT1_1","","","","","","","","","","","",""
"null","<span style='color:GreenYellow; font-size: 70px;'>正确! </span>","null","html-keyboard-response","124","305705","0.0-7.0-0.0-4.0-0.0-1.8","3","3","3","3","2","3","3","1","3","2","4","2","1","2","2","3","3","2","4","4","4","3","4","4","3","4","4","2","4","1","0","1","1","0","0","1","1","0","1","0","0","0","0","1","4","4","5","2","4","2","4","3","4","4","4","729238735765639170","张","565","","","","","","","","","","","","","","","","","","","","","","","","","","","","","","feedback_test","","","","","","","","","","","",""
"593","","f","psychophysics","125","307299","0.0-7.0-0.0-4.0-0.0-0.9","3","3","3","3","2","3","3","1","3","2","4","2","1","2","2","3","3","2","4","4","4","3","4","4","3","4","4","2","4","1","0","1","1","0","0","1","1","0","1","0","0","0","0","1","4","4","5","2","4","2","4","3","4","4","4","729238735765639170","张","565","","","","nonmatch","","","","","","","","","","","","","","key","f","16.667915789474193","640","396","f","true","nonmatch","img/square.png","三角","方形","ALT1","formal_ALT1_1","","","","","","","","","","","",""
"null","<span style='color:GreenYellow; font-size: 70px;'>正确! </span>","null","html-keyboard-response","126","307807","0.0-7.0-0.0-4.0-0.0-1.9","3","3","3","3","2","3","3","1","3","2","4","2","1","2","2","3","3","2","4","4","4","3","4","4","3","4","4","2","4","1","0","1","1","0","0","1","1","0","1","0","0","0","0","1","4","4","5","2","4","2","4","3","4","4","4","729238735765639170","张","565","","","","","","","","","","","","","","","","","","","","","","","","","","","","","","feedback_test","","","","","","","","","","","",""
"599","","f","psychophysics","127","309408","0.0-7.0-0.0-4.0-0.0-0.10","3","3","3","3","2","3","3","1","3","2","4","2","1","2","2","3","3","2","4","4","4","3","4","4","3","4","4","2","4","1","0","1","1","0","0","1","1","0","1","0","0","0","0","1","4","4","5","2","4","2","4","3","4","4","4","729238735765639170","张","565","","","","nonmatch","","","","","","","","","","","","","","key","f","16.665242105263506","640","396","f","true","nonmatch","img/triangle.png","椭圆","三角","ALT1","formal_ALT1_1","","","","","","","","","","","",""
"null","<span style='color:GreenYellow; font-size: 70px;'>正确! </span>","null","html-keyboard-response","128","309912","0.0-7.0-0.0-4.0-0.0-1.10","3","3","3","3","2","3","3","1","3","2","4","2","1","2","2","3","3","2","4","4","4","3","4","4","3","4","4","2","4","1","0","1","1","0","0","1","1","0","1","0","0","0","0","1","4","4","5","2","4","2","4","3","4","4","4","729238735765639170","张","565","","","","","","","","","","","","","","","","","","","","","","","","","","","","","","feedback_test","","","","","","","","","","","",""
"608","","f","psychophysics","129","311523","0.0-7.0-0.0-4.0-0.0-0.11","3","3","3","3","2","3","3","1","3","2","4","2","1","2","2","3","3","2","4","4","4","3","4","4","3","4","4","2","4","1","0","1","1","0","0","1","1","0","1","0","0","0","0","1","4","4","5","2","4","2","4","3","4","4","4","729238735765639170","张","565","","","","nonmatch","","","","","","","","","","","","","","key","f","16.666599999999896","640","396","f","true","nonmatch","img/triangle.png","方形","三角","ALT1","formal_ALT1_1","","","","","","","","","","","",""
"null","<span style='color:GreenYellow; font-size: 70px;'>正确! </span>","null","html-keyboard-response","130","312026","0.0-7.0-0.0-4.0-0.0-1.11","3","3","3","3","2","3","3","1","3","2","4","2","1","2","2","3","3","2","4","4","4","3","4","4","3","4","4","2","4","1","0","1","1","0","0","1","1","0","1","0","0","0","0","1","4","4","5","2","4","2","4","3","4","4","4","729238735765639170","张","565","","","","","","","","","","","","","","","","","","","","","","","","","","","","","","feedback_test","","","","","","","","","","","",""
"541","","j","psychophysics","131","313570","0.0-7.0-0.0-4.0-0.0-0.12","3","3","3","3","2","3","3","1","3","2","4","2","1","2","2","3","3","2","4","4","4","3","4","4","3","4","4","2","4","1","0","1","1","0","0","1","1","0","1","0","0","0","0","1","4","4","5","2","4","2","4","3","4","4","4","729238735765639170","张","565","","","","match","","","","","","","","","","","","","","key","j","16.67095652173916","640","396","j","true","match","img/triangle.png","三角","三角","ALT1","formal_ALT1_1","","","","","","","","","","","",""
"null","<span style='color:GreenYellow; font-size: 70px;'>正确! </span>","null","html-keyboard-response","132","314075","0.0-7.0-0.0-4.0-0.0-1.12","3","3","3","3","2","3","3","1","3","2","4","2","1","2","2","3","3","2","4","4","4","3","4","4","3","4","4","2","4","1","0","1","1","0","0","1","1","0","1","0","0","0","0","1","4","4","5","2","4","2","4","3","4","4","4","729238735765639170","张","565","","","","","","","","","","","","","","","","","","","","","","","","","","","","","","feedback_test","","","","","","","","","","","",""
"682","","f","psychophysics","133","315758","0.0-7.0-0.0-4.0-0.0-0.13","3","3","3","3","2","3","3","1","3","2","4","2","1","2","2","3","3","2","4","4","4","3","4","4","3","4","4","2","4","1","0","1","1","0","0","1","1","0","1","0","0","0","0","1","4","4","5","2","4","2","4","3","4","4","4","729238735765639170","张","565","","","","nonmatch","","","","","","","","","","","","","","key","f","16.66803030302981","640","396","f","true","nonmatch","img/ellipse.png","三角","椭圆","ALT1","formal_ALT1_1","","","","","","","","","","","",""
"null","<span style='color:GreenYellow; font-size: 70px;'>正确! </span>","null","html-keyboard-response","134","316261","0.0-7.0-0.0-4.0-0.0-1.13","3","3","3","3","2","3","3","1","3","2","4","2","1","2","2","3","3","2","4","4","4","3","4","4","3","4","4","2","4","1","0","1","1","0","0","1","1","0","1","0","0","0","0","1","4","4","5","2","4","2","4","3","4","4","4","729238735765639170","张","565","","","","","","","","","","","","","","","","","","","","","","","","","","","","","","feedback_test","","","","","","","","","","","",""
"676","","f","psychophysics","135","317938","0.0-7.0-0.0-4.0-0.0-0.14","3","3","3","3","2","3","3","1","3","2","4","2","1","2","2","3","3","2","4","4","4","3","4","4","3","4","4","2","4","1","0","1","1","0","0","1","1","0","1","0","0","0","0","1","4","4","5","2","4","2","4","3","4","4","4","729238735765639170","张","565","","","","nonmatch","","","","","","","","","","","","","","key","f","16.666570000000064","640","396","f","true","nonmatch","img/square.png","六边","方形","ALT1","formal_ALT1_1","","","","","","","","","","","",""
"null","<span style='color:GreenYellow; font-size: 70px;'>正确! </span>","null","html-keyboard-response","136","318446","0.0-7.0-0.0-4.0-0.0-1.14","3","3","3","3","2","3","3","1","3","2","4","2","1","2","2","3","3","2","4","4","4","3","4","4","3","4","4","2","4","1","0","1","1","0","0","1","1","0","1","0","0","0","0","1","4","4","5","2","4","2","4","3","4","4","4","729238735765639170","张","565","","","","","","","","","","","","","","","","","","","","","","","","","","","","","","feedback_test","","","","","","","","","","","",""
"498","","j","psychophysics","137","319947","0.0-7.0-0.0-4.0-0.0-0.15","3","3","3","3","2","3","3","1","3","2","4","2","1","2","2","3","3","2","4","4","4","3","4","4","3","4","4","2","4","1","0","1","1","0","0","1","1","0","1","0","0","0","0","1","4","4","5","2","4","2","4","3","4","4","4","729238735765639170","张","565","","","","match","","","","","","","","","","","","","","key","j","16.66997752809018","640","396","j","true","match","img/triangle.png","三角","三角","ALT1","formal_ALT1_1","","","","","","","","","","","",""
"null","<span style='color:GreenYellow; font-size: 70px;'>正确! </span>","null","html-keyboard-response","138","320448","0.0-7.0-0.0-4.0-0.0-1.15","3","3","3","3","2","3","3","1","3","2","4","2","1","2","2","3","3","2","4","4","4","3","4","4","3","4","4","2","4","1","0","1","1","0","0","1","1","0","1","0","0","0","0","1","4","4","5","2","4","2","4","3","4","4","4","729238735765639170","张","565","","","","","","","","","","","","","","","","","","","","","","","","","","","","","","feedback_test","","","","","","","","","","","",""
"550","","j","psychophysics","139","322001","0.0-7.0-0.0-4.0-0.0-0.16","3","3","3","3","2","3","3","1","3","2","4","2","1","2","2","3","3","2","4","4","4","3","4","4","3","4","4","2","4","1","0","1","1","0","0","1","1","0","1","0","0","0","0","1","4","4","5","2","4","2","4","3","4","4","4","729238735765639170","张","565","","","","match","","","","","","","","","","","","","","key","j","16.598826086956567","640","396","j","true","match","img/ellipse.png","椭圆","椭圆","ALT1","formal_ALT1_1","","","","","","","","","","","",""
"null","<span style='color:GreenYellow; font-size: 70px;'>正确! </span>","null","html-keyboard-response","140","322508","0.0-7.0-0.0-4.0-0.0-1.16","3","3","3","3","2","3","3","1","3","2","4","2","1","2","2","3","3","2","4","4","4","3","4","4","3","4","4","2","4","1","0","1","1","0","0","1","1","0","1","0","0","0","0","1","4","4","5","2","4","2","4","3","4","4","4","729238735765639170","张","565","","","","","","","","","","","","","","","","","","","","","","","","","","","","","","feedback_test","","","","","","","","","","","",""
"412","","j","psychophysics","141","323922","0.0-7.0-0.0-4.0-0.0-0.17","3","3","3","3","2","3","3","1","3","2","4","2","1","2","2","3","3","2","4","4","4","3","4","4","3","4","4","2","4","1","0","1","1","0","0","1","1","0","1","0","0","0","0","1","4","4","5","2","4","2","4","3","4","4","4","729238735765639170","张","565","","","","match","","","","","","","","","","","","","","key","j","16.59171084337307","640","396","j","true","match","img/square.png","方形","方形","ALT1","formal_ALT1_1","","","","","","","","","","","",""
"null","<span style='color:GreenYellow; font-size: 70px;'>正确! </span>","null","html-keyboard-response","142","324435","0.0-7.0-0.0-4.0-0.0-1.17","3","3","3","3","2","3","3","1","3","2","4","2","1","2","2","3","3","2","4","4","4","3","4","4","3","4","4","2","4","1","0","1","1","0","0","1","1","0","1","0","0","0","0","1","4","4","5","2","4","2","4","3","4","4","4","729238735765639170","张","565","","","","","","","","","","","","","","","","","","","","","","","","","","","","","","feedback_test","","","","","","","","","","","",""
"600","","j","psychophysics","143","326036","0.0-7.0-0.0-4.0-0.0-0.18","3","3","3","3","2","3","3","1","3","2","4","2","1","2","2","3","3","2","4","4","4","3","4","4","3","4","4","2","4","1","0","1","1","0","0","1","1","0","1","0","0","0","0","1","4","4","5","2","4","2","4","3","4","4","4","729238735765639170","张","565","","","","match","","","","","","","","","","","","","","key","j","16.668842105262936","640","396","j","true","match","img/hexagon.png","六边","六边","ALT1","formal_ALT1_1","","","","","","","","","","","",""
"null","<span style='color:GreenYellow; font-size: 70px;'>正确! </span>","null","html-keyboard-response","144","326546","0.0-7.0-0.0-4.0-0.0-1.18","3","3","3","3","2","3","3","1","3","2","4","2","1","2","2","3","3","2","4","4","4","3","4","4","3","4","4","2","4","1","0","1","1","0","0","1","1","0","1","0","0","0","0","1","4","4","5","2","4","2","4","3","4","4","4","729238735765639170","张","565","","","","","","","","","","","","","","","","","","","","","","","","","","","","","","feedback_test","","","","","","","","","","","",""
"587","","j","psychophysics","145","328135","0.0-7.0-0.0-4.0-0.0-0.19","3","3","3","3","2","3","3","1","3","2","4","2","1","2","2","3","3","2","4","4","4","3","4","4","3","4","4","2","4","1","0","1","1","0","0","1","1","0","1","0","0","0","0","1","4","4","5","2","4","2","4","3","4","4","4","729238735765639170","张","565","","","","match","","","","","","","","","","","","","","key","j","16.6687578947363","640","396","j","true","match","img/square.png","方形","方形","ALT1","formal_ALT1_1","","","","","","","","","","","",""
"null","<span style='color:GreenYellow; font-size: 70px;'>正确! </span>","null","html-keyboard-response","146","328641","0.0-7.0-0.0-4.0-0.0-1.19","3","3","3","3","2","3","3","1","3","2","4","2","1","2","2","3","3","2","4","4","4","3","4","4","3","4","4","2","4","1","0","1","1","0","0","1","1","0","1","0","0","0","0","1","4","4","5","2","4","2","4","3","4","4","4","729238735765639170","张","565","","","","","","","","","","","","","","","","","","","","","","","","","","","","","","feedback_test","","","","","","","","","","","",""
"528","","j","psychophysics","147","330172","0.0-7.0-0.0-4.0-0.0-0.20","3","3","3","3","2","3","3","1","3","2","4","2","1","2","2","3","3","2","4","4","4","3","4","4","3","4","4","2","4","1","0","1","1","0","0","1","1","0","1","0","0","0","0","1","4","4","5","2","4","2","4","3","4","4","4","729238735765639170","张","565","","","","match","","","","","","","","","","","","","","key","j","16.669166666667056","640","396","j","true","match","img/ellipse.png","椭圆","椭圆","ALT1","formal_ALT1_1","","","","","","","","","","","",""
"null","<span style='color:GreenYellow; font-size: 70px;'>正确! </span>","null","html-keyboard-response","148","330675","0.0-7.0-0.0-4.0-0.0-1.20","3","3","3","3","2","3","3","1","3","2","4","2","1","2","2","3","3","2","4","4","4","3","4","4","3","4","4","2","4","1","0","1","1","0","0","1","1","0","1","0","0","0","0","1","4","4","5","2","4","2","4","3","4","4","4","729238735765639170","张","565","","","","","","","","","","","","","","","","","","","","","","","","","","","","","","feedback_test","","","","","","","","","","","",""
"502","","j","psychophysics","149","332179","0.0-7.0-0.0-4.0-0.0-0.21","3","3","3","3","2","3","3","1","3","2","4","2","1","2","2","3","3","2","4","4","4","3","4","4","3","4","4","2","4","1","0","1","1","0","0","1","1","0","1","0","0","0","0","1","4","4","5","2","4","2","4","3","4","4","4","729238735765639170","张","565","","","","match","","","","","","","","","","","","","","key","j","16.66934444444422","640","396","j","true","match","img/triangle.png","三角","三角","ALT1","formal_ALT1_1","","","","","","","","","","","",""
"null","<span style='color:GreenYellow; font-size: 70px;'>正确! </span>","null","html-keyboard-response","150","332695","0.0-7.0-0.0-4.0-0.0-1.21","3","3","3","3","2","3","3","1","3","2","4","2","1","2","2","3","3","2","4","4","4","3","4","4","3","4","4","2","4","1","0","1","1","0","0","1","1","0","1","0","0","0","0","1","4","4","5","2","4","2","4","3","4","4","4","729238735765639170","张","565","","","","","","","","","","","","","","","","","","","","","","","","","","","","","","feedback_test","","","","","","","","","","","",""
"695","","f","psychophysics","151","334391","0.0-7.0-0.0-4.0-0.0-0.22","3","3","3","3","2","3","3","1","3","2","4","2","1","2","2","3","3","2","4","4","4","3","4","4","3","4","4","2","4","1","0","1","1","0","0","1","1","0","1","0","0","0","0","1","4","4","5","2","4","2","4","3","4","4","4","729238735765639170","张","565","","","","nonmatch","","","","","","","","","","","","","","key","f","16.667789999999805","640","396","f","true","nonmatch","img/ellipse.png","方形","椭圆","ALT1","formal_ALT1_1","","","","","","","","","","","",""
"null","<span style='color:GreenYellow; font-size: 70px;'>正确! </span>","null","html-keyboard-response","152","334905","0.0-7.0-0.0-4.0-0.0-1.22","3","3","3","3","2","3","3","1","3","2","4","2","1","2","2","3","3","2","4","4","4","3","4","4","3","4","4","2","4","1","0","1","1","0","0","1","1","0","1","0","0","0","0","1","4","4","5","2","4","2","4","3","4","4","4","729238735765639170","张","565","","","","","","","","","","","","","","","","","","","","","","","","","","","","","","feedback_test","","","","","","","","","","","",""
"779","","f","psychophysics","153","336686","0.0-7.0-0.0-4.0-0.0-0.23","3","3","3","3","2","3","3","1","3","2","4","2","1","2","2","3","3","2","4","4","4","3","4","4","3","4","4","2","4","1","0","1","1","0","0","1","1","0","1","0","0","0","0","1","4","4","5","2","4","2","4","3","4","4","4","729238735765639170","张","565","","","","nonmatch","","","","","","","","","","","","","","key","f","16.611409523809286","640","396","f","true","nonmatch","img/hexagon.png","方形","六边","ALT1","formal_ALT1_1","","","","","","","","","","","",""
"null","<span style='color:GreenYellow; font-size: 70px;'>正确! </span>","null","html-keyboard-response","154","337192","0.0-7.0-0.0-4.0-0.0-1.23","3","3","3","3","2","3","3","1","3","2","4","2","1","2","2","3","3","2","4","4","4","3","4","4","3","4","4","2","4","1","0","1","1","0","0","1","1","0","1","0","0","0","0","1","4","4","5","2","4","2","4","3","4","4","4","729238735765639170","张","565","","","","","","","","","","","","","","","","","","","","","","","","","","","","","","feedback_test","","","","","","","","","","","",""
"580","","j","psychophysics","155","338774","0.0-7.0-0.0-4.0-0.0-0.24","3","3","3","3","2","3","3","1","3","2","4","2","1","2","2","3","3","2","4","4","4","3","4","4","3","4","4","2","4","1","0","1","1","0","0","1","1","0","1","0","0","0","0","1","4","4","5","2","4","2","4","3","4","4","4","729238735765639170","张","565","","","","match","","","","","","","","","","","","","","key","j","16.66824468085109","640","396","j","true","match","img/square.png","方形","方形","ALT1","formal_ALT1_1","","","","","","","","","","","",""
"null","<span style='color:GreenYellow; font-size: 70px;'>正确! </span>","null","html-keyboard-response","156","339276","0.0-7.0-0.0-4.0-0.0-1.24","3","3","3","3","2","3","3","1","3","2","4","2","1","2","2","3","3","2","4","4","4","3","4","4","3","4","4","2","4","1","0","1","1","0","0","1","1","0","1","0","0","0","0","1","4","4","5","2","4","2","4","3","4","4","4","729238735765639170","张","565","","","","","","","","","","","","","","","","","","","","","","","","","","","","","","feedback_test","","","","","","","","","","","",""
"555","","j","psychophysics","157","340833","0.0-7.0-0.0-4.0-0.0-0.25","3","3","3","3","2","3","3","1","3","2","4","2","1","2","2","3","3","2","4","4","4","3","4","4","3","4","4","2","4","1","0","1","1","0","0","1","1","0","1","0","0","0","0","1","4","4","5","2","4","2","4","3","4","4","4","729238735765639170","张","565","","","","match","","","","","","","","","","","","","","key","j","16.668826086956592","640","396","j","true","match","img/square.png","方形","方形","ALT1","formal_ALT1_1","","","","","","","","","","","",""
"null","<span style='color:GreenYellow; font-size: 70px;'>正确! </span>","null","html-keyboard-response","158","341335","0.0-7.0-0.0-4.0-0.0-1.25","3","3","3","3","2","3","3","1","3","2","4","2","1","2","2","3","3","2","4","4","4","3","4","4","3","4","4","2","4","1","0","1","1","0","0","1","1","0","1","0","0","0","0","1","4","4","5","2","4","2","4","3","4","4","4","729238735765639170","张","565","","","","","","","","","","","","","","","","","","","","","","","","","","","","","","feedback_test","","","","","","","","","","","",""
"440","","j","psychophysics","159","342776","0.0-7.0-0.0-4.0-0.0-0.26","3","3","3","3","2","3","3","1","3","2","4","2","1","2","2","3","3","2","4","4","4","3","4","4","3","4","4","2","4","1","0","1","1","0","0","1","1","0","1","0","0","0","0","1","4","4","5","2","4","2","4","3","4","4","4","729238735765639170","张","565","","","","match","","","","","","","","","","","","","","key","j","16.66988372093075","640","396","j","true","match","img/square.png","方形","方形","ALT1","formal_ALT1_1","","","","","","","","","","","",""
"null","<span style='color:GreenYellow; font-size: 70px;'>正确! </span>","null","html-keyboard-response","160","343285","0.0-7.0-0.0-4.0-0.0-1.26","3","3","3","3","2","3","3","1","3","2","4","2","1","2","2","3","3","2","4","4","4","3","4","4","3","4","4","2","4","1","0","1","1","0","0","1","1","0","1","0","0","0","0","1","4","4","5","2","4","2","4","3","4","4","4","729238735765639170","张","565","","","","","","","","","","","","","","","","","","","","","","","","","","","","","","feedback_test","","","","","","","","","","","",""
"600","","f","psychophysics","161","344887","0.0-7.0-0.0-4.0-0.0-0.27","3","3","3","3","2","3","3","1","3","2","4","2","1","2","2","3","3","2","4","4","4","3","4","4","3","4","4","2","4","1","0","1","1","0","0","1","1","0","1","0","0","0","0","1","4","4","5","2","4","2","4","3","4","4","4","729238735765639170","张","565","","","","nonmatch","","","","","","","","","","","","","","key","f","16.597315789473637","640","396","f","true","nonmatch","img/square.png","六边","方形","ALT1","formal_ALT1_1","","","","","","","","","","","",""
"null","<span style='color:GreenYellow; font-size: 70px;'>正确! </span>","null","html-keyboard-response","162","345392","0.0-7.0-0.0-4.0-0.0-1.27","3","3","3","3","2","3","3","1","3","2","4","2","1","2","2","3","3","2","4","4","4","3","4","4","3","4","4","2","4","1","0","1","1","0","0","1","1","0","1","0","0","0","0","1","4","4","5","2","4","2","4","3","4","4","4","729238735765639170","张","565","","","","","","","","","","","","","","","","","","","","","","","","","","","","","","feedback_test","","","","","","","","","","","",""
"586","","j","psychophysics","163","346981","0.0-7.0-0.0-4.0-0.0-0.28","3","3","3","3","2","3","3","1","3","2","4","2","1","2","2","3","3","2","4","4","4","3","4","4","3","4","4","2","4","1","0","1","1","0","0","1","1","0","1","0","0","0","0","1","4","4","5","2","4","2","4","3","4","4","4","729238735765639170","张","565","","","","match","","","","","","","","","","","","","","key","j","16.669263157894907","640","396","f","false","nonmatch","img/hexagon.png","三角","六边","ALT1","formal_ALT1_1","","","","","","","","","","","",""
"null","<span style='color:red; font-size: 70px;'>错误! </span>","null","html-keyboard-response","164","347484","0.0-7.0-0.0-4.0-0.0-1.28","3","3","3","3","2","3","3","1","3","2","4","2","1","2","2","3","3","2","4","4","4","3","4","4","3","4","4","2","4","1","0","1","1","0","0","1","1","0","1","0","0","0","0","1","4","4","5","2","4","2","4","3","4","4","4","729238735765639170","张","565","","","","","","","","","","","","","","","","","","","","","","","","","","","","","","feedback_test","","","","","","","","","","","",""
"725","","f","psychophysics","165","349211","0.0-7.0-0.0-4.0-0.0-0.29","3","3","3","3","2","3","3","1","3","2","4","2","1","2","2","3","3","2","4","4","4","3","4","4","3","4","4","2","4","1","0","1","1","0","0","1","1","0","1","0","0","0","0","1","4","4","5","2","4","2","4","3","4","4","4","729238735765639170","张","565","","","","nonmatch","","","","","","","","","","","","","","key","f","16.669378640776664","640","396","f","true","nonmatch","img/ellipse.png","六边","椭圆","ALT1","formal_ALT1_1","","","","","","","","","","","",""
"null","<span style='color:GreenYellow; font-size: 70px;'>正确! </span>","null","html-keyboard-response","166","349719","0.0-7.0-0.0-4.0-0.0-1.29","3","3","3","3","2","3","3","1","3","2","4","2","1","2","2","3","3","2","4","4","4","3","4","4","3","4","4","2","4","1","0","1","1","0","0","1","1","0","1","0","0","0","0","1","4","4","5","2","4","2","4","3","4","4","4","729238735765639170","张","565","","","","","","","","","","","","","","","","","","","","","","","","","","","","","","feedback_test","","","","","","","","","","","",""
"765","","f","psychophysics","167","351485","0.0-7.0-0.0-4.0-0.0-0.30","3","3","3","3","2","3","3","1","3","2","4","2","1","2","2","3","3","2","4","4","4","3","4","4","3","4","4","2","4","1","0","1","1","0","0","1","1","0","1","0","0","0","0","1","4","4","5","2","4","2","4","3","4","4","4","729238735765639170","张","565","","","","nonmatch","","","","","","","","","","","","","","key","f","16.668161904761966","640","396","f","true","nonmatch","img/triangle.png","方形","三角","ALT1","formal_ALT1_1","","","","","","","","","","","",""
"null","<span style='color:GreenYellow; font-size: 70px;'>正确! </span>","null","html-keyboard-response","168","351993","0.0-7.0-0.0-4.0-0.0-1.30","3","3","3","3","2","3","3","1","3","2","4","2","1","2","2","3","3","2","4","4","4","3","4","4","3","4","4","2","4","1","0","1","1","0","0","1","1","0","1","0","0","0","0","1","4","4","5","2","4","2","4","3","4","4","4","729238735765639170","张","565","","","","","","","","","","","","","","","","","","","","","","","","","","","","","","feedback_test","","","","","","","","","","","",""
"544","","j","psychophysics","169","353538","0.0-7.0-0.0-4.0-0.0-0.31","3","3","3","3","2","3","3","1","3","2","4","2","1","2","2","3","3","2","4","4","4","3","4","4","3","4","4","2","4","1","0","1","1","0","0","1","1","0","1","0","0","0","0","1","4","4","5","2","4","2","4","3","4","4","4","729238735765639170","张","565","","","","match","","","","","","","","","","","","","","key","j","16.601329670329886","640","396","j","true","match","img/ellipse.png","椭圆","椭圆","ALT1","formal_ALT1_1","","","","","","","","","","","",""
"null","<span style='color:GreenYellow; font-size: 70px;'>正确! </span>","null","html-keyboard-response","170","354055","0.0-7.0-0.0-4.0-0.0-1.31","3","3","3","3","2","3","3","1","3","2","4","2","1","2","2","3","3","2","4","4","4","3","4","4","3","4","4","2","4","1","0","1","1","0","0","1","1","0","1","0","0","0","0","1","4","4","5","2","4","2","4","3","4","4","4","729238735765639170","张","565","","","","","","","","","","","","","","","","","","","","","","","","","","","","","","feedback_test","","","","","","","","","","","",""
"662","","f","psychophysics","171","355719","0.0-7.0-0.0-4.0-0.0-0.32","3","3","3","3","2","3","3","1","3","2","4","2","1","2","2","3","3","2","4","4","4","3","4","4","3","4","4","2","4","1","0","1","1","0","0","1","1","0","1","0","0","0","0","1","4","4","5","2","4","2","4","3","4","4","4","729238735765639170","张","565","","","","nonmatch","","","","","","","","","","","","","","key","f","16.60481632653118","640","396","f","true","nonmatch","img/triangle.png","椭圆","三角","ALT1","formal_ALT1_1","","","","","","","","","","","",""
"null","<span style='color:GreenYellow; font-size: 70px;'>正确! </span>","null","html-keyboard-response","172","356227","0.0-7.0-0.0-4.0-0.0-1.32","3","3","3","3","2","3","3","1","3","2","4","2","1","2","2","3","3","2","4","4","4","3","4","4","3","4","4","2","4","1","0","1","1","0","0","1","1","0","1","0","0","0","0","1","4","4","5","2","4","2","4","3","4","4","4","729238735765639170","张","565","","","","","","","","","","","","","","","","","","","","","","","","","","","","","","feedback_test","","","","","","","","","","","",""
"705","","f","psychophysics","173","357934","0.0-7.0-0.0-4.0-0.0-0.33","3","3","3","3","2","3","3","1","3","2","4","2","1","2","2","3","3","2","4","4","4","3","4","4","3","4","4","2","4","1","0","1","1","0","0","1","1","0","1","0","0","0","0","1","4","4","5","2","4","2","4","3","4","4","4","729238735765639170","张","565","","","","nonmatch","","","","","","","","","","","","","","key","f","16.668078431372837","640","396","f","true","nonmatch","img/triangle.png","六边","三角","ALT1","formal_ALT1_1","","","","","","","","","","","",""
"null","<span style='color:GreenYellow; font-size: 70px;'>正确! </span>","null","html-keyboard-response","174","358438","0.0-7.0-0.0-4.0-0.0-1.33","3","3","3","3","2","3","3","1","3","2","4","2","1","2","2","3","3","2","4","4","4","3","4","4","3","4","4","2","4","1","0","1","1","0","0","1","1","0","1","0","0","0","0","1","4","4","5","2","4","2","4","3","4","4","4","729238735765639170","张","565","","","","","","","","","","","","","","","","","","","","","","","","","","","","","","feedback_test","","","","","","","","","","","",""
"507","","j","psychophysics","175","359948","0.0-7.0-0.0-4.0-0.0-0.34","3","3","3","3","2","3","3","1","3","2","4","2","1","2","2","3","3","2","4","4","4","3","4","4","3","4","4","2","4","1","0","1","1","0","0","1","1","0","1","0","0","0","0","1","4","4","5","2","4","2","4","3","4","4","4","729238735765639170","张","565","","","","match","","","","","","","","","","","","","","key","j","16.663898876404488","640","396","j","true","match","img/ellipse.png","椭圆","椭圆","ALT1","formal_ALT1_1","","","","","","","","","","","",""
"null","<span style='color:GreenYellow; font-size: 70px;'>正确! </span>","null","html-keyboard-response","176","360451","0.0-7.0-0.0-4.0-0.0-1.34","3","3","3","3","2","3","3","1","3","2","4","2","1","2","2","3","3","2","4","4","4","3","4","4","3","4","4","2","4","1","0","1","1","0","0","1","1","0","1","0","0","0","0","1","4","4","5","2","4","2","4","3","4","4","4","729238735765639170","张","565","","","","","","","","","","","","","","","","","","","","","","","","","","","","","","feedback_test","","","","","","","","","","","",""
"547","","j","psychophysics","177","361999","0.0-7.0-0.0-4.0-0.0-0.35","3","3","3","3","2","3","3","1","3","2","4","2","1","2","2","3","3","2","4","4","4","3","4","4","3","4","4","2","4","1","0","1","1","0","0","1","1","0","1","0","0","0","0","1","4","4","5","2","4","2","4","3","4","4","4","729238735765639170","张","565","","","","match","","","","","","","","","","","","","","key","j","16.602637362637644","640","396","j","true","match","img/triangle.png","三角","三角","ALT1","formal_ALT1_1","","","","","","","","","","","",""
"null","<span style='color:GreenYellow; font-size: 70px;'>正确! </span>","null","html-keyboard-response","178","362504","0.0-7.0-0.0-4.0-0.0-1.35","3","3","3","3","2","3","3","1","3","2","4","2","1","2","2","3","3","2","4","4","4","3","4","4","3","4","4","2","4","1","0","1","1","0","0","1","1","0","1","0","0","0","0","1","4","4","5","2","4","2","4","3","4","4","4","729238735765639170","张","565","","","","","","","","","","","","","","","","","","","","","","","","","","","","","","feedback_test","","","","","","","","","","","",""
"635","","j","psychophysics","179","364140","0.0-7.0-0.0-4.0-0.0-0.36","3","3","3","3","2","3","3","1","3","2","4","2","1","2","2","3","3","2","4","4","4","3","4","4","3","4","4","2","4","1","0","1","1","0","0","1","1","0","1","0","0","0","0","1","4","4","5","2","4","2","4","3","4","4","4","729238735765639170","张","565","","","","match","","","","","","","","","","","","","","key","j","16.60421649484533","640","396","j","true","match","img/triangle.png","三角","三角","ALT1","formal_ALT1_1","","","","","","","","","","","",""
"null","<span style='color:GreenYellow; font-size: 70px;'>正确! </span>","null","html-keyboard-response","180","364653","0.0-7.0-0.0-4.0-0.0-1.36","3","3","3","3","2","3","3","1","3","2","4","2","1","2","2","3","3","2","4","4","4","3","4","4","3","4","4","2","4","1","0","1","1","0","0","1","1","0","1","0","0","0","0","1","4","4","5","2","4","2","4","3","4","4","4","729238735765639170","张","565","","","","","","","","","","","","","","","","","","","","","","","","","","","","","","feedback_test","","","","","","","","","","","",""
"564","","j","psychophysics","181","366222","0.0-7.0-0.0-4.0-0.0-0.37","3","3","3","3","2","3","3","1","3","2","4","2","1","2","2","3","3","2","4","4","4","3","4","4","3","4","4","2","4","1","0","1","1","0","0","1","1","0","1","0","0","0","0","1","4","4","5","2","4","2","4","3","4","4","4","729238735765639170","张","565","","","","match","","","","","","","","","","","","","","key","j","16.670677419354444","640","396","j","true","match","img/triangle.png","三角","三角","ALT1","formal_ALT1_1","","","","","","","","","","","",""
