"rt","stimulus","response","trial_type","trial_index","time_elapsed","internal_node_id","ses_1","ses_2","ses_3","ses_4","ses_5","ses_6","ses_7","ses_8","ses_9","ses_10","coreself_1","coreself_2","coreself_3","coreself_4","coreself_5","coreself_6","coreself_7","coreself_8","coreself_9","coreself_10","SGPS_1","SGPS_2","SGPS_3","SGPS_4","SGPS_5","SGPS_6","SGPS_7","SGPS_8","SGPS_9","NPI1","NPI2","NPI3","NPI4","NPI5","NPI6","NPI7","NPI8","NPI9","NPI10","NPI11","NPI12","NPI13","NPI14","NPI15","hsns_1","hsns_2","hsns_3","hsns_4","hsns_5","trap1","hsns_6","hsns_7","hsns_8","hsns_9","hsns_10","subj_idx","friend_name","ParticipantID","value","success","user_agent","responses","item_order","radio_event_ids","radio_event_times","key_event_times","mouse_event_times","straightlining","zigzagging","honeypot","timeout","failed_images","failed_audio","failed_video","view_history","response_type","key_press","avg_frame_time","center_x","center_y","correct_response","correct","identity","Image","word","condition","task_id","screen_id","time_stamp","version_attrib","version_target","IAT","RT","varname","summary","version_attrib2","version_target2","question_order","correct_answer","trap1_item"
"1682","
   <p><div style = ""color: white;font-size:25px;"">您好，欢迎参加本次实验。</div> </p>
   <p><div style = ""color: white;font-size:25px;"">为充分保障您的权利，请确保您已经知晓并同意《参与实验同意书》以及《数据公开知情同意书》。</div></p>
   <p><div style = ""color: white;font-size:25px;"">如果您未见过上述内容，请咨询实验员。</div></p>
   <p><div style = ""color: white;font-size:25px;"">如果您选择继续实验，则表示您已经清楚两份知情同意书的内容并同意。</div></p>
   <p><div style = ""color: pink;font-size:30px;"">请确保您记得day0的实验编号，您将在本次实验输入该编号，若您忘记，请咨询实验员后作答。</div></p>
   <p><div style = ""color: lightblue;font-size:25px;"">请您尽可能认真地作答，我们将依据您在各问卷和按键任务中的作答质量发放报酬。</div></p>
   <p> <div style = ""color: green;font-size:25px;""><按空格键至下页></div> </p>
   "," ","html-keyboard-response","0","1684","0.0-0.0","3","4","3","3","4","4","3","4","3","4","4","5","4","5","5","4","4","5","5","5","2","1","2","2","1","2","2","1","2","1","0","1","1","0","0","0","1","1","1","1","0","1","0","1","4","1","2","2","1","1","2","1","4","5","1","633792084226080768","林","350","","","","","","","","","","","","","","","","","","","","","","","","","","","","","","","","","","","","","","","","","",""
"","","","call-function","1","1685","0.0-1.0-0.0","3","4","3","3","4","4","3","4","3","4","4","5","4","5","5","4","4","5","5","5","2","1","2","2","1","2","2","1","2","1","0","1","1","0","0","0","1","1","1","1","0","1","0","1","4","1","2","2","1","1","2","1","4","5","1","633792084226080768","林","350","","","","","","","","","","","","","","","","","","","","","","","","","","","","","","","","","","","","","","","","","",""
"39802","","{""friend_name"":""林"",""ParticipantID"":""350""}","survey-html-form","2","41491","0.0-1.0-1.0","3","4","3","3","4","4","3","4","3","4","4","5","4","5","5","4","4","5","5","5","2","1","2","2","1","2","2","1","2","1","0","1","1","0","0","0","1","1","1","1","0","1","0","1","4","1","2","2","1","1","2","1","4","5","1","633792084226080768","林","350","","","","","","","","","","","","","","","","","","","","","","","","","","","","","","","","","","","","","","","","","",""
"","","","fullscreen","3","48528","0.0-2.0","3","4","3","3","4","4","3","4","3","4","4","5","4","5","5","4","4","5","5","5","2","1","2","2","1","2","2","1","2","1","0","1","1","0","0","0","1","1","1","1","0","1","0","1","4","1","2","2","1","1","2","1","4","5","1","633792084226080768","林","350","","true","{}","","","","","","","","","","","","","","","","","","","","","","","","","","","","","","","","","","","","","","",""
"39280","","{""Q01"":""3"",""Q02"":""4"",""Q03"":""3"",""Q04"":""3"",""Q05"":""4"",""Q06"":""4"",""Q07"":""3"",""Q08"":""4"",""Q09"":""3"",""Q10"":""4""}","survey-template","4","87825","0.0-3.0","3","4","3","3","4","4","3","4","3","4","4","5","4","5","5","4","4","5","5","5","2","1","2","2","1","2","2","1","2","1","0","1","1","0","0","0","1","1","1","1","0","1","0","1","4","1","2","2","1","1","2","1","4","5","1","633792084226080768","林","350","","","","{""Q01"":""3"",""Q02"":""4"",""Q03"":""3"",""Q04"":""3"",""Q05"":""4"",""Q06"":""4"",""Q07"":""3"",""Q08"":""4"",""Q09"":""3"",""Q10"":""4""}","[0,1,2,3,4,5,6,7,8,9]","[""Q01"",""Q02"",""Q03"",""Q04"",""Q05"",""Q06"",""Q07"",""Q08"",""Q09"",""Q10""]","[9132.600000143051,10470.400000095367,15316.5,17228.200000047684,19132.60000014305,20356.400000095367,24160.60000014305,25486.400000095367,27390.5,28254.200000047684]","[]","[8165.200000047684,9132.600000143051,10118.799999952316,10470.400000095367,12804.700000047684,15316.5,17228.200000047684,19132.60000014305,20356.400000095367,24160.60000014305,25486.400000095367,27390.5,28254.200000047684,39278.5]","0.3","0.6666666666666666","0","","","","","","","","","","","","","","","","","","","","","","","","","","","","","",""
"38277.299999952316","","{""Q01"":""4"",""Q02"":""5"",""Q03"":""4"",""Q04"":""5"",""Q05"":""5"",""Q06"":""4"",""Q07"":""4"",""Q08"":""5"",""Q09"":""5"",""Q10"":""5""}","survey-template","5","126111","0.0-4.0","3","4","3","3","4","4","3","4","3","4","4","5","4","5","5","4","4","5","5","5","2","1","2","2","1","2","2","1","2","1","0","1","1","0","0","0","1","1","1","1","0","1","0","1","4","1","2","2","1","1","2","1","4","5","1","633792084226080768","林","350","","","","{""Q01"":""4"",""Q02"":""5"",""Q03"":""4"",""Q04"":""5"",""Q05"":""5"",""Q06"":""4"",""Q07"":""4"",""Q08"":""5"",""Q09"":""5"",""Q10"":""5""}","[0,1,2,3,4,5,6,7,8,9]","[""Q01"",""Q02"",""Q03"",""Q04"",""Q05"",""Q06"",""Q07"",""Q08"",""Q09"",""Q10""]","[5005.299999952316,6483.099999904633,8332.599999904633,9565.900000095367,11797.5,13949,16704.900000095367,19729.299999952316,22491.099999904633,24043.5]","[]","[3281.4000000953674,4649.700000047684,5005.299999952316,6483.099999904633,8332.599999904633,9565.900000095367,11797.5,13503.200000047684,13949,16704.900000095367,19729.299999952316,21840.099999904633,22491.099999904633,24043.5,38275.59999990463]","0.4","0.5555555555555556","0","","","","","","","","","","","","","","","","","","","","","","","","","","","","","",""
"","","","preload","6","129562","0.0-5.0","3","4","3","3","4","4","3","4","3","4","4","5","4","5","5","4","4","5","5","5","2","1","2","2","1","2","2","1","2","1","0","1","1","0","0","0","1","1","1","1","0","1","0","1","4","1","2","2","1","1","2","1","4","5","1","633792084226080768","林","350","","true","","","","","","","","","","","false","[]","[]","[]","","","","","","","","","","","","","","","","","","","","","","","","","",""
"50527","","","instructions","7","180090","0.0-6.0","3","4","3","3","4","4","3","4","3","4","4","5","4","5","5","4","4","5","5","5","2","1","2","2","1","2","2","1","2","1","0","1","1","0","0","0","1","1","1","1","0","1","0","1","4","1","2","2","1","1","2","1","4","5","1","633792084226080768","林","350","","","","","","","","","","","","","","","","","[{""page_index"":0,""viewing_time"":50527}]","","","","","","","","","","","","","","","","","","","","","","","","",""
"17588","","","instructions","8","197679","0.0-7.0-0.0-0.0","3","4","3","3","4","4","3","4","3","4","4","5","4","5","5","4","4","5","5","5","2","1","2","2","1","2","2","1","2","1","0","1","1","0","0","0","1","1","1","1","0","1","0","1","4","1","2","2","1","1","2","1","4","5","1","633792084226080768","林","350","","","","","","","","","","","","","","","","","[{""page_index"":0,""viewing_time"":13924},{""page_index"":1,""viewing_time"":2068},{""page_index"":2,""viewing_time"":1595}]","","","","","","","","","","","","","","","","","","","","","","","","",""
"765","","j","psychophysics","9","199468","0.0-7.0-0.0-1.0-0.0-0.0","3","4","3","3","4","4","3","4","3","4","4","5","4","5","5","4","4","5","5","5","2","1","2","2","1","2","2","1","2","1","0","1","1","0","0","0","1","1","1","1","0","1","0","1","4","1","2","2","1","1","2","1","4","5","1","633792084226080768","林","350","","","","nonmatch","","","","","","","","","","","","","","key","j","19.214835164835037","710.7407909492769","395.92595389514173","j","true","nonmatch","img/triangle.png","五边","三角","ALT1_1","prac_ALT1_1","","","","","","","","","","","",""
"null","<span style='color:GreenYellow; font-size: 70px;'>正确! </span>","null","html-keyboard-response","10","199970","0.0-7.0-0.0-1.0-0.0-1.0","3","4","3","3","4","4","3","4","3","4","4","5","4","5","5","4","4","5","5","5","2","1","2","2","1","2","2","1","2","1","0","1","1","0","0","0","1","1","1","1","0","1","0","1","4","1","2","2","1","1","2","1","4","5","1","633792084226080768","林","350","","","","","","","","","","","","","","","","","","","","","","","","","","","","","","feedback_test","","","","","","","","","","","",""
"730","","j","psychophysics","11","201702","0.0-7.0-0.0-1.0-0.0-0.1","3","4","3","3","4","4","3","4","3","4","4","5","4","5","5","4","4","5","5","5","2","1","2","2","1","2","2","1","2","1","0","1","1","0","0","0","1","1","1","1","0","1","0","1","4","1","2","2","1","1","2","1","4","5","1","633792084226080768","林","350","","","","nonmatch","","","","","","","","","","","","","","key","j","16.65307766990284","710.7407909492769","395.92595389514173","j","true","nonmatch","img/square.png","五边","方形","ALT1_1","prac_ALT1_1","","","","","","","","","","","",""
"null","<span style='color:GreenYellow; font-size: 70px;'>正确! </span>","null","html-keyboard-response","12","202204","0.0-7.0-0.0-1.0-0.0-1.1","3","4","3","3","4","4","3","4","3","4","4","5","4","5","5","4","4","5","5","5","2","1","2","2","1","2","2","1","2","1","0","1","1","0","0","0","1","1","1","1","0","1","0","1","4","1","2","2","1","1","2","1","4","5","1","633792084226080768","林","350","","","","","","","","","","","","","","","","","","","","","","","","","","","","","","feedback_test","","","","","","","","","","","",""
"792","","j","psychophysics","13","204000","0.0-7.0-0.0-1.0-0.0-0.2","3","4","3","3","4","4","3","4","3","4","4","5","4","5","5","4","4","5","5","5","2","1","2","2","1","2","2","1","2","1","0","1","1","0","0","0","1","1","1","1","0","1","0","1","4","1","2","2","1","1","2","1","4","5","1","633792084226080768","林","350","","","","nonmatch","","","","","","","","","","","","","","key","j","16.653560747663658","710.7407909492769","395.92595389514173","j","true","nonmatch","img/pentagon.png","椭圆","五边","ALT1_1","prac_ALT1_1","","","","","","","","","","","",""
"null","<span style='color:GreenYellow; font-size: 70px;'>正确! </span>","null","html-keyboard-response","14","204501","0.0-7.0-0.0-1.0-0.0-1.2","3","4","3","3","4","4","3","4","3","4","4","5","4","5","5","4","4","5","5","5","2","1","2","2","1","2","2","1","2","1","0","1","1","0","0","0","1","1","1","1","0","1","0","1","4","1","2","2","1","1","2","1","4","5","1","633792084226080768","林","350","","","","","","","","","","","","","","","","","","","","","","","","","","","","","","feedback_test","","","","","","","","","","","",""
"778","","f","psychophysics","15","206280","0.0-7.0-0.0-1.0-0.0-0.3","3","4","3","3","4","4","3","4","3","4","4","5","4","5","5","4","4","5","5","5","2","1","2","2","1","2","2","1","2","1","0","1","1","0","0","0","1","1","1","1","0","1","0","1","4","1","2","2","1","1","2","1","4","5","1","633792084226080768","林","350","","","","match","","","","","","","","","","","","","","key","f","16.653424528301947","710.7407909492769","395.92595389514173","f","true","match","img/pentagon.png","五边","五边","ALT1_1","prac_ALT1_1","","","","","","","","","","","",""
"null","<span style='color:GreenYellow; font-size: 70px;'>正确! </span>","null","html-keyboard-response","16","206783","0.0-7.0-0.0-1.0-0.0-1.3","3","4","3","3","4","4","3","4","3","4","4","5","4","5","5","4","4","5","5","5","2","1","2","2","1","2","2","1","2","1","0","1","1","0","0","0","1","1","1","1","0","1","0","1","4","1","2","2","1","1","2","1","4","5","1","633792084226080768","林","350","","","","","","","","","","","","","","","","","","","","","","","","","","","","","","feedback_test","","","","","","","","","","","",""
"619","","f","psychophysics","17","208404","0.0-7.0-0.0-1.0-0.0-0.4","3","4","3","3","4","4","3","4","3","4","4","5","4","5","5","4","4","5","5","5","2","1","2","2","1","2","2","1","2","1","0","1","1","0","0","0","1","1","1","1","0","1","0","1","4","1","2","2","1","1","2","1","4","5","1","633792084226080768","林","350","","","","match","","","","","","","","","","","","","","key","f","16.650770833333507","710.7407909492769","395.92595389514173","f","true","match","img/square.png","方形","方形","ALT1_1","prac_ALT1_1","","","","","","","","","","","",""
"null","<span style='color:GreenYellow; font-size: 70px;'>正确! </span>","null","html-keyboard-response","18","208905","0.0-7.0-0.0-1.0-0.0-1.4","3","4","3","3","4","4","3","4","3","4","4","5","4","5","5","4","4","5","5","5","2","1","2","2","1","2","2","1","2","1","0","1","1","0","0","0","1","1","1","1","0","1","0","1","4","1","2","2","1","1","2","1","4","5","1","633792084226080768","林","350","","","","","","","","","","","","","","","","","","","","","","","","","","","","","","feedback_test","","","","","","","","","","","",""
"694","","f","psychophysics","19","210603","0.0-7.0-0.0-1.0-0.0-0.5","3","4","3","3","4","4","3","4","3","4","4","5","4","5","5","4","4","5","5","5","2","1","2","2","1","2","2","1","2","1","0","1","1","0","0","0","1","1","1","1","0","1","0","1","4","1","2","2","1","1","2","1","4","5","1","633792084226080768","林","350","","","","match","","","","","","","","","","","","","","key","f","16.644679999999934","710.7407909492769","395.92595389514173","f","true","match","img/square.png","方形","方形","ALT1_1","prac_ALT1_1","","","","","","","","","","","",""
"null","<span style='color:GreenYellow; font-size: 70px;'>正确! </span>","null","html-keyboard-response","20","211105","0.0-7.0-0.0-1.0-0.0-1.5","3","4","3","3","4","4","3","4","3","4","4","5","4","5","5","4","4","5","5","5","2","1","2","2","1","2","2","1","2","1","0","1","1","0","0","0","1","1","1","1","0","1","0","1","4","1","2","2","1","1","2","1","4","5","1","633792084226080768","林","350","","","","","","","","","","","","","","","","","","","","","","","","","","","","","","feedback_test","","","","","","","","","","","",""
"637","","j","psychophysics","21","212745","0.0-7.0-0.0-1.0-0.0-0.6","3","4","3","3","4","4","3","4","3","4","4","5","4","5","5","4","4","5","5","5","2","1","2","2","1","2","2","1","2","1","0","1","1","0","0","0","1","1","1","1","0","1","0","1","4","1","2","2","1","1","2","1","4","5","1","633792084226080768","林","350","","","","nonmatch","","","","","","","","","","","","","","key","j","16.6555051546392","710.7407909492769","395.92595389514173","j","true","nonmatch","img/triangle.png","椭圆","三角","ALT1_1","prac_ALT1_1","","","","","","","","","","","",""
"null","<span style='color:GreenYellow; font-size: 70px;'>正确! </span>","null","html-keyboard-response","22","213246","0.0-7.0-0.0-1.0-0.0-1.6","3","4","3","3","4","4","3","4","3","4","4","5","4","5","5","4","4","5","5","5","2","1","2","2","1","2","2","1","2","1","0","1","1","0","0","0","1","1","1","1","0","1","0","1","4","1","2","2","1","1","2","1","4","5","1","633792084226080768","林","350","","","","","","","","","","","","","","","","","","","","","","","","","","","","","","feedback_test","","","","","","","","","","","",""
"802","","j","psychophysics","23","215050","0.0-7.0-0.0-1.0-0.0-0.7","3","4","3","3","4","4","3","4","3","4","4","5","4","5","5","4","4","5","5","5","2","1","2","2","1","2","2","1","2","1","0","1","1","0","0","0","1","1","1","1","0","1","0","1","4","1","2","2","1","1","2","1","4","5","1","633792084226080768","林","350","","","","nonmatch","","","","","","","","","","","","","","key","j","16.653261682243038","710.7407909492769","395.92595389514173","j","true","nonmatch","img/pentagon.png","方形","五边","ALT1_1","prac_ALT1_1","","","","","","","","","","","",""
"null","<span style='color:GreenYellow; font-size: 70px;'>正确! </span>","null","html-keyboard-response","24","215554","0.0-7.0-0.0-1.0-0.0-1.7","3","4","3","3","4","4","3","4","3","4","4","5","4","5","5","4","4","5","5","5","2","1","2","2","1","2","2","1","2","1","0","1","1","0","0","0","1","1","1","1","0","1","0","1","4","1","2","2","1","1","2","1","4","5","1","633792084226080768","林","350","","","","","","","","","","","","","","","","","","","","","","","","","","","","","","feedback_test","","","","","","","","","","","",""
"732","","j","psychophysics","25","217287","0.0-7.0-0.0-1.0-0.0-0.8","3","4","3","3","4","4","3","4","3","4","4","5","4","5","5","4","4","5","5","5","2","1","2","2","1","2","2","1","2","1","0","1","1","0","0","0","1","1","1","1","0","1","0","1","4","1","2","2","1","1","2","1","4","5","1","633792084226080768","林","350","","","","nonmatch","","","","","","","","","","","","","","key","j","16.653679611650464","710.7407909492769","395.92595389514173","j","true","nonmatch","img/ellipse.png","三角","椭圆","ALT1_1","prac_ALT1_1","","","","","","","","","","","",""
"null","<span style='color:GreenYellow; font-size: 70px;'>正确! </span>","null","html-keyboard-response","26","217789","0.0-7.0-0.0-1.0-0.0-1.8","3","4","3","3","4","4","3","4","3","4","4","5","4","5","5","4","4","5","5","5","2","1","2","2","1","2","2","1","2","1","0","1","1","0","0","0","1","1","1","1","0","1","0","1","4","1","2","2","1","1","2","1","4","5","1","633792084226080768","林","350","","","","","","","","","","","","","","","","","","","","","","","","","","","","","","feedback_test","","","","","","","","","","","",""
"935","","j","psychophysics","27","219726","0.0-7.0-0.0-1.0-0.0-0.9","3","4","3","3","4","4","3","4","3","4","4","5","4","5","5","4","4","5","5","5","2","1","2","2","1","2","2","1","2","1","0","1","1","0","0","0","1","1","1","1","0","1","0","1","4","1","2","2","1","1","2","1","4","5","1","633792084226080768","林","350","","","","nonmatch","","","","","","","","","","","","","","key","j","16.65049565217392","710.7407909492769","395.92595389514173","f","false","match","img/square.png","方形","方形","ALT1_1","prac_ALT1_1","","","","","","","","","","","",""
"null","<span style='color:red; font-size: 70px;'>错误! </span>","null","html-keyboard-response","28","220228","0.0-7.0-0.0-1.0-0.0-1.9","3","4","3","3","4","4","3","4","3","4","4","5","4","5","5","4","4","5","5","5","2","1","2","2","1","2","2","1","2","1","0","1","1","0","0","0","1","1","1","1","0","1","0","1","4","1","2","2","1","1","2","1","4","5","1","633792084226080768","林","350","","","","","","","","","","","","","","","","","","","","","","","","","","","","","","feedback_test","","","","","","","","","","","",""
"733","","f","psychophysics","29","221967","0.0-7.0-0.0-1.0-0.0-0.10","3","4","3","3","4","4","3","4","3","4","4","5","4","5","5","4","4","5","5","5","2","1","2","2","1","2","2","1","2","1","0","1","1","0","0","0","1","1","1","1","0","1","0","1","4","1","2","2","1","1","2","1","4","5","1","633792084226080768","林","350","","","","match","","","","","","","","","","","","","","key","f","16.640737864077522","710.7407909492769","395.92595389514173","f","true","match","img/ellipse.png","椭圆","椭圆","ALT1_1","prac_ALT1_1","","","","","","","","","","","",""
"null","<span style='color:GreenYellow; font-size: 70px;'>正确! </span>","null","html-keyboard-response","30","222468","0.0-7.0-0.0-1.0-0.0-1.10","3","4","3","3","4","4","3","4","3","4","4","5","4","5","5","4","4","5","5","5","2","1","2","2","1","2","2","1","2","1","0","1","1","0","0","0","1","1","1","1","0","1","0","1","4","1","2","2","1","1","2","1","4","5","1","633792084226080768","林","350","","","","","","","","","","","","","","","","","","","","","","","","","","","","","","feedback_test","","","","","","","","","","","",""
"764","","f","psychophysics","31","224234","0.0-7.0-0.0-1.0-0.0-0.11","3","4","3","3","4","4","3","4","3","4","4","5","4","5","5","4","4","5","5","5","2","1","2","2","1","2","2","1","2","1","0","1","1","0","0","0","1","1","1","1","0","1","0","1","4","1","2","2","1","1","2","1","4","5","1","633792084226080768","林","350","","","","match","","","","","","","","","","","","","","key","f","16.65397142857158","710.7407909492769","395.92595389514173","f","true","match","img/pentagon.png","五边","五边","ALT1_1","prac_ALT1_1","","","","","","","","","","","",""
"null","<span style='color:GreenYellow; font-size: 70px;'>正确! </span>","null","html-keyboard-response","32","224734","0.0-7.0-0.0-1.0-0.0-1.11","3","4","3","3","4","4","3","4","3","4","4","5","4","5","5","4","4","5","5","5","2","1","2","2","1","2","2","1","2","1","0","1","1","0","0","0","1","1","1","1","0","1","0","1","4","1","2","2","1","1","2","1","4","5","1","633792084226080768","林","350","","","","","","","","","","","","","","","","","","","","","","","","","","","","","","feedback_test","","","","","","","","","","","",""
"676","","f","psychophysics","33","226411","0.0-7.0-0.0-1.0-0.0-0.12","3","4","3","3","4","4","3","4","3","4","4","5","4","5","5","4","4","5","5","5","2","1","2","2","1","2","2","1","2","1","0","1","1","0","0","0","1","1","1","1","0","1","0","1","4","1","2","2","1","1","2","1","4","5","1","633792084226080768","林","350","","","","match","","","","","","","","","","","","","","key","f","16.653029999999852","710.7407909492769","395.92595389514173","f","true","match","img/pentagon.png","五边","五边","ALT1_1","prac_ALT1_1","","","","","","","","","","","",""
"null","<span style='color:GreenYellow; font-size: 70px;'>正确! </span>","null","html-keyboard-response","34","226913","0.0-7.0-0.0-1.0-0.0-1.12","3","4","3","3","4","4","3","4","3","4","4","5","4","5","5","4","4","5","5","5","2","1","2","2","1","2","2","1","2","1","0","1","1","0","0","0","1","1","1","1","0","1","0","1","4","1","2","2","1","1","2","1","4","5","1","633792084226080768","林","350","","","","","","","","","","","","","","","","","","","","","","","","","","","","","","feedback_test","","","","","","","","","","","",""
"739","","j","psychophysics","35","228654","0.0-7.0-0.0-1.0-0.0-0.13","3","4","3","3","4","4","3","4","3","4","4","5","4","5","5","4","4","5","5","5","2","1","2","2","1","2","2","1","2","1","0","1","1","0","0","0","1","1","1","1","0","1","0","1","4","1","2","2","1","1","2","1","4","5","1","633792084226080768","林","350","","","","nonmatch","","","","","","","","","","","","","","key","j","16.653378640776793","710.7407909492769","395.92595389514173","j","true","nonmatch","img/square.png","椭圆","方形","ALT1_1","prac_ALT1_1","","","","","","","","","","","",""
"null","<span style='color:GreenYellow; font-size: 70px;'>正确! </span>","null","html-keyboard-response","36","229163","0.0-7.0-0.0-1.0-0.0-1.13","3","4","3","3","4","4","3","4","3","4","4","5","4","5","5","4","4","5","5","5","2","1","2","2","1","2","2","1","2","1","0","1","1","0","0","0","1","1","1","1","0","1","0","1","4","1","2","2","1","1","2","1","4","5","1","633792084226080768","林","350","","","","","","","","","","","","","","","","","","","","","","","","","","","","","","feedback_test","","","","","","","","","","","",""
"721","","j","psychophysics","37","230888","0.0-7.0-0.0-1.0-0.0-0.14","3","4","3","3","4","4","3","4","3","4","4","5","4","5","5","4","4","5","5","5","2","1","2","2","1","2","2","1","2","1","0","1","1","0","0","0","1","1","1","1","0","1","0","1","4","1","2","2","1","1","2","1","4","5","1","633792084226080768","林","350","","","","nonmatch","","","","","","","","","","","","","","key","j","16.654078431372408","710.7407909492769","395.92595389514173","j","true","nonmatch","img/ellipse.png","五边","椭圆","ALT1_1","prac_ALT1_1","","","","","","","","","","","",""
"null","<span style='color:GreenYellow; font-size: 70px;'>正确! </span>","null","html-keyboard-response","38","231389","0.0-7.0-0.0-1.0-0.0-1.14","3","4","3","3","4","4","3","4","3","4","4","5","4","5","5","4","4","5","5","5","2","1","2","2","1","2","2","1","2","1","0","1","1","0","0","0","1","1","1","1","0","1","0","1","4","1","2","2","1","1","2","1","4","5","1","633792084226080768","林","350","","","","","","","","","","","","","","","","","","","","","","","","","","","","","","feedback_test","","","","","","","","","","","",""
"821","","f","psychophysics","39","233211","0.0-7.0-0.0-1.0-0.0-0.15","3","4","3","3","4","4","3","4","3","4","4","5","4","5","5","4","4","5","5","5","2","1","2","2","1","2","2","1","2","1","0","1","1","0","0","0","1","1","1","1","0","1","0","1","4","1","2","2","1","1","2","1","4","5","1","633792084226080768","林","350","","","","match","","","","","","","","","","","","","","key","f","16.652990740740886","710.7407909492769","395.92595389514173","f","true","match","img/triangle.png","三角","三角","ALT1_1","prac_ALT1_1","","","","","","","","","","","",""
"null","<span style='color:GreenYellow; font-size: 70px;'>正确! </span>","null","html-keyboard-response","40","233712","0.0-7.0-0.0-1.0-0.0-1.15","3","4","3","3","4","4","3","4","3","4","4","5","4","5","5","4","4","5","5","5","2","1","2","2","1","2","2","1","2","1","0","1","1","0","0","0","1","1","1","1","0","1","0","1","4","1","2","2","1","1","2","1","4","5","1","633792084226080768","林","350","","","","","","","","","","","","","","","","","","","","","","","","","","","","","","feedback_test","","","","","","","","","","","",""
"744","","f","psychophysics","41","235458","0.0-7.0-0.0-1.0-0.0-0.16","3","4","3","3","4","4","3","4","3","4","4","5","4","5","5","4","4","5","5","5","2","1","2","2","1","2","2","1","2","1","0","1","1","0","0","0","1","1","1","1","0","1","0","1","4","1","2","2","1","1","2","1","4","5","1","633792084226080768","林","350","","","","match","","","","","","","","","","","","","","key","f","16.65424038461536","710.7407909492769","395.92595389514173","f","true","match","img/ellipse.png","椭圆","椭圆","ALT1_1","prac_ALT1_1","","","","","","","","","","","",""
"null","<span style='color:GreenYellow; font-size: 70px;'>正确! </span>","null","html-keyboard-response","42","235960","0.0-7.0-0.0-1.0-0.0-1.16","3","4","3","3","4","4","3","4","3","4","4","5","4","5","5","4","4","5","5","5","2","1","2","2","1","2","2","1","2","1","0","1","1","0","0","0","1","1","1","1","0","1","0","1","4","1","2","2","1","1","2","1","4","5","1","633792084226080768","林","350","","","","","","","","","","","","","","","","","","","","","","","","","","","","","","feedback_test","","","","","","","","","","","",""
"806","","f","psychophysics","43","237769","0.0-7.0-0.0-1.0-0.0-0.17","3","4","3","3","4","4","3","4","3","4","4","5","4","5","5","4","4","5","5","5","2","1","2","2","1","2","2","1","2","1","0","1","1","0","0","0","1","1","1","1","0","1","0","1","4","1","2","2","1","1","2","1","4","5","1","633792084226080768","林","350","","","","match","","","","","","","","","","","","","","key","f","16.65342592592572","710.7407909492769","395.92595389514173","f","true","match","img/triangle.png","三角","三角","ALT1_1","prac_ALT1_1","","","","","","","","","","","",""
"null","<span style='color:GreenYellow; font-size: 70px;'>正确! </span>","null","html-keyboard-response","44","238272","0.0-7.0-0.0-1.0-0.0-1.17","3","4","3","3","4","4","3","4","3","4","4","5","4","5","5","4","4","5","5","5","2","1","2","2","1","2","2","1","2","1","0","1","1","0","0","0","1","1","1","1","0","1","0","1","4","1","2","2","1","1","2","1","4","5","1","633792084226080768","林","350","","","","","","","","","","","","","","","","","","","","","","","","","","","","","","feedback_test","","","","","","","","","","","",""
"811","","j","psychophysics","45","240093","0.0-7.0-0.0-1.0-0.0-0.18","3","4","3","3","4","4","3","4","3","4","4","5","4","5","5","4","4","5","5","5","2","1","2","2","1","2","2","1","2","1","0","1","1","0","0","0","1","1","1","1","0","1","0","1","4","1","2","2","1","1","2","1","4","5","1","633792084226080768","林","350","","","","nonmatch","","","","","","","","","","","","","","key","j","16.65168518518503","710.7407909492769","395.92595389514173","j","true","nonmatch","img/pentagon.png","三角","五边","ALT1_1","prac_ALT1_1","","","","","","","","","","","",""
"null","<span style='color:GreenYellow; font-size: 70px;'>正确! </span>","null","html-keyboard-response","46","240594","0.0-7.0-0.0-1.0-0.0-1.18","3","4","3","3","4","4","3","4","3","4","4","5","4","5","5","4","4","5","5","5","2","1","2","2","1","2","2","1","2","1","0","1","1","0","0","0","1","1","1","1","0","1","0","1","4","1","2","2","1","1","2","1","4","5","1","633792084226080768","林","350","","","","","","","","","","","","","","","","","","","","","","","","","","","","","","feedback_test","","","","","","","","","","","",""
"665","","j","psychophysics","47","242260","0.0-7.0-0.0-1.0-0.0-0.19","3","4","3","3","4","4","3","4","3","4","4","5","4","5","5","4","4","5","5","5","2","1","2","2","1","2","2","1","2","1","0","1","1","0","0","0","1","1","1","1","0","1","0","1","4","1","2","2","1","1","2","1","4","5","1","633792084226080768","林","350","","","","nonmatch","","","","","","","","","","","","","","key","j","16.65446464646451","710.7407909492769","395.92595389514173","j","true","nonmatch","img/triangle.png","方形","三角","ALT1_1","prac_ALT1_1","","","","","","","","","","","",""
"null","<span style='color:GreenYellow; font-size: 70px;'>正确! </span>","null","html-keyboard-response","48","242762","0.0-7.0-0.0-1.0-0.0-1.19","3","4","3","3","4","4","3","4","3","4","4","5","4","5","5","4","4","5","5","5","2","1","2","2","1","2","2","1","2","1","0","1","1","0","0","0","1","1","1","1","0","1","0","1","4","1","2","2","1","1","2","1","4","5","1","633792084226080768","林","350","","","","","","","","","","","","","","","","","","","","","","","","","","","","","","feedback_test","","","","","","","","","","","",""
"689","","j","psychophysics","49","244453","0.0-7.0-0.0-1.0-0.0-0.20","3","4","3","3","4","4","3","4","3","4","4","5","4","5","5","4","4","5","5","5","2","1","2","2","1","2","2","1","2","1","0","1","1","0","0","0","1","1","1","1","0","1","0","1","4","1","2","2","1","1","2","1","4","5","1","633792084226080768","林","350","","","","nonmatch","","","","","","","","","","","","","","key","j","16.653489999999874","710.7407909492769","395.92595389514173","j","true","nonmatch","img/ellipse.png","方形","椭圆","ALT1_1","prac_ALT1_1","","","","","","","","","","","",""
"null","<span style='color:GreenYellow; font-size: 70px;'>正确! </span>","null","html-keyboard-response","50","244954","0.0-7.0-0.0-1.0-0.0-1.20","3","4","3","3","4","4","3","4","3","4","4","5","4","5","5","4","4","5","5","5","2","1","2","2","1","2","2","1","2","1","0","1","1","0","0","0","1","1","1","1","0","1","0","1","4","1","2","2","1","1","2","1","4","5","1","633792084226080768","林","350","","","","","","","","","","","","","","","","","","","","","","","","","","","","","","feedback_test","","","","","","","","","","","",""
"671","","f","psychophysics","51","246626","0.0-7.0-0.0-1.0-0.0-0.21","3","4","3","3","4","4","3","4","3","4","4","5","4","5","5","4","4","5","5","5","2","1","2","2","1","2","2","1","2","1","0","1","1","0","0","0","1","1","1","1","0","1","0","1","4","1","2","2","1","1","2","1","4","5","1","633792084226080768","林","350","","","","match","","","","","","","","","","","","","","key","f","16.653252525252732","710.7407909492769","395.92595389514173","f","true","match","img/ellipse.png","椭圆","椭圆","ALT1_1","prac_ALT1_1","","","","","","","","","","","",""
"null","<span style='color:GreenYellow; font-size: 70px;'>正确! </span>","null","html-keyboard-response","52","247129","0.0-7.0-0.0-1.0-0.0-1.21","3","4","3","3","4","4","3","4","3","4","4","5","4","5","5","4","4","5","5","5","2","1","2","2","1","2","2","1","2","1","0","1","1","0","0","0","1","1","1","1","0","1","0","1","4","1","2","2","1","1","2","1","4","5","1","633792084226080768","林","350","","","","","","","","","","","","","","","","","","","","","","","","","","","","","","feedback_test","","","","","","","","","","","",""
"683","","j","psychophysics","53","248814","0.0-7.0-0.0-1.0-0.0-0.22","3","4","3","3","4","4","3","4","3","4","4","5","4","5","5","4","4","5","5","5","2","1","2","2","1","2","2","1","2","1","0","1","1","0","0","0","1","1","1","1","0","1","0","1","4","1","2","2","1","1","2","1","4","5","1","633792084226080768","林","350","","","","nonmatch","","","","","","","","","","","","","","key","j","16.653090000000084","710.7407909492769","395.92595389514173","j","true","nonmatch","img/square.png","三角","方形","ALT1_1","prac_ALT1_1","","","","","","","","","","","",""
"null","<span style='color:GreenYellow; font-size: 70px;'>正确! </span>","null","html-keyboard-response","54","249316","0.0-7.0-0.0-1.0-0.0-1.22","3","4","3","3","4","4","3","4","3","4","4","5","4","5","5","4","4","5","5","5","2","1","2","2","1","2","2","1","2","1","0","1","1","0","0","0","1","1","1","1","0","1","0","1","4","1","2","2","1","1","2","1","4","5","1","633792084226080768","林","350","","","","","","","","","","","","","","","","","","","","","","","","","","","","","","feedback_test","","","","","","","","","","","",""
"640","","f","psychophysics","55","250958","0.0-7.0-0.0-1.0-0.0-0.23","3","4","3","3","4","4","3","4","3","4","4","5","4","5","5","4","4","5","5","5","2","1","2","2","1","2","2","1","2","1","0","1","1","0","0","0","1","1","1","1","0","1","0","1","4","1","2","2","1","1","2","1","4","5","1","633792084226080768","林","350","","","","match","","","","","","","","","","","","","","key","f","16.651112244897746","710.7407909492769","395.92595389514173","f","true","match","img/triangle.png","三角","三角","ALT1_1","prac_ALT1_1","","","","","","","","","","","",""
"null","<span style='color:GreenYellow; font-size: 70px;'>正确! </span>","null","html-keyboard-response","56","251473","0.0-7.0-0.0-1.0-0.0-1.23","3","4","3","3","4","4","3","4","3","4","4","5","4","5","5","4","4","5","5","5","2","1","2","2","1","2","2","1","2","1","0","1","1","0","0","0","1","1","1","1","0","1","0","1","4","1","2","2","1","1","2","1","4","5","1","633792084226080768","林","350","","","","","","","","","","","","","","","","","","","","","","","","","","","","","","feedback_test","","","","","","","","","","","",""
"826","","f","psychophysics","57","253301","0.0-7.0-0.0-1.0-0.0-0.24","3","4","3","3","4","4","3","4","3","4","4","5","4","5","5","4","4","5","5","5","2","1","2","2","1","2","2","1","2","1","0","1","1","0","0","0","1","1","1","1","0","1","0","1","4","1","2","2","1","1","2","1","4","5","1","633792084226080768","林","350","","","","match","","","","","","","","","","","","","","key","f","16.651990740740818","710.7407909492769","395.92595389514173","f","true","match","img/ellipse.png","椭圆","椭圆","ALT1_1","prac_ALT1_1","","","","","","","","","","","",""
"null","<span style='color:GreenYellow; font-size: 70px;'>正确! </span>","null","html-keyboard-response","58","253802","0.0-7.0-0.0-1.0-0.0-1.24","3","4","3","3","4","4","3","4","3","4","4","5","4","5","5","4","4","5","5","5","2","1","2","2","1","2","2","1","2","1","0","1","1","0","0","0","1","1","1","1","0","1","0","1","4","1","2","2","1","1","2","1","4","5","1","633792084226080768","林","350","","","","","","","","","","","","","","","","","","","","","","","","","","","","","","feedback_test","","","","","","","","","","","",""
"697","","j","psychophysics","59","255503","0.0-7.0-0.0-1.0-0.0-0.25","3","4","3","3","4","4","3","4","3","4","4","5","4","5","5","4","4","5","5","5","2","1","2","2","1","2","2","1","2","1","0","1","1","0","0","0","1","1","1","1","0","1","0","1","4","1","2","2","1","1","2","1","4","5","1","633792084226080768","林","350","","","","nonmatch","","","","","","","","","","","","","","key","j","16.653178217821974","710.7407909492769","395.92595389514173","j","true","nonmatch","img/pentagon.png","三角","五边","ALT1_1","prac_ALT1_1","","","","","","","","","","","",""
"null","<span style='color:GreenYellow; font-size: 70px;'>正确! </span>","null","html-keyboard-response","60","256005","0.0-7.0-0.0-1.0-0.0-1.25","3","4","3","3","4","4","3","4","3","4","4","5","4","5","5","4","4","5","5","5","2","1","2","2","1","2","2","1","2","1","0","1","1","0","0","0","1","1","1","1","0","1","0","1","4","1","2","2","1","1","2","1","4","5","1","633792084226080768","林","350","","","","","","","","","","","","","","","","","","","","","","","","","","","","","","feedback_test","","","","","","","","","","","",""
"660","","j","psychophysics","61","257666","0.0-7.0-0.0-1.0-0.0-0.26","3","4","3","3","4","4","3","4","3","4","4","5","4","5","5","4","4","5","5","5","2","1","2","2","1","2","2","1","2","1","0","1","1","0","0","0","1","1","1","1","0","1","0","1","4","1","2","2","1","1","2","1","4","5","1","633792084226080768","林","350","","","","nonmatch","","","","","","","","","","","","","","key","j","16.65340816326545","710.7407909492769","395.92595389514173","j","true","nonmatch","img/square.png","椭圆","方形","ALT1_1","prac_ALT1_1","","","","","","","","","","","",""
"null","<span style='color:GreenYellow; font-size: 70px;'>正确! </span>","null","html-keyboard-response","62","258168","0.0-7.0-0.0-1.0-0.0-1.26","3","4","3","3","4","4","3","4","3","4","4","5","4","5","5","4","4","5","5","5","2","1","2","2","1","2","2","1","2","1","0","1","1","0","0","0","1","1","1","1","0","1","0","1","4","1","2","2","1","1","2","1","4","5","1","633792084226080768","林","350","","","","","","","","","","","","","","","","","","","","","","","","","","","","","","feedback_test","","","","","","","","","","","",""
"699","","j","psychophysics","63","259871","0.0-7.0-0.0-1.0-0.0-0.27","3","4","3","3","4","4","3","4","3","4","4","5","4","5","5","4","4","5","5","5","2","1","2","2","1","2","2","1","2","1","0","1","1","0","0","0","1","1","1","1","0","1","0","1","4","1","2","2","1","1","2","1","4","5","1","633792084226080768","林","350","","","","nonmatch","","","","","","","","","","","","","","key","j","16.653336633663304","710.7407909492769","395.92595389514173","j","true","nonmatch","img/triangle.png","方形","三角","ALT1_1","prac_ALT1_1","","","","","","","","","","","",""
"null","<span style='color:GreenYellow; font-size: 70px;'>正确! </span>","null","html-keyboard-response","64","260371","0.0-7.0-0.0-1.0-0.0-1.27","3","4","3","3","4","4","3","4","3","4","4","5","4","5","5","4","4","5","5","5","2","1","2","2","1","2","2","1","2","1","0","1","1","0","0","0","1","1","1","1","0","1","0","1","4","1","2","2","1","1","2","1","4","5","1","633792084226080768","林","350","","","","","","","","","","","","","","","","","","","","","","","","","","","","","","feedback_test","","","","","","","","","","","",""
"717","","f","psychophysics","65","262090","0.0-7.0-0.0-1.0-0.0-0.28","3","4","3","3","4","4","3","4","3","4","4","5","4","5","5","4","4","5","5","5","2","1","2","2","1","2","2","1","2","1","0","1","1","0","0","0","1","1","1","1","0","1","0","1","4","1","2","2","1","1","2","1","4","5","1","633792084226080768","林","350","","","","match","","","","","","","","","","","","","","key","f","16.65333333333347","710.7407909492769","395.92595389514173","f","true","match","img/ellipse.png","椭圆","椭圆","ALT1_1","prac_ALT1_1","","","","","","","","","","","",""
"null","<span style='color:GreenYellow; font-size: 70px;'>正确! </span>","null","html-keyboard-response","66","262593","0.0-7.0-0.0-1.0-0.0-1.28","3","4","3","3","4","4","3","4","3","4","4","5","4","5","5","4","4","5","5","5","2","1","2","2","1","2","2","1","2","1","0","1","1","0","0","0","1","1","1","1","0","1","0","1","4","1","2","2","1","1","2","1","4","5","1","633792084226080768","林","350","","","","","","","","","","","","","","","","","","","","","","","","","","","","","","feedback_test","","","","","","","","","","","",""
"671","","j","psychophysics","67","264267","0.0-7.0-0.0-1.0-0.0-0.29","3","4","3","3","4","4","3","4","3","4","4","5","4","5","5","4","4","5","5","5","2","1","2","2","1","2","2","1","2","1","0","1","1","0","0","0","1","1","1","1","0","1","0","1","4","1","2","2","1","1","2","1","4","5","1","633792084226080768","林","350","","","","nonmatch","","","","","","","","","","","","","","key","j","16.653150000000025","710.7407909492769","395.92595389514173","j","true","nonmatch","img/pentagon.png","椭圆","五边","ALT1_1","prac_ALT1_1","","","","","","","","","","","",""
"null","<span style='color:GreenYellow; font-size: 70px;'>正确! </span>","null","html-keyboard-response","68","264769","0.0-7.0-0.0-1.0-0.0-1.29","3","4","3","3","4","4","3","4","3","4","4","5","4","5","5","4","4","5","5","5","2","1","2","2","1","2","2","1","2","1","0","1","1","0","0","0","1","1","1","1","0","1","0","1","4","1","2","2","1","1","2","1","4","5","1","633792084226080768","林","350","","","","","","","","","","","","","","","","","","","","","","","","","","","","","","feedback_test","","","","","","","","","","","",""
"770","","f","psychophysics","69","266543","0.0-7.0-0.0-1.0-0.0-0.30","3","4","3","3","4","4","3","4","3","4","4","5","4","5","5","4","4","5","5","5","2","1","2","2","1","2","2","1","2","1","0","1","1","0","0","0","1","1","1","1","0","1","0","1","4","1","2","2","1","1","2","1","4","5","1","633792084226080768","林","350","","","","match","","","","","","","","","","","","","","key","f","16.654571428571252","710.7407909492769","395.92595389514173","f","true","match","img/pentagon.png","五边","五边","ALT1_1","prac_ALT1_1","","","","","","","","","","","",""
"null","<span style='color:GreenYellow; font-size: 70px;'>正确! </span>","null","html-keyboard-response","70","267046","0.0-7.0-0.0-1.0-0.0-1.30","3","4","3","3","4","4","3","4","3","4","4","5","4","5","5","4","4","5","5","5","2","1","2","2","1","2","2","1","2","1","0","1","1","0","0","0","1","1","1","1","0","1","0","1","4","1","2","2","1","1","2","1","4","5","1","633792084226080768","林","350","","","","","","","","","","","","","","","","","","","","","","","","","","","","","","feedback_test","","","","","","","","","","","",""
"778","","j","psychophysics","71","268827","0.0-7.0-0.0-1.0-0.0-0.31","3","4","3","3","4","4","3","4","3","4","4","5","4","5","5","4","4","5","5","5","2","1","2","2","1","2","2","1","2","1","0","1","1","0","0","0","1","1","1","1","0","1","0","1","4","1","2","2","1","1","2","1","4","5","1","633792084226080768","林","350","","","","nonmatch","","","","","","","","","","","","","","key","j","16.652924528301536","710.7407909492769","395.92595389514173","j","true","nonmatch","img/ellipse.png","三角","椭圆","ALT1_1","prac_ALT1_1","","","","","","","","","","","",""
"null","<span style='color:GreenYellow; font-size: 70px;'>正确! </span>","null","html-keyboard-response","72","269331","0.0-7.0-0.0-1.0-0.0-1.31","3","4","3","3","4","4","3","4","3","4","4","5","4","5","5","4","4","5","5","5","2","1","2","2","1","2","2","1","2","1","0","1","1","0","0","0","1","1","1","1","0","1","0","1","4","1","2","2","1","1","2","1","4","5","1","633792084226080768","林","350","","","","","","","","","","","","","","","","","","","","","","","","","","","","","","feedback_test","","","","","","","","","","","",""
"646","","f","psychophysics","73","270979","0.0-7.0-0.0-1.0-0.0-0.32","3","4","3","3","4","4","3","4","3","4","4","5","4","5","5","4","4","5","5","5","2","1","2","2","1","2","2","1","2","1","0","1","1","0","0","0","1","1","1","1","0","1","0","1","4","1","2","2","1","1","2","1","4","5","1","633792084226080768","林","350","","","","match","","","","","","","","","","","","","","key","f","16.653010204081585","710.7407909492769","395.92595389514173","f","true","match","img/triangle.png","三角","三角","ALT1_1","prac_ALT1_1","","","","","","","","","","","",""
"null","<span style='color:GreenYellow; font-size: 70px;'>正确! </span>","null","html-keyboard-response","74","271480","0.0-7.0-0.0-1.0-0.0-1.32","3","4","3","3","4","4","3","4","3","4","4","5","4","5","5","4","4","5","5","5","2","1","2","2","1","2","2","1","2","1","0","1","1","0","0","0","1","1","1","1","0","1","0","1","4","1","2","2","1","1","2","1","4","5","1","633792084226080768","林","350","","","","","","","","","","","","","","","","","","","","","","","","","","","","","","feedback_test","","","","","","","","","","","",""
"821","","f","psychophysics","75","273302","0.0-7.0-0.0-1.0-0.0-0.33","3","4","3","3","4","4","3","4","3","4","4","5","4","5","5","4","4","5","5","5","2","1","2","2","1","2","2","1","2","1","0","1","1","0","0","0","1","1","1","1","0","1","0","1","4","1","2","2","1","1","2","1","4","5","1","633792084226080768","林","350","","","","match","","","","","","","","","","","","","","key","f","16.6507870370368","710.7407909492769","395.92595389514173","f","true","match","img/ellipse.png","椭圆","椭圆","ALT1_1","prac_ALT1_1","","","","","","","","","","","",""
"null","<span style='color:GreenYellow; font-size: 70px;'>正确! </span>","null","html-keyboard-response","76","273804","0.0-7.0-0.0-1.0-0.0-1.33","3","4","3","3","4","4","3","4","3","4","4","5","4","5","5","4","4","5","5","5","2","1","2","2","1","2","2","1","2","1","0","1","1","0","0","0","1","1","1","1","0","1","0","1","4","1","2","2","1","1","2","1","4","5","1","633792084226080768","林","350","","","","","","","","","","","","","","","","","","","","","","","","","","","","","","feedback_test","","","","","","","","","","","",""
"831","","f","psychophysics","77","275638","0.0-7.0-0.0-1.0-0.0-0.34","3","4","3","3","4","4","3","4","3","4","4","5","4","5","5","4","4","5","5","5","2","1","2","2","1","2","2","1","2","1","0","1","1","0","0","0","1","1","1","1","0","1","0","1","4","1","2","2","1","1","2","1","4","5","1","633792084226080768","林","350","","","","match","","","","","","","","","","","","","","key","f","16.653055045871735","710.7407909492769","395.92595389514173","f","true","match","img/pentagon.png","五边","五边","ALT1_1","prac_ALT1_1","","","","","","","","","","","",""
"null","<span style='color:GreenYellow; font-size: 70px;'>正确! </span>","null","html-keyboard-response","78","276142","0.0-7.0-0.0-1.0-0.0-1.34","3","4","3","3","4","4","3","4","3","4","4","5","4","5","5","4","4","5","5","5","2","1","2","2","1","2","2","1","2","1","0","1","1","0","0","0","1","1","1","1","0","1","0","1","4","1","2","2","1","1","2","1","4","5","1","633792084226080768","林","350","","","","","","","","","","","","","","","","","","","","","","","","","","","","","","feedback_test","","","","","","","","","","","",""
"693","","j","psychophysics","79","277837","0.0-7.0-0.0-1.0-0.0-0.35","3","4","3","3","4","4","3","4","3","4","4","5","4","5","5","4","4","5","5","5","2","1","2","2","1","2","2","1","2","1","0","1","1","0","0","0","1","1","1","1","0","1","0","1","4","1","2","2","1","1","2","1","4","5","1","633792084226080768","林","350","","","","nonmatch","","","","","","","","","","","","","","key","j","16.65133663366369","710.7407909492769","395.92595389514173","j","true","nonmatch","img/ellipse.png","方形","椭圆","ALT1_1","prac_ALT1_1","","","","","","","","","","","",""
"null","<span style='color:GreenYellow; font-size: 70px;'>正确! </span>","null","html-keyboard-response","80","278342","0.0-7.0-0.0-1.0-0.0-1.35","3","4","3","3","4","4","3","4","3","4","4","5","4","5","5","4","4","5","5","5","2","1","2","2","1","2","2","1","2","1","0","1","1","0","0","0","1","1","1","1","0","1","0","1","4","1","2","2","1","1","2","1","4","5","1","633792084226080768","林","350","","","","","","","","","","","","","","","","","","","","","","","","","","","","","","feedback_test","","","","","","","","","","","",""
"762","","f","psychophysics","81","280106","0.0-7.0-0.0-1.0-0.0-0.36","3","4","3","3","4","4","3","4","3","4","4","5","4","5","5","4","4","5","5","5","2","1","2","2","1","2","2","1","2","1","0","1","1","0","0","0","1","1","1","1","0","1","0","1","4","1","2","2","1","1","2","1","4","5","1","633792084226080768","林","350","","","","match","","","","","","","","","","","","","","key","f","16.650333333333645","710.7407909492769","395.92595389514173","f","true","match","img/square.png","方形","方形","ALT1_1","prac_ALT1_1","","","","","","","","","","","",""
"null","<span style='color:GreenYellow; font-size: 70px;'>正确! </span>","null","html-keyboard-response","82","280608","0.0-7.0-0.0-1.0-0.0-1.36","3","4","3","3","4","4","3","4","3","4","4","5","4","5","5","4","4","5","5","5","2","1","2","2","1","2","2","1","2","1","0","1","1","0","0","0","1","1","1","1","0","1","0","1","4","1","2","2","1","1","2","1","4","5","1","633792084226080768","林","350","","","","","","","","","","","","","","","","","","","","","","","","","","","","","","feedback_test","","","","","","","","","","","",""
"726","","f","psychophysics","83","282335","0.0-7.0-0.0-1.0-0.0-0.37","3","4","3","3","4","4","3","4","3","4","4","5","4","5","5","4","4","5","5","5","2","1","2","2","1","2","2","1","2","1","0","1","1","0","0","0","1","1","1","1","0","1","0","1","4","1","2","2","1","1","2","1","4","5","1","633792084226080768","林","350","","","","match","","","","","","","","","","","","","","key","f","16.65056310679585","710.7407909492769","395.92595389514173","j","false","nonmatch","img/square.png","三角","方形","ALT1_1","prac_ALT1_1","","","","","","","","","","","",""
"null","<span style='color:red; font-size: 70px;'>错误! </span>","null","html-keyboard-response","84","282837","0.0-7.0-0.0-1.0-0.0-1.37","3","4","3","3","4","4","3","4","3","4","4","5","4","5","5","4","4","5","5","5","2","1","2","2","1","2","2","1","2","1","0","1","1","0","0","0","1","1","1","1","0","1","0","1","4","1","2","2","1","1","2","1","4","5","1","633792084226080768","林","350","","","","","","","","","","","","","","","","","","","","","","","","","","","","","","feedback_test","","","","","","","","","","","",""
"641","","j","psychophysics","85","284481","0.0-7.0-0.0-1.0-0.0-0.38","3","4","3","3","4","4","3","4","3","4","4","5","4","5","5","4","4","5","5","5","2","1","2","2","1","2","2","1","2","1","0","1","1","0","0","0","1","1","1","1","0","1","0","1","4","1","2","2","1","1","2","1","4","5","1","633792084226080768","林","350","","","","nonmatch","","","","","","","","","","","","","","key","j","16.65024489795965","710.7407909492769","395.92595389514173","j","true","nonmatch","img/triangle.png","五边","三角","ALT1_1","prac_ALT1_1","","","","","","","","","","","",""
"null","<span style='color:GreenYellow; font-size: 70px;'>正确! </span>","null","html-keyboard-response","86","284984","0.0-7.0-0.0-1.0-0.0-1.38","3","4","3","3","4","4","3","4","3","4","4","5","4","5","5","4","4","5","5","5","2","1","2","2","1","2","2","1","2","1","0","1","1","0","0","0","1","1","1","1","0","1","0","1","4","1","2","2","1","1","2","1","4","5","1","633792084226080768","林","350","","","","","","","","","","","","","","","","","","","","","","","","","","","","","","feedback_test","","","","","","","","","","","",""
"610","","f","psychophysics","87","286597","0.0-7.0-0.0-1.0-0.0-0.39","3","4","3","3","4","4","3","4","3","4","4","5","4","5","5","4","4","5","5","5","2","1","2","2","1","2","2","1","2","1","0","1","1","0","0","0","1","1","1","1","0","1","0","1","4","1","2","2","1","1","2","1","4","5","1","633792084226080768","林","350","","","","match","","","","","","","","","","","","","","key","f","16.65389583333308","710.7407909492769","395.92595389514173","f","true","match","img/triangle.png","三角","三角","ALT1_1","prac_ALT1_1","","","","","","","","","","","",""
"null","<span style='color:GreenYellow; font-size: 70px;'>正确! </span>","null","html-keyboard-response","88","287097","0.0-7.0-0.0-1.0-0.0-1.39","3","4","3","3","4","4","3","4","3","4","4","5","4","5","5","4","4","5","5","5","2","1","2","2","1","2","2","1","2","1","0","1","1","0","0","0","1","1","1","1","0","1","0","1","4","1","2","2","1","1","2","1","4","5","1","633792084226080768","林","350","","","","","","","","","","","","","","","","","","","","","","","","","","","","","","feedback_test","","","","","","","","","","","",""
"788","","j","psychophysics","89","288886","0.0-7.0-0.0-1.0-0.0-0.40","3","4","3","3","4","4","3","4","3","4","4","5","4","5","5","4","4","5","5","5","2","1","2","2","1","2","2","1","2","1","0","1","1","0","0","0","1","1","1","1","0","1","0","1","4","1","2","2","1","1","2","1","4","5","1","633792084226080768","林","350","","","","nonmatch","","","","","","","","","","","","","","key","j","16.65307547169834","710.7407909492769","395.92595389514173","j","true","nonmatch","img/triangle.png","椭圆","三角","ALT1_1","prac_ALT1_1","","","","","","","","","","","",""
"null","<span style='color:GreenYellow; font-size: 70px;'>正确! </span>","null","html-keyboard-response","90","289387","0.0-7.0-0.0-1.0-0.0-1.40","3","4","3","3","4","4","3","4","3","4","4","5","4","5","5","4","4","5","5","5","2","1","2","2","1","2","2","1","2","1","0","1","1","0","0","0","1","1","1","1","0","1","0","1","4","1","2","2","1","1","2","1","4","5","1","633792084226080768","林","350","","","","","","","","","","","","","","","","","","","","","","","","","","","","","","feedback_test","","","","","","","","","","","",""
"631","","f","psychophysics","91","291020","0.0-7.0-0.0-1.0-0.0-0.41","3","4","3","3","4","4","3","4","3","4","4","5","4","5","5","4","4","5","5","5","2","1","2","2","1","2","2","1","2","1","0","1","1","0","0","0","1","1","1","1","0","1","0","1","4","1","2","2","1","1","2","1","4","5","1","633792084226080768","林","350","","","","match","","","","","","","","","","","","","","key","f","16.653958762886685","710.7407909492769","395.92595389514173","f","true","match","img/square.png","方形","方形","ALT1_1","prac_ALT1_1","","","","","","","","","","","",""
"null","<span style='color:GreenYellow; font-size: 70px;'>正确! </span>","null","html-keyboard-response","92","291522","0.0-7.0-0.0-1.0-0.0-1.41","3","4","3","3","4","4","3","4","3","4","4","5","4","5","5","4","4","5","5","5","2","1","2","2","1","2","2","1","2","1","0","1","1","0","0","0","1","1","1","1","0","1","0","1","4","1","2","2","1","1","2","1","4","5","1","633792084226080768","林","350","","","","","","","","","","","","","","","","","","","","","","","","","","","","","","feedback_test","","","","","","","","","","","",""
"618","","f","psychophysics","93","293162","0.0-7.0-0.0-1.0-0.0-0.42","3","4","3","3","4","4","3","4","3","4","4","5","4","5","5","4","4","5","5","5","2","1","2","2","1","2","2","1","2","1","0","1","1","0","0","0","1","1","1","1","0","1","0","1","4","1","2","2","1","1","2","1","4","5","1","633792084226080768","林","350","","","","match","","","","","","","","","","","","","","key","f","16.65371134020592","710.7407909492769","395.92595389514173","f","true","match","img/pentagon.png","五边","五边","ALT1_1","prac_ALT1_1","","","","","","","","","","","",""
"null","<span style='color:GreenYellow; font-size: 70px;'>正确! </span>","null","html-keyboard-response","94","293663","0.0-7.0-0.0-1.0-0.0-1.42","3","4","3","3","4","4","3","4","3","4","4","5","4","5","5","4","4","5","5","5","2","1","2","2","1","2","2","1","2","1","0","1","1","0","0","0","1","1","1","1","0","1","0","1","4","1","2","2","1","1","2","1","4","5","1","633792084226080768","林","350","","","","","","","","","","","","","","","","","","","","","","","","","","","","","","feedback_test","","","","","","","","","","","",""
"819","","f","psychophysics","95","295483","0.0-7.0-0.0-1.0-0.0-0.43","3","4","3","3","4","4","3","4","3","4","4","5","4","5","5","4","4","5","5","5","2","1","2","2","1","2","2","1","2","1","0","1","1","0","0","0","1","1","1","1","0","1","0","1","4","1","2","2","1","1","2","1","4","5","1","633792084226080768","林","350","","","","match","","","","","","","","","","","","","","key","f","16.65353703703699","710.7407909492769","395.92595389514173","f","true","match","img/triangle.png","三角","三角","ALT1_1","prac_ALT1_1","","","","","","","","","","","",""
"null","<span style='color:GreenYellow; font-size: 70px;'>正确! </span>","null","html-keyboard-response","96","295984","0.0-7.0-0.0-1.0-0.0-1.43","3","4","3","3","4","4","3","4","3","4","4","5","4","5","5","4","4","5","5","5","2","1","2","2","1","2","2","1","2","1","0","1","1","0","0","0","1","1","1","1","0","1","0","1","4","1","2","2","1","1","2","1","4","5","1","633792084226080768","林","350","","","","","","","","","","","","","","","","","","","","","","","","","","","","","","feedback_test","","","","","","","","","","","",""
"609","","j","psychophysics","97","297594","0.0-7.0-0.0-1.0-0.0-0.44","3","4","3","3","4","4","3","4","3","4","4","5","4","5","5","4","4","5","5","5","2","1","2","2","1","2","2","1","2","1","0","1","1","0","0","0","1","1","1","1","0","1","0","1","4","1","2","2","1","1","2","1","4","5","1","633792084226080768","林","350","","","","nonmatch","","","","","","","","","","","","","","key","j","16.648431578947623","710.7407909492769","395.92595389514173","j","true","nonmatch","img/ellipse.png","五边","椭圆","ALT1_1","prac_ALT1_1","","","","","","","","","","","",""
"null","<span style='color:GreenYellow; font-size: 70px;'>正确! </span>","null","html-keyboard-response","98","298095","0.0-7.0-0.0-1.0-0.0-1.44","3","4","3","3","4","4","3","4","3","4","4","5","4","5","5","4","4","5","5","5","2","1","2","2","1","2","2","1","2","1","0","1","1","0","0","0","1","1","1","1","0","1","0","1","4","1","2","2","1","1","2","1","4","5","1","633792084226080768","林","350","","","","","","","","","","","","","","","","","","","","","","","","","","","","","","feedback_test","","","","","","","","","","","",""
"822","","j","psychophysics","99","299918","0.0-7.0-0.0-1.0-0.0-0.45","3","4","3","3","4","4","3","4","3","4","4","5","4","5","5","4","4","5","5","5","2","1","2","2","1","2","2","1","2","1","0","1","1","0","0","0","1","1","1","1","0","1","0","1","4","1","2","2","1","1","2","1","4","5","1","633792084226080768","林","350","","","","nonmatch","","","","","","","","","","","","","","key","j","16.653862385321172","710.7407909492769","395.92595389514173","j","true","nonmatch","img/pentagon.png","方形","五边","ALT1_1","prac_ALT1_1","","","","","","","","","","","",""
"null","<span style='color:GreenYellow; font-size: 70px;'>正确! </span>","null","html-keyboard-response","100","300420","0.0-7.0-0.0-1.0-0.0-1.45","3","4","3","3","4","4","3","4","3","4","4","5","4","5","5","4","4","5","5","5","2","1","2","2","1","2","2","1","2","1","0","1","1","0","0","0","1","1","1","1","0","1","0","1","4","1","2","2","1","1","2","1","4","5","1","633792084226080768","林","350","","","","","","","","","","","","","","","","","","","","","","","","","","","","","","feedback_test","","","","","","","","","","","",""
"785","","j","psychophysics","101","302207","0.0-7.0-0.0-1.0-0.0-0.46","3","4","3","3","4","4","3","4","3","4","4","5","4","5","5","4","4","5","5","5","2","1","2","2","1","2","2","1","2","1","0","1","1","0","0","0","1","1","1","1","0","1","0","1","4","1","2","2","1","1","2","1","4","5","1","633792084226080768","林","350","","","","nonmatch","","","","","","","","","","","","","","key","j","16.653273584905413","710.7407909492769","395.92595389514173","j","true","nonmatch","img/square.png","五边","方形","ALT1_1","prac_ALT1_1","","","","","","","","","","","",""
"null","<span style='color:GreenYellow; font-size: 70px;'>正确! </span>","null","html-keyboard-response","102","302708","0.0-7.0-0.0-1.0-0.0-1.46","3","4","3","3","4","4","3","4","3","4","4","5","4","5","5","4","4","5","5","5","2","1","2","2","1","2","2","1","2","1","0","1","1","0","0","0","1","1","1","1","0","1","0","1","4","1","2","2","1","1","2","1","4","5","1","633792084226080768","林","350","","","","","","","","","","","","","","","","","","","","","","","","","","","","","","feedback_test","","","","","","","","","","","",""
"623","","f","psychophysics","103","304333","0.0-7.0-0.0-1.0-0.0-0.47","3","4","3","3","4","4","3","4","3","4","4","5","4","5","5","4","4","5","5","5","2","1","2","2","1","2","2","1","2","1","0","1","1","0","0","0","1","1","1","1","0","1","0","1","4","1","2","2","1","1","2","1","4","5","1","633792084226080768","林","350","","","","match","","","","","","","","","","","","","","key","f","16.653752577319484","710.7407909492769","395.92595389514173","f","true","match","img/square.png","方形","方形","ALT1_1","prac_ALT1_1","","","","","","","","","","","",""
"null","<span style='color:GreenYellow; font-size: 70px;'>正确! </span>","null","html-keyboard-response","104","304836","0.0-7.0-0.0-1.0-0.0-1.47","3","4","3","3","4","4","3","4","3","4","4","5","4","5","5","4","4","5","5","5","2","1","2","2","1","2","2","1","2","1","0","1","1","0","0","0","1","1","1","1","0","1","0","1","4","1","2","2","1","1","2","1","4","5","1","633792084226080768","林","350","","","","","","","","","","","","","","","","","","","","","","","","","","","","","","feedback_test","","","","","","","","","","","",""
"1202","<style>.context{color:white; font-size: 35px; line-height:40px}</style>                            <div><p class='context'>您正确回答了96% 的试次。</p><p class='context'>您的平均反应时为722毫秒。</p><p class='context'>恭喜您完成练习。按空格键进入正式实验。</p><p class='footer' style='font-size: 35px; line-height:40px;'>请在进入正式实验之前将您的<span style='color: lightgreen;'>食指</span>放在电脑键盘的相应键位上进行按键。</p>"," ","html-keyboard-response","105","306042","0.0-7.0-0.0-2.0","3","4","3","3","4","4","3","4","3","4","4","5","4","5","5","4","4","5","5","5","2","1","2","2","1","2","2","1","2","1","0","1","1","0","0","0","1","1","1","1","0","1","0","1","4","1","2","2","1","1","2","1","4","5","1","633792084226080768","林","350","","","","","","","","","","","","","","","","","","","","","","","","","","","","","","","","","","","","","","","","","",""
"1040","
    <p style='color: white; font-size: 22px'>请您将手指放在按键上，准备进入正式的匹配任务。</p>
    <p> <div style = ""color: green""><按空格键进入下一阶段的匹配任务></div></p>
    "," ","html-keyboard-response","106","307085","0.0-7.0-0.0-3.0","3","4","3","3","4","4","3","4","3","4","4","5","4","5","5","4","4","5","5","5","2","1","2","2","1","2","2","1","2","1","0","1","1","0","0","0","1","1","1","1","0","1","0","1","4","1","2","2","1","1","2","1","4","5","1","633792084226080768","林","350","","","","","","","","","","","","","","","","","","","","","","","","","","","","","","","","","","","","","","","","","",""
"640","","j","psychophysics","107","308726","0.0-7.0-0.0-4.0-0.0-0.0","3","4","3","3","4","4","3","4","3","4","4","5","4","5","5","4","4","5","5","5","2","1","2","2","1","2","2","1","2","1","0","1","1","0","0","0","1","1","1","1","0","1","0","1","4","1","2","2","1","1","2","1","4","5","1","633792084226080768","林","350","","","","nonmatch","","","","","","","","","","","","","","key","j","16.648183673469358","710.7407909492769","395.92595389514173","j","true","nonmatch","img/triangle.png","方形","三角","ALT1","formal_ALT1_1","","","","","","","","","","","",""
"null","<span style='color:GreenYellow; font-size: 70px;'>正确! </span>","null","html-keyboard-response","108","309229","0.0-7.0-0.0-4.0-0.0-1.0","3","4","3","3","4","4","3","4","3","4","4","5","4","5","5","4","4","5","5","5","2","1","2","2","1","2","2","1","2","1","0","1","1","0","0","0","1","1","1","1","0","1","0","1","4","1","2","2","1","1","2","1","4","5","1","633792084226080768","林","350","","","","","","","","","","","","","","","","","","","","","","","","","","","","","","feedback_test","","","","","","","","","","","",""
"636","","f","psychophysics","109","310880","0.0-7.0-0.0-4.0-0.0-0.1","3","4","3","3","4","4","3","4","3","4","4","5","4","5","5","4","4","5","5","5","2","1","2","2","1","2","2","1","2","1","0","1","1","0","0","0","1","1","1","1","0","1","0","1","4","1","2","2","1","1","2","1","4","5","1","633792084226080768","林","350","","","","match","","","","","","","","","","","","","","key","f","16.653887755102097","710.7407909492769","395.92595389514173","f","true","match","img/pentagon.png","五边","五边","ALT1","formal_ALT1_1","","","","","","","","","","","",""
"null","<span style='color:GreenYellow; font-size: 70px;'>正确! </span>","null","html-keyboard-response","110","311380","0.0-7.0-0.0-4.0-0.0-1.1","3","4","3","3","4","4","3","4","3","4","4","5","4","5","5","4","4","5","5","5","2","1","2","2","1","2","2","1","2","1","0","1","1","0","0","0","1","1","1","1","0","1","0","1","4","1","2","2","1","1","2","1","4","5","1","633792084226080768","林","350","","","","","","","","","","","","","","","","","","","","","","","","","","","","","","feedback_test","","","","","","","","","","","",""
"619","","j","psychophysics","111","313002","0.0-7.0-0.0-4.0-0.0-0.2","3","4","3","3","4","4","3","4","3","4","4","5","4","5","5","4","4","5","5","5","2","1","2","2","1","2","2","1","2","1","0","1","1","0","0","0","1","1","1","1","0","1","0","1","4","1","2","2","1","1","2","1","4","5","1","633792084226080768","林","350","","","","nonmatch","","","","","","","","","","","","","","key","j","16.651697916666915","710.7407909492769","395.92595389514173","j","true","nonmatch","img/triangle.png","五边","三角","ALT1","formal_ALT1_1","","","","","","","","","","","",""
"null","<span style='color:GreenYellow; font-size: 70px;'>正确! </span>","null","html-keyboard-response","112","313503","0.0-7.0-0.0-4.0-0.0-1.2","3","4","3","3","4","4","3","4","3","4","4","5","4","5","5","4","4","5","5","5","2","1","2","2","1","2","2","1","2","1","0","1","1","0","0","0","1","1","1","1","0","1","0","1","4","1","2","2","1","1","2","1","4","5","1","633792084226080768","林","350","","","","","","","","","","","","","","","","","","","","","","","","","","","","","","feedback_test","","","","","","","","","","","",""
"633","","j","psychophysics","113","315140","0.0-7.0-0.0-4.0-0.0-0.3","3","4","3","3","4","4","3","4","3","4","4","5","4","5","5","4","4","5","5","5","2","1","2","2","1","2","2","1","2","1","0","1","1","0","0","0","1","1","1","1","0","1","0","1","4","1","2","2","1","1","2","1","4","5","1","633792084226080768","林","350","","","","nonmatch","","","","","","","","","","","","","","key","j","16.64456701030974","710.7407909492769","395.92595389514173","j","true","nonmatch","img/ellipse.png","三角","椭圆","ALT1","formal_ALT1_1","","","","","","","","","","","",""
"null","<span style='color:GreenYellow; font-size: 70px;'>正确! </span>","null","html-keyboard-response","114","315642","0.0-7.0-0.0-4.0-0.0-1.3","3","4","3","3","4","4","3","4","3","4","4","5","4","5","5","4","4","5","5","5","2","1","2","2","1","2","2","1","2","1","0","1","1","0","0","0","1","1","1","1","0","1","0","1","4","1","2","2","1","1","2","1","4","5","1","633792084226080768","林","350","","","","","","","","","","","","","","","","","","","","","","","","","","","","","","feedback_test","","","","","","","","","","","",""
"676","","j","psychophysics","115","317319","0.0-7.0-0.0-4.0-0.0-0.4","3","4","3","3","4","4","3","4","3","4","4","5","4","5","5","4","4","5","5","5","2","1","2","2","1","2","2","1","2","1","0","1","1","0","0","0","1","1","1","1","0","1","0","1","4","1","2","2","1","1","2","1","4","5","1","633792084226080768","林","350","","","","nonmatch","","","","","","","","","","","","","","key","j","16.653219999999855","710.7407909492769","395.92595389514173","j","true","nonmatch","img/pentagon.png","椭圆","五边","ALT1","formal_ALT1_1","","","","","","","","","","","",""
"null","<span style='color:GreenYellow; font-size: 70px;'>正确! </span>","null","html-keyboard-response","116","317823","0.0-7.0-0.0-4.0-0.0-1.4","3","4","3","3","4","4","3","4","3","4","4","5","4","5","5","4","4","5","5","5","2","1","2","2","1","2","2","1","2","1","0","1","1","0","0","0","1","1","1","1","0","1","0","1","4","1","2","2","1","1","2","1","4","5","1","633792084226080768","林","350","","","","","","","","","","","","","","","","","","","","","","","","","","","","","","feedback_test","","","","","","","","","","","",""
"659","","f","psychophysics","117","319496","0.0-7.0-0.0-4.0-0.0-0.5","3","4","3","3","4","4","3","4","3","4","4","5","4","5","5","4","4","5","5","5","2","1","2","2","1","2","2","1","2","1","0","1","1","0","0","0","1","1","1","1","0","1","0","1","4","1","2","2","1","1","2","1","4","5","1","633792084226080768","林","350","","","","match","","","","","","","","","","","","","","key","f","16.654292929292577","710.7407909492769","395.92595389514173","f","true","match","img/triangle.png","三角","三角","ALT1","formal_ALT1_1","","","","","","","","","","","",""
"null","<span style='color:GreenYellow; font-size: 70px;'>正确! </span>","null","html-keyboard-response","118","319997","0.0-7.0-0.0-4.0-0.0-1.5","3","4","3","3","4","4","3","4","3","4","4","5","4","5","5","4","4","5","5","5","2","1","2","2","1","2","2","1","2","1","0","1","1","0","0","0","1","1","1","1","0","1","0","1","4","1","2","2","1","1","2","1","4","5","1","633792084226080768","林","350","","","","","","","","","","","","","","","","","","","","","","","","","","","","","","feedback_test","","","","","","","","","","","",""
"645","","f","psychophysics","119","321645","0.0-7.0-0.0-4.0-0.0-0.6","3","4","3","3","4","4","3","4","3","4","4","5","4","5","5","4","4","5","5","5","2","1","2","2","1","2","2","1","2","1","0","1","1","0","0","0","1","1","1","1","0","1","0","1","4","1","2","2","1","1","2","1","4","5","1","633792084226080768","林","350","","","","match","","","","","","","","","","","","","","key","f","16.644340206185458","710.7407909492769","395.92595389514173","f","true","match","img/triangle.png","三角","三角","ALT1","formal_ALT1_1","","","","","","","","","","","",""
"null","<span style='color:GreenYellow; font-size: 70px;'>正确! </span>","null","html-keyboard-response","120","322147","0.0-7.0-0.0-4.0-0.0-1.6","3","4","3","3","4","4","3","4","3","4","4","5","4","5","5","4","4","5","5","5","2","1","2","2","1","2","2","1","2","1","0","1","1","0","0","0","1","1","1","1","0","1","0","1","4","1","2","2","1","1","2","1","4","5","1","633792084226080768","林","350","","","","","","","","","","","","","","","","","","","","","","","","","","","","","","feedback_test","","","","","","","","","","","",""
"519","","j","psychophysics","121","323669","0.0-7.0-0.0-4.0-0.0-0.7","3","4","3","3","4","4","3","4","3","4","4","5","4","5","5","4","4","5","5","5","2","1","2","2","1","2","2","1","2","1","0","1","1","0","0","0","1","1","1","1","0","1","0","1","4","1","2","2","1","1","2","1","4","5","1","633792084226080768","林","350","","","","nonmatch","","","","","","","","","","","","","","key","j","16.6548444444443","710.7407909492769","395.92595389514173","f","false","match","img/pentagon.png","五边","五边","ALT1","formal_ALT1_1","","","","","","","","","","","",""
"null","<span style='color:red; font-size: 70px;'>错误! </span>","null","html-keyboard-response","122","324170","0.0-7.0-0.0-4.0-0.0-1.7","3","4","3","3","4","4","3","4","3","4","4","5","4","5","5","4","4","5","5","5","2","1","2","2","1","2","2","1","2","1","0","1","1","0","0","0","1","1","1","1","0","1","0","1","4","1","2","2","1","1","2","1","4","5","1","633792084226080768","林","350","","","","","","","","","","","","","","","","","","","","","","","","","","","","","","feedback_test","","","","","","","","","","","",""
"594","","f","psychophysics","123","325767","0.0-7.0-0.0-4.0-0.0-0.8","3","4","3","3","4","4","3","4","3","4","4","5","4","5","5","4","4","5","5","5","2","1","2","2","1","2","2","1","2","1","0","1","1","0","0","0","1","1","1","1","0","1","0","1","4","1","2","2","1","1","2","1","4","5","1","633792084226080768","林","350","","","","match","","","","","","","","","","","","","","key","f","16.65031578947398","710.7407909492769","395.92595389514173","f","true","match","img/ellipse.png","椭圆","椭圆","ALT1","formal_ALT1_1","","","","","","","","","","","",""
"null","<span style='color:GreenYellow; font-size: 70px;'>正确! </span>","null","html-keyboard-response","124","326268","0.0-7.0-0.0-4.0-0.0-1.8","3","4","3","3","4","4","3","4","3","4","4","5","4","5","5","4","4","5","5","5","2","1","2","2","1","2","2","1","2","1","0","1","1","0","0","0","1","1","1","1","0","1","0","1","4","1","2","2","1","1","2","1","4","5","1","633792084226080768","林","350","","","","","","","","","","","","","","","","","","","","","","","","","","","","","","feedback_test","","","","","","","","","","","",""
"693","","j","psychophysics","125","327963","0.0-7.0-0.0-4.0-0.0-0.9","3","4","3","3","4","4","3","4","3","4","4","5","4","5","5","4","4","5","5","5","2","1","2","2","1","2","2","1","2","1","0","1","1","0","0","0","1","1","1","1","0","1","0","1","4","1","2","2","1","1","2","1","4","5","1","633792084226080768","林","350","","","","nonmatch","","","","","","","","","","","","","","key","j","16.653435643564674","710.7407909492769","395.92595389514173","j","true","nonmatch","img/square.png","椭圆","方形","ALT1","formal_ALT1_1","","","","","","","","","","","",""
"null","<span style='color:GreenYellow; font-size: 70px;'>正确! </span>","null","html-keyboard-response","126","328464","0.0-7.0-0.0-4.0-0.0-1.9","3","4","3","3","4","4","3","4","3","4","4","5","4","5","5","4","4","5","5","5","2","1","2","2","1","2","2","1","2","1","0","1","1","0","0","0","1","1","1","1","0","1","0","1","4","1","2","2","1","1","2","1","4","5","1","633792084226080768","林","350","","","","","","","","","","","","","","","","","","","","","","","","","","","","","","feedback_test","","","","","","","","","","","",""
"579","","f","psychophysics","127","330045","0.0-7.0-0.0-4.0-0.0-0.10","3","4","3","3","4","4","3","4","3","4","4","5","4","5","5","4","4","5","5","5","2","1","2","2","1","2","2","1","2","1","0","1","1","0","0","0","1","1","1","1","0","1","0","1","4","1","2","2","1","1","2","1","4","5","1","633792084226080768","林","350","","","","match","","","","","","","","","","","","","","key","f","16.652553191489016","710.7407909492769","395.92595389514173","f","true","match","img/square.png","方形","方形","ALT1","formal_ALT1_1","","","","","","","","","","","",""
"null","<span style='color:GreenYellow; font-size: 70px;'>正确! </span>","null","html-keyboard-response","128","330546","0.0-7.0-0.0-4.0-0.0-1.10","3","4","3","3","4","4","3","4","3","4","4","5","4","5","5","4","4","5","5","5","2","1","2","2","1","2","2","1","2","1","0","1","1","0","0","0","1","1","1","1","0","1","0","1","4","1","2","2","1","1","2","1","4","5","1","633792084226080768","林","350","","","","","","","","","","","","","","","","","","","","","","","","","","","","","","feedback_test","","","","","","","","","","","",""
"714","","j","psychophysics","129","332261","0.0-7.0-0.0-4.0-0.0-0.11","3","4","3","3","4","4","3","4","3","4","4","5","4","5","5","4","4","5","5","5","2","1","2","2","1","2","2","1","2","1","0","1","1","0","0","0","1","1","1","1","0","1","0","1","4","1","2","2","1","1","2","1","4","5","1","633792084226080768","林","350","","","","nonmatch","","","","","","","","","","","","","","key","j","16.653509803921526","710.7407909492769","395.92595389514173","j","true","nonmatch","img/square.png","五边","方形","ALT1","formal_ALT1_1","","","","","","","","","","","",""
"null","<span style='color:GreenYellow; font-size: 70px;'>正确! </span>","null","html-keyboard-response","130","332763","0.0-7.0-0.0-4.0-0.0-1.11","3","4","3","3","4","4","3","4","3","4","4","5","4","5","5","4","4","5","5","5","2","1","2","2","1","2","2","1","2","1","0","1","1","0","0","0","1","1","1","1","0","1","0","1","4","1","2","2","1","1","2","1","4","5","1","633792084226080768","林","350","","","","","","","","","","","","","","","","","","","","","","","","","","","","","","feedback_test","","","","","","","","","","","",""
"641","","f","psychophysics","131","334405","0.0-7.0-0.0-4.0-0.0-0.12","3","4","3","3","4","4","3","4","3","4","4","5","4","5","5","4","4","5","5","5","2","1","2","2","1","2","2","1","2","1","0","1","1","0","0","0","1","1","1","1","0","1","0","1","4","1","2","2","1","1","2","1","4","5","1","633792084226080768","林","350","","","","match","","","","","","","","","","","","","","key","f","16.65296938775549","710.7407909492769","395.92595389514173","f","true","match","img/square.png","方形","方形","ALT1","formal_ALT1_1","","","","","","","","","","","",""
"null","<span style='color:GreenYellow; font-size: 70px;'>正确! </span>","null","html-keyboard-response","132","334908","0.0-7.0-0.0-4.0-0.0-1.12","3","4","3","3","4","4","3","4","3","4","4","5","4","5","5","4","4","5","5","5","2","1","2","2","1","2","2","1","2","1","0","1","1","0","0","0","1","1","1","1","0","1","0","1","4","1","2","2","1","1","2","1","4","5","1","633792084226080768","林","350","","","","","","","","","","","","","","","","","","","","","","","","","","","","","","feedback_test","","","","","","","","","","","",""
"650","","f","psychophysics","133","336559","0.0-7.0-0.0-4.0-0.0-0.13","3","4","3","3","4","4","3","4","3","4","4","5","4","5","5","4","4","5","5","5","2","1","2","2","1","2","2","1","2","1","0","1","1","0","0","0","1","1","1","1","0","1","0","1","4","1","2","2","1","1","2","1","4","5","1","633792084226080768","林","350","","","","match","","","","","","","","","","","","","","key","f","16.654112244897988","710.7407909492769","395.92595389514173","f","true","match","img/ellipse.png","椭圆","椭圆","ALT1","formal_ALT1_1","","","","","","","","","","","",""
"null","<span style='color:GreenYellow; font-size: 70px;'>正确! </span>","null","html-keyboard-response","134","337060","0.0-7.0-0.0-4.0-0.0-1.13","3","4","3","3","4","4","3","4","3","4","4","5","4","5","5","4","4","5","5","5","2","1","2","2","1","2","2","1","2","1","0","1","1","0","0","0","1","1","1","1","0","1","0","1","4","1","2","2","1","1","2","1","4","5","1","633792084226080768","林","350","","","","","","","","","","","","","","","","","","","","","","","","","","","","","","feedback_test","","","","","","","","","","","",""
"669","","j","psychophysics","135","338730","0.0-7.0-0.0-4.0-0.0-0.14","3","4","3","3","4","4","3","4","3","4","4","5","4","5","5","4","4","5","5","5","2","1","2","2","1","2","2","1","2","1","0","1","1","0","0","0","1","1","1","1","0","1","0","1","4","1","2","2","1","1","2","1","4","5","1","633792084226080768","林","350","","","","nonmatch","","","","","","","","","","","","","","key","j","16.650484848484712","710.7407909492769","395.92595389514173","j","true","nonmatch","img/pentagon.png","方形","五边","ALT1","formal_ALT1_1","","","","","","","","","","","",""
"null","<span style='color:GreenYellow; font-size: 70px;'>正确! </span>","null","html-keyboard-response","136","339232","0.0-7.0-0.0-4.0-0.0-1.14","3","4","3","3","4","4","3","4","3","4","4","5","4","5","5","4","4","5","5","5","2","1","2","2","1","2","2","1","2","1","0","1","1","0","0","0","1","1","1","1","0","1","0","1","4","1","2","2","1","1","2","1","4","5","1","633792084226080768","林","350","","","","","","","","","","","","","","","","","","","","","","","","","","","","","","feedback_test","","","","","","","","","","","",""
"657","","f","psychophysics","137","340890","0.0-7.0-0.0-4.0-0.0-0.15","3","4","3","3","4","4","3","4","3","4","4","5","4","5","5","4","4","5","5","5","2","1","2","2","1","2","2","1","2","1","0","1","1","0","0","0","1","1","1","1","0","1","0","1","4","1","2","2","1","1","2","1","4","5","1","633792084226080768","林","350","","","","match","","","","","","","","","","","","","","key","f","16.653336734693898","710.7407909492769","395.92595389514173","f","true","match","img/pentagon.png","五边","五边","ALT1","formal_ALT1_1","","","","","","","","","","","",""
"null","<span style='color:GreenYellow; font-size: 70px;'>正确! </span>","null","html-keyboard-response","138","341392","0.0-7.0-0.0-4.0-0.0-1.15","3","4","3","3","4","4","3","4","3","4","4","5","4","5","5","4","4","5","5","5","2","1","2","2","1","2","2","1","2","1","0","1","1","0","0","0","1","1","1","1","0","1","0","1","4","1","2","2","1","1","2","1","4","5","1","633792084226080768","林","350","","","","","","","","","","","","","","","","","","","","","","","","","","","","","","feedback_test","","","","","","","","","","","",""
"727","","f","psychophysics","139","343119","0.0-7.0-0.0-4.0-0.0-0.16","3","4","3","3","4","4","3","4","3","4","4","5","4","5","5","4","4","5","5","5","2","1","2","2","1","2","2","1","2","1","0","1","1","0","0","0","1","1","1","1","0","1","0","1","4","1","2","2","1","1","2","1","4","5","1","633792084226080768","林","350","","","","match","","","","","","","","","","","","","","key","f","16.6521456310677","710.7407909492769","395.92595389514173","j","false","nonmatch","img/ellipse.png","方形","椭圆","ALT1","formal_ALT1_1","","","","","","","","","","","",""
"null","<span style='color:red; font-size: 70px;'>错误! </span>","null","html-keyboard-response","140","343621","0.0-7.0-0.0-4.0-0.0-1.16","3","4","3","3","4","4","3","4","3","4","4","5","4","5","5","4","4","5","5","5","2","1","2","2","1","2","2","1","2","1","0","1","1","0","0","0","1","1","1","1","0","1","0","1","4","1","2","2","1","1","2","1","4","5","1","633792084226080768","林","350","","","","","","","","","","","","","","","","","","","","","","","","","","","","","","feedback_test","","","","","","","","","","","",""
"720","","f","psychophysics","141","345343","0.0-7.0-0.0-4.0-0.0-0.17","3","4","3","3","4","4","3","4","3","4","4","5","4","5","5","4","4","5","5","5","2","1","2","2","1","2","2","1","2","1","0","1","1","0","0","0","1","1","1","1","0","1","0","1","4","1","2","2","1","1","2","1","4","5","1","633792084226080768","林","350","","","","match","","","","","","","","","","","","","","key","f","16.651186274509538","710.7407909492769","395.92595389514173","f","true","match","img/triangle.png","三角","三角","ALT1","formal_ALT1_1","","","","","","","","","","","",""
"null","<span style='color:GreenYellow; font-size: 70px;'>正确! </span>","null","html-keyboard-response","142","345844","0.0-7.0-0.0-4.0-0.0-1.17","3","4","3","3","4","4","3","4","3","4","4","5","4","5","5","4","4","5","5","5","2","1","2","2","1","2","2","1","2","1","0","1","1","0","0","0","1","1","1","1","0","1","0","1","4","1","2","2","1","1","2","1","4","5","1","633792084226080768","林","350","","","","","","","","","","","","","","","","","","","","","","","","","","","","","","feedback_test","","","","","","","","","","","",""
"711","","f","psychophysics","143","347556","0.0-7.0-0.0-4.0-0.0-0.18","3","4","3","3","4","4","3","4","3","4","4","5","4","5","5","4","4","5","5","5","2","1","2","2","1","2","2","1","2","1","0","1","1","0","0","0","1","1","1","1","0","1","0","1","4","1","2","2","1","1","2","1","4","5","1","633792084226080768","林","350","","","","match","","","","","","","","","","","","","","key","f","16.65033663366345","710.7407909492769","395.92595389514173","f","true","match","img/square.png","方形","方形","ALT1","formal_ALT1_1","","","","","","","","","","","",""
"null","<span style='color:GreenYellow; font-size: 70px;'>正确! </span>","null","html-keyboard-response","144","348059","0.0-7.0-0.0-4.0-0.0-1.18","3","4","3","3","4","4","3","4","3","4","4","5","4","5","5","4","4","5","5","5","2","1","2","2","1","2","2","1","2","1","0","1","1","0","0","0","1","1","1","1","0","1","0","1","4","1","2","2","1","1","2","1","4","5","1","633792084226080768","林","350","","","","","","","","","","","","","","","","","","","","","","","","","","","","","","feedback_test","","","","","","","","","","","",""
"591","","j","psychophysics","145","349652","0.0-7.0-0.0-4.0-0.0-0.19","3","4","3","3","4","4","3","4","3","4","4","5","4","5","5","4","4","5","5","5","2","1","2","2","1","2","2","1","2","1","0","1","1","0","0","0","1","1","1","1","0","1","0","1","4","1","2","2","1","1","2","1","4","5","1","633792084226080768","林","350","","","","nonmatch","","","","","","","","","","","","","","key","j","16.653968085106364","710.7407909492769","395.92595389514173","j","true","nonmatch","img/square.png","三角","方形","ALT1","formal_ALT1_1","","","","","","","","","","","",""
"null","<span style='color:GreenYellow; font-size: 70px;'>正确! </span>","null","html-keyboard-response","146","350153","0.0-7.0-0.0-4.0-0.0-1.19","3","4","3","3","4","4","3","4","3","4","4","5","4","5","5","4","4","5","5","5","2","1","2","2","1","2","2","1","2","1","0","1","1","0","0","0","1","1","1","1","0","1","0","1","4","1","2","2","1","1","2","1","4","5","1","633792084226080768","林","350","","","","","","","","","","","","","","","","","","","","","","","","","","","","","","feedback_test","","","","","","","","","","","",""
"624","","f","psychophysics","147","351779","0.0-7.0-0.0-4.0-0.0-0.20","3","4","3","3","4","4","3","4","3","4","4","5","4","5","5","4","4","5","5","5","2","1","2","2","1","2","2","1","2","1","0","1","1","0","0","0","1","1","1","1","0","1","0","1","4","1","2","2","1","1","2","1","4","5","1","633792084226080768","林","350","","","","match","","","","","","","","","","","","","","key","f","16.65349484536108","710.7407909492769","395.92595389514173","f","true","match","img/ellipse.png","椭圆","椭圆","ALT1","formal_ALT1_1","","","","","","","","","","","",""
"null","<span style='color:GreenYellow; font-size: 70px;'>正确! </span>","null","html-keyboard-response","148","352280","0.0-7.0-0.0-4.0-0.0-1.20","3","4","3","3","4","4","3","4","3","4","4","5","4","5","5","4","4","5","5","5","2","1","2","2","1","2","2","1","2","1","0","1","1","0","0","0","1","1","1","1","0","1","0","1","4","1","2","2","1","1","2","1","4","5","1","633792084226080768","林","350","","","","","","","","","","","","","","","","","","","","","","","","","","","","","","feedback_test","","","","","","","","","","","",""
"660","","j","psychophysics","149","353941","0.0-7.0-0.0-4.0-0.0-0.21","3","4","3","3","4","4","3","4","3","4","4","5","4","5","5","4","4","5","5","5","2","1","2","2","1","2","2","1","2","1","0","1","1","0","0","0","1","1","1","1","0","1","0","1","4","1","2","2","1","1","2","1","4","5","1","633792084226080768","林","350","","","","nonmatch","","","","","","","","","","","","","","key","j","16.652727272727226","710.7407909492769","395.92595389514173","j","true","nonmatch","img/pentagon.png","三角","五边","ALT1","formal_ALT1_1","","","","","","","","","","","",""
"null","<span style='color:GreenYellow; font-size: 70px;'>正确! </span>","null","html-keyboard-response","150","354442","0.0-7.0-0.0-4.0-0.0-1.21","3","4","3","3","4","4","3","4","3","4","4","5","4","5","5","4","4","5","5","5","2","1","2","2","1","2","2","1","2","1","0","1","1","0","0","0","1","1","1","1","0","1","0","1","4","1","2","2","1","1","2","1","4","5","1","633792084226080768","林","350","","","","","","","","","","","","","","","","","","","","","","","","","","","","","","feedback_test","","","","","","","","","","","",""
"715","","j","psychophysics","151","356160","0.0-7.0-0.0-4.0-0.0-0.22","3","4","3","3","4","4","3","4","3","4","4","5","4","5","5","4","4","5","5","5","2","1","2","2","1","2","2","1","2","1","0","1","1","0","0","0","1","1","1","1","0","1","0","1","4","1","2","2","1","1","2","1","4","5","1","633792084226080768","林","350","","","","nonmatch","","","","","","","","","","","","","","key","j","16.653539215685917","710.7407909492769","395.92595389514173","j","true","nonmatch","img/triangle.png","椭圆","三角","ALT1","formal_ALT1_1","","","","","","","","","","","",""
"null","<span style='color:GreenYellow; font-size: 70px;'>正确! </span>","null","html-keyboard-response","152","356662","0.0-7.0-0.0-4.0-0.0-1.22","3","4","3","3","4","4","3","4","3","4","4","5","4","5","5","4","4","5","5","5","2","1","2","2","1","2","2","1","2","1","0","1","1","0","0","0","1","1","1","1","0","1","0","1","4","1","2","2","1","1","2","1","4","5","1","633792084226080768","林","350","","","","","","","","","","","","","","","","","","","","","","","","","","","","","","feedback_test","","","","","","","","","","","",""
"812","","j","psychophysics","153","358475","0.0-7.0-0.0-4.0-0.0-0.23","3","4","3","3","4","4","3","4","3","4","4","5","4","5","5","4","4","5","5","5","2","1","2","2","1","2","2","1","2","1","0","1","1","0","0","0","1","1","1","1","0","1","0","1","4","1","2","2","1","1","2","1","4","5","1","633792084226080768","林","350","","","","nonmatch","","","","","","","","","","","","","","key","j","16.6545185185182","710.7407909492769","395.92595389514173","j","true","nonmatch","img/ellipse.png","五边","椭圆","ALT1","formal_ALT1_1","","","","","","","","","","","",""
"null","<span style='color:GreenYellow; font-size: 70px;'>正确! </span>","null","html-keyboard-response","154","358976","0.0-7.0-0.0-4.0-0.0-1.23","3","4","3","3","4","4","3","4","3","4","4","5","4","5","5","4","4","5","5","5","2","1","2","2","1","2","2","1","2","1","0","1","1","0","0","0","1","1","1","1","0","1","0","1","4","1","2","2","1","1","2","1","4","5","1","633792084226080768","林","350","","","","","","","","","","","","","","","","","","","","","","","","","","","","","","feedback_test","","","","","","","","","","","",""
"705","","f","psychophysics","155","360685","0.0-7.0-0.0-4.0-0.0-0.24","3","4","3","3","4","4","3","4","3","4","4","5","4","5","5","4","4","5","5","5","2","1","2","2","1","2","2","1","2","1","0","1","1","0","0","0","1","1","1","1","0","1","0","1","4","1","2","2","1","1","2","1","4","5","1","633792084226080768","林","350","","","","match","","","","","","","","","","","","","","key","f","16.653490196078028","710.7407909492769","395.92595389514173","f","true","match","img/pentagon.png","五边","五边","ALT1","formal_ALT1_1","","","","","","","","","","","",""
"null","<span style='color:GreenYellow; font-size: 70px;'>正确! </span>","null","html-keyboard-response","156","361187","0.0-7.0-0.0-4.0-0.0-1.24","3","4","3","3","4","4","3","4","3","4","4","5","4","5","5","4","4","5","5","5","2","1","2","2","1","2","2","1","2","1","0","1","1","0","0","0","1","1","1","1","0","1","0","1","4","1","2","2","1","1","2","1","4","5","1","633792084226080768","林","350","","","","","","","","","","","","","","","","","","","","","","","","","","","","","","feedback_test","","","","","","","","","","","",""
"630","","f","psychophysics","157","362819","0.0-7.0-0.0-4.0-0.0-0.25","3","4","3","3","4","4","3","4","3","4","4","5","4","5","5","4","4","5","5","5","2","1","2","2","1","2","2","1","2","1","0","1","1","0","0","0","1","1","1","1","0","1","0","1","4","1","2","2","1","1","2","1","4","5","1","633792084226080768","林","350","","","","match","","","","","","","","","","","","","","key","f","16.653030927835474","710.7407909492769","395.92595389514173","f","true","match","img/triangle.png","三角","三角","ALT1","formal_ALT1_1","","","","","","","","","","","",""
"null","<span style='color:GreenYellow; font-size: 70px;'>正确! </span>","null","html-keyboard-response","158","363320","0.0-7.0-0.0-4.0-0.0-1.25","3","4","3","3","4","4","3","4","3","4","4","5","4","5","5","4","4","5","5","5","2","1","2","2","1","2","2","1","2","1","0","1","1","0","0","0","1","1","1","1","0","1","0","1","4","1","2","2","1","1","2","1","4","5","1","633792084226080768","林","350","","","","","","","","","","","","","","","","","","","","","","","","","","","","","","feedback_test","","","","","","","","","","","",""
"638","","f","psychophysics","159","364960","0.0-7.0-0.0-4.0-0.0-0.26","3","4","3","3","4","4","3","4","3","4","4","5","4","5","5","4","4","5","5","5","2","1","2","2","1","2","2","1","2","1","0","1","1","0","0","0","1","1","1","1","0","1","0","1","4","1","2","2","1","1","2","1","4","5","1","633792084226080768","林","350","","","","match","","","","","","","","","","","","","","key","f","16.65350515463932","710.7407909492769","395.92595389514173","f","true","match","img/square.png","方形","方形","ALT1","formal_ALT1_1","","","","","","","","","","","",""
"null","<span style='color:GreenYellow; font-size: 70px;'>正确! </span>","null","html-keyboard-response","160","365462","0.0-7.0-0.0-4.0-0.0-1.26","3","4","3","3","4","4","3","4","3","4","4","5","4","5","5","4","4","5","5","5","2","1","2","2","1","2","2","1","2","1","0","1","1","0","0","0","1","1","1","1","0","1","0","1","4","1","2","2","1","1","2","1","4","5","1","633792084226080768","林","350","","","","","","","","","","","","","","","","","","","","","","","","","","","","","","feedback_test","","","","","","","","","","","",""
"701","","f","psychophysics","161","367165","0.0-7.0-0.0-4.0-0.0-0.27","3","4","3","3","4","4","3","4","3","4","4","5","4","5","5","4","4","5","5","5","2","1","2","2","1","2","2","1","2","1","0","1","1","0","0","0","1","1","1","1","0","1","0","1","4","1","2","2","1","1","2","1","4","5","1","633792084226080768","林","350","","","","match","","","","","","","","","","","","","","key","f","16.65267326732657","710.7407909492769","395.92595389514173","f","true","match","img/ellipse.png","椭圆","椭圆","ALT1","formal_ALT1_1","","","","","","","","","","","",""
"null","<span style='color:GreenYellow; font-size: 70px;'>正确! </span>","null","html-keyboard-response","162","367667","0.0-7.0-0.0-4.0-0.0-1.27","3","4","3","3","4","4","3","4","3","4","4","5","4","5","5","4","4","5","5","5","2","1","2","2","1","2","2","1","2","1","0","1","1","0","0","0","1","1","1","1","0","1","0","1","4","1","2","2","1","1","2","1","4","5","1","633792084226080768","林","350","","","","","","","","","","","","","","","","","","","","","","","","","","","","","","feedback_test","","","","","","","","","","","",""
"646","","j","psychophysics","163","369315","0.0-7.0-0.0-4.0-0.0-0.28","3","4","3","3","4","4","3","4","3","4","4","5","4","5","5","4","4","5","5","5","2","1","2","2","1","2","2","1","2","1","0","1","1","0","0","0","1","1","1","1","0","1","0","1","4","1","2","2","1","1","2","1","4","5","1","633792084226080768","林","350","","","","nonmatch","","","","","","","","","","","","","","key","j","16.651836734693926","710.7407909492769","395.92595389514173","j","true","nonmatch","img/square.png","五边","方形","ALT1","formal_ALT1_1","","","","","","","","","","","",""
"null","<span style='color:GreenYellow; font-size: 70px;'>正确! </span>","null","html-keyboard-response","164","369816","0.0-7.0-0.0-4.0-0.0-1.28","3","4","3","3","4","4","3","4","3","4","4","5","4","5","5","4","4","5","5","5","2","1","2","2","1","2","2","1","2","1","0","1","1","0","0","0","1","1","1","1","0","1","0","1","4","1","2","2","1","1","2","1","4","5","1","633792084226080768","林","350","","","","","","","","","","","","","","","","","","","","","","","","","","","","","","feedback_test","","","","","","","","","","","",""
"662","","f","psychophysics","165","371481","0.0-7.0-0.0-4.0-0.0-0.29","3","4","3","3","4","4","3","4","3","4","4","5","4","5","5","4","4","5","5","5","2","1","2","2","1","2","2","1","2","1","0","1","1","0","0","0","1","1","1","1","0","1","0","1","4","1","2","2","1","1","2","1","4","5","1","633792084226080768","林","350","","","","match","","","","","","","","","","","","","","key","f","16.653494949494913","710.7407909492769","395.92595389514173","f","true","match","img/square.png","方形","方形","ALT1","formal_ALT1_1","","","","","","","","","","","",""
"null","<span style='color:GreenYellow; font-size: 70px;'>正确! </span>","null","html-keyboard-response","166","371982","0.0-7.0-0.0-4.0-0.0-1.29","3","4","3","3","4","4","3","4","3","4","4","5","4","5","5","4","4","5","5","5","2","1","2","2","1","2","2","1","2","1","0","1","1","0","0","0","1","1","1","1","0","1","0","1","4","1","2","2","1","1","2","1","4","5","1","633792084226080768","林","350","","","","","","","","","","","","","","","","","","","","","","","","","","","","","","feedback_test","","","","","","","","","","","",""
"665","","f","psychophysics","167","373648","0.0-7.0-0.0-4.0-0.0-0.30","3","4","3","3","4","4","3","4","3","4","4","5","4","5","5","4","4","5","5","5","2","1","2","2","1","2","2","1","2","1","0","1","1","0","0","0","1","1","1","1","0","1","0","1","4","1","2","2","1","1","2","1","4","5","1","633792084226080768","林","350","","","","match","","","","","","","","","","","","","","key","f","16.650292929293084","710.7407909492769","395.92595389514173","f","true","match","img/triangle.png","三角","三角","ALT1","formal_ALT1_1","","","","","","","","","","","",""
"null","<span style='color:GreenYellow; font-size: 70px;'>正确! </span>","null","html-keyboard-response","168","374149","0.0-7.0-0.0-4.0-0.0-1.30","3","4","3","3","4","4","3","4","3","4","4","5","4","5","5","4","4","5","5","5","2","1","2","2","1","2","2","1","2","1","0","1","1","0","0","0","1","1","1","1","0","1","0","1","4","1","2","2","1","1","2","1","4","5","1","633792084226080768","林","350","","","","","","","","","","","","","","","","","","","","","","","","","","","","","","feedback_test","","","","","","","","","","","",""
"697","","j","psychophysics","169","375850","0.0-7.0-0.0-4.0-0.0-0.31","3","4","3","3","4","4","3","4","3","4","4","5","4","5","5","4","4","5","5","5","2","1","2","2","1","2","2","1","2","1","0","1","1","0","0","0","1","1","1","1","0","1","0","1","4","1","2","2","1","1","2","1","4","5","1","633792084226080768","林","350","","","","nonmatch","","","","","","","","","","","","","","key","j","16.65393069306951","710.7407909492769","395.92595389514173","j","true","nonmatch","img/triangle.png","五边","三角","ALT1","formal_ALT1_1","","","","","","","","","","","",""
"null","<span style='color:GreenYellow; font-size: 70px;'>正确! </span>","null","html-keyboard-response","170","376351","0.0-7.0-0.0-4.0-0.0-1.31","3","4","3","3","4","4","3","4","3","4","4","5","4","5","5","4","4","5","5","5","2","1","2","2","1","2","2","1","2","1","0","1","1","0","0","0","1","1","1","1","0","1","0","1","4","1","2","2","1","1","2","1","4","5","1","633792084226080768","林","350","","","","","","","","","","","","","","","","","","","","","","","","","","","","","","feedback_test","","","","","","","","","","","",""
"611","","f","psychophysics","171","377964","0.0-7.0-0.0-4.0-0.0-0.32","3","4","3","3","4","4","3","4","3","4","4","5","4","5","5","4","4","5","5","5","2","1","2","2","1","2","2","1","2","1","0","1","1","0","0","0","1","1","1","1","0","1","0","1","4","1","2","2","1","1","2","1","4","5","1","633792084226080768","林","350","","","","match","","","","","","","","","","","","","","key","f","16.641231578947536","710.7407909492769","395.92595389514173","f","true","match","img/triangle.png","三角","三角","ALT1","formal_ALT1_1","","","","","","","","","","","",""
"null","<span style='color:GreenYellow; font-size: 70px;'>正确! </span>","null","html-keyboard-response","172","378465","0.0-7.0-0.0-4.0-0.0-1.32","3","4","3","3","4","4","3","4","3","4","4","5","4","5","5","4","4","5","5","5","2","1","2","2","1","2","2","1","2","1","0","1","1","0","0","0","1","1","1","1","0","1","0","1","4","1","2","2","1","1","2","1","4","5","1","633792084226080768","林","350","","","","","","","","","","","","","","","","","","","","","","","","","","","","","","feedback_test","","","","","","","","","","","",""
"685","","j","psychophysics","173","380154","0.0-7.0-0.0-4.0-0.0-0.33","3","4","3","3","4","4","3","4","3","4","4","5","4","5","5","4","4","5","5","5","2","1","2","2","1","2","2","1","2","1","0","1","1","0","0","0","1","1","1","1","0","1","0","1","4","1","2","2","1","1","2","1","4","5","1","633792084226080768","林","350","","","","nonmatch","","","","","","","","","","","","","","key","j","16.654316831682692","710.7407909492769","395.92595389514173","j","true","nonmatch","img/triangle.png","椭圆","三角","ALT1","formal_ALT1_1","","","","","","","","","","","",""
"null","<span style='color:GreenYellow; font-size: 70px;'>正确! </span>","null","html-keyboard-response","174","380655","0.0-7.0-0.0-4.0-0.0-1.33","3","4","3","3","4","4","3","4","3","4","4","5","4","5","5","4","4","5","5","5","2","1","2","2","1","2","2","1","2","1","0","1","1","0","0","0","1","1","1","1","0","1","0","1","4","1","2","2","1","1","2","1","4","5","1","633792084226080768","林","350","","","","","","","","","","","","","","","","","","","","","","","","","","","","","","feedback_test","","","","","","","","","","","",""
"875","","f","psychophysics","175","382532","0.0-7.0-0.0-4.0-0.0-0.34","3","4","3","3","4","4","3","4","3","4","4","5","4","5","5","4","4","5","5","5","2","1","2","2","1","2","2","1","2","1","0","1","1","0","0","0","1","1","1","1","0","1","0","1","4","1","2","2","1","1","2","1","4","5","1","633792084226080768","林","350","","","","match","","","","","","","","","","","","","","key","f","16.65313392857102","710.7407909492769","395.92595389514173","j","false","nonmatch","img/pentagon.png","方形","五边","ALT1","formal_ALT1_1","","","","","","","","","","","",""
"null","<span style='color:red; font-size: 70px;'>错误! </span>","null","html-keyboard-response","176","383040","0.0-7.0-0.0-4.0-0.0-1.34","3","4","3","3","4","4","3","4","3","4","4","5","4","5","5","4","4","5","5","5","2","1","2","2","1","2","2","1","2","1","0","1","1","0","0","0","1","1","1","1","0","1","0","1","4","1","2","2","1","1","2","1","4","5","1","633792084226080768","林","350","","","","","","","","","","","","","","","","","","","","","","","","","","","","","","feedback_test","","","","","","","","","","","",""
