"rt","stimulus","response","trial_type","trial_index","time_elapsed","internal_node_id","ses_1","ses_2","ses_3","ses_4","ses_5","ses_6","ses_7","ses_8","ses_9","ses_10","coreself_1","coreself_2","coreself_3","coreself_4","coreself_5","coreself_6","coreself_7","coreself_8","coreself_9","coreself_10","SGPS_1","SGPS_2","SGPS_3","SGPS_4","SGPS_5","SGPS_6","SGPS_7","SGPS_8","SGPS_9","NPI1","NPI2","NPI3","NPI4","NPI5","NPI6","NPI7","NPI8","NPI9","NPI10","NPI11","NPI12","NPI13","NPI14","NPI15","hsns_1","hsns_2","hsns_3","hsns_4","hsns_5","trap1","hsns_6","hsns_7","hsns_8","hsns_9","hsns_10","subj_idx","friend_name","ParticipantID","value","success","user_agent","responses","item_order","radio_event_ids","radio_event_times","key_event_times","mouse_event_times","straightlining","zigzagging","honeypot","timeout","failed_images","failed_audio","failed_video","version_attrib2","version_target2","correct","IAT","screen_id","task_id","RT","condition","word","varname","summary","version_attrib","version_target","time_stamp","view_history","response_type","key_press","avg_frame_time","center_x","center_y","correct_response","identity","Image","question_order","correct_answer","trap1_item"
"81405","
   <p><div style = ""color: white;font-size:25px;"">您好，欢迎参加本次实验。</div> </p>
   <p><div style = ""color: white;font-size:25px;"">为充分保障您的权利，请确保您已经知晓并同意《参与实验同意书》以及《数据公开知情同意书》。</div></p>
   <p><div style = ""color: white;font-size:25px;"">如果您未见过上述内容，请咨询实验员。</div></p>
   <p><div style = ""color: white;font-size:25px;"">如果您选择继续实验，则表示您已经清楚两份知情同意书的内容并同意。</div></p>
   <p><div style = ""color: pink;font-size:30px;"">请确保您记得day0的实验编号，您将在本次实验输入该编号，若您忘记，请咨询实验员后作答。</div></p>
   <p><div style = ""color: lightblue;font-size:25px;"">请您尽可能认真地作答，我们将依据您在各问卷和按键任务中的作答质量发放报酬。</div></p>
   <p> <div style = ""color: green;font-size:25px;""><按空格键至下页></div> </p>
   "," ","html-keyboard-response","0","81407","0.0-0.0","4","3","3","4","4","3","3","2","4","4","5","2","3","4","2","4","3","3","4","4","1","4","3","3","2","3","2","3","3","1","0","1","1","0","0","1","1","0","1","1","0","1","0","1","4","2","3","2","2","","2","3","4","2","3","581839949964247040","王","145","","","","","","","","","","","","","","","","","","","","","","","","","","","","","","","","","","","","","","","","","",""
"","","","call-function","1","81408","0.0-1.0-0.0","4","3","3","4","4","3","3","2","4","4","5","2","3","4","2","4","3","3","4","4","1","4","3","3","2","3","2","3","3","1","0","1","1","0","0","1","1","0","1","1","0","1","0","1","4","2","3","2","2","","2","3","4","2","3","581839949964247040","王","145","","","","","","","","","","","","","","","","","","","","","","","","","","","","","","","","","","","","","","","","","",""
"21372","","{""friend_name"":""王"",""ParticipantID"":""145""}","survey-html-form","2","102781","0.0-1.0-1.0","4","3","3","4","4","3","3","2","4","4","5","2","3","4","2","4","3","3","4","4","1","4","3","3","2","3","2","3","3","1","0","1","1","0","0","1","1","0","1","1","0","1","0","1","4","2","3","2","2","","2","3","4","2","3","581839949964247040","王","145","","","","","","","","","","","","","","","","","","","","","","","","","","","","","","","","","","","","","","","","","",""
"","","","fullscreen","3","106652","0.0-2.0","4","3","3","4","4","3","3","2","4","4","5","2","3","4","2","4","3","3","4","4","1","4","3","3","2","3","2","3","3","1","0","1","1","0","0","1","1","0","1","1","0","1","0","1","4","2","3","2","2","","2","3","4","2","3","581839949964247040","王","145","","true","{}","","","","","","","","","","","","","","","","","","","","","","","","","","","","","","","","","","","","","","",""
"21943.100000023842","","{""Q01"":""4"",""Q02"":""3"",""Q03"":""3"",""Q04"":""4"",""Q05"":""4"",""Q06"":""3"",""Q07"":""3"",""Q08"":""2"",""Q09"":""4"",""Q10"":""4""}","survey-template","4","128598","0.0-3.0","4","3","3","4","4","3","3","2","4","4","5","2","3","4","2","4","3","3","4","4","1","4","3","3","2","3","2","3","3","1","0","1","1","0","0","1","1","0","1","1","0","1","0","1","4","2","3","2","2","","2","3","4","2","3","581839949964247040","王","145","","","","{""Q01"":""4"",""Q02"":""3"",""Q03"":""3"",""Q04"":""4"",""Q05"":""4"",""Q06"":""3"",""Q07"":""3"",""Q08"":""2"",""Q09"":""4"",""Q10"":""4""}","[0,1,2,3,4,5,6,7,8,9]","[""Q01"",""Q02"",""Q03"",""Q04"",""Q05"",""Q06"",""Q07"",""Q08"",""Q09"",""Q10""]","[3847.900000035763,5002.200000047684,7254.300000011921,8465.400000035763,11486,14660.400000035763,15215.200000047684,18876.30000001192,19803.80000001192,21177.700000047684]","[]","[3847.900000035763,5002.200000047684,7254.300000011921,8465.400000035763,11486,12836.300000011921,14660.400000035763,15215.200000047684,17880.100000023842,18876.30000001192,19803.80000001192,21177.700000047684,21942.100000023842]","0.4","0.3333333333333333","0","","","","","","","","","","","","","","","","","","","","","","","","","","","","","",""
"19144.100000023842","","{""Q01"":""5"",""Q02"":""2"",""Q03"":""3"",""Q04"":""4"",""Q05"":""2"",""Q06"":""4"",""Q07"":""3"",""Q08"":""3"",""Q09"":""4"",""Q10"":""4""}","survey-template","5","147745","0.0-4.0","4","3","3","4","4","3","3","2","4","4","5","2","3","4","2","4","3","3","4","4","1","4","3","3","2","3","2","3","3","1","0","1","1","0","0","1","1","0","1","1","0","1","0","1","4","2","3","2","2","","2","3","4","2","3","581839949964247040","王","145","","","","{""Q01"":""5"",""Q02"":""2"",""Q03"":""3"",""Q04"":""4"",""Q05"":""2"",""Q06"":""4"",""Q07"":""3"",""Q08"":""3"",""Q09"":""4"",""Q10"":""4""}","[0,1,2,3,4,5,6,7,8,9]","[""Q01"",""Q02"",""Q03"",""Q04"",""Q05"",""Q05"",""Q06"",""Q07"",""Q08"",""Q09"",""Q10""]","[2850.699999988079,4886.899999976158,6417,7356.800000011921,8445.199999988079,9612,12908.800000011921,13907.199999988079,15423.100000023842,16939,18422.100000023842]","[]","[2850.699999988079,4886.899999976158,6417,7356.800000011921,8445.199999988079,9612,12908.800000011921,13907.199999988079,15423.100000023842,16939,18422.100000023842,19142.69999998808]","0.5","0.5555555555555556","0","","","","","","","","","","","","","","","","","","","","","","","","","","","","","",""
"","","","preload","6","148357","0.0-5.0","4","3","3","4","4","3","3","2","4","4","5","2","3","4","2","4","3","3","4","4","1","4","3","3","2","3","2","3","3","1","0","1","1","0","0","1","1","0","1","1","0","1","0","1","4","2","3","2","2","","2","3","4","2","3","581839949964247040","王","145","","true","","","","","","","","","","","false","[]","[]","[]","","","","","","","","","","","","","","","","","","","","","","","","","",""
"11350","
    <h3>词语分类任务</h3>
    <p>在接下来的任务中，你需要对一系列词语进行分类。<p/>
    请先熟悉这些词语，这有利于你完成接下来的任务。</p>
    <table align=""center"" border=1 cellpadding=3 cellspacing=0>
    <tr> <th>类别</th> <th>词语</th> </tr>
    <tr> <td>&emsp;积极&emsp;</td> <td>&emsp;高尚、诚信、善良、君子、廉正、正直&emsp;</td> </tr>
    <tr> <td>&emsp;消极&emsp;</td> <td>&emsp;缺德、卑鄙、不孝、不仁、小人、黑心&emsp;</td> </tr>
    <tr> <td>&emsp;自我&emsp;</td> <td>&emsp;我、我的、自己、自己的、本人、本人的&emsp;</td> </tr>
    <tr> <td>&emsp;他人&emsp;</td> <td>&emsp;他、他的、别人、别人的、他人、他人的&emsp;</td> </tr>
    </table><br/>","0","html-button-response","7","159708","0.0-6.0-1.0-0.0","4","3","3","4","4","3","3","2","4","4","5","2","3","4","2","4","3","3","4","4","1","4","3","3","2","3","2","3","3","1","0","1","1","0","0","1","1","0","1","1","0","1","0","1","4","2","3","2","2","","2","3","4","2","3","581839949964247040","王","145","","","","","","","","","","","","","","","","","1","2","","","","","","","","","","","","","","","","","","","","","","","",""
"5305","
    <div class=""tag-bottom""><p>
    —— 任务1：对“他人”词和“自我”词分类 ——<p/>
    不同词语会出现在屏幕中央，类别标签将始终显示在屏幕上方<p/>   
    <span style=""color:#FFD866""><b>请根据上方标签的提示，尽可能正确并且快速地做出按键反应</b></span><p/>
    当按键错误时屏幕中会出现<span style=""color:red""> X </span>，需要按另一个键纠正才能继续<br/><p/>
    请把双手食指分别放在键盘的“E”键和“I”键上<p/>
    按<空格键>开始
    </p></div>"," ","html-keyboard-response","8","165015","0.0-6.0-1.0-1.0","4","3","3","4","4","3","3","2","4","4","5","2","3","4","2","4","3","3","4","4","1","4","3","3","2","3","2","3","3","1","0","1","1","0","0","1","1","0","1","1","0","1","0","1","4","2","3","2","2","","2","3","4","2","3","581839949964247040","王","145","","","","","","","","","","","","","","","","","","","","","","","","","","","","","","","","","","","","","","","","","",""
"null","","null","html-keyboard-response","9","165267","0.0-6.0-1.0-2.0-0.0","4","3","3","4","4","3","3","2","4","4","5","2","3","4","2","4","3","3","4","4","1","4","3","3","2","3","2","3","3","1","0","1","1","0","0","1","1","0","1","1","0","1","0","1","4","2","3","2","2","","2","3","4","2","3","581839949964247040","王","145","","","","","","","","","","","","","","","","","","","","","","","","","","","","","","","","","","","","","","","","","",""
"970","<p style=""color:rgb(150, 250, 100); font-size: 35px;"">别人</p>","i","categorize-html","10","167009","0.0-6.0-1.0-2.0-1.0","4","3","3","4","4","3","3","2","4","4","5","2","3","4","2","4","3","3","4","4","1","4","3","3","2","3","2","3","3","1","0","1","1","0","0","1","1","0","1","1","0","1","0","1","4","2","3","2","2","","2","3","4","2","3","581839949964247040","王","145","","","","","","","","","","","","","","","","","","","false","11","1","moral","970","other","别人","","","","","","","","","","","","","","","","",""
"null","","null","html-keyboard-response","11","167262","0.0-6.0-1.0-2.0-0.1","4","3","3","4","4","3","3","2","4","4","5","2","3","4","2","4","3","3","4","4","1","4","3","3","2","3","2","3","3","1","0","1","1","0","0","1","1","0","1","1","0","1","0","1","4","2","3","2","2","","2","3","4","2","3","581839949964247040","王","145","","","","","","","","","","","","","","","","","","","","","","","","","","","","","","","","","","","","","","","","","",""
"726","<p style=""color:rgb(150, 250, 100); font-size: 35px;"">他人</p>","i","categorize-html","12","168483","0.0-6.0-1.0-2.0-1.1","4","3","3","4","4","3","3","2","4","4","5","2","3","4","2","4","3","3","4","4","1","4","3","3","2","3","2","3","3","1","0","1","1","0","0","1","1","0","1","1","0","1","0","1","4","2","3","2","2","","2","3","4","2","3","581839949964247040","王","145","","","","","","","","","","","","","","","","","","","false","11","1","moral","726","other","他人","","","","","","","","","","","","","","","","",""
"null","","null","html-keyboard-response","13","168735","0.0-6.0-1.0-2.0-0.2","4","3","3","4","4","3","3","2","4","4","5","2","3","4","2","4","3","3","4","4","1","4","3","3","2","3","2","3","3","1","0","1","1","0","0","1","1","0","1","1","0","1","0","1","4","2","3","2","2","","2","3","4","2","3","581839949964247040","王","145","","","","","","","","","","","","","","","","","","","","","","","","","","","","","","","","","","","","","","","","","",""
"556","<p style=""color:rgb(150, 250, 100); font-size: 35px;"">他的</p>","e","categorize-html","14","169293","0.0-6.0-1.0-2.0-1.2","4","3","3","4","4","3","3","2","4","4","5","2","3","4","2","4","3","3","4","4","1","4","3","3","2","3","2","3","3","1","0","1","1","0","0","1","1","0","1","1","0","1","0","1","4","2","3","2","2","","2","3","4","2","3","581839949964247040","王","145","","","","","","","","","","","","","","","","","","","true","11","1","moral","556","other","他的","","","","","","","","","","","","","","","","",""
"null","","null","html-keyboard-response","15","169545","0.0-6.0-1.0-2.0-0.3","4","3","3","4","4","3","3","2","4","4","5","2","3","4","2","4","3","3","4","4","1","4","3","3","2","3","2","3","3","1","0","1","1","0","0","1","1","0","1","1","0","1","0","1","4","2","3","2","2","","2","3","4","2","3","581839949964247040","王","145","","","","","","","","","","","","","","","","","","","","","","","","","","","","","","","","","","","","","","","","","",""
"449","<p style=""color:rgb(150, 250, 100); font-size: 35px;"">别人的</p>","e","categorize-html","16","169996","0.0-6.0-1.0-2.0-1.3","4","3","3","4","4","3","3","2","4","4","5","2","3","4","2","4","3","3","4","4","1","4","3","3","2","3","2","3","3","1","0","1","1","0","0","1","1","0","1","1","0","1","0","1","4","2","3","2","2","","2","3","4","2","3","581839949964247040","王","145","","","","","","","","","","","","","","","","","","","true","11","1","moral","449","other","别人的","","","","","","","","","","","","","","","","",""
"null","","null","html-keyboard-response","17","170257","0.0-6.0-1.0-2.0-0.4","4","3","3","4","4","3","3","2","4","4","5","2","3","4","2","4","3","3","4","4","1","4","3","3","2","3","2","3","3","1","0","1","1","0","0","1","1","0","1","1","0","1","0","1","4","2","3","2","2","","2","3","4","2","3","581839949964247040","王","145","","","","","","","","","","","","","","","","","","","","","","","","","","","","","","","","","","","","","","","","","",""
"411","<p style=""color:rgb(150, 250, 100); font-size: 35px;"">我的</p>","i","categorize-html","18","170671","0.0-6.0-1.0-2.0-1.4","4","3","3","4","4","3","3","2","4","4","5","2","3","4","2","4","3","3","4","4","1","4","3","3","2","3","2","3","3","1","0","1","1","0","0","1","1","0","1","1","0","1","0","1","4","2","3","2","2","","2","3","4","2","3","581839949964247040","王","145","","","","","","","","","","","","","","","","","","","true","11","1","moral","411","self","我的","","","","","","","","","","","","","","","","",""
"null","","null","html-keyboard-response","19","170922","0.0-6.0-1.0-2.0-0.5","4","3","3","4","4","3","3","2","4","4","5","2","3","4","2","4","3","3","4","4","1","4","3","3","2","3","2","3","3","1","0","1","1","0","0","1","1","0","1","1","0","1","0","1","4","2","3","2","2","","2","3","4","2","3","581839949964247040","王","145","","","","","","","","","","","","","","","","","","","","","","","","","","","","","","","","","","","","","","","","","",""
"519","<p style=""color:rgb(150, 250, 100); font-size: 35px;"">我</p>","i","categorize-html","20","171443","0.0-6.0-1.0-2.0-1.5","4","3","3","4","4","3","3","2","4","4","5","2","3","4","2","4","3","3","4","4","1","4","3","3","2","3","2","3","3","1","0","1","1","0","0","1","1","0","1","1","0","1","0","1","4","2","3","2","2","","2","3","4","2","3","581839949964247040","王","145","","","","","","","","","","","","","","","","","","","true","11","1","moral","519","self","我","","","","","","","","","","","","","","","","",""
"null","","null","html-keyboard-response","21","171695","0.0-6.0-1.0-2.0-0.6","4","3","3","4","4","3","3","2","4","4","5","2","3","4","2","4","3","3","4","4","1","4","3","3","2","3","2","3","3","1","0","1","1","0","0","1","1","0","1","1","0","1","0","1","4","2","3","2","2","","2","3","4","2","3","581839949964247040","王","145","","","","","","","","","","","","","","","","","","","","","","","","","","","","","","","","","","","","","","","","","",""
"491","<p style=""color:rgb(150, 250, 100); font-size: 35px;"">自己</p>","i","categorize-html","22","172188","0.0-6.0-1.0-2.0-1.6","4","3","3","4","4","3","3","2","4","4","5","2","3","4","2","4","3","3","4","4","1","4","3","3","2","3","2","3","3","1","0","1","1","0","0","1","1","0","1","1","0","1","0","1","4","2","3","2","2","","2","3","4","2","3","581839949964247040","王","145","","","","","","","","","","","","","","","","","","","true","11","1","moral","491","self","自己","","","","","","","","","","","","","","","","",""
"null","","null","html-keyboard-response","23","172439","0.0-6.0-1.0-2.0-0.7","4","3","3","4","4","3","3","2","4","4","5","2","3","4","2","4","3","3","4","4","1","4","3","3","2","3","2","3","3","1","0","1","1","0","0","1","1","0","1","1","0","1","0","1","4","2","3","2","2","","2","3","4","2","3","581839949964247040","王","145","","","","","","","","","","","","","","","","","","","","","","","","","","","","","","","","","","","","","","","","","",""
"555","<p style=""color:rgb(150, 250, 100); font-size: 35px;"">他</p>","e","categorize-html","24","172995","0.0-6.0-1.0-2.0-1.7","4","3","3","4","4","3","3","2","4","4","5","2","3","4","2","4","3","3","4","4","1","4","3","3","2","3","2","3","3","1","0","1","1","0","0","1","1","0","1","1","0","1","0","1","4","2","3","2","2","","2","3","4","2","3","581839949964247040","王","145","","","","","","","","","","","","","","","","","","","true","11","1","moral","555","other","他","","","","","","","","","","","","","","","","",""
"null","","null","html-keyboard-response","25","173247","0.0-6.0-1.0-2.0-0.8","4","3","3","4","4","3","3","2","4","4","5","2","3","4","2","4","3","3","4","4","1","4","3","3","2","3","2","3","3","1","0","1","1","0","0","1","1","0","1","1","0","1","0","1","4","2","3","2","2","","2","3","4","2","3","581839949964247040","王","145","","","","","","","","","","","","","","","","","","","","","","","","","","","","","","","","","","","","","","","","","",""
"804","<p style=""color:rgb(150, 250, 100); font-size: 35px;"">本人</p>","i","categorize-html","26","174053","0.0-6.0-1.0-2.0-1.8","4","3","3","4","4","3","3","2","4","4","5","2","3","4","2","4","3","3","4","4","1","4","3","3","2","3","2","3","3","1","0","1","1","0","0","1","1","0","1","1","0","1","0","1","4","2","3","2","2","","2","3","4","2","3","581839949964247040","王","145","","","","","","","","","","","","","","","","","","","true","11","1","moral","804","self","本人","","","","","","","","","","","","","","","","",""
"null","","null","html-keyboard-response","27","174304","0.0-6.0-1.0-2.0-0.9","4","3","3","4","4","3","3","2","4","4","5","2","3","4","2","4","3","3","4","4","1","4","3","3","2","3","2","3","3","1","0","1","1","0","0","1","1","0","1","1","0","1","0","1","4","2","3","2","2","","2","3","4","2","3","581839949964247040","王","145","","","","","","","","","","","","","","","","","","","","","","","","","","","","","","","","","","","","","","","","","",""
"488","<p style=""color:rgb(150, 250, 100); font-size: 35px;"">本人的</p>","i","categorize-html","28","174796","0.0-6.0-1.0-2.0-1.9","4","3","3","4","4","3","3","2","4","4","5","2","3","4","2","4","3","3","4","4","1","4","3","3","2","3","2","3","3","1","0","1","1","0","0","1","1","0","1","1","0","1","0","1","4","2","3","2","2","","2","3","4","2","3","581839949964247040","王","145","","","","","","","","","","","","","","","","","","","true","11","1","moral","488","self","本人的","","","","","","","","","","","","","","","","",""
"null","","null","html-keyboard-response","29","175047","0.0-6.0-1.0-2.0-0.10","4","3","3","4","4","3","3","2","4","4","5","2","3","4","2","4","3","3","4","4","1","4","3","3","2","3","2","3","3","1","0","1","1","0","0","1","1","0","1","1","0","1","0","1","4","2","3","2","2","","2","3","4","2","3","581839949964247040","王","145","","","","","","","","","","","","","","","","","","","","","","","","","","","","","","","","","","","","","","","","","",""
"471","<p style=""color:rgb(150, 250, 100); font-size: 35px;"">自己的</p>","i","categorize-html","30","175520","0.0-6.0-1.0-2.0-1.10","4","3","3","4","4","3","3","2","4","4","5","2","3","4","2","4","3","3","4","4","1","4","3","3","2","3","2","3","3","1","0","1","1","0","0","1","1","0","1","1","0","1","0","1","4","2","3","2","2","","2","3","4","2","3","581839949964247040","王","145","","","","","","","","","","","","","","","","","","","true","11","1","moral","471","self","自己的","","","","","","","","","","","","","","","","",""
"null","","null","html-keyboard-response","31","175772","0.0-6.0-1.0-2.0-0.11","4","3","3","4","4","3","3","2","4","4","5","2","3","4","2","4","3","3","4","4","1","4","3","3","2","3","2","3","3","1","0","1","1","0","0","1","1","0","1","1","0","1","0","1","4","2","3","2","2","","2","3","4","2","3","581839949964247040","王","145","","","","","","","","","","","","","","","","","","","","","","","","","","","","","","","","","","","","","","","","","",""
"827","<p style=""color:rgb(150, 250, 100); font-size: 35px;"">他人的</p>","e","categorize-html","32","176600","0.0-6.0-1.0-2.0-1.11","4","3","3","4","4","3","3","2","4","4","5","2","3","4","2","4","3","3","4","4","1","4","3","3","2","3","2","3","3","1","0","1","1","0","0","1","1","0","1","1","0","1","0","1","4","2","3","2","2","","2","3","4","2","3","581839949964247040","王","145","","","","","","","","","","","","","","","","","","","true","11","1","moral","827","other","他人的","","","","","","","","","","","","","","","","",""
"1233","
    <div class=""tag-bottom""><p>
    —— 任务2：对“积极”词和“消极”词分类 ——<p/>   
    <span style=""color:#78DCE8""><b>注意上方，类别标签和需要分类的词语都已经改变</b></span><p/>
    <span style=""color:#FFD866""><b>请根据上方标签的提示，尽可能正确并且快速地做出按键反应</b></span><p/>
    当按键错误时屏幕中会出现<span style=""color:red""> X </span>，需要按另一个键纠正才能继续<br/><p/>
    请把双手食指分别放在键盘的“E”键和“I”键上<p/>
    按<空格键>开始
    </p></div>"," ","html-keyboard-response","33","177833","0.0-6.0-1.0-3.0","4","3","3","4","4","3","3","2","4","4","5","2","3","4","2","4","3","3","4","4","1","4","3","3","2","3","2","3","3","1","0","1","1","0","0","1","1","0","1","1","0","1","0","1","4","2","3","2","2","","2","3","4","2","3","581839949964247040","王","145","","","","","","","","","","","","","","","","","","","","","","","","","","","","","","","","","","","","","","","","","",""
"null","","null","html-keyboard-response","34","178085","0.0-6.0-1.0-4.0-0.0","4","3","3","4","4","3","3","2","4","4","5","2","3","4","2","4","3","3","4","4","1","4","3","3","2","3","2","3","3","1","0","1","1","0","0","1","1","0","1","1","0","1","0","1","4","2","3","2","2","","2","3","4","2","3","581839949964247040","王","145","","","","","","","","","","","","","","","","","","","","","","","","","","","","","","","","","","","","","","","","","",""
"925","<p style=""color:white; font-size: 35px;"">不仁</p>","i","categorize-html","35","179013","0.0-6.0-1.0-4.0-1.0","4","3","3","4","4","3","3","2","4","4","5","2","3","4","2","4","3","3","4","4","1","4","3","3","2","3","2","3","3","1","0","1","1","0","0","1","1","0","1","1","0","1","0","1","4","2","3","2","2","","2","3","4","2","3","581839949964247040","王","145","","","","","","","","","","","","","","","","","","","true","12","2","moral","925","negative","不仁","","","","","","","","","","","","","","","","",""
"null","","null","html-keyboard-response","36","179265","0.0-6.0-1.0-4.0-0.1","4","3","3","4","4","3","3","2","4","4","5","2","3","4","2","4","3","3","4","4","1","4","3","3","2","3","2","3","3","1","0","1","1","0","0","1","1","0","1","1","0","1","0","1","4","2","3","2","2","","2","3","4","2","3","581839949964247040","王","145","","","","","","","","","","","","","","","","","","","","","","","","","","","","","","","","","","","","","","","","","",""
"622","<p style=""color:white; font-size: 35px;"">黑心</p>","i","categorize-html","37","179890","0.0-6.0-1.0-4.0-1.1","4","3","3","4","4","3","3","2","4","4","5","2","3","4","2","4","3","3","4","4","1","4","3","3","2","3","2","3","3","1","0","1","1","0","0","1","1","0","1","1","0","1","0","1","4","2","3","2","2","","2","3","4","2","3","581839949964247040","王","145","","","","","","","","","","","","","","","","","","","true","12","2","moral","622","negative","黑心","","","","","","","","","","","","","","","","",""
"null","","null","html-keyboard-response","38","180141","0.0-6.0-1.0-4.0-0.2","4","3","3","4","4","3","3","2","4","4","5","2","3","4","2","4","3","3","4","4","1","4","3","3","2","3","2","3","3","1","0","1","1","0","0","1","1","0","1","1","0","1","0","1","4","2","3","2","2","","2","3","4","2","3","581839949964247040","王","145","","","","","","","","","","","","","","","","","","","","","","","","","","","","","","","","","","","","","","","","","",""
"618","<p style=""color:white; font-size: 35px;"">缺德</p>","i","categorize-html","39","180760","0.0-6.0-1.0-4.0-1.2","4","3","3","4","4","3","3","2","4","4","5","2","3","4","2","4","3","3","4","4","1","4","3","3","2","3","2","3","3","1","0","1","1","0","0","1","1","0","1","1","0","1","0","1","4","2","3","2","2","","2","3","4","2","3","581839949964247040","王","145","","","","","","","","","","","","","","","","","","","true","12","2","moral","618","negative","缺德","","","","","","","","","","","","","","","","",""
"null","","null","html-keyboard-response","40","181012","0.0-6.0-1.0-4.0-0.3","4","3","3","4","4","3","3","2","4","4","5","2","3","4","2","4","3","3","4","4","1","4","3","3","2","3","2","3","3","1","0","1","1","0","0","1","1","0","1","1","0","1","0","1","4","2","3","2","2","","2","3","4","2","3","581839949964247040","王","145","","","","","","","","","","","","","","","","","","","","","","","","","","","","","","","","","","","","","","","","","",""
"1010","<p style=""color:white; font-size: 35px;"">廉正</p>","e","categorize-html","41","182023","0.0-6.0-1.0-4.0-1.3","4","3","3","4","4","3","3","2","4","4","5","2","3","4","2","4","3","3","4","4","1","4","3","3","2","3","2","3","3","1","0","1","1","0","0","1","1","0","1","1","0","1","0","1","4","2","3","2","2","","2","3","4","2","3","581839949964247040","王","145","","","","","","","","","","","","","","","","","","","true","12","2","moral","1010","positive","廉正","","","","","","","","","","","","","","","","",""
"null","","null","html-keyboard-response","42","182274","0.0-6.0-1.0-4.0-0.4","4","3","3","4","4","3","3","2","4","4","5","2","3","4","2","4","3","3","4","4","1","4","3","3","2","3","2","3","3","1","0","1","1","0","0","1","1","0","1","1","0","1","0","1","4","2","3","2","2","","2","3","4","2","3","581839949964247040","王","145","","","","","","","","","","","","","","","","","","","","","","","","","","","","","","","","","","","","","","","","","",""
"534","<p style=""color:white; font-size: 35px;"">正直</p>","e","categorize-html","43","182810","0.0-6.0-1.0-4.0-1.4","4","3","3","4","4","3","3","2","4","4","5","2","3","4","2","4","3","3","4","4","1","4","3","3","2","3","2","3","3","1","0","1","1","0","0","1","1","0","1","1","0","1","0","1","4","2","3","2","2","","2","3","4","2","3","581839949964247040","王","145","","","","","","","","","","","","","","","","","","","true","12","2","moral","534","positive","正直","","","","","","","","","","","","","","","","",""
"null","","null","html-keyboard-response","44","183062","0.0-6.0-1.0-4.0-0.5","4","3","3","4","4","3","3","2","4","4","5","2","3","4","2","4","3","3","4","4","1","4","3","3","2","3","2","3","3","1","0","1","1","0","0","1","1","0","1","1","0","1","0","1","4","2","3","2","2","","2","3","4","2","3","581839949964247040","王","145","","","","","","","","","","","","","","","","","","","","","","","","","","","","","","","","","","","","","","","","","",""
"621","<p style=""color:white; font-size: 35px;"">不孝</p>","i","categorize-html","45","183684","0.0-6.0-1.0-4.0-1.5","4","3","3","4","4","3","3","2","4","4","5","2","3","4","2","4","3","3","4","4","1","4","3","3","2","3","2","3","3","1","0","1","1","0","0","1","1","0","1","1","0","1","0","1","4","2","3","2","2","","2","3","4","2","3","581839949964247040","王","145","","","","","","","","","","","","","","","","","","","true","12","2","moral","621","negative","不孝","","","","","","","","","","","","","","","","",""
"null","","null","html-keyboard-response","46","183935","0.0-6.0-1.0-4.0-0.6","4","3","3","4","4","3","3","2","4","4","5","2","3","4","2","4","3","3","4","4","1","4","3","3","2","3","2","3","3","1","0","1","1","0","0","1","1","0","1","1","0","1","0","1","4","2","3","2","2","","2","3","4","2","3","581839949964247040","王","145","","","","","","","","","","","","","","","","","","","","","","","","","","","","","","","","","","","","","","","","","",""
"509","<p style=""color:white; font-size: 35px;"">诚信</p>","e","categorize-html","47","184447","0.0-6.0-1.0-4.0-1.6","4","3","3","4","4","3","3","2","4","4","5","2","3","4","2","4","3","3","4","4","1","4","3","3","2","3","2","3","3","1","0","1","1","0","0","1","1","0","1","1","0","1","0","1","4","2","3","2","2","","2","3","4","2","3","581839949964247040","王","145","","","","","","","","","","","","","","","","","","","true","12","2","moral","509","positive","诚信","","","","","","","","","","","","","","","","",""
"null","","null","html-keyboard-response","48","184698","0.0-6.0-1.0-4.0-0.7","4","3","3","4","4","3","3","2","4","4","5","2","3","4","2","4","3","3","4","4","1","4","3","3","2","3","2","3","3","1","0","1","1","0","0","1","1","0","1","1","0","1","0","1","4","2","3","2","2","","2","3","4","2","3","581839949964247040","王","145","","","","","","","","","","","","","","","","","","","","","","","","","","","","","","","","","","","","","","","","","",""
"1081","<p style=""color:white; font-size: 35px;"">卑鄙</p>","i","categorize-html","49","185781","0.0-6.0-1.0-4.0-1.7","4","3","3","4","4","3","3","2","4","4","5","2","3","4","2","4","3","3","4","4","1","4","3","3","2","3","2","3","3","1","0","1","1","0","0","1","1","0","1","1","0","1","0","1","4","2","3","2","2","","2","3","4","2","3","581839949964247040","王","145","","","","","","","","","","","","","","","","","","","true","12","2","moral","1081","negative","卑鄙","","","","","","","","","","","","","","","","",""
"null","","null","html-keyboard-response","50","186033","0.0-6.0-1.0-4.0-0.8","4","3","3","4","4","3","3","2","4","4","5","2","3","4","2","4","3","3","4","4","1","4","3","3","2","3","2","3","3","1","0","1","1","0","0","1","1","0","1","1","0","1","0","1","4","2","3","2","2","","2","3","4","2","3","581839949964247040","王","145","","","","","","","","","","","","","","","","","","","","","","","","","","","","","","","","","","","","","","","","","",""
"1517","<p style=""color:white; font-size: 35px;"">小人</p>","i","categorize-html","51","187551","0.0-6.0-1.0-4.0-1.8","4","3","3","4","4","3","3","2","4","4","5","2","3","4","2","4","3","3","4","4","1","4","3","3","2","3","2","3","3","1","0","1","1","0","0","1","1","0","1","1","0","1","0","1","4","2","3","2","2","","2","3","4","2","3","581839949964247040","王","145","","","","","","","","","","","","","","","","","","","true","12","2","moral","1517","negative","小人","","","","","","","","","","","","","","","","",""
"null","","null","html-keyboard-response","52","187803","0.0-6.0-1.0-4.0-0.9","4","3","3","4","4","3","3","2","4","4","5","2","3","4","2","4","3","3","4","4","1","4","3","3","2","3","2","3","3","1","0","1","1","0","0","1","1","0","1","1","0","1","0","1","4","2","3","2","2","","2","3","4","2","3","581839949964247040","王","145","","","","","","","","","","","","","","","","","","","","","","","","","","","","","","","","","","","","","","","","","",""
"562","<p style=""color:white; font-size: 35px;"">善良</p>","e","categorize-html","53","188366","0.0-6.0-1.0-4.0-1.9","4","3","3","4","4","3","3","2","4","4","5","2","3","4","2","4","3","3","4","4","1","4","3","3","2","3","2","3","3","1","0","1","1","0","0","1","1","0","1","1","0","1","0","1","4","2","3","2","2","","2","3","4","2","3","581839949964247040","王","145","","","","","","","","","","","","","","","","","","","true","12","2","moral","562","positive","善良","","","","","","","","","","","","","","","","",""
"null","","null","html-keyboard-response","54","188616","0.0-6.0-1.0-4.0-0.10","4","3","3","4","4","3","3","2","4","4","5","2","3","4","2","4","3","3","4","4","1","4","3","3","2","3","2","3","3","1","0","1","1","0","0","1","1","0","1","1","0","1","0","1","4","2","3","2","2","","2","3","4","2","3","581839949964247040","王","145","","","","","","","","","","","","","","","","","","","","","","","","","","","","","","","","","","","","","","","","","",""
"2323","<p style=""color:white; font-size: 35px;"">君子</p>","e","categorize-html","55","190942","0.0-6.0-1.0-4.0-1.10","4","3","3","4","4","3","3","2","4","4","5","2","3","4","2","4","3","3","4","4","1","4","3","3","2","3","2","3","3","1","0","1","1","0","0","1","1","0","1","1","0","1","0","1","4","2","3","2","2","","2","3","4","2","3","581839949964247040","王","145","","","","","","","","","","","","","","","","","","","true","12","2","moral","2323","positive","君子","","","","","","","","","","","","","","","","",""
"null","","null","html-keyboard-response","56","191193","0.0-6.0-1.0-4.0-0.11","4","3","3","4","4","3","3","2","4","4","5","2","3","4","2","4","3","3","4","4","1","4","3","3","2","3","2","3","3","1","0","1","1","0","0","1","1","0","1","1","0","1","0","1","4","2","3","2","2","","2","3","4","2","3","581839949964247040","王","145","","","","","","","","","","","","","","","","","","","","","","","","","","","","","","","","","","","","","","","","","",""
"513","<p style=""color:white; font-size: 35px;"">高尚</p>","e","categorize-html","57","191708","0.0-6.0-1.0-4.0-1.11","4","3","3","4","4","3","3","2","4","4","5","2","3","4","2","4","3","3","4","4","1","4","3","3","2","3","2","3","3","1","0","1","1","0","0","1","1","0","1","1","0","1","0","1","4","2","3","2","2","","2","3","4","2","3","581839949964247040","王","145","","","","","","","","","","","","","","","","","","","true","12","2","moral","513","positive","高尚","","","","","","","","","","","","","","","","",""
"798","
    <div class=""tag-bottom""><p>
    —— 任务3：对“他人/积极”词和“自我/消极”词分类 ——<p/>
    <span style=""color:#78DCE8""><b>注意上方，之前的四类词语将混合在一起交替呈现</b></span><p/>
    <span style=""color:#FFD866""><b>请根据上方标签的提示，尽可能正确并且快速地做出按键反应</b></span><p/>
    当按键错误时屏幕中会出现<span style=""color:red""> X </span>，需要按另一个键纠正才能继续<br/><p/>
    请把双手食指分别放在键盘的“E”键和“I”键上<p/>
    按<空格键>开始
    </p></div>"," ","html-keyboard-response","58","192506","0.0-6.0-1.0-5.0","4","3","3","4","4","3","3","2","4","4","5","2","3","4","2","4","3","3","4","4","1","4","3","3","2","3","2","3","3","1","0","1","1","0","0","1","1","0","1","1","0","1","0","1","4","2","3","2","2","","2","3","4","2","3","581839949964247040","王","145","","","","","","","","","","","","","","","","","","","","","","","","","","","","","","","","","","","","","","","","","",""
"null","","null","html-keyboard-response","59","192757","0.0-6.0-1.0-6.0-0.0","4","3","3","4","4","3","3","2","4","4","5","2","3","4","2","4","3","3","4","4","1","4","3","3","2","3","2","3","3","1","0","1","1","0","0","1","1","0","1","1","0","1","0","1","4","2","3","2","2","","2","3","4","2","3","581839949964247040","王","145","","","","","","","","","","","","","","","","","","","","","","","","","","","","","","","","","","","","","","","","","",""
"720","<p style=""color:rgb(150, 250, 100); font-size: 35px;"">本人的</p>","i","categorize-html","60","193479","0.0-6.0-1.0-6.0-1.0","4","3","3","4","4","3","3","2","4","4","5","2","3","4","2","4","3","3","4","4","1","4","3","3","2","3","2","3","3","1","0","1","1","0","0","1","1","0","1","1","0","1","0","1","4","2","3","2","2","","2","3","4","2","3","581839949964247040","王","145","","","","","","","","","","","","","","","","","","","true","13","3","moral","720","self","本人的","","","","","","","","","","","","","","","","",""
"null","","null","html-keyboard-response","61","193731","0.0-6.0-1.0-6.0-0.1","4","3","3","4","4","3","3","2","4","4","5","2","3","4","2","4","3","3","4","4","1","4","3","3","2","3","2","3","3","1","0","1","1","0","0","1","1","0","1","1","0","1","0","1","4","2","3","2","2","","2","3","4","2","3","581839949964247040","王","145","","","","","","","","","","","","","","","","","","","","","","","","","","","","","","","","","","","","","","","","","",""
"1583","<p style=""color:white; font-size: 35px;"">正直</p>","e","categorize-html","62","195317","0.0-6.0-1.0-6.0-1.1","4","3","3","4","4","3","3","2","4","4","5","2","3","4","2","4","3","3","4","4","1","4","3","3","2","3","2","3","3","1","0","1","1","0","0","1","1","0","1","1","0","1","0","1","4","2","3","2","2","","2","3","4","2","3","581839949964247040","王","145","","","","","","","","","","","","","","","","","","","true","13","3","moral","1583","positive","正直","","","","","","","","","","","","","","","","",""
"null","","null","html-keyboard-response","63","195569","0.0-6.0-1.0-6.0-0.2","4","3","3","4","4","3","3","2","4","4","5","2","3","4","2","4","3","3","4","4","1","4","3","3","2","3","2","3","3","1","0","1","1","0","0","1","1","0","1","1","0","1","0","1","4","2","3","2","2","","2","3","4","2","3","581839949964247040","王","145","","","","","","","","","","","","","","","","","","","","","","","","","","","","","","","","","","","","","","","","","",""
"613","<p style=""color:rgb(150, 250, 100); font-size: 35px;"">他人</p>","e","categorize-html","64","196184","0.0-6.0-1.0-6.0-1.2","4","3","3","4","4","3","3","2","4","4","5","2","3","4","2","4","3","3","4","4","1","4","3","3","2","3","2","3","3","1","0","1","1","0","0","1","1","0","1","1","0","1","0","1","4","2","3","2","2","","2","3","4","2","3","581839949964247040","王","145","","","","","","","","","","","","","","","","","","","true","13","3","moral","613","other","他人","","","","","","","","","","","","","","","","",""
"null","","null","html-keyboard-response","65","196436","0.0-6.0-1.0-6.0-0.3","4","3","3","4","4","3","3","2","4","4","5","2","3","4","2","4","3","3","4","4","1","4","3","3","2","3","2","3","3","1","0","1","1","0","0","1","1","0","1","1","0","1","0","1","4","2","3","2","2","","2","3","4","2","3","581839949964247040","王","145","","","","","","","","","","","","","","","","","","","","","","","","","","","","","","","","","","","","","","","","","",""
"726","<p style=""color:white; font-size: 35px;"">缺德</p>","i","categorize-html","66","197165","0.0-6.0-1.0-6.0-1.3","4","3","3","4","4","3","3","2","4","4","5","2","3","4","2","4","3","3","4","4","1","4","3","3","2","3","2","3","3","1","0","1","1","0","0","1","1","0","1","1","0","1","0","1","4","2","3","2","2","","2","3","4","2","3","581839949964247040","王","145","","","","","","","","","","","","","","","","","","","true","13","3","moral","726","negative","缺德","","","","","","","","","","","","","","","","",""
"null","","null","html-keyboard-response","67","197416","0.0-6.0-1.0-6.0-0.4","4","3","3","4","4","3","3","2","4","4","5","2","3","4","2","4","3","3","4","4","1","4","3","3","2","3","2","3","3","1","0","1","1","0","0","1","1","0","1","1","0","1","0","1","4","2","3","2","2","","2","3","4","2","3","581839949964247040","王","145","","","","","","","","","","","","","","","","","","","","","","","","","","","","","","","","","","","","","","","","","",""
"642","<p style=""color:rgb(150, 250, 100); font-size: 35px;"">他人的</p>","e","categorize-html","68","198059","0.0-6.0-1.0-6.0-1.4","4","3","3","4","4","3","3","2","4","4","5","2","3","4","2","4","3","3","4","4","1","4","3","3","2","3","2","3","3","1","0","1","1","0","0","1","1","0","1","1","0","1","0","1","4","2","3","2","2","","2","3","4","2","3","581839949964247040","王","145","","","","","","","","","","","","","","","","","","","true","13","3","moral","642","other","他人的","","","","","","","","","","","","","","","","",""
"null","","null","html-keyboard-response","69","198311","0.0-6.0-1.0-6.0-0.5","4","3","3","4","4","3","3","2","4","4","5","2","3","4","2","4","3","3","4","4","1","4","3","3","2","3","2","3","3","1","0","1","1","0","0","1","1","0","1","1","0","1","0","1","4","2","3","2","2","","2","3","4","2","3","581839949964247040","王","145","","","","","","","","","","","","","","","","","","","","","","","","","","","","","","","","","","","","","","","","","",""
"531","<p style=""color:white; font-size: 35px;"">小人</p>","e","categorize-html","70","199420","0.0-6.0-1.0-6.0-1.5","4","3","3","4","4","3","3","2","4","4","5","2","3","4","2","4","3","3","4","4","1","4","3","3","2","3","2","3","3","1","0","1","1","0","0","1","1","0","1","1","0","1","0","1","4","2","3","2","2","","2","3","4","2","3","581839949964247040","王","145","","","","","","","","","","","","","","","","","","","false","13","3","moral","1397.2727272727273","negative","小人","","","","","","","","","","","","","","","","",""
"null","","null","html-keyboard-response","71","199672","0.0-6.0-1.0-6.0-0.6","4","3","3","4","4","3","3","2","4","4","5","2","3","4","2","4","3","3","4","4","1","4","3","3","2","3","2","3","3","1","0","1","1","0","0","1","1","0","1","1","0","1","0","1","4","2","3","2","2","","2","3","4","2","3","581839949964247040","王","145","","","","","","","","","","","","","","","","","","","","","","","","","","","","","","","","","","","","","","","","","",""
"512","<p style=""color:rgb(150, 250, 100); font-size: 35px;"">本人</p>","i","categorize-html","72","200186","0.0-6.0-1.0-6.0-1.6","4","3","3","4","4","3","3","2","4","4","5","2","3","4","2","4","3","3","4","4","1","4","3","3","2","3","2","3","3","1","0","1","1","0","0","1","1","0","1","1","0","1","0","1","4","2","3","2","2","","2","3","4","2","3","581839949964247040","王","145","","","","","","","","","","","","","","","","","","","true","13","3","moral","512","self","本人","","","","","","","","","","","","","","","","",""
"null","","null","html-keyboard-response","73","200452","0.0-6.0-1.0-6.0-0.7","4","3","3","4","4","3","3","2","4","4","5","2","3","4","2","4","3","3","4","4","1","4","3","3","2","3","2","3","3","1","0","1","1","0","0","1","1","0","1","1","0","1","0","1","4","2","3","2","2","","2","3","4","2","3","581839949964247040","王","145","","","","","","","","","","","","","","","","","","","","","","","","","","","","","","","","","","","","","","","","","",""
"668","<p style=""color:white; font-size: 35px;"">君子</p>","e","categorize-html","74","201122","0.0-6.0-1.0-6.0-1.7","4","3","3","4","4","3","3","2","4","4","5","2","3","4","2","4","3","3","4","4","1","4","3","3","2","3","2","3","3","1","0","1","1","0","0","1","1","0","1","1","0","1","0","1","4","2","3","2","2","","2","3","4","2","3","581839949964247040","王","145","","","","","","","","","","","","","","","","","","","true","13","3","moral","668","positive","君子","","","","","","","","","","","","","","","","",""
"null","","null","html-keyboard-response","75","201373","0.0-6.0-1.0-6.0-0.8","4","3","3","4","4","3","3","2","4","4","5","2","3","4","2","4","3","3","4","4","1","4","3","3","2","3","2","3","3","1","0","1","1","0","0","1","1","0","1","1","0","1","0","1","4","2","3","2","2","","2","3","4","2","3","581839949964247040","王","145","","","","","","","","","","","","","","","","","","","","","","","","","","","","","","","","","","","","","","","","","",""
"472","<p style=""color:rgb(150, 250, 100); font-size: 35px;"">我的</p>","i","categorize-html","76","201848","0.0-6.0-1.0-6.0-1.8","4","3","3","4","4","3","3","2","4","4","5","2","3","4","2","4","3","3","4","4","1","4","3","3","2","3","2","3","3","1","0","1","1","0","0","1","1","0","1","1","0","1","0","1","4","2","3","2","2","","2","3","4","2","3","581839949964247040","王","145","","","","","","","","","","","","","","","","","","","true","13","3","moral","472","self","我的","","","","","","","","","","","","","","","","",""
"null","","null","html-keyboard-response","77","202099","0.0-6.0-1.0-6.0-0.9","4","3","3","4","4","3","3","2","4","4","5","2","3","4","2","4","3","3","4","4","1","4","3","3","2","3","2","3","3","1","0","1","1","0","0","1","1","0","1","1","0","1","0","1","4","2","3","2","2","","2","3","4","2","3","581839949964247040","王","145","","","","","","","","","","","","","","","","","","","","","","","","","","","","","","","","","","","","","","","","","",""
"697","<p style=""color:white; font-size: 35px;"">廉正</p>","e","categorize-html","78","202798","0.0-6.0-1.0-6.0-1.9","4","3","3","4","4","3","3","2","4","4","5","2","3","4","2","4","3","3","4","4","1","4","3","3","2","3","2","3","3","1","0","1","1","0","0","1","1","0","1","1","0","1","0","1","4","2","3","2","2","","2","3","4","2","3","581839949964247040","王","145","","","","","","","","","","","","","","","","","","","true","13","3","moral","697","positive","廉正","","","","","","","","","","","","","","","","",""
"null","","null","html-keyboard-response","79","203049","0.0-6.0-1.0-6.0-0.10","4","3","3","4","4","3","3","2","4","4","5","2","3","4","2","4","3","3","4","4","1","4","3","3","2","3","2","3","3","1","0","1","1","0","0","1","1","0","1","1","0","1","0","1","4","2","3","2","2","","2","3","4","2","3","581839949964247040","王","145","","","","","","","","","","","","","","","","","","","","","","","","","","","","","","","","","","","","","","","","","",""
"886","<p style=""color:rgb(150, 250, 100); font-size: 35px;"">别人的</p>","e","categorize-html","80","203938","0.0-6.0-1.0-6.0-1.10","4","3","3","4","4","3","3","2","4","4","5","2","3","4","2","4","3","3","4","4","1","4","3","3","2","3","2","3","3","1","0","1","1","0","0","1","1","0","1","1","0","1","0","1","4","2","3","2","2","","2","3","4","2","3","581839949964247040","王","145","","","","","","","","","","","","","","","","","","","true","13","3","moral","886","other","别人的","","","","","","","","","","","","","","","","",""
"null","","null","html-keyboard-response","81","204189","0.0-6.0-1.0-6.0-0.11","4","3","3","4","4","3","3","2","4","4","5","2","3","4","2","4","3","3","4","4","1","4","3","3","2","3","2","3","3","1","0","1","1","0","0","1","1","0","1","1","0","1","0","1","4","2","3","2","2","","2","3","4","2","3","581839949964247040","王","145","","","","","","","","","","","","","","","","","","","","","","","","","","","","","","","","","","","","","","","","","",""
"630","<p style=""color:white; font-size: 35px;"">不孝</p>","e","categorize-html","82","205328","0.0-6.0-1.0-6.0-1.11","4","3","3","4","4","3","3","2","4","4","5","2","3","4","2","4","3","3","4","4","1","4","3","3","2","3","2","3","3","1","0","1","1","0","0","1","1","0","1","1","0","1","0","1","4","2","3","2","2","","2","3","4","2","3","581839949964247040","王","145","","","","","","","","","","","","","","","","","","","false","13","3","moral","1397.2727272727273","negative","不孝","","","","","","","","","","","","","","","","",""
"null","","null","html-keyboard-response","83","205580","0.0-6.0-1.0-6.0-0.12","4","3","3","4","4","3","3","2","4","4","5","2","3","4","2","4","3","3","4","4","1","4","3","3","2","3","2","3","3","1","0","1","1","0","0","1","1","0","1","1","0","1","0","1","4","2","3","2","2","","2","3","4","2","3","581839949964247040","王","145","","","","","","","","","","","","","","","","","","","","","","","","","","","","","","","","","","","","","","","","","",""
"564","<p style=""color:rgb(150, 250, 100); font-size: 35px;"">我</p>","i","categorize-html","84","206147","0.0-6.0-1.0-6.0-1.12","4","3","3","4","4","3","3","2","4","4","5","2","3","4","2","4","3","3","4","4","1","4","3","3","2","3","2","3","3","1","0","1","1","0","0","1","1","0","1","1","0","1","0","1","4","2","3","2","2","","2","3","4","2","3","581839949964247040","王","145","","","","","","","","","","","","","","","","","","","true","13","3","moral","564","self","我","","","","","","","","","","","","","","","","",""
"null","","null","html-keyboard-response","85","206398","0.0-6.0-1.0-6.0-0.13","4","3","3","4","4","3","3","2","4","4","5","2","3","4","2","4","3","3","4","4","1","4","3","3","2","3","2","3","3","1","0","1","1","0","0","1","1","0","1","1","0","1","0","1","4","2","3","2","2","","2","3","4","2","3","581839949964247040","王","145","","","","","","","","","","","","","","","","","","","","","","","","","","","","","","","","","","","","","","","","","",""
"491","<p style=""color:white; font-size: 35px;"">不仁</p>","i","categorize-html","86","206892","0.0-6.0-1.0-6.0-1.13","4","3","3","4","4","3","3","2","4","4","5","2","3","4","2","4","3","3","4","4","1","4","3","3","2","3","2","3","3","1","0","1","1","0","0","1","1","0","1","1","0","1","0","1","4","2","3","2","2","","2","3","4","2","3","581839949964247040","王","145","","","","","","","","","","","","","","","","","","","true","13","3","moral","491","negative","不仁","","","","","","","","","","","","","","","","",""
"null","","null","html-keyboard-response","87","207143","0.0-6.0-1.0-6.0-0.14","4","3","3","4","4","3","3","2","4","4","5","2","3","4","2","4","3","3","4","4","1","4","3","3","2","3","2","3","3","1","0","1","1","0","0","1","1","0","1","1","0","1","0","1","4","2","3","2","2","","2","3","4","2","3","581839949964247040","王","145","","","","","","","","","","","","","","","","","","","","","","","","","","","","","","","","","","","","","","","","","",""
"642","<p style=""color:rgb(150, 250, 100); font-size: 35px;"">别人</p>","e","categorize-html","88","207786","0.0-6.0-1.0-6.0-1.14","4","3","3","4","4","3","3","2","4","4","5","2","3","4","2","4","3","3","4","4","1","4","3","3","2","3","2","3","3","1","0","1","1","0","0","1","1","0","1","1","0","1","0","1","4","2","3","2","2","","2","3","4","2","3","581839949964247040","王","145","","","","","","","","","","","","","","","","","","","true","13","3","moral","642","other","别人","","","","","","","","","","","","","","","","",""
"null","","null","html-keyboard-response","89","208037","0.0-6.0-1.0-6.0-0.15","4","3","3","4","4","3","3","2","4","4","5","2","3","4","2","4","3","3","4","4","1","4","3","3","2","3","2","3","3","1","0","1","1","0","0","1","1","0","1","1","0","1","0","1","4","2","3","2","2","","2","3","4","2","3","581839949964247040","王","145","","","","","","","","","","","","","","","","","","","","","","","","","","","","","","","","","","","","","","","","","",""
"543","<p style=""color:white; font-size: 35px;"">诚信</p>","e","categorize-html","90","208582","0.0-6.0-1.0-6.0-1.15","4","3","3","4","4","3","3","2","4","4","5","2","3","4","2","4","3","3","4","4","1","4","3","3","2","3","2","3","3","1","0","1","1","0","0","1","1","0","1","1","0","1","0","1","4","2","3","2","2","","2","3","4","2","3","581839949964247040","王","145","","","","","","","","","","","","","","","","","","","true","13","3","moral","543","positive","诚信","","","","","","","","","","","","","","","","",""
"null","","null","html-keyboard-response","91","208834","0.0-6.0-1.0-6.0-0.16","4","3","3","4","4","3","3","2","4","4","5","2","3","4","2","4","3","3","4","4","1","4","3","3","2","3","2","3","3","1","0","1","1","0","0","1","1","0","1","1","0","1","0","1","4","2","3","2","2","","2","3","4","2","3","581839949964247040","王","145","","","","","","","","","","","","","","","","","","","","","","","","","","","","","","","","","","","","","","","","","",""
"831","<p style=""color:rgb(150, 250, 100); font-size: 35px;"">自己的</p>","i","categorize-html","92","209667","0.0-6.0-1.0-6.0-1.16","4","3","3","4","4","3","3","2","4","4","5","2","3","4","2","4","3","3","4","4","1","4","3","3","2","3","2","3","3","1","0","1","1","0","0","1","1","0","1","1","0","1","0","1","4","2","3","2","2","","2","3","4","2","3","581839949964247040","王","145","","","","","","","","","","","","","","","","","","","true","13","3","moral","831","self","自己的","","","","","","","","","","","","","","","","",""
"null","","null","html-keyboard-response","93","209919","0.0-6.0-1.0-6.0-0.17","4","3","3","4","4","3","3","2","4","4","5","2","3","4","2","4","3","3","4","4","1","4","3","3","2","3","2","3","3","1","0","1","1","0","0","1","1","0","1","1","0","1","0","1","4","2","3","2","2","","2","3","4","2","3","581839949964247040","王","145","","","","","","","","","","","","","","","","","","","","","","","","","","","","","","","","","","","","","","","","","",""
"1226","<p style=""color:white; font-size: 35px;"">卑鄙</p>","i","categorize-html","94","211146","0.0-6.0-1.0-6.0-1.17","4","3","3","4","4","3","3","2","4","4","5","2","3","4","2","4","3","3","4","4","1","4","3","3","2","3","2","3","3","1","0","1","1","0","0","1","1","0","1","1","0","1","0","1","4","2","3","2","2","","2","3","4","2","3","581839949964247040","王","145","","","","","","","","","","","","","","","","","","","true","13","3","moral","1226","negative","卑鄙","","","","","","","","","","","","","","","","",""
"null","","null","html-keyboard-response","95","211397","0.0-6.0-1.0-6.0-0.18","4","3","3","4","4","3","3","2","4","4","5","2","3","4","2","4","3","3","4","4","1","4","3","3","2","3","2","3","3","1","0","1","1","0","0","1","1","0","1","1","0","1","0","1","4","2","3","2","2","","2","3","4","2","3","581839949964247040","王","145","","","","","","","","","","","","","","","","","","","","","","","","","","","","","","","","","","","","","","","","","",""
"688","<p style=""color:rgb(150, 250, 100); font-size: 35px;"">他</p>","e","categorize-html","96","212086","0.0-6.0-1.0-6.0-1.18","4","3","3","4","4","3","3","2","4","4","5","2","3","4","2","4","3","3","4","4","1","4","3","3","2","3","2","3","3","1","0","1","1","0","0","1","1","0","1","1","0","1","0","1","4","2","3","2","2","","2","3","4","2","3","581839949964247040","王","145","","","","","","","","","","","","","","","","","","","true","13","3","moral","688","other","他","","","","","","","","","","","","","","","","",""
"null","","null","html-keyboard-response","97","212337","0.0-6.0-1.0-6.0-0.19","4","3","3","4","4","3","3","2","4","4","5","2","3","4","2","4","3","3","4","4","1","4","3","3","2","3","2","3","3","1","0","1","1","0","0","1","1","0","1","1","0","1","0","1","4","2","3","2","2","","2","3","4","2","3","581839949964247040","王","145","","","","","","","","","","","","","","","","","","","","","","","","","","","","","","","","","","","","","","","","","",""
"609","<p style=""color:white; font-size: 35px;"">高尚</p>","e","categorize-html","98","212947","0.0-6.0-1.0-6.0-1.19","4","3","3","4","4","3","3","2","4","4","5","2","3","4","2","4","3","3","4","4","1","4","3","3","2","3","2","3","3","1","0","1","1","0","0","1","1","0","1","1","0","1","0","1","4","2","3","2","2","","2","3","4","2","3","581839949964247040","王","145","","","","","","","","","","","","","","","","","","","true","13","3","moral","609","positive","高尚","","","","","","","","","","","","","","","","",""
"null","","null","html-keyboard-response","99","213198","0.0-6.0-1.0-6.0-0.20","4","3","3","4","4","3","3","2","4","4","5","2","3","4","2","4","3","3","4","4","1","4","3","3","2","3","2","3","3","1","0","1","1","0","0","1","1","0","1","1","0","1","0","1","4","2","3","2","2","","2","3","4","2","3","581839949964247040","王","145","","","","","","","","","","","","","","","","","","","","","","","","","","","","","","","","","","","","","","","","","",""
"593","<p style=""color:rgb(150, 250, 100); font-size: 35px;"">自己</p>","i","categorize-html","100","213792","0.0-6.0-1.0-6.0-1.20","4","3","3","4","4","3","3","2","4","4","5","2","3","4","2","4","3","3","4","4","1","4","3","3","2","3","2","3","3","1","0","1","1","0","0","1","1","0","1","1","0","1","0","1","4","2","3","2","2","","2","3","4","2","3","581839949964247040","王","145","","","","","","","","","","","","","","","","","","","true","13","3","moral","593","self","自己","","","","","","","","","","","","","","","","",""
"null","","null","html-keyboard-response","101","214043","0.0-6.0-1.0-6.0-0.21","4","3","3","4","4","3","3","2","4","4","5","2","3","4","2","4","3","3","4","4","1","4","3","3","2","3","2","3","3","1","0","1","1","0","0","1","1","0","1","1","0","1","0","1","4","2","3","2","2","","2","3","4","2","3","581839949964247040","王","145","","","","","","","","","","","","","","","","","","","","","","","","","","","","","","","","","","","","","","","","","",""
"1374","<p style=""color:white; font-size: 35px;"">善良</p>","e","categorize-html","102","215418","0.0-6.0-1.0-6.0-1.21","4","3","3","4","4","3","3","2","4","4","5","2","3","4","2","4","3","3","4","4","1","4","3","3","2","3","2","3","3","1","0","1","1","0","0","1","1","0","1","1","0","1","0","1","4","2","3","2","2","","2","3","4","2","3","581839949964247040","王","145","","","","","","","","","","","","","","","","","","","true","13","3","moral","1374","positive","善良","","","","","","","","","","","","","","","","",""
"null","","null","html-keyboard-response","103","215670","0.0-6.0-1.0-6.0-0.22","4","3","3","4","4","3","3","2","4","4","5","2","3","4","2","4","3","3","4","4","1","4","3","3","2","3","2","3","3","1","0","1","1","0","0","1","1","0","1","1","0","1","0","1","4","2","3","2","2","","2","3","4","2","3","581839949964247040","王","145","","","","","","","","","","","","","","","","","","","","","","","","","","","","","","","","","","","","","","","","","",""
"1904","<p style=""color:rgb(150, 250, 100); font-size: 35px;"">他的</p>","e","categorize-html","104","217577","0.0-6.0-1.0-6.0-1.22","4","3","3","4","4","3","3","2","4","4","5","2","3","4","2","4","3","3","4","4","1","4","3","3","2","3","2","3","3","1","0","1","1","0","0","1","1","0","1","1","0","1","0","1","4","2","3","2","2","","2","3","4","2","3","581839949964247040","王","145","","","","","","","","","","","","","","","","","","","true","13","3","moral","1904","other","他的","","","","","","","","","","","","","","","","",""
"null","","null","html-keyboard-response","105","217828","0.0-6.0-1.0-6.0-0.23","4","3","3","4","4","3","3","2","4","4","5","2","3","4","2","4","3","3","4","4","1","4","3","3","2","3","2","3","3","1","0","1","1","0","0","1","1","0","1","1","0","1","0","1","4","2","3","2","2","","2","3","4","2","3","581839949964247040","王","145","","","","","","","","","","","","","","","","","","","","","","","","","","","","","","","","","","","","","","","","","",""
"556","<p style=""color:white; font-size: 35px;"">黑心</p>","i","categorize-html","106","218385","0.0-6.0-1.0-6.0-1.23","4","3","3","4","4","3","3","2","4","4","5","2","3","4","2","4","3","3","4","4","1","4","3","3","2","3","2","3","3","1","0","1","1","0","0","1","1","0","1","1","0","1","0","1","4","2","3","2","2","","2","3","4","2","3","581839949964247040","王","145","","","","","","","","","","","","","","","","","","","true","13","3","moral","556","negative","黑心","","","","","","","","","","","","","","","","",""
"20996","
    <div class=""tag-bottom""><p>
    —— 任务4：对“他人/积极”词和“自我/消极”词分类 ——<p/>
    <span style=""color:#78DCE8""><b>与刚才的任务完全相同，请再次对这四类词语分类</b></span><p/>
    <span style=""color:#FFD866""><b>请根据上方标签的提示，尽可能正确并且快速地做出按键反应</b></span><p/>
    当按键错误时屏幕中会出现<span style=""color:red""> X </span>，需要按另一个键纠正才能继续<br/><p/>
    请把双手食指分别放在键盘的“E”键和“I”键上<p/>
    按<空格键>开始
    </p></div>"," ","html-keyboard-response","107","239382","0.0-6.0-1.0-7.0","4","3","3","4","4","3","3","2","4","4","5","2","3","4","2","4","3","3","4","4","1","4","3","3","2","3","2","3","3","1","0","1","1","0","0","1","1","0","1","1","0","1","0","1","4","2","3","2","2","","2","3","4","2","3","581839949964247040","王","145","","","","","","","","","","","","","","","","","","","","","","","","","","","","","","","","","","","","","","","","","",""
"null","","null","html-keyboard-response","108","239633","0.0-6.0-1.0-8.0-0.0","4","3","3","4","4","3","3","2","4","4","5","2","3","4","2","4","3","3","4","4","1","4","3","3","2","3","2","3","3","1","0","1","1","0","0","1","1","0","1","1","0","1","0","1","4","2","3","2","2","","2","3","4","2","3","581839949964247040","王","145","","","","","","","","","","","","","","","","","","","","","","","","","","","","","","","","","","","","","","","","","",""
"692","<p style=""color:rgb(150, 250, 100); font-size: 35px;"">我的</p>","i","categorize-html","109","240329","0.0-6.0-1.0-8.0-1.0","4","3","3","4","4","3","3","2","4","4","5","2","3","4","2","4","3","3","4","4","1","4","3","3","2","3","2","3","3","1","0","1","1","0","0","1","1","0","1","1","0","1","0","1","4","2","3","2","2","","2","3","4","2","3","581839949964247040","王","145","","","","","","","","","","","","","","","","","","","true","14","4","moral","692","self","我的","","","","","","","","","","","","","","","","",""
"null","","null","html-keyboard-response","110","240580","0.0-6.0-1.0-8.0-0.1","4","3","3","4","4","3","3","2","4","4","5","2","3","4","2","4","3","3","4","4","1","4","3","3","2","3","2","3","3","1","0","1","1","0","0","1","1","0","1","1","0","1","0","1","4","2","3","2","2","","2","3","4","2","3","581839949964247040","王","145","","","","","","","","","","","","","","","","","","","","","","","","","","","","","","","","","","","","","","","","","",""
"1276","<p style=""color:white; font-size: 35px;"">诚信</p>","e","categorize-html","111","241859","0.0-6.0-1.0-8.0-1.1","4","3","3","4","4","3","3","2","4","4","5","2","3","4","2","4","3","3","4","4","1","4","3","3","2","3","2","3","3","1","0","1","1","0","0","1","1","0","1","1","0","1","0","1","4","2","3","2","2","","2","3","4","2","3","581839949964247040","王","145","","","","","","","","","","","","","","","","","","","true","14","4","moral","1276","positive","诚信","","","","","","","","","","","","","","","","",""
"null","","null","html-keyboard-response","112","242110","0.0-6.0-1.0-8.0-0.2","4","3","3","4","4","3","3","2","4","4","5","2","3","4","2","4","3","3","4","4","1","4","3","3","2","3","2","3","3","1","0","1","1","0","0","1","1","0","1","1","0","1","0","1","4","2","3","2","2","","2","3","4","2","3","581839949964247040","王","145","","","","","","","","","","","","","","","","","","","","","","","","","","","","","","","","","","","","","","","","","",""
"532","<p style=""color:rgb(150, 250, 100); font-size: 35px;"">别人</p>","e","categorize-html","113","242644","0.0-6.0-1.0-8.0-1.2","4","3","3","4","4","3","3","2","4","4","5","2","3","4","2","4","3","3","4","4","1","4","3","3","2","3","2","3","3","1","0","1","1","0","0","1","1","0","1","1","0","1","0","1","4","2","3","2","2","","2","3","4","2","3","581839949964247040","王","145","","","","","","","","","","","","","","","","","","","true","14","4","moral","532","other","别人","","","","","","","","","","","","","","","","",""
"null","","null","html-keyboard-response","114","242896","0.0-6.0-1.0-8.0-0.3","4","3","3","4","4","3","3","2","4","4","5","2","3","4","2","4","3","3","4","4","1","4","3","3","2","3","2","3","3","1","0","1","1","0","0","1","1","0","1","1","0","1","0","1","4","2","3","2","2","","2","3","4","2","3","581839949964247040","王","145","","","","","","","","","","","","","","","","","","","","","","","","","","","","","","","","","","","","","","","","","",""
"653","<p style=""color:white; font-size: 35px;"">缺德</p>","i","categorize-html","115","243551","0.0-6.0-1.0-8.0-1.3","4","3","3","4","4","3","3","2","4","4","5","2","3","4","2","4","3","3","4","4","1","4","3","3","2","3","2","3","3","1","0","1","1","0","0","1","1","0","1","1","0","1","0","1","4","2","3","2","2","","2","3","4","2","3","581839949964247040","王","145","","","","","","","","","","","","","","","","","","","true","14","4","moral","653","negative","缺德","","","","","","","","","","","","","","","","",""
"null","","null","html-keyboard-response","116","243803","0.0-6.0-1.0-8.0-0.4","4","3","3","4","4","3","3","2","4","4","5","2","3","4","2","4","3","3","4","4","1","4","3","3","2","3","2","3","3","1","0","1","1","0","0","1","1","0","1","1","0","1","0","1","4","2","3","2","2","","2","3","4","2","3","581839949964247040","王","145","","","","","","","","","","","","","","","","","","","","","","","","","","","","","","","","","","","","","","","","","",""
"602","<p style=""color:rgb(150, 250, 100); font-size: 35px;"">自己</p>","i","categorize-html","117","244406","0.0-6.0-1.0-8.0-1.4","4","3","3","4","4","3","3","2","4","4","5","2","3","4","2","4","3","3","4","4","1","4","3","3","2","3","2","3","3","1","0","1","1","0","0","1","1","0","1","1","0","1","0","1","4","2","3","2","2","","2","3","4","2","3","581839949964247040","王","145","","","","","","","","","","","","","","","","","","","true","14","4","moral","602","self","自己","","","","","","","","","","","","","","","","",""
"null","","null","html-keyboard-response","118","244657","0.0-6.0-1.0-8.0-0.5","4","3","3","4","4","3","3","2","4","4","5","2","3","4","2","4","3","3","4","4","1","4","3","3","2","3","2","3","3","1","0","1","1","0","0","1","1","0","1","1","0","1","0","1","4","2","3","2","2","","2","3","4","2","3","581839949964247040","王","145","","","","","","","","","","","","","","","","","","","","","","","","","","","","","","","","","","","","","","","","","",""
"673","<p style=""color:white; font-size: 35px;"">君子</p>","e","categorize-html","119","245330","0.0-6.0-1.0-8.0-1.5","4","3","3","4","4","3","3","2","4","4","5","2","3","4","2","4","3","3","4","4","1","4","3","3","2","3","2","3","3","1","0","1","1","0","0","1","1","0","1","1","0","1","0","1","4","2","3","2","2","","2","3","4","2","3","581839949964247040","王","145","","","","","","","","","","","","","","","","","","","true","14","4","moral","673","positive","君子","","","","","","","","","","","","","","","","",""
"null","","null","html-keyboard-response","120","245582","0.0-6.0-1.0-8.0-0.6","4","3","3","4","4","3","3","2","4","4","5","2","3","4","2","4","3","3","4","4","1","4","3","3","2","3","2","3","3","1","0","1","1","0","0","1","1","0","1","1","0","1","0","1","4","2","3","2","2","","2","3","4","2","3","581839949964247040","王","145","","","","","","","","","","","","","","","","","","","","","","","","","","","","","","","","","","","","","","","","","",""
"641","<p style=""color:rgb(150, 250, 100); font-size: 35px;"">别人的</p>","e","categorize-html","121","246226","0.0-6.0-1.0-8.0-1.6","4","3","3","4","4","3","3","2","4","4","5","2","3","4","2","4","3","3","4","4","1","4","3","3","2","3","2","3","3","1","0","1","1","0","0","1","1","0","1","1","0","1","0","1","4","2","3","2","2","","2","3","4","2","3","581839949964247040","王","145","","","","","","","","","","","","","","","","","","","true","14","4","moral","641","other","别人的","","","","","","","","","","","","","","","","",""
"null","","null","html-keyboard-response","122","246478","0.0-6.0-1.0-8.0-0.7","4","3","3","4","4","3","3","2","4","4","5","2","3","4","2","4","3","3","4","4","1","4","3","3","2","3","2","3","3","1","0","1","1","0","0","1","1","0","1","1","0","1","0","1","4","2","3","2","2","","2","3","4","2","3","581839949964247040","王","145","","","","","","","","","","","","","","","","","","","","","","","","","","","","","","","","","","","","","","","","","",""
"891","<p style=""color:white; font-size: 35px;"">卑鄙</p>","i","categorize-html","123","247372","0.0-6.0-1.0-8.0-1.7","4","3","3","4","4","3","3","2","4","4","5","2","3","4","2","4","3","3","4","4","1","4","3","3","2","3","2","3","3","1","0","1","1","0","0","1","1","0","1","1","0","1","0","1","4","2","3","2","2","","2","3","4","2","3","581839949964247040","王","145","","","","","","","","","","","","","","","","","","","true","14","4","moral","891","negative","卑鄙","","","","","","","","","","","","","","","","",""
"null","","null","html-keyboard-response","124","247623","0.0-6.0-1.0-8.0-0.8","4","3","3","4","4","3","3","2","4","4","5","2","3","4","2","4","3","3","4","4","1","4","3","3","2","3","2","3","3","1","0","1","1","0","0","1","1","0","1","1","0","1","0","1","4","2","3","2","2","","2","3","4","2","3","581839949964247040","王","145","","","","","","","","","","","","","","","","","","","","","","","","","","","","","","","","","","","","","","","","","",""
"572","<p style=""color:rgb(150, 250, 100); font-size: 35px;"">我</p>","i","categorize-html","125","248197","0.0-6.0-1.0-8.0-1.8","4","3","3","4","4","3","3","2","4","4","5","2","3","4","2","4","3","3","4","4","1","4","3","3","2","3","2","3","3","1","0","1","1","0","0","1","1","0","1","1","0","1","0","1","4","2","3","2","2","","2","3","4","2","3","581839949964247040","王","145","","","","","","","","","","","","","","","","","","","true","14","4","moral","572","self","我","","","","","","","","","","","","","","","","",""
"null","","null","html-keyboard-response","126","248448","0.0-6.0-1.0-8.0-0.9","4","3","3","4","4","3","3","2","4","4","5","2","3","4","2","4","3","3","4","4","1","4","3","3","2","3","2","3","3","1","0","1","1","0","0","1","1","0","1","1","0","1","0","1","4","2","3","2","2","","2","3","4","2","3","581839949964247040","王","145","","","","","","","","","","","","","","","","","","","","","","","","","","","","","","","","","","","","","","","","","",""
"978","<p style=""color:white; font-size: 35px;"">不孝</p>","i","categorize-html","127","249428","0.0-6.0-1.0-8.0-1.9","4","3","3","4","4","3","3","2","4","4","5","2","3","4","2","4","3","3","4","4","1","4","3","3","2","3","2","3","3","1","0","1","1","0","0","1","1","0","1","1","0","1","0","1","4","2","3","2","2","","2","3","4","2","3","581839949964247040","王","145","","","","","","","","","","","","","","","","","","","true","14","4","moral","978","negative","不孝","","","","","","","","","","","","","","","","",""
"null","","null","html-keyboard-response","128","249679","0.0-6.0-1.0-8.0-0.10","4","3","3","4","4","3","3","2","4","4","5","2","3","4","2","4","3","3","4","4","1","4","3","3","2","3","2","3","3","1","0","1","1","0","0","1","1","0","1","1","0","1","0","1","4","2","3","2","2","","2","3","4","2","3","581839949964247040","王","145","","","","","","","","","","","","","","","","","","","","","","","","","","","","","","","","","","","","","","","","","",""
"1031","<p style=""color:rgb(150, 250, 100); font-size: 35px;"">他的</p>","e","categorize-html","129","250712","0.0-6.0-1.0-8.0-1.10","4","3","3","4","4","3","3","2","4","4","5","2","3","4","2","4","3","3","4","4","1","4","3","3","2","3","2","3","3","1","0","1","1","0","0","1","1","0","1","1","0","1","0","1","4","2","3","2","2","","2","3","4","2","3","581839949964247040","王","145","","","","","","","","","","","","","","","","","","","true","14","4","moral","1031","other","他的","","","","","","","","","","","","","","","","",""
"null","","null","html-keyboard-response","130","250964","0.0-6.0-1.0-8.0-0.11","4","3","3","4","4","3","3","2","4","4","5","2","3","4","2","4","3","3","4","4","1","4","3","3","2","3","2","3","3","1","0","1","1","0","0","1","1","0","1","1","0","1","0","1","4","2","3","2","2","","2","3","4","2","3","581839949964247040","王","145","","","","","","","","","","","","","","","","","","","","","","","","","","","","","","","","","","","","","","","","","",""
"721","<p style=""color:white; font-size: 35px;"">高尚</p>","e","categorize-html","131","251688","0.0-6.0-1.0-8.0-1.11","4","3","3","4","4","3","3","2","4","4","5","2","3","4","2","4","3","3","4","4","1","4","3","3","2","3","2","3","3","1","0","1","1","0","0","1","1","0","1","1","0","1","0","1","4","2","3","2","2","","2","3","4","2","3","581839949964247040","王","145","","","","","","","","","","","","","","","","","","","true","14","4","moral","721","positive","高尚","","","","","","","","","","","","","","","","",""
"null","","null","html-keyboard-response","132","251939","0.0-6.0-1.0-8.0-0.12","4","3","3","4","4","3","3","2","4","4","5","2","3","4","2","4","3","3","4","4","1","4","3","3","2","3","2","3","3","1","0","1","1","0","0","1","1","0","1","1","0","1","0","1","4","2","3","2","2","","2","3","4","2","3","581839949964247040","王","145","","","","","","","","","","","","","","","","","","","","","","","","","","","","","","","","","","","","","","","","","",""
"562","<p style=""color:rgb(150, 250, 100); font-size: 35px;"">本人</p>","i","categorize-html","133","252503","0.0-6.0-1.0-8.0-1.12","4","3","3","4","4","3","3","2","4","4","5","2","3","4","2","4","3","3","4","4","1","4","3","3","2","3","2","3","3","1","0","1","1","0","0","1","1","0","1","1","0","1","0","1","4","2","3","2","2","","2","3","4","2","3","581839949964247040","王","145","","","","","","","","","","","","","","","","","","","true","14","4","moral","562","self","本人","","","","","","","","","","","","","","","","",""
"null","","null","html-keyboard-response","134","252754","0.0-6.0-1.0-8.0-0.13","4","3","3","4","4","3","3","2","4","4","5","2","3","4","2","4","3","3","4","4","1","4","3","3","2","3","2","3","3","1","0","1","1","0","0","1","1","0","1","1","0","1","0","1","4","2","3","2","2","","2","3","4","2","3","581839949964247040","王","145","","","","","","","","","","","","","","","","","","","","","","","","","","","","","","","","","","","","","","","","","",""
"704","<p style=""color:white; font-size: 35px;"">诚信</p>","i","categorize-html","135","253909","0.0-6.0-1.0-8.0-1.13","4","3","3","4","4","3","3","2","4","4","5","2","3","4","2","4","3","3","4","4","1","4","3","3","2","3","2","3","3","1","0","1","1","0","0","1","1","0","1","1","0","1","0","1","4","2","3","2","2","","2","3","4","2","3","581839949964247040","王","145","","","","","","","","","","","","","","","","","","","false","14","4","moral","1482.7111111111112","positive","诚信","","","","","","","","","","","","","","","","",""
"null","","null","html-keyboard-response","136","254160","0.0-6.0-1.0-8.0-0.14","4","3","3","4","4","3","3","2","4","4","5","2","3","4","2","4","3","3","4","4","1","4","3","3","2","3","2","3","3","1","0","1","1","0","0","1","1","0","1","1","0","1","0","1","4","2","3","2","2","","2","3","4","2","3","581839949964247040","王","145","","","","","","","","","","","","","","","","","","","","","","","","","","","","","","","","","","","","","","","","","",""
"566","<p style=""color:rgb(150, 250, 100); font-size: 35px;"">他人的</p>","e","categorize-html","137","254727","0.0-6.0-1.0-8.0-1.14","4","3","3","4","4","3","3","2","4","4","5","2","3","4","2","4","3","3","4","4","1","4","3","3","2","3","2","3","3","1","0","1","1","0","0","1","1","0","1","1","0","1","0","1","4","2","3","2","2","","2","3","4","2","3","581839949964247040","王","145","","","","","","","","","","","","","","","","","","","true","14","4","moral","566","other","他人的","","","","","","","","","","","","","","","","",""
"null","","null","html-keyboard-response","138","254979","0.0-6.0-1.0-8.0-0.15","4","3","3","4","4","3","3","2","4","4","5","2","3","4","2","4","3","3","4","4","1","4","3","3","2","3","2","3","3","1","0","1","1","0","0","1","1","0","1","1","0","1","0","1","4","2","3","2","2","","2","3","4","2","3","581839949964247040","王","145","","","","","","","","","","","","","","","","","","","","","","","","","","","","","","","","","","","","","","","","","",""
"538","<p style=""color:white; font-size: 35px;"">黑心</p>","i","categorize-html","139","255517","0.0-6.0-1.0-8.0-1.15","4","3","3","4","4","3","3","2","4","4","5","2","3","4","2","4","3","3","4","4","1","4","3","3","2","3","2","3","3","1","0","1","1","0","0","1","1","0","1","1","0","1","0","1","4","2","3","2","2","","2","3","4","2","3","581839949964247040","王","145","","","","","","","","","","","","","","","","","","","true","14","4","moral","538","negative","黑心","","","","","","","","","","","","","","","","",""
"null","","null","html-keyboard-response","140","255768","0.0-6.0-1.0-8.0-0.16","4","3","3","4","4","3","3","2","4","4","5","2","3","4","2","4","3","3","4","4","1","4","3","3","2","3","2","3","3","1","0","1","1","0","0","1","1","0","1","1","0","1","0","1","4","2","3","2","2","","2","3","4","2","3","581839949964247040","王","145","","","","","","","","","","","","","","","","","","","","","","","","","","","","","","","","","","","","","","","","","",""
"538","<p style=""color:rgb(150, 250, 100); font-size: 35px;"">我的</p>","i","categorize-html","141","256309","0.0-6.0-1.0-8.0-1.16","4","3","3","4","4","3","3","2","4","4","5","2","3","4","2","4","3","3","4","4","1","4","3","3","2","3","2","3","3","1","0","1","1","0","0","1","1","0","1","1","0","1","0","1","4","2","3","2","2","","2","3","4","2","3","581839949964247040","王","145","","","","","","","","","","","","","","","","","","","true","14","4","moral","538","self","我的","","","","","","","","","","","","","","","","",""
"null","","null","html-keyboard-response","142","256561","0.0-6.0-1.0-8.0-0.17","4","3","3","4","4","3","3","2","4","4","5","2","3","4","2","4","3","3","4","4","1","4","3","3","2","3","2","3","3","1","0","1","1","0","0","1","1","0","1","1","0","1","0","1","4","2","3","2","2","","2","3","4","2","3","581839949964247040","王","145","","","","","","","","","","","","","","","","","","","","","","","","","","","","","","","","","","","","","","","","","",""
"481","<p style=""color:white; font-size: 35px;"">善良</p>","e","categorize-html","143","257044","0.0-6.0-1.0-8.0-1.17","4","3","3","4","4","3","3","2","4","4","5","2","3","4","2","4","3","3","4","4","1","4","3","3","2","3","2","3","3","1","0","1","1","0","0","1","1","0","1","1","0","1","0","1","4","2","3","2","2","","2","3","4","2","3","581839949964247040","王","145","","","","","","","","","","","","","","","","","","","true","14","4","moral","481","positive","善良","","","","","","","","","","","","","","","","",""
"null","","null","html-keyboard-response","144","257296","0.0-6.0-1.0-8.0-0.18","4","3","3","4","4","3","3","2","4","4","5","2","3","4","2","4","3","3","4","4","1","4","3","3","2","3","2","3","3","1","0","1","1","0","0","1","1","0","1","1","0","1","0","1","4","2","3","2","2","","2","3","4","2","3","581839949964247040","王","145","","","","","","","","","","","","","","","","","","","","","","","","","","","","","","","","","","","","","","","","","",""
"602","<p style=""color:rgb(150, 250, 100); font-size: 35px;"">他人的</p>","e","categorize-html","145","257900","0.0-6.0-1.0-8.0-1.18","4","3","3","4","4","3","3","2","4","4","5","2","3","4","2","4","3","3","4","4","1","4","3","3","2","3","2","3","3","1","0","1","1","0","0","1","1","0","1","1","0","1","0","1","4","2","3","2","2","","2","3","4","2","3","581839949964247040","王","145","","","","","","","","","","","","","","","","","","","true","14","4","moral","602","other","他人的","","","","","","","","","","","","","","","","",""
"null","","null","html-keyboard-response","146","258151","0.0-6.0-1.0-8.0-0.19","4","3","3","4","4","3","3","2","4","4","5","2","3","4","2","4","3","3","4","4","1","4","3","3","2","3","2","3","3","1","0","1","1","0","0","1","1","0","1","1","0","1","0","1","4","2","3","2","2","","2","3","4","2","3","581839949964247040","王","145","","","","","","","","","","","","","","","","","","","","","","","","","","","","","","","","","","","","","","","","","",""
"854","<p style=""color:white; font-size: 35px;"">卑鄙</p>","e","categorize-html","147","259265","0.0-6.0-1.0-8.0-1.19","4","3","3","4","4","3","3","2","4","4","5","2","3","4","2","4","3","3","4","4","1","4","3","3","2","3","2","3","3","1","0","1","1","0","0","1","1","0","1","1","0","1","0","1","4","2","3","2","2","","2","3","4","2","3","581839949964247040","王","145","","","","","","","","","","","","","","","","","","","false","14","4","moral","1482.7111111111112","negative","卑鄙","","","","","","","","","","","","","","","","",""
"null","","null","html-keyboard-response","148","259516","0.0-6.0-1.0-8.0-0.20","4","3","3","4","4","3","3","2","4","4","5","2","3","4","2","4","3","3","4","4","1","4","3","3","2","3","2","3","3","1","0","1","1","0","0","1","1","0","1","1","0","1","0","1","4","2","3","2","2","","2","3","4","2","3","581839949964247040","王","145","","","","","","","","","","","","","","","","","","","","","","","","","","","","","","","","","","","","","","","","","",""
"736","<p style=""color:rgb(150, 250, 100); font-size: 35px;"">本人的</p>","i","categorize-html","149","260255","0.0-6.0-1.0-8.0-1.20","4","3","3","4","4","3","3","2","4","4","5","2","3","4","2","4","3","3","4","4","1","4","3","3","2","3","2","3","3","1","0","1","1","0","0","1","1","0","1","1","0","1","0","1","4","2","3","2","2","","2","3","4","2","3","581839949964247040","王","145","","","","","","","","","","","","","","","","","","","true","14","4","moral","736","self","本人的","","","","","","","","","","","","","","","","",""
"null","","null","html-keyboard-response","150","260506","0.0-6.0-1.0-8.0-0.21","4","3","3","4","4","3","3","2","4","4","5","2","3","4","2","4","3","3","4","4","1","4","3","3","2","3","2","3","3","1","0","1","1","0","0","1","1","0","1","1","0","1","0","1","4","2","3","2","2","","2","3","4","2","3","581839949964247040","王","145","","","","","","","","","","","","","","","","","","","","","","","","","","","","","","","","","","","","","","","","","",""
"505","<p style=""color:white; font-size: 35px;"">不仁</p>","i","categorize-html","151","261012","0.0-6.0-1.0-8.0-1.21","4","3","3","4","4","3","3","2","4","4","5","2","3","4","2","4","3","3","4","4","1","4","3","3","2","3","2","3","3","1","0","1","1","0","0","1","1","0","1","1","0","1","0","1","4","2","3","2","2","","2","3","4","2","3","581839949964247040","王","145","","","","","","","","","","","","","","","","","","","true","14","4","moral","505","negative","不仁","","","","","","","","","","","","","","","","",""
"null","","null","html-keyboard-response","152","261263","0.0-6.0-1.0-8.0-0.22","4","3","3","4","4","3","3","2","4","4","5","2","3","4","2","4","3","3","4","4","1","4","3","3","2","3","2","3","3","1","0","1","1","0","0","1","1","0","1","1","0","1","0","1","4","2","3","2","2","","2","3","4","2","3","581839949964247040","王","145","","","","","","","","","","","","","","","","","","","","","","","","","","","","","","","","","","","","","","","","","",""
"511","<p style=""color:rgb(150, 250, 100); font-size: 35px;"">他人</p>","e","categorize-html","153","261775","0.0-6.0-1.0-8.0-1.22","4","3","3","4","4","3","3","2","4","4","5","2","3","4","2","4","3","3","4","4","1","4","3","3","2","3","2","3","3","1","0","1","1","0","0","1","1","0","1","1","0","1","0","1","4","2","3","2","2","","2","3","4","2","3","581839949964247040","王","145","","","","","","","","","","","","","","","","","","","true","14","4","moral","511","other","他人","","","","","","","","","","","","","","","","",""
"null","","null","html-keyboard-response","154","262027","0.0-6.0-1.0-8.0-0.23","4","3","3","4","4","3","3","2","4","4","5","2","3","4","2","4","3","3","4","4","1","4","3","3","2","3","2","3","3","1","0","1","1","0","0","1","1","0","1","1","0","1","0","1","4","2","3","2","2","","2","3","4","2","3","581839949964247040","王","145","","","","","","","","","","","","","","","","","","","","","","","","","","","","","","","","","","","","","","","","","",""
"564","<p style=""color:white; font-size: 35px;"">廉正</p>","e","categorize-html","155","262591","0.0-6.0-1.0-8.0-1.23","4","3","3","4","4","3","3","2","4","4","5","2","3","4","2","4","3","3","4","4","1","4","3","3","2","3","2","3","3","1","0","1","1","0","0","1","1","0","1","1","0","1","0","1","4","2","3","2","2","","2","3","4","2","3","581839949964247040","王","145","","","","","","","","","","","","","","","","","","","true","14","4","moral","564","positive","廉正","","","","","","","","","","","","","","","","",""
"null","","null","html-keyboard-response","156","262843","0.0-6.0-1.0-8.0-0.24","4","3","3","4","4","3","3","2","4","4","5","2","3","4","2","4","3","3","4","4","1","4","3","3","2","3","2","3","3","1","0","1","1","0","0","1","1","0","1","1","0","1","0","1","4","2","3","2","2","","2","3","4","2","3","581839949964247040","王","145","","","","","","","","","","","","","","","","","","","","","","","","","","","","","","","","","","","","","","","","","",""
"2783","<p style=""color:rgb(150, 250, 100); font-size: 35px;"">他的</p>","e","categorize-html","157","265627","0.0-6.0-1.0-8.0-1.24","4","3","3","4","4","3","3","2","4","4","5","2","3","4","2","4","3","3","4","4","1","4","3","3","2","3","2","3","3","1","0","1","1","0","0","1","1","0","1","1","0","1","0","1","4","2","3","2","2","","2","3","4","2","3","581839949964247040","王","145","","","","","","","","","","","","","","","","","","","true","14","4","moral","2783","other","他的","","","","","","","","","","","","","","","","",""
"null","","null","html-keyboard-response","158","265878","0.0-6.0-1.0-8.0-0.25","4","3","3","4","4","3","3","2","4","4","5","2","3","4","2","4","3","3","4","4","1","4","3","3","2","3","2","3","3","1","0","1","1","0","0","1","1","0","1","1","0","1","0","1","4","2","3","2","2","","2","3","4","2","3","581839949964247040","王","145","","","","","","","","","","","","","","","","","","","","","","","","","","","","","","","","","","","","","","","","","",""
"539","<p style=""color:white; font-size: 35px;"">高尚</p>","e","categorize-html","159","266419","0.0-6.0-1.0-8.0-1.25","4","3","3","4","4","3","3","2","4","4","5","2","3","4","2","4","3","3","4","4","1","4","3","3","2","3","2","3","3","1","0","1","1","0","0","1","1","0","1","1","0","1","0","1","4","2","3","2","2","","2","3","4","2","3","581839949964247040","王","145","","","","","","","","","","","","","","","","","","","true","14","4","moral","539","positive","高尚","","","","","","","","","","","","","","","","",""
"null","","null","html-keyboard-response","160","266670","0.0-6.0-1.0-8.0-0.26","4","3","3","4","4","3","3","2","4","4","5","2","3","4","2","4","3","3","4","4","1","4","3","3","2","3","2","3","3","1","0","1","1","0","0","1","1","0","1","1","0","1","0","1","4","2","3","2","2","","2","3","4","2","3","581839949964247040","王","145","","","","","","","","","","","","","","","","","","","","","","","","","","","","","","","","","","","","","","","","","",""
"753","<p style=""color:rgb(150, 250, 100); font-size: 35px;"">我</p>","i","categorize-html","161","267424","0.0-6.0-1.0-8.0-1.26","4","3","3","4","4","3","3","2","4","4","5","2","3","4","2","4","3","3","4","4","1","4","3","3","2","3","2","3","3","1","0","1","1","0","0","1","1","0","1","1","0","1","0","1","4","2","3","2","2","","2","3","4","2","3","581839949964247040","王","145","","","","","","","","","","","","","","","","","","","true","14","4","moral","753","self","我","","","","","","","","","","","","","","","","",""
"null","","null","html-keyboard-response","162","267675","0.0-6.0-1.0-8.0-0.27","4","3","3","4","4","3","3","2","4","4","5","2","3","4","2","4","3","3","4","4","1","4","3","3","2","3","2","3","3","1","0","1","1","0","0","1","1","0","1","1","0","1","0","1","4","2","3","2","2","","2","3","4","2","3","581839949964247040","王","145","","","","","","","","","","","","","","","","","","","","","","","","","","","","","","","","","","","","","","","","","",""
"864","<p style=""color:white; font-size: 35px;"">小人</p>","i","categorize-html","163","268542","0.0-6.0-1.0-8.0-1.27","4","3","3","4","4","3","3","2","4","4","5","2","3","4","2","4","3","3","4","4","1","4","3","3","2","3","2","3","3","1","0","1","1","0","0","1","1","0","1","1","0","1","0","1","4","2","3","2","2","","2","3","4","2","3","581839949964247040","王","145","","","","","","","","","","","","","","","","","","","true","14","4","moral","864","negative","小人","","","","","","","","","","","","","","","","",""
"null","","null","html-keyboard-response","164","268793","0.0-6.0-1.0-8.0-0.28","4","3","3","4","4","3","3","2","4","4","5","2","3","4","2","4","3","3","4","4","1","4","3","3","2","3","2","3","3","1","0","1","1","0","0","1","1","0","1","1","0","1","0","1","4","2","3","2","2","","2","3","4","2","3","581839949964247040","王","145","","","","","","","","","","","","","","","","","","","","","","","","","","","","","","","","","","","","","","","","","",""
"518","<p style=""color:rgb(150, 250, 100); font-size: 35px;"">本人的</p>","i","categorize-html","165","269313","0.0-6.0-1.0-8.0-1.28","4","3","3","4","4","3","3","2","4","4","5","2","3","4","2","4","3","3","4","4","1","4","3","3","2","3","2","3","3","1","0","1","1","0","0","1","1","0","1","1","0","1","0","1","4","2","3","2","2","","2","3","4","2","3","581839949964247040","王","145","","","","","","","","","","","","","","","","","","","true","14","4","moral","518","self","本人的","","","","","","","","","","","","","","","","",""
"null","","null","html-keyboard-response","166","269564","0.0-6.0-1.0-8.0-0.29","4","3","3","4","4","3","3","2","4","4","5","2","3","4","2","4","3","3","4","4","1","4","3","3","2","3","2","3","3","1","0","1","1","0","0","1","1","0","1","1","0","1","0","1","4","2","3","2","2","","2","3","4","2","3","581839949964247040","王","145","","","","","","","","","","","","","","","","","","","","","","","","","","","","","","","","","","","","","","","","","",""
"548","<p style=""color:white; font-size: 35px;"">善良</p>","e","categorize-html","167","270112","0.0-6.0-1.0-8.0-1.29","4","3","3","4","4","3","3","2","4","4","5","2","3","4","2","4","3","3","4","4","1","4","3","3","2","3","2","3","3","1","0","1","1","0","0","1","1","0","1","1","0","1","0","1","4","2","3","2","2","","2","3","4","2","3","581839949964247040","王","145","","","","","","","","","","","","","","","","","","","true","14","4","moral","548","positive","善良","","","","","","","","","","","","","","","","",""
"null","","null","html-keyboard-response","168","270363","0.0-6.0-1.0-8.0-0.30","4","3","3","4","4","3","3","2","4","4","5","2","3","4","2","4","3","3","4","4","1","4","3","3","2","3","2","3","3","1","0","1","1","0","0","1","1","0","1","1","0","1","0","1","4","2","3","2","2","","2","3","4","2","3","581839949964247040","王","145","","","","","","","","","","","","","","","","","","","","","","","","","","","","","","","","","","","","","","","","","",""
"2107","<p style=""color:rgb(150, 250, 100); font-size: 35px;"">他人</p>","e","categorize-html","169","272473","0.0-6.0-1.0-8.0-1.30","4","3","3","4","4","3","3","2","4","4","5","2","3","4","2","4","3","3","4","4","1","4","3","3","2","3","2","3","3","1","0","1","1","0","0","1","1","0","1","1","0","1","0","1","4","2","3","2","2","","2","3","4","2","3","581839949964247040","王","145","","","","","","","","","","","","","","","","","","","true","14","4","moral","2107","other","他人","","","","","","","","","","","","","","","","",""
"null","","null","html-keyboard-response","170","272724","0.0-6.0-1.0-8.0-0.31","4","3","3","4","4","3","3","2","4","4","5","2","3","4","2","4","3","3","4","4","1","4","3","3","2","3","2","3","3","1","0","1","1","0","0","1","1","0","1","1","0","1","0","1","4","2","3","2","2","","2","3","4","2","3","581839949964247040","王","145","","","","","","","","","","","","","","","","","","","","","","","","","","","","","","","","","","","","","","","","","",""
"802","<p style=""color:white; font-size: 35px;"">不仁</p>","i","categorize-html","171","273529","0.0-6.0-1.0-8.0-1.31","4","3","3","4","4","3","3","2","4","4","5","2","3","4","2","4","3","3","4","4","1","4","3","3","2","3","2","3","3","1","0","1","1","0","0","1","1","0","1","1","0","1","0","1","4","2","3","2","2","","2","3","4","2","3","581839949964247040","王","145","","","","","","","","","","","","","","","","","","","true","14","4","moral","802","negative","不仁","","","","","","","","","","","","","","","","",""
"null","","null","html-keyboard-response","172","273780","0.0-6.0-1.0-8.0-0.32","4","3","3","4","4","3","3","2","4","4","5","2","3","4","2","4","3","3","4","4","1","4","3","3","2","3","2","3","3","1","0","1","1","0","0","1","1","0","1","1","0","1","0","1","4","2","3","2","2","","2","3","4","2","3","581839949964247040","王","145","","","","","","","","","","","","","","","","","","","","","","","","","","","","","","","","","","","","","","","","","",""
"779","<p style=""color:rgb(150, 250, 100); font-size: 35px;"">别人的</p>","e","categorize-html","173","274561","0.0-6.0-1.0-8.0-1.32","4","3","3","4","4","3","3","2","4","4","5","2","3","4","2","4","3","3","4","4","1","4","3","3","2","3","2","3","3","1","0","1","1","0","0","1","1","0","1","1","0","1","0","1","4","2","3","2","2","","2","3","4","2","3","581839949964247040","王","145","","","","","","","","","","","","","","","","","","","true","14","4","moral","779","other","别人的","","","","","","","","","","","","","","","","",""
"null","","null","html-keyboard-response","174","274813","0.0-6.0-1.0-8.0-0.33","4","3","3","4","4","3","3","2","4","4","5","2","3","4","2","4","3","3","4","4","1","4","3","3","2","3","2","3","3","1","0","1","1","0","0","1","1","0","1","1","0","1","0","1","4","2","3","2","2","","2","3","4","2","3","581839949964247040","王","145","","","","","","","","","","","","","","","","","","","","","","","","","","","","","","","","","","","","","","","","","",""
"2193","<p style=""color:white; font-size: 35px;"">缺德</p>","i","categorize-html","175","277008","0.0-6.0-1.0-8.0-1.33","4","3","3","4","4","3","3","2","4","4","5","2","3","4","2","4","3","3","4","4","1","4","3","3","2","3","2","3","3","1","0","1","1","0","0","1","1","0","1","1","0","1","0","1","4","2","3","2","2","","2","3","4","2","3","581839949964247040","王","145","","","","","","","","","","","","","","","","","","","true","14","4","moral","2193","negative","缺德","","","","","","","","","","","","","","","","",""
"null","","null","html-keyboard-response","176","277261","0.0-6.0-1.0-8.0-0.34","4","3","3","4","4","3","3","2","4","4","5","2","3","4","2","4","3","3","4","4","1","4","3","3","2","3","2","3","3","1","0","1","1","0","0","1","1","0","1","1","0","1","0","1","4","2","3","2","2","","2","3","4","2","3","581839949964247040","王","145","","","","","","","","","","","","","","","","","","","","","","","","","","","","","","","","","","","","","","","","","",""
"610","<p style=""color:rgb(150, 250, 100); font-size: 35px;"">本人</p>","i","categorize-html","177","277872","0.0-6.0-1.0-8.0-1.34","4","3","3","4","4","3","3","2","4","4","5","2","3","4","2","4","3","3","4","4","1","4","3","3","2","3","2","3","3","1","0","1","1","0","0","1","1","0","1","1","0","1","0","1","4","2","3","2","2","","2","3","4","2","3","581839949964247040","王","145","","","","","","","","","","","","","","","","","","","true","14","4","moral","610","self","本人","","","","","","","","","","","","","","","","",""
"null","","null","html-keyboard-response","178","278123","0.0-6.0-1.0-8.0-0.35","4","3","3","4","4","3","3","2","4","4","5","2","3","4","2","4","3","3","4","4","1","4","3","3","2","3","2","3","3","1","0","1","1","0","0","1","1","0","1","1","0","1","0","1","4","2","3","2","2","","2","3","4","2","3","581839949964247040","王","145","","","","","","","","","","","","","","","","","","","","","","","","","","","","","","","","","","","","","","","","","",""
"906","<p style=""color:white; font-size: 35px;"">廉正</p>","e","categorize-html","179","279031","0.0-6.0-1.0-8.0-1.35","4","3","3","4","4","3","3","2","4","4","5","2","3","4","2","4","3","3","4","4","1","4","3","3","2","3","2","3","3","1","0","1","1","0","0","1","1","0","1","1","0","1","0","1","4","2","3","2","2","","2","3","4","2","3","581839949964247040","王","145","","","","","","","","","","","","","","","","","","","true","14","4","moral","906","positive","廉正","","","","","","","","","","","","","","","","",""
"null","","null","html-keyboard-response","180","279282","0.0-6.0-1.0-8.0-0.36","4","3","3","4","4","3","3","2","4","4","5","2","3","4","2","4","3","3","4","4","1","4","3","3","2","3","2","3","3","1","0","1","1","0","0","1","1","0","1","1","0","1","0","1","4","2","3","2","2","","2","3","4","2","3","581839949964247040","王","145","","","","","","","","","","","","","","","","","","","","","","","","","","","","","","","","","","","","","","","","","",""
"1937","<p style=""color:rgb(150, 250, 100); font-size: 35px;"">他</p>","e","categorize-html","181","281222","0.0-6.0-1.0-8.0-1.36","4","3","3","4","4","3","3","2","4","4","5","2","3","4","2","4","3","3","4","4","1","4","3","3","2","3","2","3","3","1","0","1","1","0","0","1","1","0","1","1","0","1","0","1","4","2","3","2","2","","2","3","4","2","3","581839949964247040","王","145","","","","","","","","","","","","","","","","","","","true","14","4","moral","1937","other","他","","","","","","","","","","","","","","","","",""
"null","","null","html-keyboard-response","182","281473","0.0-6.0-1.0-8.0-0.37","4","3","3","4","4","3","3","2","4","4","5","2","3","4","2","4","3","3","4","4","1","4","3","3","2","3","2","3","3","1","0","1","1","0","0","1","1","0","1","1","0","1","0","1","4","2","3","2","2","","2","3","4","2","3","581839949964247040","王","145","","","","","","","","","","","","","","","","","","","","","","","","","","","","","","","","","","","","","","","","","",""
"1705","<p style=""color:white; font-size: 35px;"">小人</p>","i","categorize-html","183","283180","0.0-6.0-1.0-8.0-1.37","4","3","3","4","4","3","3","2","4","4","5","2","3","4","2","4","3","3","4","4","1","4","3","3","2","3","2","3","3","1","0","1","1","0","0","1","1","0","1","1","0","1","0","1","4","2","3","2","2","","2","3","4","2","3","581839949964247040","王","145","","","","","","","","","","","","","","","","","","","true","14","4","moral","1705","negative","小人","","","","","","","","","","","","","","","","",""
"null","","null","html-keyboard-response","184","283431","0.0-6.0-1.0-8.0-0.38","4","3","3","4","4","3","3","2","4","4","5","2","3","4","2","4","3","3","4","4","1","4","3","3","2","3","2","3","3","1","0","1","1","0","0","1","1","0","1","1","0","1","0","1","4","2","3","2","2","","2","3","4","2","3","581839949964247040","王","145","","","","","","","","","","","","","","","","","","","","","","","","","","","","","","","","","","","","","","","","","",""
"447","<p style=""color:rgb(150, 250, 100); font-size: 35px;"">自己</p>","i","categorize-html","185","283879","0.0-6.0-1.0-8.0-1.38","4","3","3","4","4","3","3","2","4","4","5","2","3","4","2","4","3","3","4","4","1","4","3","3","2","3","2","3","3","1","0","1","1","0","0","1","1","0","1","1","0","1","0","1","4","2","3","2","2","","2","3","4","2","3","581839949964247040","王","145","","","","","","","","","","","","","","","","","","","true","14","4","moral","447","self","自己","","","","","","","","","","","","","","","","",""
"null","","null","html-keyboard-response","186","284130","0.0-6.0-1.0-8.0-0.39","4","3","3","4","4","3","3","2","4","4","5","2","3","4","2","4","3","3","4","4","1","4","3","3","2","3","2","3","3","1","0","1","1","0","0","1","1","0","1","1","0","1","0","1","4","2","3","2","2","","2","3","4","2","3","581839949964247040","王","145","","","","","","","","","","","","","","","","","","","","","","","","","","","","","","","","","","","","","","","","","",""
"701","<p style=""color:white; font-size: 35px;"">正直</p>","e","categorize-html","187","284831","0.0-6.0-1.0-8.0-1.39","4","3","3","4","4","3","3","2","4","4","5","2","3","4","2","4","3","3","4","4","1","4","3","3","2","3","2","3","3","1","0","1","1","0","0","1","1","0","1","1","0","1","0","1","4","2","3","2","2","","2","3","4","2","3","581839949964247040","王","145","","","","","","","","","","","","","","","","","","","true","14","4","moral","701","positive","正直","","","","","","","","","","","","","","","","",""
"null","","null","html-keyboard-response","188","285084","0.0-6.0-1.0-8.0-0.40","4","3","3","4","4","3","3","2","4","4","5","2","3","4","2","4","3","3","4","4","1","4","3","3","2","3","2","3","3","1","0","1","1","0","0","1","1","0","1","1","0","1","0","1","4","2","3","2","2","","2","3","4","2","3","581839949964247040","王","145","","","","","","","","","","","","","","","","","","","","","","","","","","","","","","","","","","","","","","","","","",""
"888","<p style=""color:rgb(150, 250, 100); font-size: 35px;"">他</p>","i","categorize-html","189","286573","0.0-6.0-1.0-8.0-1.40","4","3","3","4","4","3","3","2","4","4","5","2","3","4","2","4","3","3","4","4","1","4","3","3","2","3","2","3","3","1","0","1","1","0","0","1","1","0","1","1","0","1","0","1","4","2","3","2","2","","2","3","4","2","3","581839949964247040","王","145","","","","","","","","","","","","","","","","","","","false","14","4","moral","1482.7111111111112","other","他","","","","","","","","","","","","","","","","",""
"null","","null","html-keyboard-response","190","286825","0.0-6.0-1.0-8.0-0.41","4","3","3","4","4","3","3","2","4","4","5","2","3","4","2","4","3","3","4","4","1","4","3","3","2","3","2","3","3","1","0","1","1","0","0","1","1","0","1","1","0","1","0","1","4","2","3","2","2","","2","3","4","2","3","581839949964247040","王","145","","","","","","","","","","","","","","","","","","","","","","","","","","","","","","","","","","","","","","","","","",""
"994","<p style=""color:white; font-size: 35px;"">不孝</p>","i","categorize-html","191","287822","0.0-6.0-1.0-8.0-1.41","4","3","3","4","4","3","3","2","4","4","5","2","3","4","2","4","3","3","4","4","1","4","3","3","2","3","2","3","3","1","0","1","1","0","0","1","1","0","1","1","0","1","0","1","4","2","3","2","2","","2","3","4","2","3","581839949964247040","王","145","","","","","","","","","","","","","","","","","","","true","14","4","moral","994","negative","不孝","","","","","","","","","","","","","","","","",""
"null","","null","html-keyboard-response","192","288073","0.0-6.0-1.0-8.0-0.42","4","3","3","4","4","3","3","2","4","4","5","2","3","4","2","4","3","3","4","4","1","4","3","3","2","3","2","3","3","1","0","1","1","0","0","1","1","0","1","1","0","1","0","1","4","2","3","2","2","","2","3","4","2","3","581839949964247040","王","145","","","","","","","","","","","","","","","","","","","","","","","","","","","","","","","","","","","","","","","","","",""
"689","<p style=""color:rgb(150, 250, 100); font-size: 35px;"">自己的</p>","i","categorize-html","193","288764","0.0-6.0-1.0-8.0-1.42","4","3","3","4","4","3","3","2","4","4","5","2","3","4","2","4","3","3","4","4","1","4","3","3","2","3","2","3","3","1","0","1","1","0","0","1","1","0","1","1","0","1","0","1","4","2","3","2","2","","2","3","4","2","3","581839949964247040","王","145","","","","","","","","","","","","","","","","","","","true","14","4","moral","689","self","自己的","","","","","","","","","","","","","","","","",""
