"rt","stimulus","response","trial_type","trial_index","time_elapsed","internal_node_id","ses_1","ses_2","ses_3","ses_4","ses_5","ses_6","ses_7","ses_8","ses_9","ses_10","coreself_1","coreself_2","coreself_3","coreself_4","coreself_5","coreself_6","coreself_7","coreself_8","coreself_9","coreself_10","SGPS_1","SGPS_2","SGPS_3","SGPS_4","SGPS_5","SGPS_6","SGPS_7","SGPS_8","SGPS_9","NPI1","NPI2","NPI3","NPI4","NPI5","NPI6","NPI7","NPI8","NPI9","NPI10","NPI11","NPI12","NPI13","NPI14","NPI15","hsns_1","hsns_2","hsns_3","hsns_4","hsns_5","trap1","hsns_6","hsns_7","hsns_8","hsns_9","hsns_10","subj_idx","friend_name","ParticipantID","value","success","user_agent","responses","item_order","radio_event_ids","radio_event_times","key_event_times","mouse_event_times","straightlining","zigzagging","honeypot","timeout","failed_images","failed_audio","failed_video","version_attrib2","version_target2","correct","IAT","screen_id","task_id","RT","condition","word","varname","summary","version_attrib","version_target","time_stamp","view_history","response_type","key_press","avg_frame_time","center_x","center_y","correct_response","identity","Image","question_order","correct_answer","trap1_item"
"5519","
   <p><div style = ""color: white;font-size:25px;"">您好，欢迎参加本次实验。</div> </p>
   <p><div style = ""color: white;font-size:25px;"">为充分保障您的权利，请确保您已经知晓并同意《参与实验同意书》以及《数据公开知情同意书》。</div></p>
   <p><div style = ""color: white;font-size:25px;"">如果您未见过上述内容，请咨询实验员。</div></p>
   <p><div style = ""color: white;font-size:25px;"">如果您选择继续实验，则表示您已经清楚两份知情同意书的内容并同意。</div></p>
   <p><div style = ""color: pink;font-size:30px;"">请确保您记得day0的实验编号，您将在本次实验输入该编号，若您忘记，请咨询实验员后作答。</div></p>
   <p><div style = ""color: lightblue;font-size:25px;"">请您尽可能认真地作答，我们将依据您在各问卷和按键任务中的作答质量发放报酬。</div></p>
   <p> <div style = ""color: green;font-size:25px;""><按空格键至下页></div> </p>
   "," ","html-keyboard-response","0","5524","0.0-0.0","4","4","2","3","2","3","3","3","4","4","5","2","4","4","4","4","4","4","5","4","1","1","1","1","1","1","2","4","2","1","1","1","0","1","1","0","1","1","0","0","0","1","1","1","4","2","2","2","2","4","4","4","4","4","3","796473831589027842","肖","196","","","","","","","","","","","","","","","","","","","","","","","","","","","","","","","","","","","","","","","","","",""
"","","","call-function","1","5526","0.0-1.0-0.0","4","4","2","3","2","3","3","3","4","4","5","2","4","4","4","4","4","4","5","4","1","1","1","1","1","1","2","4","2","1","1","1","0","1","1","0","1","1","0","0","0","1","1","1","4","2","2","2","2","4","4","4","4","4","3","796473831589027842","肖","196","","","","","","","","","","","","","","","","","","","","","","","","","","","","","","","","","","","","","","","","","",""
"12948","","{""friend_name"":""肖"",""ParticipantID"":""196""}","survey-html-form","2","18475","0.0-1.0-1.0","4","4","2","3","2","3","3","3","4","4","5","2","4","4","4","4","4","4","5","4","1","1","1","1","1","1","2","4","2","1","1","1","0","1","1","0","1","1","0","0","0","1","1","1","4","2","2","2","2","4","4","4","4","4","3","796473831589027842","肖","196","","","","","","","","","","","","","","","","","","","","","","","","","","","","","","","","","","","","","","","","","",""
"","","","fullscreen","3","20217","0.0-2.0","4","4","2","3","2","3","3","3","4","4","5","2","4","4","4","4","4","4","5","4","1","1","1","1","1","1","2","4","2","1","1","1","0","1","1","0","1","1","0","0","0","1","1","1","4","2","2","2","2","4","4","4","4","4","3","796473831589027842","肖","196","","true","{}","","","","","","","","","","","","","","","","","","","","","","","","","","","","","","","","","","","","","","",""
"26879.5","","{""Q01"":""4"",""Q02"":""4"",""Q03"":""2"",""Q04"":""3"",""Q05"":""2"",""Q06"":""3"",""Q07"":""3"",""Q08"":""3"",""Q09"":""4"",""Q10"":""4""}","survey-template","4","47102","0.0-3.0","4","4","2","3","2","3","3","3","4","4","5","2","4","4","4","4","4","4","5","4","1","1","1","1","1","1","2","4","2","1","1","1","0","1","1","0","1","1","0","0","0","1","1","1","4","2","2","2","2","4","4","4","4","4","3","796473831589027842","肖","196","","","","{""Q01"":""4"",""Q02"":""4"",""Q03"":""2"",""Q04"":""3"",""Q05"":""2"",""Q06"":""3"",""Q07"":""3"",""Q08"":""3"",""Q09"":""4"",""Q10"":""4""}","[0,1,2,3,4,5,6,7,8,9]","[""Q01"",""Q02"",""Q03"",""Q04"",""Q05"",""Q06"",""Q07"",""Q08"",""Q09"",""Q10"",""Q09""]","[2933.5,4277.29999999702,6685.699999999255,9213.599999997765,10757.29999999702,14045.79999999702,16149.39999999851,20125.5,22685.39999999851,25214,25902]","[]","[2933.5,4277.29999999702,6685.699999999255,9213.599999997765,10757.29999999702,14045.79999999702,16149.39999999851,20125.5,22685.39999999851,25214,25902,26877.5]","0.5","0.3333333333333333","0","","","","","","","","","","","","","","","","","","","","","","","","","","","","","",""
"23309.29999999702","","{""Q01"":""5"",""Q02"":""2"",""Q03"":""4"",""Q04"":""4"",""Q05"":""4"",""Q06"":""4"",""Q07"":""4"",""Q08"":""4"",""Q09"":""5"",""Q10"":""4""}","survey-template","5","70421","0.0-4.0","4","4","2","3","2","3","3","3","4","4","5","2","4","4","4","4","4","4","5","4","1","1","1","1","1","1","2","4","2","1","1","1","0","1","1","0","1","1","0","0","0","1","1","1","4","2","2","2","2","4","4","4","4","4","3","796473831589027842","肖","196","","","","{""Q01"":""5"",""Q02"":""2"",""Q03"":""4"",""Q04"":""4"",""Q05"":""4"",""Q06"":""4"",""Q07"":""4"",""Q08"":""4"",""Q09"":""5"",""Q10"":""4""}","[0,1,2,3,4,5,6,7,8,9]","[""Q01"",""Q02"",""Q03"",""Q04"",""Q05"",""Q06"",""Q07"",""Q08"",""Q09"",""Q10""]","[2307.699999999255,3827.5,6259.39999999851,8179.699999999255,11291.39999999851,12676,14843.29999999702,18131.39999999851,20595.39999999851,22483.599999997765]","[]","[2307.699999999255,3827.5,6259.39999999851,8179.699999999255,11291.39999999851,12676,14843.29999999702,18131.39999999851,20595.39999999851,22483.599999997765,23307.39999999851]","0.5","0.1111111111111111","0","","","","","","","","","","","","","","","","","","","","","","","","","","","","","",""
"","","","preload","6","70802","0.0-5.0","4","4","2","3","2","3","3","3","4","4","5","2","4","4","4","4","4","4","5","4","1","1","1","1","1","1","2","4","2","1","1","1","0","1","1","0","1","1","0","0","0","1","1","1","4","2","2","2","2","4","4","4","4","4","3","796473831589027842","肖","196","","true","","","","","","","","","","","false","[]","[]","[]","","","","","","","","","","","","","","","","","","","","","","","","","",""
"10672","
    <h3>词语分类任务</h3>
    <p>在接下来的任务中，你需要对一系列词语进行分类。<p/>
    请先熟悉这些词语，这有利于你完成接下来的任务。</p>
    <table align=""center"" border=1 cellpadding=3 cellspacing=0>
    <tr> <th>类别</th> <th>词语</th> </tr>
    <tr> <td>&emsp;积极&emsp;</td> <td>&emsp;高尚、诚信、善良、君子、廉正、正直&emsp;</td> </tr>
    <tr> <td>&emsp;消极&emsp;</td> <td>&emsp;缺德、卑鄙、不孝、不仁、小人、黑心&emsp;</td> </tr>
    <tr> <td>&emsp;自我&emsp;</td> <td>&emsp;我、我的、自己、自己的、本人、本人的&emsp;</td> </tr>
    <tr> <td>&emsp;他人&emsp;</td> <td>&emsp;他、他的、别人、别人的、他人、他人的&emsp;</td> </tr>
    </table><br/>","0","html-button-response","7","81475","0.0-6.0-1.0-0.0","4","4","2","3","2","3","3","3","4","4","5","2","4","4","4","4","4","4","5","4","1","1","1","1","1","1","2","4","2","1","1","1","0","1","1","0","1","1","0","0","0","1","1","1","4","2","2","2","2","4","4","4","4","4","3","796473831589027842","肖","196","","","","","","","","","","","","","","","","","2","2","","","","","","","","","","","","","","","","","","","","","","","",""
"10423","
    <div class=""tag-bottom""><p>
    —— 任务1：对“他人”词和“自我”词分类 ——<p/>
    不同词语会出现在屏幕中央，类别标签将始终显示在屏幕上方<p/>   
    <span style=""color:#FFD866""><b>请根据上方标签的提示，尽可能正确并且快速地做出按键反应</b></span><p/>
    当按键错误时屏幕中会出现<span style=""color:red""> X </span>，需要按另一个键纠正才能继续<br/><p/>
    请把双手食指分别放在键盘的“E”键和“I”键上<p/>
    按<空格键>开始
    </p></div>"," ","html-keyboard-response","8","91905","0.0-6.0-1.0-1.0","4","4","2","3","2","3","3","3","4","4","5","2","4","4","4","4","4","4","5","4","1","1","1","1","1","1","2","4","2","1","1","1","0","1","1","0","1","1","0","0","0","1","1","1","4","2","2","2","2","4","4","4","4","4","3","796473831589027842","肖","196","","","","","","","","","","","","","","","","","","","","","","","","","","","","","","","","","","","","","","","","","",""
"null","","null","html-keyboard-response","9","92157","0.0-6.0-1.0-2.0-0.0","4","4","2","3","2","3","3","3","4","4","5","2","4","4","4","4","4","4","5","4","1","1","1","1","1","1","2","4","2","1","1","1","0","1","1","0","1","1","0","0","0","1","1","1","4","2","2","2","2","4","4","4","4","4","3","796473831589027842","肖","196","","","","","","","","","","","","","","","","","","","","","","","","","","","","","","","","","","","","","","","","","",""
"547","<p style=""color:rgb(150, 250, 100); font-size: 35px;"">自己</p>","i","categorize-html","10","92709","0.0-6.0-1.0-2.0-1.0","4","4","2","3","2","3","3","3","4","4","5","2","4","4","4","4","4","4","5","4","1","1","1","1","1","1","2","4","2","1","1","1","0","1","1","0","1","1","0","0","0","1","1","1","4","2","2","2","2","4","4","4","4","4","3","796473831589027842","肖","196","","","","","","","","","","","","","","","","","","","true","11","1","moral","547","self","自己","","","","","","","","","","","","","","","","",""
"null","","null","html-keyboard-response","11","92963","0.0-6.0-1.0-2.0-0.1","4","4","2","3","2","3","3","3","4","4","5","2","4","4","4","4","4","4","5","4","1","1","1","1","1","1","2","4","2","1","1","1","0","1","1","0","1","1","0","0","0","1","1","1","4","2","2","2","2","4","4","4","4","4","3","796473831589027842","肖","196","","","","","","","","","","","","","","","","","","","","","","","","","","","","","","","","","","","","","","","","","",""
"686","<p style=""color:rgb(150, 250, 100); font-size: 35px;"">别人的</p>","e","categorize-html","12","93656","0.0-6.0-1.0-2.0-1.1","4","4","2","3","2","3","3","3","4","4","5","2","4","4","4","4","4","4","5","4","1","1","1","1","1","1","2","4","2","1","1","1","0","1","1","0","1","1","0","0","0","1","1","1","4","2","2","2","2","4","4","4","4","4","3","796473831589027842","肖","196","","","","","","","","","","","","","","","","","","","true","11","1","moral","686","other","别人的","","","","","","","","","","","","","","","","",""
"null","","null","html-keyboard-response","13","93908","0.0-6.0-1.0-2.0-0.2","4","4","2","3","2","3","3","3","4","4","5","2","4","4","4","4","4","4","5","4","1","1","1","1","1","1","2","4","2","1","1","1","0","1","1","0","1","1","0","0","0","1","1","1","4","2","2","2","2","4","4","4","4","4","3","796473831589027842","肖","196","","","","","","","","","","","","","","","","","","","","","","","","","","","","","","","","","","","","","","","","","",""
"497","<p style=""color:rgb(150, 250, 100); font-size: 35px;"">我的</p>","i","categorize-html","14","94413","0.0-6.0-1.0-2.0-1.2","4","4","2","3","2","3","3","3","4","4","5","2","4","4","4","4","4","4","5","4","1","1","1","1","1","1","2","4","2","1","1","1","0","1","1","0","1","1","0","0","0","1","1","1","4","2","2","2","2","4","4","4","4","4","3","796473831589027842","肖","196","","","","","","","","","","","","","","","","","","","true","11","1","moral","497","self","我的","","","","","","","","","","","","","","","","",""
"null","","null","html-keyboard-response","15","94666","0.0-6.0-1.0-2.0-0.3","4","4","2","3","2","3","3","3","4","4","5","2","4","4","4","4","4","4","5","4","1","1","1","1","1","1","2","4","2","1","1","1","0","1","1","0","1","1","0","0","0","1","1","1","4","2","2","2","2","4","4","4","4","4","3","796473831589027842","肖","196","","","","","","","","","","","","","","","","","","","","","","","","","","","","","","","","","","","","","","","","","",""
"504","<p style=""color:rgb(150, 250, 100); font-size: 35px;"">本人</p>","i","categorize-html","16","95176","0.0-6.0-1.0-2.0-1.3","4","4","2","3","2","3","3","3","4","4","5","2","4","4","4","4","4","4","5","4","1","1","1","1","1","1","2","4","2","1","1","1","0","1","1","0","1","1","0","0","0","1","1","1","4","2","2","2","2","4","4","4","4","4","3","796473831589027842","肖","196","","","","","","","","","","","","","","","","","","","true","11","1","moral","504","self","本人","","","","","","","","","","","","","","","","",""
"null","","null","html-keyboard-response","17","95429","0.0-6.0-1.0-2.0-0.4","4","4","2","3","2","3","3","3","4","4","5","2","4","4","4","4","4","4","5","4","1","1","1","1","1","1","2","4","2","1","1","1","0","1","1","0","1","1","0","0","0","1","1","1","4","2","2","2","2","4","4","4","4","4","3","796473831589027842","肖","196","","","","","","","","","","","","","","","","","","","","","","","","","","","","","","","","","","","","","","","","","",""
"550","<p style=""color:rgb(150, 250, 100); font-size: 35px;"">别人</p>","e","categorize-html","18","95986","0.0-6.0-1.0-2.0-1.4","4","4","2","3","2","3","3","3","4","4","5","2","4","4","4","4","4","4","5","4","1","1","1","1","1","1","2","4","2","1","1","1","0","1","1","0","1","1","0","0","0","1","1","1","4","2","2","2","2","4","4","4","4","4","3","796473831589027842","肖","196","","","","","","","","","","","","","","","","","","","true","11","1","moral","550","other","别人","","","","","","","","","","","","","","","","",""
"null","","null","html-keyboard-response","19","96238","0.0-6.0-1.0-2.0-0.5","4","4","2","3","2","3","3","3","4","4","5","2","4","4","4","4","4","4","5","4","1","1","1","1","1","1","2","4","2","1","1","1","0","1","1","0","1","1","0","0","0","1","1","1","4","2","2","2","2","4","4","4","4","4","3","796473831589027842","肖","196","","","","","","","","","","","","","","","","","","","","","","","","","","","","","","","","","","","","","","","","","",""
"520","<p style=""color:rgb(150, 250, 100); font-size: 35px;"">他人</p>","i","categorize-html","20","98480","0.0-6.0-1.0-2.0-1.5","4","4","2","3","2","3","3","3","4","4","5","2","4","4","4","4","4","4","5","4","1","1","1","1","1","1","2","4","2","1","1","1","0","1","1","0","1","1","0","0","0","1","1","1","4","2","2","2","2","4","4","4","4","4","3","796473831589027842","肖","196","","","","","","","","","","","","","","","","","","","false","11","1","moral","520","other","他人","","","","","","","","","","","","","","","","",""
"null","","null","html-keyboard-response","21","98732","0.0-6.0-1.0-2.0-0.6","4","4","2","3","2","3","3","3","4","4","5","2","4","4","4","4","4","4","5","4","1","1","1","1","1","1","2","4","2","1","1","1","0","1","1","0","1","1","0","0","0","1","1","1","4","2","2","2","2","4","4","4","4","4","3","796473831589027842","肖","196","","","","","","","","","","","","","","","","","","","","","","","","","","","","","","","","","","","","","","","","","",""
"570","<p style=""color:rgb(150, 250, 100); font-size: 35px;"">他人的</p>","e","categorize-html","22","99308","0.0-6.0-1.0-2.0-1.6","4","4","2","3","2","3","3","3","4","4","5","2","4","4","4","4","4","4","5","4","1","1","1","1","1","1","2","4","2","1","1","1","0","1","1","0","1","1","0","0","0","1","1","1","4","2","2","2","2","4","4","4","4","4","3","796473831589027842","肖","196","","","","","","","","","","","","","","","","","","","true","11","1","moral","570","other","他人的","","","","","","","","","","","","","","","","",""
"null","","null","html-keyboard-response","23","99561","0.0-6.0-1.0-2.0-0.7","4","4","2","3","2","3","3","3","4","4","5","2","4","4","4","4","4","4","5","4","1","1","1","1","1","1","2","4","2","1","1","1","0","1","1","0","1","1","0","0","0","1","1","1","4","2","2","2","2","4","4","4","4","4","3","796473831589027842","肖","196","","","","","","","","","","","","","","","","","","","","","","","","","","","","","","","","","","","","","","","","","",""
"509","<p style=""color:rgb(150, 250, 100); font-size: 35px;"">他</p>","e","categorize-html","24","100075","0.0-6.0-1.0-2.0-1.7","4","4","2","3","2","3","3","3","4","4","5","2","4","4","4","4","4","4","5","4","1","1","1","1","1","1","2","4","2","1","1","1","0","1","1","0","1","1","0","0","0","1","1","1","4","2","2","2","2","4","4","4","4","4","3","796473831589027842","肖","196","","","","","","","","","","","","","","","","","","","true","11","1","moral","509","other","他","","","","","","","","","","","","","","","","",""
"null","","null","html-keyboard-response","25","100327","0.0-6.0-1.0-2.0-0.8","4","4","2","3","2","3","3","3","4","4","5","2","4","4","4","4","4","4","5","4","1","1","1","1","1","1","2","4","2","1","1","1","0","1","1","0","1","1","0","0","0","1","1","1","4","2","2","2","2","4","4","4","4","4","3","796473831589027842","肖","196","","","","","","","","","","","","","","","","","","","","","","","","","","","","","","","","","","","","","","","","","",""
"458","<p style=""color:rgb(150, 250, 100); font-size: 35px;"">他的</p>","e","categorize-html","26","100793","0.0-6.0-1.0-2.0-1.8","4","4","2","3","2","3","3","3","4","4","5","2","4","4","4","4","4","4","5","4","1","1","1","1","1","1","2","4","2","1","1","1","0","1","1","0","1","1","0","0","0","1","1","1","4","2","2","2","2","4","4","4","4","4","3","796473831589027842","肖","196","","","","","","","","","","","","","","","","","","","true","11","1","moral","458","other","他的","","","","","","","","","","","","","","","","",""
"null","","null","html-keyboard-response","27","101046","0.0-6.0-1.0-2.0-0.9","4","4","2","3","2","3","3","3","4","4","5","2","4","4","4","4","4","4","5","4","1","1","1","1","1","1","2","4","2","1","1","1","0","1","1","0","1","1","0","0","0","1","1","1","4","2","2","2","2","4","4","4","4","4","3","796473831589027842","肖","196","","","","","","","","","","","","","","","","","","","","","","","","","","","","","","","","","","","","","","","","","",""
"488","<p style=""color:rgb(150, 250, 100); font-size: 35px;"">自己的</p>","i","categorize-html","28","101541","0.0-6.0-1.0-2.0-1.9","4","4","2","3","2","3","3","3","4","4","5","2","4","4","4","4","4","4","5","4","1","1","1","1","1","1","2","4","2","1","1","1","0","1","1","0","1","1","0","0","0","1","1","1","4","2","2","2","2","4","4","4","4","4","3","796473831589027842","肖","196","","","","","","","","","","","","","","","","","","","true","11","1","moral","488","self","自己的","","","","","","","","","","","","","","","","",""
"null","","null","html-keyboard-response","29","101793","0.0-6.0-1.0-2.0-0.10","4","4","2","3","2","3","3","3","4","4","5","2","4","4","4","4","4","4","5","4","1","1","1","1","1","1","2","4","2","1","1","1","0","1","1","0","1","1","0","0","0","1","1","1","4","2","2","2","2","4","4","4","4","4","3","796473831589027842","肖","196","","","","","","","","","","","","","","","","","","","","","","","","","","","","","","","","","","","","","","","","","",""
"485","<p style=""color:rgb(150, 250, 100); font-size: 35px;"">本人的</p>","i","categorize-html","30","102284","0.0-6.0-1.0-2.0-1.10","4","4","2","3","2","3","3","3","4","4","5","2","4","4","4","4","4","4","5","4","1","1","1","1","1","1","2","4","2","1","1","1","0","1","1","0","1","1","0","0","0","1","1","1","4","2","2","2","2","4","4","4","4","4","3","796473831589027842","肖","196","","","","","","","","","","","","","","","","","","","true","11","1","moral","485","self","本人的","","","","","","","","","","","","","","","","",""
"null","","null","html-keyboard-response","31","102536","0.0-6.0-1.0-2.0-0.11","4","4","2","3","2","3","3","3","4","4","5","2","4","4","4","4","4","4","5","4","1","1","1","1","1","1","2","4","2","1","1","1","0","1","1","0","1","1","0","0","0","1","1","1","4","2","2","2","2","4","4","4","4","4","3","796473831589027842","肖","196","","","","","","","","","","","","","","","","","","","","","","","","","","","","","","","","","","","","","","","","","",""
"425","<p style=""color:rgb(150, 250, 100); font-size: 35px;"">我</p>","i","categorize-html","32","102968","0.0-6.0-1.0-2.0-1.11","4","4","2","3","2","3","3","3","4","4","5","2","4","4","4","4","4","4","5","4","1","1","1","1","1","1","2","4","2","1","1","1","0","1","1","0","1","1","0","0","0","1","1","1","4","2","2","2","2","4","4","4","4","4","3","796473831589027842","肖","196","","","","","","","","","","","","","","","","","","","true","11","1","moral","425","self","我","","","","","","","","","","","","","","","","",""
"1426","
    <div class=""tag-bottom""><p>
    —— 任务2：对“消极”词和“积极”词分类 ——<p/>   
    <span style=""color:#78DCE8""><b>注意上方，类别标签和需要分类的词语都已经改变</b></span><p/>
    <span style=""color:#FFD866""><b>请根据上方标签的提示，尽可能正确并且快速地做出按键反应</b></span><p/>
    当按键错误时屏幕中会出现<span style=""color:red""> X </span>，需要按另一个键纠正才能继续<br/><p/>
    请把双手食指分别放在键盘的“E”键和“I”键上<p/>
    按<空格键>开始
    </p></div>"," ","html-keyboard-response","33","104396","0.0-6.0-1.0-3.0","4","4","2","3","2","3","3","3","4","4","5","2","4","4","4","4","4","4","5","4","1","1","1","1","1","1","2","4","2","1","1","1","0","1","1","0","1","1","0","0","0","1","1","1","4","2","2","2","2","4","4","4","4","4","3","796473831589027842","肖","196","","","","","","","","","","","","","","","","","","","","","","","","","","","","","","","","","","","","","","","","","",""
"null","","null","html-keyboard-response","34","104648","0.0-6.0-1.0-4.0-0.0","4","4","2","3","2","3","3","3","4","4","5","2","4","4","4","4","4","4","5","4","1","1","1","1","1","1","2","4","2","1","1","1","0","1","1","0","1","1","0","0","0","1","1","1","4","2","2","2","2","4","4","4","4","4","3","796473831589027842","肖","196","","","","","","","","","","","","","","","","","","","","","","","","","","","","","","","","","","","","","","","","","",""
"1128","<p style=""color:white; font-size: 35px;"">缺德</p>","e","categorize-html","35","105784","0.0-6.0-1.0-4.0-1.0","4","4","2","3","2","3","3","3","4","4","5","2","4","4","4","4","4","4","5","4","1","1","1","1","1","1","2","4","2","1","1","1","0","1","1","0","1","1","0","0","0","1","1","1","4","2","2","2","2","4","4","4","4","4","3","796473831589027842","肖","196","","","","","","","","","","","","","","","","","","","true","12","2","moral","1128","negative","缺德","","","","","","","","","","","","","","","","",""
"null","","null","html-keyboard-response","36","106036","0.0-6.0-1.0-4.0-0.1","4","4","2","3","2","3","3","3","4","4","5","2","4","4","4","4","4","4","5","4","1","1","1","1","1","1","2","4","2","1","1","1","0","1","1","0","1","1","0","0","0","1","1","1","4","2","2","2","2","4","4","4","4","4","3","796473831589027842","肖","196","","","","","","","","","","","","","","","","","","","","","","","","","","","","","","","","","","","","","","","","","",""
"837","<p style=""color:white; font-size: 35px;"">小人</p>","e","categorize-html","37","106880","0.0-6.0-1.0-4.0-1.1","4","4","2","3","2","3","3","3","4","4","5","2","4","4","4","4","4","4","5","4","1","1","1","1","1","1","2","4","2","1","1","1","0","1","1","0","1","1","0","0","0","1","1","1","4","2","2","2","2","4","4","4","4","4","3","796473831589027842","肖","196","","","","","","","","","","","","","","","","","","","true","12","2","moral","837","negative","小人","","","","","","","","","","","","","","","","",""
"null","","null","html-keyboard-response","38","107132","0.0-6.0-1.0-4.0-0.2","4","4","2","3","2","3","3","3","4","4","5","2","4","4","4","4","4","4","5","4","1","1","1","1","1","1","2","4","2","1","1","1","0","1","1","0","1","1","0","0","0","1","1","1","4","2","2","2","2","4","4","4","4","4","3","796473831589027842","肖","196","","","","","","","","","","","","","","","","","","","","","","","","","","","","","","","","","","","","","","","","","",""
"481","<p style=""color:white; font-size: 35px;"">诚信</p>","i","categorize-html","39","107620","0.0-6.0-1.0-4.0-1.2","4","4","2","3","2","3","3","3","4","4","5","2","4","4","4","4","4","4","5","4","1","1","1","1","1","1","2","4","2","1","1","1","0","1","1","0","1","1","0","0","0","1","1","1","4","2","2","2","2","4","4","4","4","4","3","796473831589027842","肖","196","","","","","","","","","","","","","","","","","","","true","12","2","moral","481","positive","诚信","","","","","","","","","","","","","","","","",""
"null","","null","html-keyboard-response","40","107873","0.0-6.0-1.0-4.0-0.3","4","4","2","3","2","3","3","3","4","4","5","2","4","4","4","4","4","4","5","4","1","1","1","1","1","1","2","4","2","1","1","1","0","1","1","0","1","1","0","0","0","1","1","1","4","2","2","2","2","4","4","4","4","4","3","796473831589027842","肖","196","","","","","","","","","","","","","","","","","","","","","","","","","","","","","","","","","","","","","","","","","",""
"564","<p style=""color:white; font-size: 35px;"">不仁</p>","e","categorize-html","41","108444","0.0-6.0-1.0-4.0-1.3","4","4","2","3","2","3","3","3","4","4","5","2","4","4","4","4","4","4","5","4","1","1","1","1","1","1","2","4","2","1","1","1","0","1","1","0","1","1","0","0","0","1","1","1","4","2","2","2","2","4","4","4","4","4","3","796473831589027842","肖","196","","","","","","","","","","","","","","","","","","","true","12","2","moral","564","negative","不仁","","","","","","","","","","","","","","","","",""
"null","","null","html-keyboard-response","42","108696","0.0-6.0-1.0-4.0-0.4","4","4","2","3","2","3","3","3","4","4","5","2","4","4","4","4","4","4","5","4","1","1","1","1","1","1","2","4","2","1","1","1","0","1","1","0","1","1","0","0","0","1","1","1","4","2","2","2","2","4","4","4","4","4","3","796473831589027842","肖","196","","","","","","","","","","","","","","","","","","","","","","","","","","","","","","","","","","","","","","","","","",""
"385","<p style=""color:white; font-size: 35px;"">善良</p>","i","categorize-html","43","109085","0.0-6.0-1.0-4.0-1.4","4","4","2","3","2","3","3","3","4","4","5","2","4","4","4","4","4","4","5","4","1","1","1","1","1","1","2","4","2","1","1","1","0","1","1","0","1","1","0","0","0","1","1","1","4","2","2","2","2","4","4","4","4","4","3","796473831589027842","肖","196","","","","","","","","","","","","","","","","","","","true","12","2","moral","385","positive","善良","","","","","","","","","","","","","","","","",""
"null","","null","html-keyboard-response","44","109338","0.0-6.0-1.0-4.0-0.5","4","4","2","3","2","3","3","3","4","4","5","2","4","4","4","4","4","4","5","4","1","1","1","1","1","1","2","4","2","1","1","1","0","1","1","0","1","1","0","0","0","1","1","1","4","2","2","2","2","4","4","4","4","4","3","796473831589027842","肖","196","","","","","","","","","","","","","","","","","","","","","","","","","","","","","","","","","","","","","","","","","",""
"532","<p style=""color:white; font-size: 35px;"">卑鄙</p>","e","categorize-html","45","109877","0.0-6.0-1.0-4.0-1.5","4","4","2","3","2","3","3","3","4","4","5","2","4","4","4","4","4","4","5","4","1","1","1","1","1","1","2","4","2","1","1","1","0","1","1","0","1","1","0","0","0","1","1","1","4","2","2","2","2","4","4","4","4","4","3","796473831589027842","肖","196","","","","","","","","","","","","","","","","","","","true","12","2","moral","532","negative","卑鄙","","","","","","","","","","","","","","","","",""
"null","","null","html-keyboard-response","46","110129","0.0-6.0-1.0-4.0-0.6","4","4","2","3","2","3","3","3","4","4","5","2","4","4","4","4","4","4","5","4","1","1","1","1","1","1","2","4","2","1","1","1","0","1","1","0","1","1","0","0","0","1","1","1","4","2","2","2","2","4","4","4","4","4","3","796473831589027842","肖","196","","","","","","","","","","","","","","","","","","","","","","","","","","","","","","","","","","","","","","","","","",""
"465","<p style=""color:white; font-size: 35px;"">廉正</p>","i","categorize-html","47","110600","0.0-6.0-1.0-4.0-1.6","4","4","2","3","2","3","3","3","4","4","5","2","4","4","4","4","4","4","5","4","1","1","1","1","1","1","2","4","2","1","1","1","0","1","1","0","1","1","0","0","0","1","1","1","4","2","2","2","2","4","4","4","4","4","3","796473831589027842","肖","196","","","","","","","","","","","","","","","","","","","true","12","2","moral","465","positive","廉正","","","","","","","","","","","","","","","","",""
"null","","null","html-keyboard-response","48","110852","0.0-6.0-1.0-4.0-0.7","4","4","2","3","2","3","3","3","4","4","5","2","4","4","4","4","4","4","5","4","1","1","1","1","1","1","2","4","2","1","1","1","0","1","1","0","1","1","0","0","0","1","1","1","4","2","2","2","2","4","4","4","4","4","3","796473831589027842","肖","196","","","","","","","","","","","","","","","","","","","","","","","","","","","","","","","","","","","","","","","","","",""
"648","<p style=""color:white; font-size: 35px;"">黑心</p>","e","categorize-html","49","111504","0.0-6.0-1.0-4.0-1.7","4","4","2","3","2","3","3","3","4","4","5","2","4","4","4","4","4","4","5","4","1","1","1","1","1","1","2","4","2","1","1","1","0","1","1","0","1","1","0","0","0","1","1","1","4","2","2","2","2","4","4","4","4","4","3","796473831589027842","肖","196","","","","","","","","","","","","","","","","","","","true","12","2","moral","648","negative","黑心","","","","","","","","","","","","","","","","",""
"null","","null","html-keyboard-response","50","111756","0.0-6.0-1.0-4.0-0.8","4","4","2","3","2","3","3","3","4","4","5","2","4","4","4","4","4","4","5","4","1","1","1","1","1","1","2","4","2","1","1","1","0","1","1","0","1","1","0","0","0","1","1","1","4","2","2","2","2","4","4","4","4","4","3","796473831589027842","肖","196","","","","","","","","","","","","","","","","","","","","","","","","","","","","","","","","","","","","","","","","","",""
"574","<p style=""color:white; font-size: 35px;"">高尚</p>","i","categorize-html","51","112335","0.0-6.0-1.0-4.0-1.8","4","4","2","3","2","3","3","3","4","4","5","2","4","4","4","4","4","4","5","4","1","1","1","1","1","1","2","4","2","1","1","1","0","1","1","0","1","1","0","0","0","1","1","1","4","2","2","2","2","4","4","4","4","4","3","796473831589027842","肖","196","","","","","","","","","","","","","","","","","","","true","12","2","moral","574","positive","高尚","","","","","","","","","","","","","","","","",""
"null","","null","html-keyboard-response","52","112587","0.0-6.0-1.0-4.0-0.9","4","4","2","3","2","3","3","3","4","4","5","2","4","4","4","4","4","4","5","4","1","1","1","1","1","1","2","4","2","1","1","1","0","1","1","0","1","1","0","0","0","1","1","1","4","2","2","2","2","4","4","4","4","4","3","796473831589027842","肖","196","","","","","","","","","","","","","","","","","","","","","","","","","","","","","","","","","","","","","","","","","",""
"691","<p style=""color:white; font-size: 35px;"">君子</p>","i","categorize-html","53","113285","0.0-6.0-1.0-4.0-1.9","4","4","2","3","2","3","3","3","4","4","5","2","4","4","4","4","4","4","5","4","1","1","1","1","1","1","2","4","2","1","1","1","0","1","1","0","1","1","0","0","0","1","1","1","4","2","2","2","2","4","4","4","4","4","3","796473831589027842","肖","196","","","","","","","","","","","","","","","","","","","true","12","2","moral","691","positive","君子","","","","","","","","","","","","","","","","",""
"null","","null","html-keyboard-response","54","113537","0.0-6.0-1.0-4.0-0.10","4","4","2","3","2","3","3","3","4","4","5","2","4","4","4","4","4","4","5","4","1","1","1","1","1","1","2","4","2","1","1","1","0","1","1","0","1","1","0","0","0","1","1","1","4","2","2","2","2","4","4","4","4","4","3","796473831589027842","肖","196","","","","","","","","","","","","","","","","","","","","","","","","","","","","","","","","","","","","","","","","","",""
"453","<p style=""color:white; font-size: 35px;"">正直</p>","i","categorize-html","55","113996","0.0-6.0-1.0-4.0-1.10","4","4","2","3","2","3","3","3","4","4","5","2","4","4","4","4","4","4","5","4","1","1","1","1","1","1","2","4","2","1","1","1","0","1","1","0","1","1","0","0","0","1","1","1","4","2","2","2","2","4","4","4","4","4","3","796473831589027842","肖","196","","","","","","","","","","","","","","","","","","","true","12","2","moral","453","positive","正直","","","","","","","","","","","","","","","","",""
"null","","null","html-keyboard-response","56","114248","0.0-6.0-1.0-4.0-0.11","4","4","2","3","2","3","3","3","4","4","5","2","4","4","4","4","4","4","5","4","1","1","1","1","1","1","2","4","2","1","1","1","0","1","1","0","1","1","0","0","0","1","1","1","4","2","2","2","2","4","4","4","4","4","3","796473831589027842","肖","196","","","","","","","","","","","","","","","","","","","","","","","","","","","","","","","","","","","","","","","","","",""
"645","<p style=""color:white; font-size: 35px;"">不孝</p>","e","categorize-html","57","114901","0.0-6.0-1.0-4.0-1.11","4","4","2","3","2","3","3","3","4","4","5","2","4","4","4","4","4","4","5","4","1","1","1","1","1","1","2","4","2","1","1","1","0","1","1","0","1","1","0","0","0","1","1","1","4","2","2","2","2","4","4","4","4","4","3","796473831589027842","肖","196","","","","","","","","","","","","","","","","","","","true","12","2","moral","645","negative","不孝","","","","","","","","","","","","","","","","",""
"3249","
    <div class=""tag-bottom""><p>
    —— 任务3：对“他人/消极”词和“自我/积极”词分类 ——<p/>
    <span style=""color:#78DCE8""><b>注意上方，之前的四类词语将混合在一起交替呈现</b></span><p/>
    <span style=""color:#FFD866""><b>请根据上方标签的提示，尽可能正确并且快速地做出按键反应</b></span><p/>
    当按键错误时屏幕中会出现<span style=""color:red""> X </span>，需要按另一个键纠正才能继续<br/><p/>
    请把双手食指分别放在键盘的“E”键和“I”键上<p/>
    按<空格键>开始
    </p></div>"," ","html-keyboard-response","58","118152","0.0-6.0-1.0-5.0","4","4","2","3","2","3","3","3","4","4","5","2","4","4","4","4","4","4","5","4","1","1","1","1","1","1","2","4","2","1","1","1","0","1","1","0","1","1","0","0","0","1","1","1","4","2","2","2","2","4","4","4","4","4","3","796473831589027842","肖","196","","","","","","","","","","","","","","","","","","","","","","","","","","","","","","","","","","","","","","","","","",""
"null","","null","html-keyboard-response","59","118404","0.0-6.0-1.0-6.0-0.0","4","4","2","3","2","3","3","3","4","4","5","2","4","4","4","4","4","4","5","4","1","1","1","1","1","1","2","4","2","1","1","1","0","1","1","0","1","1","0","0","0","1","1","1","4","2","2","2","2","4","4","4","4","4","3","796473831589027842","肖","196","","","","","","","","","","","","","","","","","","","","","","","","","","","","","","","","","","","","","","","","","",""
"528","<p style=""color:rgb(150, 250, 100); font-size: 35px;"">自己的</p>","i","categorize-html","60","118941","0.0-6.0-1.0-6.0-1.0","4","4","2","3","2","3","3","3","4","4","5","2","4","4","4","4","4","4","5","4","1","1","1","1","1","1","2","4","2","1","1","1","0","1","1","0","1","1","0","0","0","1","1","1","4","2","2","2","2","4","4","4","4","4","3","796473831589027842","肖","196","","","","","","","","","","","","","","","","","","","true","13","3","moral","528","self","自己的","","","","","","","","","","","","","","","","",""
"null","","null","html-keyboard-response","61","119193","0.0-6.0-1.0-6.0-0.1","4","4","2","3","2","3","3","3","4","4","5","2","4","4","4","4","4","4","5","4","1","1","1","1","1","1","2","4","2","1","1","1","0","1","1","0","1","1","0","0","0","1","1","1","4","2","2","2","2","4","4","4","4","4","3","796473831589027842","肖","196","","","","","","","","","","","","","","","","","","","","","","","","","","","","","","","","","","","","","","","","","",""
"466","<p style=""color:white; font-size: 35px;"">黑心</p>","e","categorize-html","62","119665","0.0-6.0-1.0-6.0-1.1","4","4","2","3","2","3","3","3","4","4","5","2","4","4","4","4","4","4","5","4","1","1","1","1","1","1","2","4","2","1","1","1","0","1","1","0","1","1","0","0","0","1","1","1","4","2","2","2","2","4","4","4","4","4","3","796473831589027842","肖","196","","","","","","","","","","","","","","","","","","","true","13","3","moral","466","negative","黑心","","","","","","","","","","","","","","","","",""
"null","","null","html-keyboard-response","63","119917","0.0-6.0-1.0-6.0-0.2","4","4","2","3","2","3","3","3","4","4","5","2","4","4","4","4","4","4","5","4","1","1","1","1","1","1","2","4","2","1","1","1","0","1","1","0","1","1","0","0","0","1","1","1","4","2","2","2","2","4","4","4","4","4","3","796473831589027842","肖","196","","","","","","","","","","","","","","","","","","","","","","","","","","","","","","","","","","","","","","","","","",""
"809","<p style=""color:rgb(150, 250, 100); font-size: 35px;"">别人</p>","e","categorize-html","64","120733","0.0-6.0-1.0-6.0-1.2","4","4","2","3","2","3","3","3","4","4","5","2","4","4","4","4","4","4","5","4","1","1","1","1","1","1","2","4","2","1","1","1","0","1","1","0","1","1","0","0","0","1","1","1","4","2","2","2","2","4","4","4","4","4","3","796473831589027842","肖","196","","","","","","","","","","","","","","","","","","","true","13","3","moral","809","other","别人","","","","","","","","","","","","","","","","",""
"null","","null","html-keyboard-response","65","120985","0.0-6.0-1.0-6.0-0.3","4","4","2","3","2","3","3","3","4","4","5","2","4","4","4","4","4","4","5","4","1","1","1","1","1","1","2","4","2","1","1","1","0","1","1","0","1","1","0","0","0","1","1","1","4","2","2","2","2","4","4","4","4","4","3","796473831589027842","肖","196","","","","","","","","","","","","","","","","","","","","","","","","","","","","","","","","","","","","","","","","","",""
"556","<p style=""color:white; font-size: 35px;"">诚信</p>","i","categorize-html","66","121549","0.0-6.0-1.0-6.0-1.3","4","4","2","3","2","3","3","3","4","4","5","2","4","4","4","4","4","4","5","4","1","1","1","1","1","1","2","4","2","1","1","1","0","1","1","0","1","1","0","0","0","1","1","1","4","2","2","2","2","4","4","4","4","4","3","796473831589027842","肖","196","","","","","","","","","","","","","","","","","","","true","13","3","moral","556","positive","诚信","","","","","","","","","","","","","","","","",""
"null","","null","html-keyboard-response","67","121800","0.0-6.0-1.0-6.0-0.4","4","4","2","3","2","3","3","3","4","4","5","2","4","4","4","4","4","4","5","4","1","1","1","1","1","1","2","4","2","1","1","1","0","1","1","0","1","1","0","0","0","1","1","1","4","2","2","2","2","4","4","4","4","4","3","796473831589027842","肖","196","","","","","","","","","","","","","","","","","","","","","","","","","","","","","","","","","","","","","","","","","",""
"474","<p style=""color:rgb(150, 250, 100); font-size: 35px;"">他的</p>","e","categorize-html","68","122279","0.0-6.0-1.0-6.0-1.4","4","4","2","3","2","3","3","3","4","4","5","2","4","4","4","4","4","4","5","4","1","1","1","1","1","1","2","4","2","1","1","1","0","1","1","0","1","1","0","0","0","1","1","1","4","2","2","2","2","4","4","4","4","4","3","796473831589027842","肖","196","","","","","","","","","","","","","","","","","","","true","13","3","moral","474","other","他的","","","","","","","","","","","","","","","","",""
"null","","null","html-keyboard-response","69","122532","0.0-6.0-1.0-6.0-0.5","4","4","2","3","2","3","3","3","4","4","5","2","4","4","4","4","4","4","5","4","1","1","1","1","1","1","2","4","2","1","1","1","0","1","1","0","1","1","0","0","0","1","1","1","4","2","2","2","2","4","4","4","4","4","3","796473831589027842","肖","196","","","","","","","","","","","","","","","","","","","","","","","","","","","","","","","","","","","","","","","","","",""
"549","<p style=""color:white; font-size: 35px;"">君子</p>","i","categorize-html","70","123089","0.0-6.0-1.0-6.0-1.5","4","4","2","3","2","3","3","3","4","4","5","2","4","4","4","4","4","4","5","4","1","1","1","1","1","1","2","4","2","1","1","1","0","1","1","0","1","1","0","0","0","1","1","1","4","2","2","2","2","4","4","4","4","4","3","796473831589027842","肖","196","","","","","","","","","","","","","","","","","","","true","13","3","moral","549","positive","君子","","","","","","","","","","","","","","","","",""
"null","","null","html-keyboard-response","71","123341","0.0-6.0-1.0-6.0-0.6","4","4","2","3","2","3","3","3","4","4","5","2","4","4","4","4","4","4","5","4","1","1","1","1","1","1","2","4","2","1","1","1","0","1","1","0","1","1","0","0","0","1","1","1","4","2","2","2","2","4","4","4","4","4","3","796473831589027842","肖","196","","","","","","","","","","","","","","","","","","","","","","","","","","","","","","","","","","","","","","","","","",""
"737","<p style=""color:rgb(150, 250, 100); font-size: 35px;"">我</p>","i","categorize-html","72","124084","0.0-6.0-1.0-6.0-1.6","4","4","2","3","2","3","3","3","4","4","5","2","4","4","4","4","4","4","5","4","1","1","1","1","1","1","2","4","2","1","1","1","0","1","1","0","1","1","0","0","0","1","1","1","4","2","2","2","2","4","4","4","4","4","3","796473831589027842","肖","196","","","","","","","","","","","","","","","","","","","true","13","3","moral","737","self","我","","","","","","","","","","","","","","","","",""
"null","","null","html-keyboard-response","73","124337","0.0-6.0-1.0-6.0-0.7","4","4","2","3","2","3","3","3","4","4","5","2","4","4","4","4","4","4","5","4","1","1","1","1","1","1","2","4","2","1","1","1","0","1","1","0","1","1","0","0","0","1","1","1","4","2","2","2","2","4","4","4","4","4","3","796473831589027842","肖","196","","","","","","","","","","","","","","","","","","","","","","","","","","","","","","","","","","","","","","","","","",""
"428","<p style=""color:white; font-size: 35px;"">不孝</p>","e","categorize-html","74","124772","0.0-6.0-1.0-6.0-1.7","4","4","2","3","2","3","3","3","4","4","5","2","4","4","4","4","4","4","5","4","1","1","1","1","1","1","2","4","2","1","1","1","0","1","1","0","1","1","0","0","0","1","1","1","4","2","2","2","2","4","4","4","4","4","3","796473831589027842","肖","196","","","","","","","","","","","","","","","","","","","true","13","3","moral","428","negative","不孝","","","","","","","","","","","","","","","","",""
"null","","null","html-keyboard-response","75","125025","0.0-6.0-1.0-6.0-0.8","4","4","2","3","2","3","3","3","4","4","5","2","4","4","4","4","4","4","5","4","1","1","1","1","1","1","2","4","2","1","1","1","0","1","1","0","1","1","0","0","0","1","1","1","4","2","2","2","2","4","4","4","4","4","3","796473831589027842","肖","196","","","","","","","","","","","","","","","","","","","","","","","","","","","","","","","","","","","","","","","","","",""
"632","<p style=""color:rgb(150, 250, 100); font-size: 35px;"">他</p>","e","categorize-html","76","125665","0.0-6.0-1.0-6.0-1.8","4","4","2","3","2","3","3","3","4","4","5","2","4","4","4","4","4","4","5","4","1","1","1","1","1","1","2","4","2","1","1","1","0","1","1","0","1","1","0","0","0","1","1","1","4","2","2","2","2","4","4","4","4","4","3","796473831589027842","肖","196","","","","","","","","","","","","","","","","","","","true","13","3","moral","632","other","他","","","","","","","","","","","","","","","","",""
"null","","null","html-keyboard-response","77","125917","0.0-6.0-1.0-6.0-0.9","4","4","2","3","2","3","3","3","4","4","5","2","4","4","4","4","4","4","5","4","1","1","1","1","1","1","2","4","2","1","1","1","0","1","1","0","1","1","0","0","0","1","1","1","4","2","2","2","2","4","4","4","4","4","3","796473831589027842","肖","196","","","","","","","","","","","","","","","","","","","","","","","","","","","","","","","","","","","","","","","","","",""
"591","<p style=""color:white; font-size: 35px;"">高尚</p>","i","categorize-html","78","126512","0.0-6.0-1.0-6.0-1.9","4","4","2","3","2","3","3","3","4","4","5","2","4","4","4","4","4","4","5","4","1","1","1","1","1","1","2","4","2","1","1","1","0","1","1","0","1","1","0","0","0","1","1","1","4","2","2","2","2","4","4","4","4","4","3","796473831589027842","肖","196","","","","","","","","","","","","","","","","","","","true","13","3","moral","591","positive","高尚","","","","","","","","","","","","","","","","",""
"null","","null","html-keyboard-response","79","126763","0.0-6.0-1.0-6.0-0.10","4","4","2","3","2","3","3","3","4","4","5","2","4","4","4","4","4","4","5","4","1","1","1","1","1","1","2","4","2","1","1","1","0","1","1","0","1","1","0","0","0","1","1","1","4","2","2","2","2","4","4","4","4","4","3","796473831589027842","肖","196","","","","","","","","","","","","","","","","","","","","","","","","","","","","","","","","","","","","","","","","","",""
"354","<p style=""color:rgb(150, 250, 100); font-size: 35px;"">我的</p>","i","categorize-html","80","127125","0.0-6.0-1.0-6.0-1.10","4","4","2","3","2","3","3","3","4","4","5","2","4","4","4","4","4","4","5","4","1","1","1","1","1","1","2","4","2","1","1","1","0","1","1","0","1","1","0","0","0","1","1","1","4","2","2","2","2","4","4","4","4","4","3","796473831589027842","肖","196","","","","","","","","","","","","","","","","","","","true","13","3","moral","354","self","我的","","","","","","","","","","","","","","","","",""
"null","","null","html-keyboard-response","81","127377","0.0-6.0-1.0-6.0-0.11","4","4","2","3","2","3","3","3","4","4","5","2","4","4","4","4","4","4","5","4","1","1","1","1","1","1","2","4","2","1","1","1","0","1","1","0","1","1","0","0","0","1","1","1","4","2","2","2","2","4","4","4","4","4","3","796473831589027842","肖","196","","","","","","","","","","","","","","","","","","","","","","","","","","","","","","","","","","","","","","","","","",""
"524","<p style=""color:white; font-size: 35px;"">不仁</p>","e","categorize-html","82","127909","0.0-6.0-1.0-6.0-1.11","4","4","2","3","2","3","3","3","4","4","5","2","4","4","4","4","4","4","5","4","1","1","1","1","1","1","2","4","2","1","1","1","0","1","1","0","1","1","0","0","0","1","1","1","4","2","2","2","2","4","4","4","4","4","3","796473831589027842","肖","196","","","","","","","","","","","","","","","","","","","true","13","3","moral","524","negative","不仁","","","","","","","","","","","","","","","","",""
"null","","null","html-keyboard-response","83","128161","0.0-6.0-1.0-6.0-0.12","4","4","2","3","2","3","3","3","4","4","5","2","4","4","4","4","4","4","5","4","1","1","1","1","1","1","2","4","2","1","1","1","0","1","1","0","1","1","0","0","0","1","1","1","4","2","2","2","2","4","4","4","4","4","3","796473831589027842","肖","196","","","","","","","","","","","","","","","","","","","","","","","","","","","","","","","","","","","","","","","","","",""
"427","<p style=""color:rgb(150, 250, 100); font-size: 35px;"">自己</p>","i","categorize-html","84","128592","0.0-6.0-1.0-6.0-1.12","4","4","2","3","2","3","3","3","4","4","5","2","4","4","4","4","4","4","5","4","1","1","1","1","1","1","2","4","2","1","1","1","0","1","1","0","1","1","0","0","0","1","1","1","4","2","2","2","2","4","4","4","4","4","3","796473831589027842","肖","196","","","","","","","","","","","","","","","","","","","true","13","3","moral","427","self","自己","","","","","","","","","","","","","","","","",""
"null","","null","html-keyboard-response","85","128844","0.0-6.0-1.0-6.0-0.13","4","4","2","3","2","3","3","3","4","4","5","2","4","4","4","4","4","4","5","4","1","1","1","1","1","1","2","4","2","1","1","1","0","1","1","0","1","1","0","0","0","1","1","1","4","2","2","2","2","4","4","4","4","4","3","796473831589027842","肖","196","","","","","","","","","","","","","","","","","","","","","","","","","","","","","","","","","","","","","","","","","",""
"527","<p style=""color:white; font-size: 35px;"">善良</p>","i","categorize-html","86","129379","0.0-6.0-1.0-6.0-1.13","4","4","2","3","2","3","3","3","4","4","5","2","4","4","4","4","4","4","5","4","1","1","1","1","1","1","2","4","2","1","1","1","0","1","1","0","1","1","0","0","0","1","1","1","4","2","2","2","2","4","4","4","4","4","3","796473831589027842","肖","196","","","","","","","","","","","","","","","","","","","true","13","3","moral","527","positive","善良","","","","","","","","","","","","","","","","",""
"null","","null","html-keyboard-response","87","129632","0.0-6.0-1.0-6.0-0.14","4","4","2","3","2","3","3","3","4","4","5","2","4","4","4","4","4","4","5","4","1","1","1","1","1","1","2","4","2","1","1","1","0","1","1","0","1","1","0","0","0","1","1","1","4","2","2","2","2","4","4","4","4","4","3","796473831589027842","肖","196","","","","","","","","","","","","","","","","","","","","","","","","","","","","","","","","","","","","","","","","","",""
"601","<p style=""color:rgb(150, 250, 100); font-size: 35px;"">别人的</p>","e","categorize-html","88","130240","0.0-6.0-1.0-6.0-1.14","4","4","2","3","2","3","3","3","4","4","5","2","4","4","4","4","4","4","5","4","1","1","1","1","1","1","2","4","2","1","1","1","0","1","1","0","1","1","0","0","0","1","1","1","4","2","2","2","2","4","4","4","4","4","3","796473831589027842","肖","196","","","","","","","","","","","","","","","","","","","true","13","3","moral","601","other","别人的","","","","","","","","","","","","","","","","",""
"null","","null","html-keyboard-response","89","130492","0.0-6.0-1.0-6.0-0.15","4","4","2","3","2","3","3","3","4","4","5","2","4","4","4","4","4","4","5","4","1","1","1","1","1","1","2","4","2","1","1","1","0","1","1","0","1","1","0","0","0","1","1","1","4","2","2","2","2","4","4","4","4","4","3","796473831589027842","肖","196","","","","","","","","","","","","","","","","","","","","","","","","","","","","","","","","","","","","","","","","","",""
"588","<p style=""color:white; font-size: 35px;"">缺德</p>","e","categorize-html","90","131084","0.0-6.0-1.0-6.0-1.15","4","4","2","3","2","3","3","3","4","4","5","2","4","4","4","4","4","4","5","4","1","1","1","1","1","1","2","4","2","1","1","1","0","1","1","0","1","1","0","0","0","1","1","1","4","2","2","2","2","4","4","4","4","4","3","796473831589027842","肖","196","","","","","","","","","","","","","","","","","","","true","13","3","moral","588","negative","缺德","","","","","","","","","","","","","","","","",""
"null","","null","html-keyboard-response","91","131335","0.0-6.0-1.0-6.0-0.16","4","4","2","3","2","3","3","3","4","4","5","2","4","4","4","4","4","4","5","4","1","1","1","1","1","1","2","4","2","1","1","1","0","1","1","0","1","1","0","0","0","1","1","1","4","2","2","2","2","4","4","4","4","4","3","796473831589027842","肖","196","","","","","","","","","","","","","","","","","","","","","","","","","","","","","","","","","","","","","","","","","",""
"494","<p style=""color:rgb(150, 250, 100); font-size: 35px;"">他人</p>","i","categorize-html","92","132288","0.0-6.0-1.0-6.0-1.16","4","4","2","3","2","3","3","3","4","4","5","2","4","4","4","4","4","4","5","4","1","1","1","1","1","1","2","4","2","1","1","1","0","1","1","0","1","1","0","0","0","1","1","1","4","2","2","2","2","4","4","4","4","4","3","796473831589027842","肖","196","","","","","","","","","","","","","","","","","","","false","13","3","moral","1154.1363636363635","other","他人","","","","","","","","","","","","","","","","",""
"null","","null","html-keyboard-response","93","132540","0.0-6.0-1.0-6.0-0.17","4","4","2","3","2","3","3","3","4","4","5","2","4","4","4","4","4","4","5","4","1","1","1","1","1","1","2","4","2","1","1","1","0","1","1","0","1","1","0","0","0","1","1","1","4","2","2","2","2","4","4","4","4","4","3","796473831589027842","肖","196","","","","","","","","","","","","","","","","","","","","","","","","","","","","","","","","","","","","","","","","","",""
"694","<p style=""color:white; font-size: 35px;"">卑鄙</p>","e","categorize-html","94","133242","0.0-6.0-1.0-6.0-1.17","4","4","2","3","2","3","3","3","4","4","5","2","4","4","4","4","4","4","5","4","1","1","1","1","1","1","2","4","2","1","1","1","0","1","1","0","1","1","0","0","0","1","1","1","4","2","2","2","2","4","4","4","4","4","3","796473831589027842","肖","196","","","","","","","","","","","","","","","","","","","true","13","3","moral","694","negative","卑鄙","","","","","","","","","","","","","","","","",""
"null","","null","html-keyboard-response","95","133495","0.0-6.0-1.0-6.0-0.18","4","4","2","3","2","3","3","3","4","4","5","2","4","4","4","4","4","4","5","4","1","1","1","1","1","1","2","4","2","1","1","1","0","1","1","0","1","1","0","0","0","1","1","1","4","2","2","2","2","4","4","4","4","4","3","796473831589027842","肖","196","","","","","","","","","","","","","","","","","","","","","","","","","","","","","","","","","","","","","","","","","",""
"510","<p style=""color:rgb(150, 250, 100); font-size: 35px;"">本人的</p>","i","categorize-html","96","134009","0.0-6.0-1.0-6.0-1.18","4","4","2","3","2","3","3","3","4","4","5","2","4","4","4","4","4","4","5","4","1","1","1","1","1","1","2","4","2","1","1","1","0","1","1","0","1","1","0","0","0","1","1","1","4","2","2","2","2","4","4","4","4","4","3","796473831589027842","肖","196","","","","","","","","","","","","","","","","","","","true","13","3","moral","510","self","本人的","","","","","","","","","","","","","","","","",""
"null","","null","html-keyboard-response","97","134261","0.0-6.0-1.0-6.0-0.19","4","4","2","3","2","3","3","3","4","4","5","2","4","4","4","4","4","4","5","4","1","1","1","1","1","1","2","4","2","1","1","1","0","1","1","0","1","1","0","0","0","1","1","1","4","2","2","2","2","4","4","4","4","4","3","796473831589027842","肖","196","","","","","","","","","","","","","","","","","","","","","","","","","","","","","","","","","","","","","","","","","",""
"504","<p style=""color:white; font-size: 35px;"">廉正</p>","i","categorize-html","98","134771","0.0-6.0-1.0-6.0-1.19","4","4","2","3","2","3","3","3","4","4","5","2","4","4","4","4","4","4","5","4","1","1","1","1","1","1","2","4","2","1","1","1","0","1","1","0","1","1","0","0","0","1","1","1","4","2","2","2","2","4","4","4","4","4","3","796473831589027842","肖","196","","","","","","","","","","","","","","","","","","","true","13","3","moral","504","positive","廉正","","","","","","","","","","","","","","","","",""
"null","","null","html-keyboard-response","99","135023","0.0-6.0-1.0-6.0-0.20","4","4","2","3","2","3","3","3","4","4","5","2","4","4","4","4","4","4","5","4","1","1","1","1","1","1","2","4","2","1","1","1","0","1","1","0","1","1","0","0","0","1","1","1","4","2","2","2","2","4","4","4","4","4","3","796473831589027842","肖","196","","","","","","","","","","","","","","","","","","","","","","","","","","","","","","","","","","","","","","","","","",""
"590","<p style=""color:rgb(150, 250, 100); font-size: 35px;"">他人的</p>","e","categorize-html","100","135621","0.0-6.0-1.0-6.0-1.20","4","4","2","3","2","3","3","3","4","4","5","2","4","4","4","4","4","4","5","4","1","1","1","1","1","1","2","4","2","1","1","1","0","1","1","0","1","1","0","0","0","1","1","1","4","2","2","2","2","4","4","4","4","4","3","796473831589027842","肖","196","","","","","","","","","","","","","","","","","","","true","13","3","moral","590","other","他人的","","","","","","","","","","","","","","","","",""
"null","","null","html-keyboard-response","101","135873","0.0-6.0-1.0-6.0-0.21","4","4","2","3","2","3","3","3","4","4","5","2","4","4","4","4","4","4","5","4","1","1","1","1","1","1","2","4","2","1","1","1","0","1","1","0","1","1","0","0","0","1","1","1","4","2","2","2","2","4","4","4","4","4","3","796473831589027842","肖","196","","","","","","","","","","","","","","","","","","","","","","","","","","","","","","","","","","","","","","","","","",""
"438","<p style=""color:white; font-size: 35px;"">正直</p>","e","categorize-html","102","136699","0.0-6.0-1.0-6.0-1.21","4","4","2","3","2","3","3","3","4","4","5","2","4","4","4","4","4","4","5","4","1","1","1","1","1","1","2","4","2","1","1","1","0","1","1","0","1","1","0","0","0","1","1","1","4","2","2","2","2","4","4","4","4","4","3","796473831589027842","肖","196","","","","","","","","","","","","","","","","","","","false","13","3","moral","1154.1363636363635","positive","正直","","","","","","","","","","","","","","","","",""
"null","","null","html-keyboard-response","103","136953","0.0-6.0-1.0-6.0-0.22","4","4","2","3","2","3","3","3","4","4","5","2","4","4","4","4","4","4","5","4","1","1","1","1","1","1","2","4","2","1","1","1","0","1","1","0","1","1","0","0","0","1","1","1","4","2","2","2","2","4","4","4","4","4","3","796473831589027842","肖","196","","","","","","","","","","","","","","","","","","","","","","","","","","","","","","","","","","","","","","","","","",""
"545","<p style=""color:rgb(150, 250, 100); font-size: 35px;"">本人</p>","i","categorize-html","104","137504","0.0-6.0-1.0-6.0-1.22","4","4","2","3","2","3","3","3","4","4","5","2","4","4","4","4","4","4","5","4","1","1","1","1","1","1","2","4","2","1","1","1","0","1","1","0","1","1","0","0","0","1","1","1","4","2","2","2","2","4","4","4","4","4","3","796473831589027842","肖","196","","","","","","","","","","","","","","","","","","","true","13","3","moral","545","self","本人","","","","","","","","","","","","","","","","",""
"null","","null","html-keyboard-response","105","137756","0.0-6.0-1.0-6.0-0.23","4","4","2","3","2","3","3","3","4","4","5","2","4","4","4","4","4","4","5","4","1","1","1","1","1","1","2","4","2","1","1","1","0","1","1","0","1","1","0","0","0","1","1","1","4","2","2","2","2","4","4","4","4","4","3","796473831589027842","肖","196","","","","","","","","","","","","","","","","","","","","","","","","","","","","","","","","","","","","","","","","","",""
"557","<p style=""color:white; font-size: 35px;"">小人</p>","e","categorize-html","106","138316","0.0-6.0-1.0-6.0-1.23","4","4","2","3","2","3","3","3","4","4","5","2","4","4","4","4","4","4","5","4","1","1","1","1","1","1","2","4","2","1","1","1","0","1","1","0","1","1","0","0","0","1","1","1","4","2","2","2","2","4","4","4","4","4","3","796473831589027842","肖","196","","","","","","","","","","","","","","","","","","","true","13","3","moral","557","negative","小人","","","","","","","","","","","","","","","","",""
"1219","
    <div class=""tag-bottom""><p>
    —— 任务4：对“他人/消极”词和“自我/积极”词分类 ——<p/>
    <span style=""color:#78DCE8""><b>与刚才的任务完全相同，请再次对这四类词语分类</b></span><p/>
    <span style=""color:#FFD866""><b>请根据上方标签的提示，尽可能正确并且快速地做出按键反应</b></span><p/>
    当按键错误时屏幕中会出现<span style=""color:red""> X </span>，需要按另一个键纠正才能继续<br/><p/>
    请把双手食指分别放在键盘的“E”键和“I”键上<p/>
    按<空格键>开始
    </p></div>"," ","html-keyboard-response","107","139535","0.0-6.0-1.0-7.0","4","4","2","3","2","3","3","3","4","4","5","2","4","4","4","4","4","4","5","4","1","1","1","1","1","1","2","4","2","1","1","1","0","1","1","0","1","1","0","0","0","1","1","1","4","2","2","2","2","4","4","4","4","4","3","796473831589027842","肖","196","","","","","","","","","","","","","","","","","","","","","","","","","","","","","","","","","","","","","","","","","",""
"null","","null","html-keyboard-response","108","139788","0.0-6.0-1.0-8.0-0.0","4","4","2","3","2","3","3","3","4","4","5","2","4","4","4","4","4","4","5","4","1","1","1","1","1","1","2","4","2","1","1","1","0","1","1","0","1","1","0","0","0","1","1","1","4","2","2","2","2","4","4","4","4","4","3","796473831589027842","肖","196","","","","","","","","","","","","","","","","","","","","","","","","","","","","","","","","","","","","","","","","","",""
"736","<p style=""color:rgb(150, 250, 100); font-size: 35px;"">我的</p>","i","categorize-html","109","140533","0.0-6.0-1.0-8.0-1.0","4","4","2","3","2","3","3","3","4","4","5","2","4","4","4","4","4","4","5","4","1","1","1","1","1","1","2","4","2","1","1","1","0","1","1","0","1","1","0","0","0","1","1","1","4","2","2","2","2","4","4","4","4","4","3","796473831589027842","肖","196","","","","","","","","","","","","","","","","","","","true","14","4","moral","736","self","我的","","","","","","","","","","","","","","","","",""
"null","","null","html-keyboard-response","110","140786","0.0-6.0-1.0-8.0-0.1","4","4","2","3","2","3","3","3","4","4","5","2","4","4","4","4","4","4","5","4","1","1","1","1","1","1","2","4","2","1","1","1","0","1","1","0","1","1","0","0","0","1","1","1","4","2","2","2","2","4","4","4","4","4","3","796473831589027842","肖","196","","","","","","","","","","","","","","","","","","","","","","","","","","","","","","","","","","","","","","","","","",""
"535","<p style=""color:white; font-size: 35px;"">缺德</p>","e","categorize-html","111","141325","0.0-6.0-1.0-8.0-1.1","4","4","2","3","2","3","3","3","4","4","5","2","4","4","4","4","4","4","5","4","1","1","1","1","1","1","2","4","2","1","1","1","0","1","1","0","1","1","0","0","0","1","1","1","4","2","2","2","2","4","4","4","4","4","3","796473831589027842","肖","196","","","","","","","","","","","","","","","","","","","true","14","4","moral","535","negative","缺德","","","","","","","","","","","","","","","","",""
"null","","null","html-keyboard-response","112","141576","0.0-6.0-1.0-8.0-0.2","4","4","2","3","2","3","3","3","4","4","5","2","4","4","4","4","4","4","5","4","1","1","1","1","1","1","2","4","2","1","1","1","0","1","1","0","1","1","0","0","0","1","1","1","4","2","2","2","2","4","4","4","4","4","3","796473831589027842","肖","196","","","","","","","","","","","","","","","","","","","","","","","","","","","","","","","","","","","","","","","","","",""
"1574","<p style=""color:rgb(150, 250, 100); font-size: 35px;"">别人</p>","e","categorize-html","113","143156","0.0-6.0-1.0-8.0-1.2","4","4","2","3","2","3","3","3","4","4","5","2","4","4","4","4","4","4","5","4","1","1","1","1","1","1","2","4","2","1","1","1","0","1","1","0","1","1","0","0","0","1","1","1","4","2","2","2","2","4","4","4","4","4","3","796473831589027842","肖","196","","","","","","","","","","","","","","","","","","","true","14","4","moral","1574","other","别人","","","","","","","","","","","","","","","","",""
"null","","null","html-keyboard-response","114","143408","0.0-6.0-1.0-8.0-0.3","4","4","2","3","2","3","3","3","4","4","5","2","4","4","4","4","4","4","5","4","1","1","1","1","1","1","2","4","2","1","1","1","0","1","1","0","1","1","0","0","0","1","1","1","4","2","2","2","2","4","4","4","4","4","3","796473831589027842","肖","196","","","","","","","","","","","","","","","","","","","","","","","","","","","","","","","","","","","","","","","","","",""
"462","<p style=""color:white; font-size: 35px;"">廉正</p>","i","categorize-html","115","143877","0.0-6.0-1.0-8.0-1.3","4","4","2","3","2","3","3","3","4","4","5","2","4","4","4","4","4","4","5","4","1","1","1","1","1","1","2","4","2","1","1","1","0","1","1","0","1","1","0","0","0","1","1","1","4","2","2","2","2","4","4","4","4","4","3","796473831589027842","肖","196","","","","","","","","","","","","","","","","","","","true","14","4","moral","462","positive","廉正","","","","","","","","","","","","","","","","",""
"null","","null","html-keyboard-response","116","144129","0.0-6.0-1.0-8.0-0.4","4","4","2","3","2","3","3","3","4","4","5","2","4","4","4","4","4","4","5","4","1","1","1","1","1","1","2","4","2","1","1","1","0","1","1","0","1","1","0","0","0","1","1","1","4","2","2","2","2","4","4","4","4","4","3","796473831589027842","肖","196","","","","","","","","","","","","","","","","","","","","","","","","","","","","","","","","","","","","","","","","","",""
"376","<p style=""color:rgb(150, 250, 100); font-size: 35px;"">我</p>","i","categorize-html","117","144508","0.0-6.0-1.0-8.0-1.4","4","4","2","3","2","3","3","3","4","4","5","2","4","4","4","4","4","4","5","4","1","1","1","1","1","1","2","4","2","1","1","1","0","1","1","0","1","1","0","0","0","1","1","1","4","2","2","2","2","4","4","4","4","4","3","796473831589027842","肖","196","","","","","","","","","","","","","","","","","","","true","14","4","moral","376","self","我","","","","","","","","","","","","","","","","",""
"null","","null","html-keyboard-response","118","144759","0.0-6.0-1.0-8.0-0.5","4","4","2","3","2","3","3","3","4","4","5","2","4","4","4","4","4","4","5","4","1","1","1","1","1","1","2","4","2","1","1","1","0","1","1","0","1","1","0","0","0","1","1","1","4","2","2","2","2","4","4","4","4","4","3","796473831589027842","肖","196","","","","","","","","","","","","","","","","","","","","","","","","","","","","","","","","","","","","","","","","","",""
"462","<p style=""color:white; font-size: 35px;"">君子</p>","i","categorize-html","119","145229","0.0-6.0-1.0-8.0-1.5","4","4","2","3","2","3","3","3","4","4","5","2","4","4","4","4","4","4","5","4","1","1","1","1","1","1","2","4","2","1","1","1","0","1","1","0","1","1","0","0","0","1","1","1","4","2","2","2","2","4","4","4","4","4","3","796473831589027842","肖","196","","","","","","","","","","","","","","","","","","","true","14","4","moral","462","positive","君子","","","","","","","","","","","","","","","","",""
"null","","null","html-keyboard-response","120","145481","0.0-6.0-1.0-8.0-0.6","4","4","2","3","2","3","3","3","4","4","5","2","4","4","4","4","4","4","5","4","1","1","1","1","1","1","2","4","2","1","1","1","0","1","1","0","1","1","0","0","0","1","1","1","4","2","2","2","2","4","4","4","4","4","3","796473831589027842","肖","196","","","","","","","","","","","","","","","","","","","","","","","","","","","","","","","","","","","","","","","","","",""
"1060","<p style=""color:rgb(150, 250, 100); font-size: 35px;"">他人</p>","e","categorize-html","121","146549","0.0-6.0-1.0-8.0-1.6","4","4","2","3","2","3","3","3","4","4","5","2","4","4","4","4","4","4","5","4","1","1","1","1","1","1","2","4","2","1","1","1","0","1","1","0","1","1","0","0","0","1","1","1","4","2","2","2","2","4","4","4","4","4","3","796473831589027842","肖","196","","","","","","","","","","","","","","","","","","","true","14","4","moral","1060","other","他人","","","","","","","","","","","","","","","","",""
"null","","null","html-keyboard-response","122","146801","0.0-6.0-1.0-8.0-0.7","4","4","2","3","2","3","3","3","4","4","5","2","4","4","4","4","4","4","5","4","1","1","1","1","1","1","2","4","2","1","1","1","0","1","1","0","1","1","0","0","0","1","1","1","4","2","2","2","2","4","4","4","4","4","3","796473831589027842","肖","196","","","","","","","","","","","","","","","","","","","","","","","","","","","","","","","","","","","","","","","","","",""
"672","<p style=""color:white; font-size: 35px;"">缺德</p>","e","categorize-html","123","147480","0.0-6.0-1.0-8.0-1.7","4","4","2","3","2","3","3","3","4","4","5","2","4","4","4","4","4","4","5","4","1","1","1","1","1","1","2","4","2","1","1","1","0","1","1","0","1","1","0","0","0","1","1","1","4","2","2","2","2","4","4","4","4","4","3","796473831589027842","肖","196","","","","","","","","","","","","","","","","","","","true","14","4","moral","672","negative","缺德","","","","","","","","","","","","","","","","",""
"null","","null","html-keyboard-response","124","147733","0.0-6.0-1.0-8.0-0.8","4","4","2","3","2","3","3","3","4","4","5","2","4","4","4","4","4","4","5","4","1","1","1","1","1","1","2","4","2","1","1","1","0","1","1","0","1","1","0","0","0","1","1","1","4","2","2","2","2","4","4","4","4","4","3","796473831589027842","肖","196","","","","","","","","","","","","","","","","","","","","","","","","","","","","","","","","","","","","","","","","","",""
"489","<p style=""color:rgb(150, 250, 100); font-size: 35px;"">他的</p>","e","categorize-html","125","148228","0.0-6.0-1.0-8.0-1.8","4","4","2","3","2","3","3","3","4","4","5","2","4","4","4","4","4","4","5","4","1","1","1","1","1","1","2","4","2","1","1","1","0","1","1","0","1","1","0","0","0","1","1","1","4","2","2","2","2","4","4","4","4","4","3","796473831589027842","肖","196","","","","","","","","","","","","","","","","","","","true","14","4","moral","489","other","他的","","","","","","","","","","","","","","","","",""
"null","","null","html-keyboard-response","126","148481","0.0-6.0-1.0-8.0-0.9","4","4","2","3","2","3","3","3","4","4","5","2","4","4","4","4","4","4","5","4","1","1","1","1","1","1","2","4","2","1","1","1","0","1","1","0","1","1","0","0","0","1","1","1","4","2","2","2","2","4","4","4","4","4","3","796473831589027842","肖","196","","","","","","","","","","","","","","","","","","","","","","","","","","","","","","","","","","","","","","","","","",""
"509","<p style=""color:white; font-size: 35px;"">小人</p>","e","categorize-html","127","148996","0.0-6.0-1.0-8.0-1.9","4","4","2","3","2","3","3","3","4","4","5","2","4","4","4","4","4","4","5","4","1","1","1","1","1","1","2","4","2","1","1","1","0","1","1","0","1","1","0","0","0","1","1","1","4","2","2","2","2","4","4","4","4","4","3","796473831589027842","肖","196","","","","","","","","","","","","","","","","","","","true","14","4","moral","509","negative","小人","","","","","","","","","","","","","","","","",""
"null","","null","html-keyboard-response","128","149248","0.0-6.0-1.0-8.0-0.10","4","4","2","3","2","3","3","3","4","4","5","2","4","4","4","4","4","4","5","4","1","1","1","1","1","1","2","4","2","1","1","1","0","1","1","0","1","1","0","0","0","1","1","1","4","2","2","2","2","4","4","4","4","4","3","796473831589027842","肖","196","","","","","","","","","","","","","","","","","","","","","","","","","","","","","","","","","","","","","","","","","",""
"495","<p style=""color:rgb(150, 250, 100); font-size: 35px;"">本人的</p>","i","categorize-html","129","149751","0.0-6.0-1.0-8.0-1.10","4","4","2","3","2","3","3","3","4","4","5","2","4","4","4","4","4","4","5","4","1","1","1","1","1","1","2","4","2","1","1","1","0","1","1","0","1","1","0","0","0","1","1","1","4","2","2","2","2","4","4","4","4","4","3","796473831589027842","肖","196","","","","","","","","","","","","","","","","","","","true","14","4","moral","495","self","本人的","","","","","","","","","","","","","","","","",""
"null","","null","html-keyboard-response","130","150004","0.0-6.0-1.0-8.0-0.11","4","4","2","3","2","3","3","3","4","4","5","2","4","4","4","4","4","4","5","4","1","1","1","1","1","1","2","4","2","1","1","1","0","1","1","0","1","1","0","0","0","1","1","1","4","2","2","2","2","4","4","4","4","4","3","796473831589027842","肖","196","","","","","","","","","","","","","","","","","","","","","","","","","","","","","","","","","","","","","","","","","",""
"496","<p style=""color:white; font-size: 35px;"">正直</p>","i","categorize-html","131","150504","0.0-6.0-1.0-8.0-1.11","4","4","2","3","2","3","3","3","4","4","5","2","4","4","4","4","4","4","5","4","1","1","1","1","1","1","2","4","2","1","1","1","0","1","1","0","1","1","0","0","0","1","1","1","4","2","2","2","2","4","4","4","4","4","3","796473831589027842","肖","196","","","","","","","","","","","","","","","","","","","true","14","4","moral","496","positive","正直","","","","","","","","","","","","","","","","",""
"null","","null","html-keyboard-response","132","150756","0.0-6.0-1.0-8.0-0.12","4","4","2","3","2","3","3","3","4","4","5","2","4","4","4","4","4","4","5","4","1","1","1","1","1","1","2","4","2","1","1","1","0","1","1","0","1","1","0","0","0","1","1","1","4","2","2","2","2","4","4","4","4","4","3","796473831589027842","肖","196","","","","","","","","","","","","","","","","","","","","","","","","","","","","","","","","","","","","","","","","","",""
"470","<p style=""color:rgb(150, 250, 100); font-size: 35px;"">他</p>","e","categorize-html","133","151233","0.0-6.0-1.0-8.0-1.12","4","4","2","3","2","3","3","3","4","4","5","2","4","4","4","4","4","4","5","4","1","1","1","1","1","1","2","4","2","1","1","1","0","1","1","0","1","1","0","0","0","1","1","1","4","2","2","2","2","4","4","4","4","4","3","796473831589027842","肖","196","","","","","","","","","","","","","","","","","","","true","14","4","moral","470","other","他","","","","","","","","","","","","","","","","",""
"null","","null","html-keyboard-response","134","151485","0.0-6.0-1.0-8.0-0.13","4","4","2","3","2","3","3","3","4","4","5","2","4","4","4","4","4","4","5","4","1","1","1","1","1","1","2","4","2","1","1","1","0","1","1","0","1","1","0","0","0","1","1","1","4","2","2","2","2","4","4","4","4","4","3","796473831589027842","肖","196","","","","","","","","","","","","","","","","","","","","","","","","","","","","","","","","","","","","","","","","","",""
"680","<p style=""color:white; font-size: 35px;"">不孝</p>","e","categorize-html","135","152172","0.0-6.0-1.0-8.0-1.13","4","4","2","3","2","3","3","3","4","4","5","2","4","4","4","4","4","4","5","4","1","1","1","1","1","1","2","4","2","1","1","1","0","1","1","0","1","1","0","0","0","1","1","1","4","2","2","2","2","4","4","4","4","4","3","796473831589027842","肖","196","","","","","","","","","","","","","","","","","","","true","14","4","moral","680","negative","不孝","","","","","","","","","","","","","","","","",""
"null","","null","html-keyboard-response","136","152425","0.0-6.0-1.0-8.0-0.14","4","4","2","3","2","3","3","3","4","4","5","2","4","4","4","4","4","4","5","4","1","1","1","1","1","1","2","4","2","1","1","1","0","1","1","0","1","1","0","0","0","1","1","1","4","2","2","2","2","4","4","4","4","4","3","796473831589027842","肖","196","","","","","","","","","","","","","","","","","","","","","","","","","","","","","","","","","","","","","","","","","",""
"585","<p style=""color:rgb(150, 250, 100); font-size: 35px;"">自己</p>","i","categorize-html","137","153015","0.0-6.0-1.0-8.0-1.14","4","4","2","3","2","3","3","3","4","4","5","2","4","4","4","4","4","4","5","4","1","1","1","1","1","1","2","4","2","1","1","1","0","1","1","0","1","1","0","0","0","1","1","1","4","2","2","2","2","4","4","4","4","4","3","796473831589027842","肖","196","","","","","","","","","","","","","","","","","","","true","14","4","moral","585","self","自己","","","","","","","","","","","","","","","","",""
"null","","null","html-keyboard-response","138","153267","0.0-6.0-1.0-8.0-0.15","4","4","2","3","2","3","3","3","4","4","5","2","4","4","4","4","4","4","5","4","1","1","1","1","1","1","2","4","2","1","1","1","0","1","1","0","1","1","0","0","0","1","1","1","4","2","2","2","2","4","4","4","4","4","3","796473831589027842","肖","196","","","","","","","","","","","","","","","","","","","","","","","","","","","","","","","","","","","","","","","","","",""
"587","<p style=""color:white; font-size: 35px;"">君子</p>","e","categorize-html","139","154278","0.0-6.0-1.0-8.0-1.15","4","4","2","3","2","3","3","3","4","4","5","2","4","4","4","4","4","4","5","4","1","1","1","1","1","1","2","4","2","1","1","1","0","1","1","0","1","1","0","0","0","1","1","1","4","2","2","2","2","4","4","4","4","4","3","796473831589027842","肖","196","","","","","","","","","","","","","","","","","","","false","14","4","moral","1190.7727272727273","positive","君子","","","","","","","","","","","","","","","","",""
"null","","null","html-keyboard-response","140","154530","0.0-6.0-1.0-8.0-0.16","4","4","2","3","2","3","3","3","4","4","5","2","4","4","4","4","4","4","5","4","1","1","1","1","1","1","2","4","2","1","1","1","0","1","1","0","1","1","0","0","0","1","1","1","4","2","2","2","2","4","4","4","4","4","3","796473831589027842","肖","196","","","","","","","","","","","","","","","","","","","","","","","","","","","","","","","","","","","","","","","","","",""
"485","<p style=""color:rgb(150, 250, 100); font-size: 35px;"">自己</p>","i","categorize-html","141","155021","0.0-6.0-1.0-8.0-1.16","4","4","2","3","2","3","3","3","4","4","5","2","4","4","4","4","4","4","5","4","1","1","1","1","1","1","2","4","2","1","1","1","0","1","1","0","1","1","0","0","0","1","1","1","4","2","2","2","2","4","4","4","4","4","3","796473831589027842","肖","196","","","","","","","","","","","","","","","","","","","true","14","4","moral","485","self","自己","","","","","","","","","","","","","","","","",""
"null","","null","html-keyboard-response","142","155273","0.0-6.0-1.0-8.0-0.17","4","4","2","3","2","3","3","3","4","4","5","2","4","4","4","4","4","4","5","4","1","1","1","1","1","1","2","4","2","1","1","1","0","1","1","0","1","1","0","0","0","1","1","1","4","2","2","2","2","4","4","4","4","4","3","796473831589027842","肖","196","","","","","","","","","","","","","","","","","","","","","","","","","","","","","","","","","","","","","","","","","",""
"527","<p style=""color:white; font-size: 35px;"">黑心</p>","e","categorize-html","143","155804","0.0-6.0-1.0-8.0-1.17","4","4","2","3","2","3","3","3","4","4","5","2","4","4","4","4","4","4","5","4","1","1","1","1","1","1","2","4","2","1","1","1","0","1","1","0","1","1","0","0","0","1","1","1","4","2","2","2","2","4","4","4","4","4","3","796473831589027842","肖","196","","","","","","","","","","","","","","","","","","","true","14","4","moral","527","negative","黑心","","","","","","","","","","","","","","","","",""
"null","","null","html-keyboard-response","144","156055","0.0-6.0-1.0-8.0-0.18","4","4","2","3","2","3","3","3","4","4","5","2","4","4","4","4","4","4","5","4","1","1","1","1","1","1","2","4","2","1","1","1","0","1","1","0","1","1","0","0","0","1","1","1","4","2","2","2","2","4","4","4","4","4","3","796473831589027842","肖","196","","","","","","","","","","","","","","","","","","","","","","","","","","","","","","","","","","","","","","","","","",""
"585","<p style=""color:rgb(150, 250, 100); font-size: 35px;"">他人</p>","e","categorize-html","145","156648","0.0-6.0-1.0-8.0-1.18","4","4","2","3","2","3","3","3","4","4","5","2","4","4","4","4","4","4","5","4","1","1","1","1","1","1","2","4","2","1","1","1","0","1","1","0","1","1","0","0","0","1","1","1","4","2","2","2","2","4","4","4","4","4","3","796473831589027842","肖","196","","","","","","","","","","","","","","","","","","","true","14","4","moral","585","other","他人","","","","","","","","","","","","","","","","",""
"null","","null","html-keyboard-response","146","156900","0.0-6.0-1.0-8.0-0.19","4","4","2","3","2","3","3","3","4","4","5","2","4","4","4","4","4","4","5","4","1","1","1","1","1","1","2","4","2","1","1","1","0","1","1","0","1","1","0","0","0","1","1","1","4","2","2","2","2","4","4","4","4","4","3","796473831589027842","肖","196","","","","","","","","","","","","","","","","","","","","","","","","","","","","","","","","","","","","","","","","","",""
"477","<p style=""color:white; font-size: 35px;"">高尚</p>","i","categorize-html","147","157385","0.0-6.0-1.0-8.0-1.19","4","4","2","3","2","3","3","3","4","4","5","2","4","4","4","4","4","4","5","4","1","1","1","1","1","1","2","4","2","1","1","1","0","1","1","0","1","1","0","0","0","1","1","1","4","2","2","2","2","4","4","4","4","4","3","796473831589027842","肖","196","","","","","","","","","","","","","","","","","","","true","14","4","moral","477","positive","高尚","","","","","","","","","","","","","","","","",""
"null","","null","html-keyboard-response","148","157637","0.0-6.0-1.0-8.0-0.20","4","4","2","3","2","3","3","3","4","4","5","2","4","4","4","4","4","4","5","4","1","1","1","1","1","1","2","4","2","1","1","1","0","1","1","0","1","1","0","0","0","1","1","1","4","2","2","2","2","4","4","4","4","4","3","796473831589027842","肖","196","","","","","","","","","","","","","","","","","","","","","","","","","","","","","","","","","","","","","","","","","",""
"517","<p style=""color:rgb(150, 250, 100); font-size: 35px;"">他人的</p>","e","categorize-html","149","158161","0.0-6.0-1.0-8.0-1.20","4","4","2","3","2","3","3","3","4","4","5","2","4","4","4","4","4","4","5","4","1","1","1","1","1","1","2","4","2","1","1","1","0","1","1","0","1","1","0","0","0","1","1","1","4","2","2","2","2","4","4","4","4","4","3","796473831589027842","肖","196","","","","","","","","","","","","","","","","","","","true","14","4","moral","517","other","他人的","","","","","","","","","","","","","","","","",""
"null","","null","html-keyboard-response","150","158413","0.0-6.0-1.0-8.0-0.21","4","4","2","3","2","3","3","3","4","4","5","2","4","4","4","4","4","4","5","4","1","1","1","1","1","1","2","4","2","1","1","1","0","1","1","0","1","1","0","0","0","1","1","1","4","2","2","2","2","4","4","4","4","4","3","796473831589027842","肖","196","","","","","","","","","","","","","","","","","","","","","","","","","","","","","","","","","","","","","","","","","",""
"613","<p style=""color:white; font-size: 35px;"">卑鄙</p>","e","categorize-html","151","159033","0.0-6.0-1.0-8.0-1.21","4","4","2","3","2","3","3","3","4","4","5","2","4","4","4","4","4","4","5","4","1","1","1","1","1","1","2","4","2","1","1","1","0","1","1","0","1","1","0","0","0","1","1","1","4","2","2","2","2","4","4","4","4","4","3","796473831589027842","肖","196","","","","","","","","","","","","","","","","","","","true","14","4","moral","613","negative","卑鄙","","","","","","","","","","","","","","","","",""
"null","","null","html-keyboard-response","152","159286","0.0-6.0-1.0-8.0-0.22","4","4","2","3","2","3","3","3","4","4","5","2","4","4","4","4","4","4","5","4","1","1","1","1","1","1","2","4","2","1","1","1","0","1","1","0","1","1","0","0","0","1","1","1","4","2","2","2","2","4","4","4","4","4","3","796473831589027842","肖","196","","","","","","","","","","","","","","","","","","","","","","","","","","","","","","","","","","","","","","","","","",""
"475","<p style=""color:rgb(150, 250, 100); font-size: 35px;"">本人</p>","i","categorize-html","153","159767","0.0-6.0-1.0-8.0-1.22","4","4","2","3","2","3","3","3","4","4","5","2","4","4","4","4","4","4","5","4","1","1","1","1","1","1","2","4","2","1","1","1","0","1","1","0","1","1","0","0","0","1","1","1","4","2","2","2","2","4","4","4","4","4","3","796473831589027842","肖","196","","","","","","","","","","","","","","","","","","","true","14","4","moral","475","self","本人","","","","","","","","","","","","","","","","",""
"null","","null","html-keyboard-response","154","160019","0.0-6.0-1.0-8.0-0.23","4","4","2","3","2","3","3","3","4","4","5","2","4","4","4","4","4","4","5","4","1","1","1","1","1","1","2","4","2","1","1","1","0","1","1","0","1","1","0","0","0","1","1","1","4","2","2","2","2","4","4","4","4","4","3","796473831589027842","肖","196","","","","","","","","","","","","","","","","","","","","","","","","","","","","","","","","","","","","","","","","","",""
"574","<p style=""color:white; font-size: 35px;"">诚信</p>","i","categorize-html","155","160599","0.0-6.0-1.0-8.0-1.23","4","4","2","3","2","3","3","3","4","4","5","2","4","4","4","4","4","4","5","4","1","1","1","1","1","1","2","4","2","1","1","1","0","1","1","0","1","1","0","0","0","1","1","1","4","2","2","2","2","4","4","4","4","4","3","796473831589027842","肖","196","","","","","","","","","","","","","","","","","","","true","14","4","moral","574","positive","诚信","","","","","","","","","","","","","","","","",""
"null","","null","html-keyboard-response","156","160851","0.0-6.0-1.0-8.0-0.24","4","4","2","3","2","3","3","3","4","4","5","2","4","4","4","4","4","4","5","4","1","1","1","1","1","1","2","4","2","1","1","1","0","1","1","0","1","1","0","0","0","1","1","1","4","2","2","2","2","4","4","4","4","4","3","796473831589027842","肖","196","","","","","","","","","","","","","","","","","","","","","","","","","","","","","","","","","","","","","","","","","",""
"527","<p style=""color:rgb(150, 250, 100); font-size: 35px;"">别人的</p>","e","categorize-html","157","161384","0.0-6.0-1.0-8.0-1.24","4","4","2","3","2","3","3","3","4","4","5","2","4","4","4","4","4","4","5","4","1","1","1","1","1","1","2","4","2","1","1","1","0","1","1","0","1","1","0","0","0","1","1","1","4","2","2","2","2","4","4","4","4","4","3","796473831589027842","肖","196","","","","","","","","","","","","","","","","","","","true","14","4","moral","527","other","别人的","","","","","","","","","","","","","","","","",""
"null","","null","html-keyboard-response","158","161636","0.0-6.0-1.0-8.0-0.25","4","4","2","3","2","3","3","3","4","4","5","2","4","4","4","4","4","4","5","4","1","1","1","1","1","1","2","4","2","1","1","1","0","1","1","0","1","1","0","0","0","1","1","1","4","2","2","2","2","4","4","4","4","4","3","796473831589027842","肖","196","","","","","","","","","","","","","","","","","","","","","","","","","","","","","","","","","","","","","","","","","",""
"493","<p style=""color:white; font-size: 35px;"">正直</p>","i","categorize-html","159","162135","0.0-6.0-1.0-8.0-1.25","4","4","2","3","2","3","3","3","4","4","5","2","4","4","4","4","4","4","5","4","1","1","1","1","1","1","2","4","2","1","1","1","0","1","1","0","1","1","0","0","0","1","1","1","4","2","2","2","2","4","4","4","4","4","3","796473831589027842","肖","196","","","","","","","","","","","","","","","","","","","true","14","4","moral","493","positive","正直","","","","","","","","","","","","","","","","",""
"null","","null","html-keyboard-response","160","162387","0.0-6.0-1.0-8.0-0.26","4","4","2","3","2","3","3","3","4","4","5","2","4","4","4","4","4","4","5","4","1","1","1","1","1","1","2","4","2","1","1","1","0","1","1","0","1","1","0","0","0","1","1","1","4","2","2","2","2","4","4","4","4","4","3","796473831589027842","肖","196","","","","","","","","","","","","","","","","","","","","","","","","","","","","","","","","","","","","","","","","","",""
"598","<p style=""color:rgb(150, 250, 100); font-size: 35px;"">我的</p>","i","categorize-html","161","162992","0.0-6.0-1.0-8.0-1.26","4","4","2","3","2","3","3","3","4","4","5","2","4","4","4","4","4","4","5","4","1","1","1","1","1","1","2","4","2","1","1","1","0","1","1","0","1","1","0","0","0","1","1","1","4","2","2","2","2","4","4","4","4","4","3","796473831589027842","肖","196","","","","","","","","","","","","","","","","","","","true","14","4","moral","598","self","我的","","","","","","","","","","","","","","","","",""
"null","","null","html-keyboard-response","162","163244","0.0-6.0-1.0-8.0-0.27","4","4","2","3","2","3","3","3","4","4","5","2","4","4","4","4","4","4","5","4","1","1","1","1","1","1","2","4","2","1","1","1","0","1","1","0","1","1","0","0","0","1","1","1","4","2","2","2","2","4","4","4","4","4","3","796473831589027842","肖","196","","","","","","","","","","","","","","","","","","","","","","","","","","","","","","","","","","","","","","","","","",""
"580","<p style=""color:white; font-size: 35px;"">小人</p>","e","categorize-html","163","163828","0.0-6.0-1.0-8.0-1.27","4","4","2","3","2","3","3","3","4","4","5","2","4","4","4","4","4","4","5","4","1","1","1","1","1","1","2","4","2","1","1","1","0","1","1","0","1","1","0","0","0","1","1","1","4","2","2","2","2","4","4","4","4","4","3","796473831589027842","肖","196","","","","","","","","","","","","","","","","","","","true","14","4","moral","580","negative","小人","","","","","","","","","","","","","","","","",""
"null","","null","html-keyboard-response","164","164080","0.0-6.0-1.0-8.0-0.28","4","4","2","3","2","3","3","3","4","4","5","2","4","4","4","4","4","4","5","4","1","1","1","1","1","1","2","4","2","1","1","1","0","1","1","0","1","1","0","0","0","1","1","1","4","2","2","2","2","4","4","4","4","4","3","796473831589027842","肖","196","","","","","","","","","","","","","","","","","","","","","","","","","","","","","","","","","","","","","","","","","",""
"532","<p style=""color:rgb(150, 250, 100); font-size: 35px;"">自己的</p>","i","categorize-html","165","164616","0.0-6.0-1.0-8.0-1.28","4","4","2","3","2","3","3","3","4","4","5","2","4","4","4","4","4","4","5","4","1","1","1","1","1","1","2","4","2","1","1","1","0","1","1","0","1","1","0","0","0","1","1","1","4","2","2","2","2","4","4","4","4","4","3","796473831589027842","肖","196","","","","","","","","","","","","","","","","","","","true","14","4","moral","532","self","自己的","","","","","","","","","","","","","","","","",""
"null","","null","html-keyboard-response","166","164868","0.0-6.0-1.0-8.0-0.29","4","4","2","3","2","3","3","3","4","4","5","2","4","4","4","4","4","4","5","4","1","1","1","1","1","1","2","4","2","1","1","1","0","1","1","0","1","1","0","0","0","1","1","1","4","2","2","2","2","4","4","4","4","4","3","796473831589027842","肖","196","","","","","","","","","","","","","","","","","","","","","","","","","","","","","","","","","","","","","","","","","",""
"661","<p style=""color:white; font-size: 35px;"">廉正</p>","i","categorize-html","167","165537","0.0-6.0-1.0-8.0-1.29","4","4","2","3","2","3","3","3","4","4","5","2","4","4","4","4","4","4","5","4","1","1","1","1","1","1","2","4","2","1","1","1","0","1","1","0","1","1","0","0","0","1","1","1","4","2","2","2","2","4","4","4","4","4","3","796473831589027842","肖","196","","","","","","","","","","","","","","","","","","","true","14","4","moral","661","positive","廉正","","","","","","","","","","","","","","","","",""
"null","","null","html-keyboard-response","168","165789","0.0-6.0-1.0-8.0-0.30","4","4","2","3","2","3","3","3","4","4","5","2","4","4","4","4","4","4","5","4","1","1","1","1","1","1","2","4","2","1","1","1","0","1","1","0","1","1","0","0","0","1","1","1","4","2","2","2","2","4","4","4","4","4","3","796473831589027842","肖","196","","","","","","","","","","","","","","","","","","","","","","","","","","","","","","","","","","","","","","","","","",""
"993","<p style=""color:rgb(150, 250, 100); font-size: 35px;"">别人</p>","e","categorize-html","169","166788","0.0-6.0-1.0-8.0-1.30","4","4","2","3","2","3","3","3","4","4","5","2","4","4","4","4","4","4","5","4","1","1","1","1","1","1","2","4","2","1","1","1","0","1","1","0","1","1","0","0","0","1","1","1","4","2","2","2","2","4","4","4","4","4","3","796473831589027842","肖","196","","","","","","","","","","","","","","","","","","","true","14","4","moral","993","other","别人","","","","","","","","","","","","","","","","",""
"null","","null","html-keyboard-response","170","167048","0.0-6.0-1.0-8.0-0.31","4","4","2","3","2","3","3","3","4","4","5","2","4","4","4","4","4","4","5","4","1","1","1","1","1","1","2","4","2","1","1","1","0","1","1","0","1","1","0","0","0","1","1","1","4","2","2","2","2","4","4","4","4","4","3","796473831589027842","肖","196","","","","","","","","","","","","","","","","","","","","","","","","","","","","","","","","","","","","","","","","","",""
"642","<p style=""color:white; font-size: 35px;"">不孝</p>","e","categorize-html","171","167696","0.0-6.0-1.0-8.0-1.31","4","4","2","3","2","3","3","3","4","4","5","2","4","4","4","4","4","4","5","4","1","1","1","1","1","1","2","4","2","1","1","1","0","1","1","0","1","1","0","0","0","1","1","1","4","2","2","2","2","4","4","4","4","4","3","796473831589027842","肖","196","","","","","","","","","","","","","","","","","","","true","14","4","moral","642","negative","不孝","","","","","","","","","","","","","","","","",""
"null","","null","html-keyboard-response","172","167948","0.0-6.0-1.0-8.0-0.32","4","4","2","3","2","3","3","3","4","4","5","2","4","4","4","4","4","4","5","4","1","1","1","1","1","1","2","4","2","1","1","1","0","1","1","0","1","1","0","0","0","1","1","1","4","2","2","2","2","4","4","4","4","4","3","796473831589027842","肖","196","","","","","","","","","","","","","","","","","","","","","","","","","","","","","","","","","","","","","","","","","",""
"501","<p style=""color:rgb(150, 250, 100); font-size: 35px;"">他</p>","e","categorize-html","173","168457","0.0-6.0-1.0-8.0-1.32","4","4","2","3","2","3","3","3","4","4","5","2","4","4","4","4","4","4","5","4","1","1","1","1","1","1","2","4","2","1","1","1","0","1","1","0","1","1","0","0","0","1","1","1","4","2","2","2","2","4","4","4","4","4","3","796473831589027842","肖","196","","","","","","","","","","","","","","","","","","","true","14","4","moral","501","other","他","","","","","","","","","","","","","","","","",""
"null","","null","html-keyboard-response","174","168708","0.0-6.0-1.0-8.0-0.33","4","4","2","3","2","3","3","3","4","4","5","2","4","4","4","4","4","4","5","4","1","1","1","1","1","1","2","4","2","1","1","1","0","1","1","0","1","1","0","0","0","1","1","1","4","2","2","2","2","4","4","4","4","4","3","796473831589027842","肖","196","","","","","","","","","","","","","","","","","","","","","","","","","","","","","","","","","","","","","","","","","",""
"551","<p style=""color:white; font-size: 35px;"">不仁</p>","i","categorize-html","175","169719","0.0-6.0-1.0-8.0-1.33","4","4","2","3","2","3","3","3","4","4","5","2","4","4","4","4","4","4","5","4","1","1","1","1","1","1","2","4","2","1","1","1","0","1","1","0","1","1","0","0","0","1","1","1","4","2","2","2","2","4","4","4","4","4","3","796473831589027842","肖","196","","","","","","","","","","","","","","","","","","","false","14","4","moral","1190.7727272727273","negative","不仁","","","","","","","","","","","","","","","","",""
"null","","null","html-keyboard-response","176","169972","0.0-6.0-1.0-8.0-0.34","4","4","2","3","2","3","3","3","4","4","5","2","4","4","4","4","4","4","5","4","1","1","1","1","1","1","2","4","2","1","1","1","0","1","1","0","1","1","0","0","0","1","1","1","4","2","2","2","2","4","4","4","4","4","3","796473831589027842","肖","196","","","","","","","","","","","","","","","","","","","","","","","","","","","","","","","","","","","","","","","","","",""
"465","<p style=""color:rgb(150, 250, 100); font-size: 35px;"">自己的</p>","i","categorize-html","177","170441","0.0-6.0-1.0-8.0-1.34","4","4","2","3","2","3","3","3","4","4","5","2","4","4","4","4","4","4","5","4","1","1","1","1","1","1","2","4","2","1","1","1","0","1","1","0","1","1","0","0","0","1","1","1","4","2","2","2","2","4","4","4","4","4","3","796473831589027842","肖","196","","","","","","","","","","","","","","","","","","","true","14","4","moral","465","self","自己的","","","","","","","","","","","","","","","","",""
"null","","null","html-keyboard-response","178","170693","0.0-6.0-1.0-8.0-0.35","4","4","2","3","2","3","3","3","4","4","5","2","4","4","4","4","4","4","5","4","1","1","1","1","1","1","2","4","2","1","1","1","0","1","1","0","1","1","0","0","0","1","1","1","4","2","2","2","2","4","4","4","4","4","3","796473831589027842","肖","196","","","","","","","","","","","","","","","","","","","","","","","","","","","","","","","","","","","","","","","","","",""
"637","<p style=""color:white; font-size: 35px;"">高尚</p>","i","categorize-html","179","171336","0.0-6.0-1.0-8.0-1.35","4","4","2","3","2","3","3","3","4","4","5","2","4","4","4","4","4","4","5","4","1","1","1","1","1","1","2","4","2","1","1","1","0","1","1","0","1","1","0","0","0","1","1","1","4","2","2","2","2","4","4","4","4","4","3","796473831589027842","肖","196","","","","","","","","","","","","","","","","","","","true","14","4","moral","637","positive","高尚","","","","","","","","","","","","","","","","",""
"null","","null","html-keyboard-response","180","171588","0.0-6.0-1.0-8.0-0.36","4","4","2","3","2","3","3","3","4","4","5","2","4","4","4","4","4","4","5","4","1","1","1","1","1","1","2","4","2","1","1","1","0","1","1","0","1","1","0","0","0","1","1","1","4","2","2","2","2","4","4","4","4","4","3","796473831589027842","肖","196","","","","","","","","","","","","","","","","","","","","","","","","","","","","","","","","","","","","","","","","","",""
"485","<p style=""color:rgb(150, 250, 100); font-size: 35px;"">他人的</p>","e","categorize-html","181","172081","0.0-6.0-1.0-8.0-1.36","4","4","2","3","2","3","3","3","4","4","5","2","4","4","4","4","4","4","5","4","1","1","1","1","1","1","2","4","2","1","1","1","0","1","1","0","1","1","0","0","0","1","1","1","4","2","2","2","2","4","4","4","4","4","3","796473831589027842","肖","196","","","","","","","","","","","","","","","","","","","true","14","4","moral","485","other","他人的","","","","","","","","","","","","","","","","",""
"null","","null","html-keyboard-response","182","172333","0.0-6.0-1.0-8.0-0.37","4","4","2","3","2","3","3","3","4","4","5","2","4","4","4","4","4","4","5","4","1","1","1","1","1","1","2","4","2","1","1","1","0","1","1","0","1","1","0","0","0","1","1","1","4","2","2","2","2","4","4","4","4","4","3","796473831589027842","肖","196","","","","","","","","","","","","","","","","","","","","","","","","","","","","","","","","","","","","","","","","","",""
"379","<p style=""color:white; font-size: 35px;"">黑心</p>","i","categorize-html","183","173071","0.0-6.0-1.0-8.0-1.37","4","4","2","3","2","3","3","3","4","4","5","2","4","4","4","4","4","4","5","4","1","1","1","1","1","1","2","4","2","1","1","1","0","1","1","0","1","1","0","0","0","1","1","1","4","2","2","2","2","4","4","4","4","4","3","796473831589027842","肖","196","","","","","","","","","","","","","","","","","","","false","14","4","moral","1190.7727272727273","negative","黑心","","","","","","","","","","","","","","","","",""
"null","","null","html-keyboard-response","184","173324","0.0-6.0-1.0-8.0-0.38","4","4","2","3","2","3","3","3","4","4","5","2","4","4","4","4","4","4","5","4","1","1","1","1","1","1","2","4","2","1","1","1","0","1","1","0","1","1","0","0","0","1","1","1","4","2","2","2","2","4","4","4","4","4","3","796473831589027842","肖","196","","","","","","","","","","","","","","","","","","","","","","","","","","","","","","","","","","","","","","","","","",""
"623","<p style=""color:rgb(150, 250, 100); font-size: 35px;"">本人</p>","i","categorize-html","185","173953","0.0-6.0-1.0-8.0-1.38","4","4","2","3","2","3","3","3","4","4","5","2","4","4","4","4","4","4","5","4","1","1","1","1","1","1","2","4","2","1","1","1","0","1","1","0","1","1","0","0","0","1","1","1","4","2","2","2","2","4","4","4","4","4","3","796473831589027842","肖","196","","","","","","","","","","","","","","","","","","","true","14","4","moral","623","self","本人","","","","","","","","","","","","","","","","",""
"null","","null","html-keyboard-response","186","174204","0.0-6.0-1.0-8.0-0.39","4","4","2","3","2","3","3","3","4","4","5","2","4","4","4","4","4","4","5","4","1","1","1","1","1","1","2","4","2","1","1","1","0","1","1","0","1","1","0","0","0","1","1","1","4","2","2","2","2","4","4","4","4","4","3","796473831589027842","肖","196","","","","","","","","","","","","","","","","","","","","","","","","","","","","","","","","","","","","","","","","","",""
"492","<p style=""color:white; font-size: 35px;"">诚信</p>","i","categorize-html","187","174702","0.0-6.0-1.0-8.0-1.39","4","4","2","3","2","3","3","3","4","4","5","2","4","4","4","4","4","4","5","4","1","1","1","1","1","1","2","4","2","1","1","1","0","1","1","0","1","1","0","0","0","1","1","1","4","2","2","2","2","4","4","4","4","4","3","796473831589027842","肖","196","","","","","","","","","","","","","","","","","","","true","14","4","moral","492","positive","诚信","","","","","","","","","","","","","","","","",""
"null","","null","html-keyboard-response","188","174954","0.0-6.0-1.0-8.0-0.40","4","4","2","3","2","3","3","3","4","4","5","2","4","4","4","4","4","4","5","4","1","1","1","1","1","1","2","4","2","1","1","1","0","1","1","0","1","1","0","0","0","1","1","1","4","2","2","2","2","4","4","4","4","4","3","796473831589027842","肖","196","","","","","","","","","","","","","","","","","","","","","","","","","","","","","","","","","","","","","","","","","",""
"464","<p style=""color:rgb(150, 250, 100); font-size: 35px;"">他的</p>","e","categorize-html","189","175425","0.0-6.0-1.0-8.0-1.40","4","4","2","3","2","3","3","3","4","4","5","2","4","4","4","4","4","4","5","4","1","1","1","1","1","1","2","4","2","1","1","1","0","1","1","0","1","1","0","0","0","1","1","1","4","2","2","2","2","4","4","4","4","4","3","796473831589027842","肖","196","","","","","","","","","","","","","","","","","","","true","14","4","moral","464","other","他的","","","","","","","","","","","","","","","","",""
"null","","null","html-keyboard-response","190","175676","0.0-6.0-1.0-8.0-0.41","4","4","2","3","2","3","3","3","4","4","5","2","4","4","4","4","4","4","5","4","1","1","1","1","1","1","2","4","2","1","1","1","0","1","1","0","1","1","0","0","0","1","1","1","4","2","2","2","2","4","4","4","4","4","3","796473831589027842","肖","196","","","","","","","","","","","","","","","","","","","","","","","","","","","","","","","","","","","","","","","","","",""
"610","<p style=""color:white; font-size: 35px;"">不仁</p>","e","categorize-html","191","176292","0.0-6.0-1.0-8.0-1.41","4","4","2","3","2","3","3","3","4","4","5","2","4","4","4","4","4","4","5","4","1","1","1","1","1","1","2","4","2","1","1","1","0","1","1","0","1","1","0","0","0","1","1","1","4","2","2","2","2","4","4","4","4","4","3","796473831589027842","肖","196","","","","","","","","","","","","","","","","","","","true","14","4","moral","610","negative","不仁","","","","","","","","","","","","","","","","",""
"null","","null","html-keyboard-response","192","176543","0.0-6.0-1.0-8.0-0.42","4","4","2","3","2","3","3","3","4","4","5","2","4","4","4","4","4","4","5","4","1","1","1","1","1","1","2","4","2","1","1","1","0","1","1","0","1","1","0","0","0","1","1","1","4","2","2","2","2","4","4","4","4","4","3","796473831589027842","肖","196","","","","","","","","","","","","","","","","","","","","","","","","","","","","","","","","","","","","","","","","","",""
"429","<p style=""color:rgb(150, 250, 100); font-size: 35px;"">本人的</p>","e","categorize-html","193","177334","0.0-6.0-1.0-8.0-1.42","4","4","2","3","2","3","3","3","4","4","5","2","4","4","4","4","4","4","5","4","1","1","1","1","1","1","2","4","2","1","1","1","0","1","1","0","1","1","0","0","0","1","1","1","4","2","2","2","2","4","4","4","4","4","3","796473831589027842","肖","196","","","","","","","","","","","","","","","","","","","false","14","4","moral","1190.7727272727273","self","本人的","","","","","","","","","","","","","","","","",""
