"rt","stimulus","response","trial_type","trial_index","time_elapsed","internal_node_id","ses_1","ses_2","ses_3","ses_4","ses_5","ses_6","ses_7","ses_8","ses_9","ses_10","coreself_1","coreself_2","coreself_3","coreself_4","coreself_5","coreself_6","coreself_7","coreself_8","coreself_9","coreself_10","SGPS_1","SGPS_2","SGPS_3","SGPS_4","SGPS_5","SGPS_6","SGPS_7","SGPS_8","SGPS_9","NPI1","NPI2","NPI3","NPI4","NPI5","NPI6","NPI7","NPI8","NPI9","NPI10","NPI11","NPI12","NPI13","NPI14","NPI15","hsns_1","hsns_2","hsns_3","hsns_4","hsns_5","trap1","hsns_6","hsns_7","hsns_8","hsns_9","hsns_10","subj_idx","friend_name","ParticipantID","value","success","user_agent","responses","item_order","radio_event_ids","radio_event_times","key_event_times","mouse_event_times","straightlining","zigzagging","honeypot","timeout","failed_images","failed_audio","failed_video","version_attrib","version_target","correct","IAT","screen_id","task_id","RT","condition","word","varname","summary","version_attrib2","version_target2","time_stamp","view_history","response_type","key_press","avg_frame_time","center_x","center_y","correct_response","identity","Image","question_order","correct_answer","trap1_item"
"1350","
   <p><div style = ""color: white;font-size:25px;"">您好，欢迎参加本次实验。</div> </p>
   <p><div style = ""color: white;font-size:25px;"">为充分保障您的权利，请确保您已经知晓并同意《参与实验同意书》以及《数据公开知情同意书》。</div></p>
   <p><div style = ""color: white;font-size:25px;"">如果您未见过上述内容，请咨询实验员。</div></p>
   <p><div style = ""color: white;font-size:25px;"">如果您选择继续实验，则表示您已经清楚两份知情同意书的内容并同意。</div></p>
   <p><div style = ""color: pink;font-size:30px;"">请确保您记得day0的实验编号，您将在本次实验输入该编号，若您忘记，请咨询实验员后作答。</div></p>
   <p><div style = ""color: lightblue;font-size:25px;"">请您尽可能认真地作答，我们将依据您在各问卷和按键任务中的作答质量发放报酬。</div></p>
   <p> <div style = ""color: green;font-size:25px;""><按空格键至下页></div> </p>
   "," ","html-keyboard-response","0","1355","0.0-0.0","4","4","4","3","4","4","3","4","3","4","4","2","1","5","3","4","3","3","5","4","2","2","2","2","2","2","1","1","1","1","0","1","1","0","0","1","1","0","1","1","0","1","0","1","4","3","3","2","4","5","4","4","5","4","2","787463338580910082","周","440","","","","","","","","","","","","","","","","","","","","","","","","","","","","","","","","","","","","","","","","","",""
"","","","call-function","1","1357","0.0-1.0-0.0","4","4","4","3","4","4","3","4","3","4","4","2","1","5","3","4","3","3","5","4","2","2","2","2","2","2","1","1","1","1","0","1","1","0","0","1","1","0","1","1","0","1","0","1","4","3","3","2","4","5","4","4","5","4","2","787463338580910082","周","440","","","","","","","","","","","","","","","","","","","","","","","","","","","","","","","","","","","","","","","","","",""
"15787","","{""friend_name"":""周"",""ParticipantID"":""440""}","survey-html-form","2","17147","0.0-1.0-1.0","4","4","4","3","4","4","3","4","3","4","4","2","1","5","3","4","3","3","5","4","2","2","2","2","2","2","1","1","1","1","0","1","1","0","0","1","1","0","1","1","0","1","0","1","4","3","3","2","4","5","4","4","5","4","2","787463338580910082","周","440","","","","","","","","","","","","","","","","","","","","","","","","","","","","","","","","","","","","","","","","","",""
"","","","fullscreen","3","18698","0.0-2.0","4","4","4","3","4","4","3","4","3","4","4","2","1","5","3","4","3","3","5","4","2","2","2","2","2","2","1","1","1","1","0","1","1","0","0","1","1","0","1","1","0","1","0","1","4","3","3","2","4","5","4","4","5","4","2","787463338580910082","周","440","","true","{}","","","","","","","","","","","","","","","","","","","","","","","","","","","","","","","","","","","","","","",""
"39230.80000000447","","{""Q01"":""4"",""Q02"":""4"",""Q03"":""4"",""Q04"":""3"",""Q05"":""4"",""Q06"":""4"",""Q07"":""3"",""Q08"":""4"",""Q09"":""3"",""Q10"":""4""}","survey-template","4","57934","0.0-3.0","4","4","4","3","4","4","3","4","3","4","4","2","1","5","3","4","3","3","5","4","2","2","2","2","2","2","1","1","1","1","0","1","1","0","0","1","1","0","1","1","0","1","0","1","4","3","3","2","4","5","4","4","5","4","2","787463338580910082","周","440","","","","{""Q01"":""4"",""Q02"":""4"",""Q03"":""4"",""Q04"":""3"",""Q05"":""4"",""Q06"":""4"",""Q07"":""3"",""Q08"":""4"",""Q09"":""3"",""Q10"":""4""}","[0,1,2,3,4,5,6,7,8,9]","[""Q01"",""Q02"",""Q03"",""Q04"",""Q05"",""Q06"",""Q07"",""Q08"",""Q09"",""Q10""]","[19660,20899.60000000149,23379.70000000298,24779.70000000298,25795.40000000596,26835.60000000149,28459.40000000596,30283.40000000596,31219.40000000596,32075.20000000298]","[]","[19660,20899.60000000149,22843.60000000149,23379.70000000298,24779.70000000298,25795.40000000596,26835.60000000149,28459.40000000596,30283.40000000596,30875.40000000596,31219.40000000596,31723.40000000596,32075.20000000298,39227.40000000596]","0.4","0.5555555555555556","0","","","","","","","","","","","","","","","","","","","","","","","","","","","","","",""
"25457.5","","{""Q01"":""4"",""Q02"":""2"",""Q03"":""1"",""Q04"":""5"",""Q05"":""3"",""Q06"":""4"",""Q07"":""3"",""Q08"":""3"",""Q09"":""5"",""Q10"":""4""}","survey-template","5","83414","0.0-4.0","4","4","4","3","4","4","3","4","3","4","4","2","1","5","3","4","3","3","5","4","2","2","2","2","2","2","1","1","1","1","0","1","1","0","0","1","1","0","1","1","0","1","0","1","4","3","3","2","4","5","4","4","5","4","2","787463338580910082","周","440","","","","{""Q01"":""4"",""Q02"":""2"",""Q03"":""1"",""Q04"":""5"",""Q05"":""3"",""Q06"":""4"",""Q07"":""3"",""Q08"":""3"",""Q09"":""5"",""Q10"":""4""}","[0,1,2,3,4,5,6,7,8,9]","[""Q01"",""Q02"",""Q03"",""Q04"",""Q05"",""Q06"",""Q07"",""Q08"",""Q09"",""Q10""]","[2854.60000000149,5198.29999999702,6438.20000000298,7886.39999999851,10366.39999999851,11478.29999999702,14574.10000000149,16198.10000000149,18966.10000000149,19846.10000000149]","[]","[2854.60000000149,5198.29999999702,6438.20000000298,7886.39999999851,10366.39999999851,11478.29999999702,14574.10000000149,16198.10000000149,17046.29999999702,18301.89999999851,18966.10000000149,19846.10000000149,25454.10000000149]","0.3","0.3333333333333333","0","","","","","","","","","","","","","","","","","","","","","","","","","","","","","",""
"","","","preload","6","83457","0.0-5.0","4","4","4","3","4","4","3","4","3","4","4","2","1","5","3","4","3","3","5","4","2","2","2","2","2","2","1","1","1","1","0","1","1","0","0","1","1","0","1","1","0","1","0","1","4","3","3","2","4","5","4","4","5","4","2","787463338580910082","周","440","","true","","","","","","","","","","","false","[]","[]","[]","","","","","","","","","","","","","","","","","","","","","","","","","",""
"14438","
    <h3>词语分类任务</h3>
    <p>在接下来的任务中，你需要对一系列词语进行分类。</p>
    <p>请先熟悉这些词语，这有利于你完成接下来的任务。</p>
    <table align=""center"" border=1 cellpadding=3 cellspacing=0>
    <tr> <th>类别</th> <th>词语</th> </tr>
    <tr> <td>&emsp;积极&emsp;</td> <td>&emsp;能干、全能、全才、高效、精干、天才&emsp;</td> </tr>
    <tr> <td>&emsp;消极&emsp;</td> <td>&emsp;无能、低能、废物、拙笨、愚钝、蠢笨&emsp;</td> </tr>
    <tr> <td>&emsp;自我&emsp;</td> <td>&emsp;我、我的、自己、自己的、本人、本人的&emsp;</td> </tr>
    <tr> <td>&emsp;他人&emsp;</td> <td>&emsp;他、他的、别人、别人的、他人、他人的&emsp;</td> </tr>
    </table><br/>","0","html-button-response","7","97898","0.0-6.0-0.0-0.0","4","4","4","3","4","4","3","4","3","4","4","2","1","5","3","4","3","3","5","4","2","2","2","2","2","2","1","1","1","1","0","1","1","0","0","1","1","0","1","1","0","1","0","1","4","3","3","2","4","5","4","4","5","4","2","787463338580910082","周","440","","","","","","","","","","","","","","","","","2","2","","","","","","","","","","","","","","","","","","","","","","","",""
"3788","
    <div class=""tag-bottom"">
    <p> —— 任务1：对“他人”词和“自我”词分类 ——<p/>
    不同词语会出现在屏幕中央，类别标签将始终显示在屏幕上方<p/>   
    <span style=""color:#FFD866""><b>请根据上方标签的提示，尽可能正确并且快速地做出按键反应</b></span><p/>
    当按键错误时屏幕中会出现<span style=""color:red""> X </span>，需要按另一个键纠正才能继续<br/><p/>
    请把双手食指分别放在键盘的“E”键和“I”键上<p/>
    按<空格键>开始
    </p></div>"," ","html-keyboard-response","8","101697","0.0-6.0-0.0-1.0","4","4","4","3","4","4","3","4","3","4","4","2","1","5","3","4","3","3","5","4","2","2","2","2","2","2","1","1","1","1","0","1","1","0","0","1","1","0","1","1","0","1","0","1","4","3","3","2","4","5","4","4","5","4","2","787463338580910082","周","440","","","","","","","","","","","","","","","","","","","","","","","","","","","","","","","","","","","","","","","","","",""
"null","","null","html-keyboard-response","9","101955","0.0-6.0-0.0-2.0-0.0","4","4","4","3","4","4","3","4","3","4","4","2","1","5","3","4","3","3","5","4","2","2","2","2","2","2","1","1","1","1","0","1","1","0","0","1","1","0","1","1","0","1","0","1","4","3","3","2","4","5","4","4","5","4","2","787463338580910082","周","440","","","","","","","","","","","","","","","","","","","","","","","","","","","","","","","","","","","","","","","","","",""
"689","<p style=""color:rgb(150, 250, 100); font-size: 35px;"">他人的</p>","e","categorize-html","10","102653","0.0-6.0-0.0-2.0-1.0","4","4","4","3","4","4","3","4","3","4","4","2","1","5","3","4","3","3","5","4","2","2","2","2","2","2","1","1","1","1","0","1","1","0","0","1","1","0","1","1","0","1","0","1","4","3","3","2","4","5","4","4","5","4","2","787463338580910082","周","440","","","","","","","","","","","","","","","","","","","true","1","1","ability","689","other","他人的","","","","","","","","","","","","","","","","",""
"null","","null","html-keyboard-response","11","102907","0.0-6.0-0.0-2.0-0.1","4","4","4","3","4","4","3","4","3","4","4","2","1","5","3","4","3","3","5","4","2","2","2","2","2","2","1","1","1","1","0","1","1","0","0","1","1","0","1","1","0","1","0","1","4","3","3","2","4","5","4","4","5","4","2","787463338580910082","周","440","","","","","","","","","","","","","","","","","","","","","","","","","","","","","","","","","","","","","","","","","",""
"444","<p style=""color:rgb(150, 250, 100); font-size: 35px;"">他的</p>","e","categorize-html","12","103356","0.0-6.0-0.0-2.0-1.1","4","4","4","3","4","4","3","4","3","4","4","2","1","5","3","4","3","3","5","4","2","2","2","2","2","2","1","1","1","1","0","1","1","0","0","1","1","0","1","1","0","1","0","1","4","3","3","2","4","5","4","4","5","4","2","787463338580910082","周","440","","","","","","","","","","","","","","","","","","","true","1","1","ability","444","other","他的","","","","","","","","","","","","","","","","",""
"null","","null","html-keyboard-response","13","103611","0.0-6.0-0.0-2.0-0.2","4","4","4","3","4","4","3","4","3","4","4","2","1","5","3","4","3","3","5","4","2","2","2","2","2","2","1","1","1","1","0","1","1","0","0","1","1","0","1","1","0","1","0","1","4","3","3","2","4","5","4","4","5","4","2","787463338580910082","周","440","","","","","","","","","","","","","","","","","","","","","","","","","","","","","","","","","","","","","","","","","",""
"444","<p style=""color:rgb(150, 250, 100); font-size: 35px;"">他</p>","e","categorize-html","14","104060","0.0-6.0-0.0-2.0-1.2","4","4","4","3","4","4","3","4","3","4","4","2","1","5","3","4","3","3","5","4","2","2","2","2","2","2","1","1","1","1","0","1","1","0","0","1","1","0","1","1","0","1","0","1","4","3","3","2","4","5","4","4","5","4","2","787463338580910082","周","440","","","","","","","","","","","","","","","","","","","true","1","1","ability","444","other","他","","","","","","","","","","","","","","","","",""
"null","","null","html-keyboard-response","15","104315","0.0-6.0-0.0-2.0-0.3","4","4","4","3","4","4","3","4","3","4","4","2","1","5","3","4","3","3","5","4","2","2","2","2","2","2","1","1","1","1","0","1","1","0","0","1","1","0","1","1","0","1","0","1","4","3","3","2","4","5","4","4","5","4","2","787463338580910082","周","440","","","","","","","","","","","","","","","","","","","","","","","","","","","","","","","","","","","","","","","","","",""
"396","<p style=""color:rgb(150, 250, 100); font-size: 35px;"">别人</p>","e","categorize-html","16","104716","0.0-6.0-0.0-2.0-1.3","4","4","4","3","4","4","3","4","3","4","4","2","1","5","3","4","3","3","5","4","2","2","2","2","2","2","1","1","1","1","0","1","1","0","0","1","1","0","1","1","0","1","0","1","4","3","3","2","4","5","4","4","5","4","2","787463338580910082","周","440","","","","","","","","","","","","","","","","","","","true","1","1","ability","396","other","别人","","","","","","","","","","","","","","","","",""
"null","","null","html-keyboard-response","17","104971","0.0-6.0-0.0-2.0-0.4","4","4","4","3","4","4","3","4","3","4","4","2","1","5","3","4","3","3","5","4","2","2","2","2","2","2","1","1","1","1","0","1","1","0","0","1","1","0","1","1","0","1","0","1","4","3","3","2","4","5","4","4","5","4","2","787463338580910082","周","440","","","","","","","","","","","","","","","","","","","","","","","","","","","","","","","","","","","","","","","","","",""
"596","<p style=""color:rgb(150, 250, 100); font-size: 35px;"">自己的</p>","i","categorize-html","18","105572","0.0-6.0-0.0-2.0-1.4","4","4","4","3","4","4","3","4","3","4","4","2","1","5","3","4","3","3","5","4","2","2","2","2","2","2","1","1","1","1","0","1","1","0","0","1","1","0","1","1","0","1","0","1","4","3","3","2","4","5","4","4","5","4","2","787463338580910082","周","440","","","","","","","","","","","","","","","","","","","true","1","1","ability","596","self","自己的","","","","","","","","","","","","","","","","",""
"null","","null","html-keyboard-response","19","105827","0.0-6.0-0.0-2.0-0.5","4","4","4","3","4","4","3","4","3","4","4","2","1","5","3","4","3","3","5","4","2","2","2","2","2","2","1","1","1","1","0","1","1","0","0","1","1","0","1","1","0","1","0","1","4","3","3","2","4","5","4","4","5","4","2","787463338580910082","周","440","","","","","","","","","","","","","","","","","","","","","","","","","","","","","","","","","","","","","","","","","",""
"468","<p style=""color:rgb(150, 250, 100); font-size: 35px;"">我</p>","i","categorize-html","20","106300","0.0-6.0-0.0-2.0-1.5","4","4","4","3","4","4","3","4","3","4","4","2","1","5","3","4","3","3","5","4","2","2","2","2","2","2","1","1","1","1","0","1","1","0","0","1","1","0","1","1","0","1","0","1","4","3","3","2","4","5","4","4","5","4","2","787463338580910082","周","440","","","","","","","","","","","","","","","","","","","true","1","1","ability","468","self","我","","","","","","","","","","","","","","","","",""
"null","","null","html-keyboard-response","21","106555","0.0-6.0-0.0-2.0-0.6","4","4","4","3","4","4","3","4","3","4","4","2","1","5","3","4","3","3","5","4","2","2","2","2","2","2","1","1","1","1","0","1","1","0","0","1","1","0","1","1","0","1","0","1","4","3","3","2","4","5","4","4","5","4","2","787463338580910082","周","440","","","","","","","","","","","","","","","","","","","","","","","","","","","","","","","","","","","","","","","","","",""
"836","<p style=""color:rgb(150, 250, 100); font-size: 35px;"">别人的</p>","e","categorize-html","22","107396","0.0-6.0-0.0-2.0-1.6","4","4","4","3","4","4","3","4","3","4","4","2","1","5","3","4","3","3","5","4","2","2","2","2","2","2","1","1","1","1","0","1","1","0","0","1","1","0","1","1","0","1","0","1","4","3","3","2","4","5","4","4","5","4","2","787463338580910082","周","440","","","","","","","","","","","","","","","","","","","true","1","1","ability","836","other","别人的","","","","","","","","","","","","","","","","",""
"null","","null","html-keyboard-response","23","107651","0.0-6.0-0.0-2.0-0.7","4","4","4","3","4","4","3","4","3","4","4","2","1","5","3","4","3","3","5","4","2","2","2","2","2","2","1","1","1","1","0","1","1","0","0","1","1","0","1","1","0","1","0","1","4","3","3","2","4","5","4","4","5","4","2","787463338580910082","周","440","","","","","","","","","","","","","","","","","","","","","","","","","","","","","","","","","","","","","","","","","",""
"428","<p style=""color:rgb(150, 250, 100); font-size: 35px;"">他人</p>","e","categorize-html","24","108085","0.0-6.0-0.0-2.0-1.7","4","4","4","3","4","4","3","4","3","4","4","2","1","5","3","4","3","3","5","4","2","2","2","2","2","2","1","1","1","1","0","1","1","0","0","1","1","0","1","1","0","1","0","1","4","3","3","2","4","5","4","4","5","4","2","787463338580910082","周","440","","","","","","","","","","","","","","","","","","","true","1","1","ability","428","other","他人","","","","","","","","","","","","","","","","",""
"null","","null","html-keyboard-response","25","108339","0.0-6.0-0.0-2.0-0.8","4","4","4","3","4","4","3","4","3","4","4","2","1","5","3","4","3","3","5","4","2","2","2","2","2","2","1","1","1","1","0","1","1","0","0","1","1","0","1","1","0","1","0","1","4","3","3","2","4","5","4","4","5","4","2","787463338580910082","周","440","","","","","","","","","","","","","","","","","","","","","","","","","","","","","","","","","","","","","","","","","",""
"652","<p style=""color:rgb(150, 250, 100); font-size: 35px;"">本人</p>","i","categorize-html","26","108996","0.0-6.0-0.0-2.0-1.8","4","4","4","3","4","4","3","4","3","4","4","2","1","5","3","4","3","3","5","4","2","2","2","2","2","2","1","1","1","1","0","1","1","0","0","1","1","0","1","1","0","1","0","1","4","3","3","2","4","5","4","4","5","4","2","787463338580910082","周","440","","","","","","","","","","","","","","","","","","","true","1","1","ability","652","self","本人","","","","","","","","","","","","","","","","",""
"null","","null","html-keyboard-response","27","109251","0.0-6.0-0.0-2.0-0.9","4","4","4","3","4","4","3","4","3","4","4","2","1","5","3","4","3","3","5","4","2","2","2","2","2","2","1","1","1","1","0","1","1","0","0","1","1","0","1","1","0","1","0","1","4","3","3","2","4","5","4","4","5","4","2","787463338580910082","周","440","","","","","","","","","","","","","","","","","","","","","","","","","","","","","","","","","","","","","","","","","",""
"524","<p style=""color:rgb(150, 250, 100); font-size: 35px;"">自己</p>","i","categorize-html","28","109780","0.0-6.0-0.0-2.0-1.9","4","4","4","3","4","4","3","4","3","4","4","2","1","5","3","4","3","3","5","4","2","2","2","2","2","2","1","1","1","1","0","1","1","0","0","1","1","0","1","1","0","1","0","1","4","3","3","2","4","5","4","4","5","4","2","787463338580910082","周","440","","","","","","","","","","","","","","","","","","","true","1","1","ability","524","self","自己","","","","","","","","","","","","","","","","",""
"null","","null","html-keyboard-response","29","110035","0.0-6.0-0.0-2.0-0.10","4","4","4","3","4","4","3","4","3","4","4","2","1","5","3","4","3","3","5","4","2","2","2","2","2","2","1","1","1","1","0","1","1","0","0","1","1","0","1","1","0","1","0","1","4","3","3","2","4","5","4","4","5","4","2","787463338580910082","周","440","","","","","","","","","","","","","","","","","","","","","","","","","","","","","","","","","","","","","","","","","",""
"460","<p style=""color:rgb(150, 250, 100); font-size: 35px;"">本人的</p>","i","categorize-html","30","110500","0.0-6.0-0.0-2.0-1.10","4","4","4","3","4","4","3","4","3","4","4","2","1","5","3","4","3","3","5","4","2","2","2","2","2","2","1","1","1","1","0","1","1","0","0","1","1","0","1","1","0","1","0","1","4","3","3","2","4","5","4","4","5","4","2","787463338580910082","周","440","","","","","","","","","","","","","","","","","","","true","1","1","ability","460","self","本人的","","","","","","","","","","","","","","","","",""
"null","","null","html-keyboard-response","31","110755","0.0-6.0-0.0-2.0-0.11","4","4","4","3","4","4","3","4","3","4","4","2","1","5","3","4","3","3","5","4","2","2","2","2","2","2","1","1","1","1","0","1","1","0","0","1","1","0","1","1","0","1","0","1","4","3","3","2","4","5","4","4","5","4","2","787463338580910082","周","440","","","","","","","","","","","","","","","","","","","","","","","","","","","","","","","","","","","","","","","","","",""
"507","<p style=""color:rgb(150, 250, 100); font-size: 35px;"">我的</p>","i","categorize-html","32","111268","0.0-6.0-0.0-2.0-1.11","4","4","4","3","4","4","3","4","3","4","4","2","1","5","3","4","3","3","5","4","2","2","2","2","2","2","1","1","1","1","0","1","1","0","0","1","1","0","1","1","0","1","0","1","4","3","3","2","4","5","4","4","5","4","2","787463338580910082","周","440","","","","","","","","","","","","","","","","","","","true","1","1","ability","507","self","我的","","","","","","","","","","","","","","","","",""
"714","
    <div class=""tag-bottom""><p>
    —— 任务2：对“消极”词和“积极”词分类 ——<p/>   
    <span style=""color:#78DCE8""><b>注意上方，类别标签和需要分类的词语都已经改变</b></span><p/>
    <span style=""color:#FFD866""><b>请根据上方标签的提示，尽可能正确并且快速地做出按键反应</b></span><p/>
    当按键错误时屏幕中会出现<span style=""color:red""> X </span>，需要按另一个键纠正才能继续<br/><p/>
    请把双手食指分别放在键盘的“E”键和“I”键上<p/>
    按<空格键>开始
    </p></div>"," ","html-keyboard-response","33","111984","0.0-6.0-0.0-3.0","4","4","4","3","4","4","3","4","3","4","4","2","1","5","3","4","3","3","5","4","2","2","2","2","2","2","1","1","1","1","0","1","1","0","0","1","1","0","1","1","0","1","0","1","4","3","3","2","4","5","4","4","5","4","2","787463338580910082","周","440","","","","","","","","","","","","","","","","","","","","","","","","","","","","","","","","","","","","","","","","","",""
"null","","null","html-keyboard-response","34","112243","0.0-6.0-0.0-4.0-0.0","4","4","4","3","4","4","3","4","3","4","4","2","1","5","3","4","3","3","5","4","2","2","2","2","2","2","1","1","1","1","0","1","1","0","0","1","1","0","1","1","0","1","0","1","4","3","3","2","4","5","4","4","5","4","2","787463338580910082","周","440","","","","","","","","","","","","","","","","","","","","","","","","","","","","","","","","","","","","","","","","","",""
"626","<p style=""color:white; font-size: 35px;"">废物</p>","e","categorize-html","35","112875","0.0-6.0-0.0-4.0-1.0","4","4","4","3","4","4","3","4","3","4","4","2","1","5","3","4","3","3","5","4","2","2","2","2","2","2","1","1","1","1","0","1","1","0","0","1","1","0","1","1","0","1","0","1","4","3","3","2","4","5","4","4","5","4","2","787463338580910082","周","440","","","","","","","","","","","","","","","","","","","true","2","2","ability","626","negative","废物","","","","","","","","","","","","","","","","",""
"null","","null","html-keyboard-response","36","113131","0.0-6.0-0.0-4.0-0.1","4","4","4","3","4","4","3","4","3","4","4","2","1","5","3","4","3","3","5","4","2","2","2","2","2","2","1","1","1","1","0","1","1","0","0","1","1","0","1","1","0","1","0","1","4","3","3","2","4","5","4","4","5","4","2","787463338580910082","周","440","","","","","","","","","","","","","","","","","","","","","","","","","","","","","","","","","","","","","","","","","",""
"667","<p style=""color:white; font-size: 35px;"">全才</p>","i","categorize-html","37","113804","0.0-6.0-0.0-4.0-1.1","4","4","4","3","4","4","3","4","3","4","4","2","1","5","3","4","3","3","5","4","2","2","2","2","2","2","1","1","1","1","0","1","1","0","0","1","1","0","1","1","0","1","0","1","4","3","3","2","4","5","4","4","5","4","2","787463338580910082","周","440","","","","","","","","","","","","","","","","","","","true","2","2","ability","667","positive","全才","","","","","","","","","","","","","","","","",""
"null","","null","html-keyboard-response","38","114059","0.0-6.0-0.0-4.0-0.2","4","4","4","3","4","4","3","4","3","4","4","2","1","5","3","4","3","3","5","4","2","2","2","2","2","2","1","1","1","1","0","1","1","0","0","1","1","0","1","1","0","1","0","1","4","3","3","2","4","5","4","4","5","4","2","787463338580910082","周","440","","","","","","","","","","","","","","","","","","","","","","","","","","","","","","","","","","","","","","","","","",""
"548","<p style=""color:white; font-size: 35px;"">低能</p>","e","categorize-html","39","114611","0.0-6.0-0.0-4.0-1.2","4","4","4","3","4","4","3","4","3","4","4","2","1","5","3","4","3","3","5","4","2","2","2","2","2","2","1","1","1","1","0","1","1","0","0","1","1","0","1","1","0","1","0","1","4","3","3","2","4","5","4","4","5","4","2","787463338580910082","周","440","","","","","","","","","","","","","","","","","","","true","2","2","ability","548","negative","低能","","","","","","","","","","","","","","","","",""
"null","","null","html-keyboard-response","40","114867","0.0-6.0-0.0-4.0-0.3","4","4","4","3","4","4","3","4","3","4","4","2","1","5","3","4","3","3","5","4","2","2","2","2","2","2","1","1","1","1","0","1","1","0","0","1","1","0","1","1","0","1","0","1","4","3","3","2","4","5","4","4","5","4","2","787463338580910082","周","440","","","","","","","","","","","","","","","","","","","","","","","","","","","","","","","","","","","","","","","","","",""
"516","<p style=""color:white; font-size: 35px;"">蠢笨</p>","e","categorize-html","41","115388","0.0-6.0-0.0-4.0-1.3","4","4","4","3","4","4","3","4","3","4","4","2","1","5","3","4","3","3","5","4","2","2","2","2","2","2","1","1","1","1","0","1","1","0","0","1","1","0","1","1","0","1","0","1","4","3","3","2","4","5","4","4","5","4","2","787463338580910082","周","440","","","","","","","","","","","","","","","","","","","true","2","2","ability","516","negative","蠢笨","","","","","","","","","","","","","","","","",""
"null","","null","html-keyboard-response","42","115643","0.0-6.0-0.0-4.0-0.4","4","4","4","3","4","4","3","4","3","4","4","2","1","5","3","4","3","3","5","4","2","2","2","2","2","2","1","1","1","1","0","1","1","0","0","1","1","0","1","1","0","1","0","1","4","3","3","2","4","5","4","4","5","4","2","787463338580910082","周","440","","","","","","","","","","","","","","","","","","","","","","","","","","","","","","","","","","","","","","","","","",""
"859","<p style=""color:white; font-size: 35px;"">精干</p>","i","categorize-html","43","116507","0.0-6.0-0.0-4.0-1.4","4","4","4","3","4","4","3","4","3","4","4","2","1","5","3","4","3","3","5","4","2","2","2","2","2","2","1","1","1","1","0","1","1","0","0","1","1","0","1","1","0","1","0","1","4","3","3","2","4","5","4","4","5","4","2","787463338580910082","周","440","","","","","","","","","","","","","","","","","","","true","2","2","ability","859","positive","精干","","","","","","","","","","","","","","","","",""
"null","","null","html-keyboard-response","44","116763","0.0-6.0-0.0-4.0-0.5","4","4","4","3","4","4","3","4","3","4","4","2","1","5","3","4","3","3","5","4","2","2","2","2","2","2","1","1","1","1","0","1","1","0","0","1","1","0","1","1","0","1","0","1","4","3","3","2","4","5","4","4","5","4","2","787463338580910082","周","440","","","","","","","","","","","","","","","","","","","","","","","","","","","","","","","","","","","","","","","","","",""
"507","<p style=""color:white; font-size: 35px;"">能干</p>","i","categorize-html","45","117275","0.0-6.0-0.0-4.0-1.5","4","4","4","3","4","4","3","4","3","4","4","2","1","5","3","4","3","3","5","4","2","2","2","2","2","2","1","1","1","1","0","1","1","0","0","1","1","0","1","1","0","1","0","1","4","3","3","2","4","5","4","4","5","4","2","787463338580910082","周","440","","","","","","","","","","","","","","","","","","","true","2","2","ability","507","positive","能干","","","","","","","","","","","","","","","","",""
"null","","null","html-keyboard-response","46","117528","0.0-6.0-0.0-4.0-0.6","4","4","4","3","4","4","3","4","3","4","4","2","1","5","3","4","3","3","5","4","2","2","2","2","2","2","1","1","1","1","0","1","1","0","0","1","1","0","1","1","0","1","0","1","4","3","3","2","4","5","4","4","5","4","2","787463338580910082","周","440","","","","","","","","","","","","","","","","","","","","","","","","","","","","","","","","","","","","","","","","","",""
"792","<p style=""color:white; font-size: 35px;"">拙笨</p>","e","categorize-html","47","118324","0.0-6.0-0.0-4.0-1.6","4","4","4","3","4","4","3","4","3","4","4","2","1","5","3","4","3","3","5","4","2","2","2","2","2","2","1","1","1","1","0","1","1","0","0","1","1","0","1","1","0","1","0","1","4","3","3","2","4","5","4","4","5","4","2","787463338580910082","周","440","","","","","","","","","","","","","","","","","","","true","2","2","ability","792","negative","拙笨","","","","","","","","","","","","","","","","",""
"null","","null","html-keyboard-response","48","118579","0.0-6.0-0.0-4.0-0.7","4","4","4","3","4","4","3","4","3","4","4","2","1","5","3","4","3","3","5","4","2","2","2","2","2","2","1","1","1","1","0","1","1","0","0","1","1","0","1","1","0","1","0","1","4","3","3","2","4","5","4","4","5","4","2","787463338580910082","周","440","","","","","","","","","","","","","","","","","","","","","","","","","","","","","","","","","","","","","","","","","",""
"611","<p style=""color:white; font-size: 35px;"">全能</p>","i","categorize-html","49","119196","0.0-6.0-0.0-4.0-1.7","4","4","4","3","4","4","3","4","3","4","4","2","1","5","3","4","3","3","5","4","2","2","2","2","2","2","1","1","1","1","0","1","1","0","0","1","1","0","1","1","0","1","0","1","4","3","3","2","4","5","4","4","5","4","2","787463338580910082","周","440","","","","","","","","","","","","","","","","","","","true","2","2","ability","611","positive","全能","","","","","","","","","","","","","","","","",""
"null","","null","html-keyboard-response","50","119453","0.0-6.0-0.0-4.0-0.8","4","4","4","3","4","4","3","4","3","4","4","2","1","5","3","4","3","3","5","4","2","2","2","2","2","2","1","1","1","1","0","1","1","0","0","1","1","0","1","1","0","1","0","1","4","3","3","2","4","5","4","4","5","4","2","787463338580910082","周","440","","","","","","","","","","","","","","","","","","","","","","","","","","","","","","","","","","","","","","","","","",""
"611","<p style=""color:white; font-size: 35px;"">天才</p>","i","categorize-html","51","120069","0.0-6.0-0.0-4.0-1.8","4","4","4","3","4","4","3","4","3","4","4","2","1","5","3","4","3","3","5","4","2","2","2","2","2","2","1","1","1","1","0","1","1","0","0","1","1","0","1","1","0","1","0","1","4","3","3","2","4","5","4","4","5","4","2","787463338580910082","周","440","","","","","","","","","","","","","","","","","","","true","2","2","ability","611","positive","天才","","","","","","","","","","","","","","","","",""
"null","","null","html-keyboard-response","52","120325","0.0-6.0-0.0-4.0-0.9","4","4","4","3","4","4","3","4","3","4","4","2","1","5","3","4","3","3","5","4","2","2","2","2","2","2","1","1","1","1","0","1","1","0","0","1","1","0","1","1","0","1","0","1","4","3","3","2","4","5","4","4","5","4","2","787463338580910082","周","440","","","","","","","","","","","","","","","","","","","","","","","","","","","","","","","","","","","","","","","","","",""
"611","<p style=""color:white; font-size: 35px;"">无能</p>","e","categorize-html","53","120941","0.0-6.0-0.0-4.0-1.9","4","4","4","3","4","4","3","4","3","4","4","2","1","5","3","4","3","3","5","4","2","2","2","2","2","2","1","1","1","1","0","1","1","0","0","1","1","0","1","1","0","1","0","1","4","3","3","2","4","5","4","4","5","4","2","787463338580910082","周","440","","","","","","","","","","","","","","","","","","","true","2","2","ability","611","negative","无能","","","","","","","","","","","","","","","","",""
"null","","null","html-keyboard-response","54","121197","0.0-6.0-0.0-4.0-0.10","4","4","4","3","4","4","3","4","3","4","4","2","1","5","3","4","3","3","5","4","2","2","2","2","2","2","1","1","1","1","0","1","1","0","0","1","1","0","1","1","0","1","0","1","4","3","3","2","4","5","4","4","5","4","2","787463338580910082","周","440","","","","","","","","","","","","","","","","","","","","","","","","","","","","","","","","","","","","","","","","","",""
"763","<p style=""color:white; font-size: 35px;"">高效</p>","i","categorize-html","55","121965","0.0-6.0-0.0-4.0-1.10","4","4","4","3","4","4","3","4","3","4","4","2","1","5","3","4","3","3","5","4","2","2","2","2","2","2","1","1","1","1","0","1","1","0","0","1","1","0","1","1","0","1","0","1","4","3","3","2","4","5","4","4","5","4","2","787463338580910082","周","440","","","","","","","","","","","","","","","","","","","true","2","2","ability","763","positive","高效","","","","","","","","","","","","","","","","",""
"null","","null","html-keyboard-response","56","122221","0.0-6.0-0.0-4.0-0.11","4","4","4","3","4","4","3","4","3","4","4","2","1","5","3","4","3","3","5","4","2","2","2","2","2","2","1","1","1","1","0","1","1","0","0","1","1","0","1","1","0","1","0","1","4","3","3","2","4","5","4","4","5","4","2","787463338580910082","周","440","","","","","","","","","","","","","","","","","","","","","","","","","","","","","","","","","","","","","","","","","",""
"611","<p style=""color:white; font-size: 35px;"">愚钝</p>","e","categorize-html","57","122837","0.0-6.0-0.0-4.0-1.11","4","4","4","3","4","4","3","4","3","4","4","2","1","5","3","4","3","3","5","4","2","2","2","2","2","2","1","1","1","1","0","1","1","0","0","1","1","0","1","1","0","1","0","1","4","3","3","2","4","5","4","4","5","4","2","787463338580910082","周","440","","","","","","","","","","","","","","","","","","","true","2","2","ability","611","negative","愚钝","","","","","","","","","","","","","","","","",""
"722","
    <div class=""tag-bottom""><p>
    —— 任务3：对“他人/消极”词和“自我/积极”词分类 ——<p/>
    <span style=""color:#78DCE8""><b>注意上方，之前的四类词语将混合在一起交替呈现</b></span><p/>
    <span style=""color:#FFD866""><b>请根据上方标签的提示，尽可能正确并且快速地做出按键反应</b></span><p/>
    当按键错误时屏幕中会出现<span style=""color:red""> X </span>，需要按另一个键纠正才能继续<br/><p/>
    请把双手食指分别放在键盘的“E”键和“I”键上<p/>
    按<空格键>开始
    </p></div>"," ","html-keyboard-response","58","123561","0.0-6.0-0.0-5.0","4","4","4","3","4","4","3","4","3","4","4","2","1","5","3","4","3","3","5","4","2","2","2","2","2","2","1","1","1","1","0","1","1","0","0","1","1","0","1","1","0","1","0","1","4","3","3","2","4","5","4","4","5","4","2","787463338580910082","周","440","","","","","","","","","","","","","","","","","","","","","","","","","","","","","","","","","","","","","","","","","",""
"null","","null","html-keyboard-response","59","123821","0.0-6.0-0.0-6.0-0.0","4","4","4","3","4","4","3","4","3","4","4","2","1","5","3","4","3","3","5","4","2","2","2","2","2","2","1","1","1","1","0","1","1","0","0","1","1","0","1","1","0","1","0","1","4","3","3","2","4","5","4","4","5","4","2","787463338580910082","周","440","","","","","","","","","","","","","","","","","","","","","","","","","","","","","","","","","","","","","","","","","",""
"922","<p style=""color:rgb(150, 250, 100); font-size: 35px;"">自己的</p>","i","categorize-html","60","124749","0.0-6.0-0.0-6.0-1.0","4","4","4","3","4","4","3","4","3","4","4","2","1","5","3","4","3","3","5","4","2","2","2","2","2","2","1","1","1","1","0","1","1","0","0","1","1","0","1","1","0","1","0","1","4","3","3","2","4","5","4","4","5","4","2","787463338580910082","周","440","","","","","","","","","","","","","","","","","","","true","3","3","ability","922","self","自己的","","","","","","","","","","","","","","","","",""
"null","","null","html-keyboard-response","61","125004","0.0-6.0-0.0-6.0-0.1","4","4","4","3","4","4","3","4","3","4","4","2","1","5","3","4","3","3","5","4","2","2","2","2","2","2","1","1","1","1","0","1","1","0","0","1","1","0","1","1","0","1","0","1","4","3","3","2","4","5","4","4","5","4","2","787463338580910082","周","440","","","","","","","","","","","","","","","","","","","","","","","","","","","","","","","","","","","","","","","","","",""
"724","<p style=""color:white; font-size: 35px;"">蠢笨</p>","e","categorize-html","62","125733","0.0-6.0-0.0-6.0-1.1","4","4","4","3","4","4","3","4","3","4","4","2","1","5","3","4","3","3","5","4","2","2","2","2","2","2","1","1","1","1","0","1","1","0","0","1","1","0","1","1","0","1","0","1","4","3","3","2","4","5","4","4","5","4","2","787463338580910082","周","440","","","","","","","","","","","","","","","","","","","true","3","3","ability","724","negative","蠢笨","","","","","","","","","","","","","","","","",""
"null","","null","html-keyboard-response","63","125988","0.0-6.0-0.0-6.0-0.2","4","4","4","3","4","4","3","4","3","4","4","2","1","5","3","4","3","3","5","4","2","2","2","2","2","2","1","1","1","1","0","1","1","0","0","1","1","0","1","1","0","1","0","1","4","3","3","2","4","5","4","4","5","4","2","787463338580910082","周","440","","","","","","","","","","","","","","","","","","","","","","","","","","","","","","","","","","","","","","","","","",""
"628","<p style=""color:rgb(150, 250, 100); font-size: 35px;"">他的</p>","e","categorize-html","64","126621","0.0-6.0-0.0-6.0-1.2","4","4","4","3","4","4","3","4","3","4","4","2","1","5","3","4","3","3","5","4","2","2","2","2","2","2","1","1","1","1","0","1","1","0","0","1","1","0","1","1","0","1","0","1","4","3","3","2","4","5","4","4","5","4","2","787463338580910082","周","440","","","","","","","","","","","","","","","","","","","true","3","3","ability","628","other","他的","","","","","","","","","","","","","","","","",""
"null","","null","html-keyboard-response","65","126876","0.0-6.0-0.0-6.0-0.3","4","4","4","3","4","4","3","4","3","4","4","2","1","5","3","4","3","3","5","4","2","2","2","2","2","2","1","1","1","1","0","1","1","0","0","1","1","0","1","1","0","1","0","1","4","3","3","2","4","5","4","4","5","4","2","787463338580910082","周","440","","","","","","","","","","","","","","","","","","","","","","","","","","","","","","","","","","","","","","","","","",""
"628","<p style=""color:white; font-size: 35px;"">全才</p>","e","categorize-html","66","128017","0.0-6.0-0.0-6.0-1.3","4","4","4","3","4","4","3","4","3","4","4","2","1","5","3","4","3","3","5","4","2","2","2","2","2","2","1","1","1","1","0","1","1","0","0","1","1","0","1","1","0","1","0","1","4","3","3","2","4","5","4","4","5","4","2","787463338580910082","周","440","","","","","","","","","","","","","","","","","","","false","3","3","ability","1331.1363636363635","positive","全才","","","","","","","","","","","","","","","","",""
"null","","null","html-keyboard-response","67","128276","0.0-6.0-0.0-6.0-0.4","4","4","4","3","4","4","3","4","3","4","4","2","1","5","3","4","3","3","5","4","2","2","2","2","2","2","1","1","1","1","0","1","1","0","0","1","1","0","1","1","0","1","0","1","4","3","3","2","4","5","4","4","5","4","2","787463338580910082","周","440","","","","","","","","","","","","","","","","","","","","","","","","","","","","","","","","","","","","","","","","","",""
"668","<p style=""color:rgb(150, 250, 100); font-size: 35px;"">本人的</p>","i","categorize-html","68","128949","0.0-6.0-0.0-6.0-1.4","4","4","4","3","4","4","3","4","3","4","4","2","1","5","3","4","3","3","5","4","2","2","2","2","2","2","1","1","1","1","0","1","1","0","0","1","1","0","1","1","0","1","0","1","4","3","3","2","4","5","4","4","5","4","2","787463338580910082","周","440","","","","","","","","","","","","","","","","","","","true","3","3","ability","668","self","本人的","","","","","","","","","","","","","","","","",""
"null","","null","html-keyboard-response","69","129204","0.0-6.0-0.0-6.0-0.5","4","4","4","3","4","4","3","4","3","4","4","2","1","5","3","4","3","3","5","4","2","2","2","2","2","2","1","1","1","1","0","1","1","0","0","1","1","0","1","1","0","1","0","1","4","3","3","2","4","5","4","4","5","4","2","787463338580910082","周","440","","","","","","","","","","","","","","","","","","","","","","","","","","","","","","","","","","","","","","","","","",""
"707","<p style=""color:white; font-size: 35px;"">低能</p>","e","categorize-html","70","129917","0.0-6.0-0.0-6.0-1.5","4","4","4","3","4","4","3","4","3","4","4","2","1","5","3","4","3","3","5","4","2","2","2","2","2","2","1","1","1","1","0","1","1","0","0","1","1","0","1","1","0","1","0","1","4","3","3","2","4","5","4","4","5","4","2","787463338580910082","周","440","","","","","","","","","","","","","","","","","","","true","3","3","ability","707","negative","低能","","","","","","","","","","","","","","","","",""
"null","","null","html-keyboard-response","71","130172","0.0-6.0-0.0-6.0-0.6","4","4","4","3","4","4","3","4","3","4","4","2","1","5","3","4","3","3","5","4","2","2","2","2","2","2","1","1","1","1","0","1","1","0","0","1","1","0","1","1","0","1","0","1","4","3","3","2","4","5","4","4","5","4","2","787463338580910082","周","440","","","","","","","","","","","","","","","","","","","","","","","","","","","","","","","","","","","","","","","","","",""
"571","<p style=""color:rgb(150, 250, 100); font-size: 35px;"">他</p>","e","categorize-html","72","130749","0.0-6.0-0.0-6.0-1.6","4","4","4","3","4","4","3","4","3","4","4","2","1","5","3","4","3","3","5","4","2","2","2","2","2","2","1","1","1","1","0","1","1","0","0","1","1","0","1","1","0","1","0","1","4","3","3","2","4","5","4","4","5","4","2","787463338580910082","周","440","","","","","","","","","","","","","","","","","","","true","3","3","ability","571","other","他","","","","","","","","","","","","","","","","",""
"null","","null","html-keyboard-response","73","131004","0.0-6.0-0.0-6.0-0.7","4","4","4","3","4","4","3","4","3","4","4","2","1","5","3","4","3","3","5","4","2","2","2","2","2","2","1","1","1","1","0","1","1","0","0","1","1","0","1","1","0","1","0","1","4","3","3","2","4","5","4","4","5","4","2","787463338580910082","周","440","","","","","","","","","","","","","","","","","","","","","","","","","","","","","","","","","","","","","","","","","",""
"931","<p style=""color:white; font-size: 35px;"">全能</p>","i","categorize-html","74","131941","0.0-6.0-0.0-6.0-1.7","4","4","4","3","4","4","3","4","3","4","4","2","1","5","3","4","3","3","5","4","2","2","2","2","2","2","1","1","1","1","0","1","1","0","0","1","1","0","1","1","0","1","0","1","4","3","3","2","4","5","4","4","5","4","2","787463338580910082","周","440","","","","","","","","","","","","","","","","","","","true","3","3","ability","931","positive","全能","","","","","","","","","","","","","","","","",""
"null","","null","html-keyboard-response","75","132196","0.0-6.0-0.0-6.0-0.8","4","4","4","3","4","4","3","4","3","4","4","2","1","5","3","4","3","3","5","4","2","2","2","2","2","2","1","1","1","1","0","1","1","0","0","1","1","0","1","1","0","1","0","1","4","3","3","2","4","5","4","4","5","4","2","787463338580910082","周","440","","","","","","","","","","","","","","","","","","","","","","","","","","","","","","","","","","","","","","","","","",""
"603","<p style=""color:rgb(150, 250, 100); font-size: 35px;"">他人</p>","e","categorize-html","76","132805","0.0-6.0-0.0-6.0-1.8","4","4","4","3","4","4","3","4","3","4","4","2","1","5","3","4","3","3","5","4","2","2","2","2","2","2","1","1","1","1","0","1","1","0","0","1","1","0","1","1","0","1","0","1","4","3","3","2","4","5","4","4","5","4","2","787463338580910082","周","440","","","","","","","","","","","","","","","","","","","true","3","3","ability","603","other","他人","","","","","","","","","","","","","","","","",""
"null","","null","html-keyboard-response","77","133060","0.0-6.0-0.0-6.0-0.9","4","4","4","3","4","4","3","4","3","4","4","2","1","5","3","4","3","3","5","4","2","2","2","2","2","2","1","1","1","1","0","1","1","0","0","1","1","0","1","1","0","1","0","1","4","3","3","2","4","5","4","4","5","4","2","787463338580910082","周","440","","","","","","","","","","","","","","","","","","","","","","","","","","","","","","","","","","","","","","","","","",""
"723","<p style=""color:white; font-size: 35px;"">高效</p>","i","categorize-html","78","133789","0.0-6.0-0.0-6.0-1.9","4","4","4","3","4","4","3","4","3","4","4","2","1","5","3","4","3","3","5","4","2","2","2","2","2","2","1","1","1","1","0","1","1","0","0","1","1","0","1","1","0","1","0","1","4","3","3","2","4","5","4","4","5","4","2","787463338580910082","周","440","","","","","","","","","","","","","","","","","","","true","3","3","ability","723","positive","高效","","","","","","","","","","","","","","","","",""
"null","","null","html-keyboard-response","79","134044","0.0-6.0-0.0-6.0-0.10","4","4","4","3","4","4","3","4","3","4","4","2","1","5","3","4","3","3","5","4","2","2","2","2","2","2","1","1","1","1","0","1","1","0","0","1","1","0","1","1","0","1","0","1","4","3","3","2","4","5","4","4","5","4","2","787463338580910082","周","440","","","","","","","","","","","","","","","","","","","","","","","","","","","","","","","","","","","","","","","","","",""
"891","<p style=""color:rgb(150, 250, 100); font-size: 35px;"">自己</p>","i","categorize-html","80","134941","0.0-6.0-0.0-6.0-1.10","4","4","4","3","4","4","3","4","3","4","4","2","1","5","3","4","3","3","5","4","2","2","2","2","2","2","1","1","1","1","0","1","1","0","0","1","1","0","1","1","0","1","0","1","4","3","3","2","4","5","4","4","5","4","2","787463338580910082","周","440","","","","","","","","","","","","","","","","","","","true","3","3","ability","891","self","自己","","","","","","","","","","","","","","","","",""
"null","","null","html-keyboard-response","81","135196","0.0-6.0-0.0-6.0-0.11","4","4","4","3","4","4","3","4","3","4","4","2","1","5","3","4","3","3","5","4","2","2","2","2","2","2","1","1","1","1","0","1","1","0","0","1","1","0","1","1","0","1","0","1","4","3","3","2","4","5","4","4","5","4","2","787463338580910082","周","440","","","","","","","","","","","","","","","","","","","","","","","","","","","","","","","","","","","","","","","","","",""
"691","<p style=""color:white; font-size: 35px;"">愚钝</p>","e","categorize-html","82","135893","0.0-6.0-0.0-6.0-1.11","4","4","4","3","4","4","3","4","3","4","4","2","1","5","3","4","3","3","5","4","2","2","2","2","2","2","1","1","1","1","0","1","1","0","0","1","1","0","1","1","0","1","0","1","4","3","3","2","4","5","4","4","5","4","2","787463338580910082","周","440","","","","","","","","","","","","","","","","","","","true","3","3","ability","691","negative","愚钝","","","","","","","","","","","","","","","","",""
"null","","null","html-keyboard-response","83","136148","0.0-6.0-0.0-6.0-0.12","4","4","4","3","4","4","3","4","3","4","4","2","1","5","3","4","3","3","5","4","2","2","2","2","2","2","1","1","1","1","0","1","1","0","0","1","1","0","1","1","0","1","0","1","4","3","3","2","4","5","4","4","5","4","2","787463338580910082","周","440","","","","","","","","","","","","","","","","","","","","","","","","","","","","","","","","","","","","","","","","","",""
"779","<p style=""color:rgb(150, 250, 100); font-size: 35px;"">别人的</p>","e","categorize-html","84","136932","0.0-6.0-0.0-6.0-1.12","4","4","4","3","4","4","3","4","3","4","4","2","1","5","3","4","3","3","5","4","2","2","2","2","2","2","1","1","1","1","0","1","1","0","0","1","1","0","1","1","0","1","0","1","4","3","3","2","4","5","4","4","5","4","2","787463338580910082","周","440","","","","","","","","","","","","","","","","","","","true","3","3","ability","779","other","别人的","","","","","","","","","","","","","","","","",""
"null","","null","html-keyboard-response","85","137188","0.0-6.0-0.0-6.0-0.13","4","4","4","3","4","4","3","4","3","4","4","2","1","5","3","4","3","3","5","4","2","2","2","2","2","2","1","1","1","1","0","1","1","0","0","1","1","0","1","1","0","1","0","1","4","3","3","2","4","5","4","4","5","4","2","787463338580910082","周","440","","","","","","","","","","","","","","","","","","","","","","","","","","","","","","","","","","","","","","","","","",""
"1067","<p style=""color:white; font-size: 35px;"">天才</p>","i","categorize-html","86","138261","0.0-6.0-0.0-6.0-1.13","4","4","4","3","4","4","3","4","3","4","4","2","1","5","3","4","3","3","5","4","2","2","2","2","2","2","1","1","1","1","0","1","1","0","0","1","1","0","1","1","0","1","0","1","4","3","3","2","4","5","4","4","5","4","2","787463338580910082","周","440","","","","","","","","","","","","","","","","","","","true","3","3","ability","1067","positive","天才","","","","","","","","","","","","","","","","",""
"null","","null","html-keyboard-response","87","138516","0.0-6.0-0.0-6.0-0.14","4","4","4","3","4","4","3","4","3","4","4","2","1","5","3","4","3","3","5","4","2","2","2","2","2","2","1","1","1","1","0","1","1","0","0","1","1","0","1","1","0","1","0","1","4","3","3","2","4","5","4","4","5","4","2","787463338580910082","周","440","","","","","","","","","","","","","","","","","","","","","","","","","","","","","","","","","","","","","","","","","",""
"572","<p style=""color:rgb(150, 250, 100); font-size: 35px;"">我的</p>","i","categorize-html","88","139093","0.0-6.0-0.0-6.0-1.14","4","4","4","3","4","4","3","4","3","4","4","2","1","5","3","4","3","3","5","4","2","2","2","2","2","2","1","1","1","1","0","1","1","0","0","1","1","0","1","1","0","1","0","1","4","3","3","2","4","5","4","4","5","4","2","787463338580910082","周","440","","","","","","","","","","","","","","","","","","","true","3","3","ability","572","self","我的","","","","","","","","","","","","","","","","",""
"null","","null","html-keyboard-response","89","139348","0.0-6.0-0.0-6.0-0.15","4","4","4","3","4","4","3","4","3","4","4","2","1","5","3","4","3","3","5","4","2","2","2","2","2","2","1","1","1","1","0","1","1","0","0","1","1","0","1","1","0","1","0","1","4","3","3","2","4","5","4","4","5","4","2","787463338580910082","周","440","","","","","","","","","","","","","","","","","","","","","","","","","","","","","","","","","","","","","","","","","",""
"579","<p style=""color:white; font-size: 35px;"">拙笨</p>","e","categorize-html","90","139933","0.0-6.0-0.0-6.0-1.15","4","4","4","3","4","4","3","4","3","4","4","2","1","5","3","4","3","3","5","4","2","2","2","2","2","2","1","1","1","1","0","1","1","0","0","1","1","0","1","1","0","1","0","1","4","3","3","2","4","5","4","4","5","4","2","787463338580910082","周","440","","","","","","","","","","","","","","","","","","","true","3","3","ability","579","negative","拙笨","","","","","","","","","","","","","","","","",""
"null","","null","html-keyboard-response","91","140188","0.0-6.0-0.0-6.0-0.16","4","4","4","3","4","4","3","4","3","4","4","2","1","5","3","4","3","3","5","4","2","2","2","2","2","2","1","1","1","1","0","1","1","0","0","1","1","0","1","1","0","1","0","1","4","3","3","2","4","5","4","4","5","4","2","787463338580910082","周","440","","","","","","","","","","","","","","","","","","","","","","","","","","","","","","","","","","","","","","","","","",""
"667","<p style=""color:rgb(150, 250, 100); font-size: 35px;"">他人的</p>","e","categorize-html","92","140860","0.0-6.0-0.0-6.0-1.16","4","4","4","3","4","4","3","4","3","4","4","2","1","5","3","4","3","3","5","4","2","2","2","2","2","2","1","1","1","1","0","1","1","0","0","1","1","0","1","1","0","1","0","1","4","3","3","2","4","5","4","4","5","4","2","787463338580910082","周","440","","","","","","","","","","","","","","","","","","","true","3","3","ability","667","other","他人的","","","","","","","","","","","","","","","","",""
"null","","null","html-keyboard-response","93","141117","0.0-6.0-0.0-6.0-0.17","4","4","4","3","4","4","3","4","3","4","4","2","1","5","3","4","3","3","5","4","2","2","2","2","2","2","1","1","1","1","0","1","1","0","0","1","1","0","1","1","0","1","0","1","4","3","3","2","4","5","4","4","5","4","2","787463338580910082","周","440","","","","","","","","","","","","","","","","","","","","","","","","","","","","","","","","","","","","","","","","","",""
"939","<p style=""color:white; font-size: 35px;"">无能</p>","e","categorize-html","94","142061","0.0-6.0-0.0-6.0-1.17","4","4","4","3","4","4","3","4","3","4","4","2","1","5","3","4","3","3","5","4","2","2","2","2","2","2","1","1","1","1","0","1","1","0","0","1","1","0","1","1","0","1","0","1","4","3","3","2","4","5","4","4","5","4","2","787463338580910082","周","440","","","","","","","","","","","","","","","","","","","true","3","3","ability","939","negative","无能","","","","","","","","","","","","","","","","",""
"null","","null","html-keyboard-response","95","142317","0.0-6.0-0.0-6.0-0.18","4","4","4","3","4","4","3","4","3","4","4","2","1","5","3","4","3","3","5","4","2","2","2","2","2","2","1","1","1","1","0","1","1","0","0","1","1","0","1","1","0","1","0","1","4","3","3","2","4","5","4","4","5","4","2","787463338580910082","周","440","","","","","","","","","","","","","","","","","","","","","","","","","","","","","","","","","","","","","","","","","",""
"547","<p style=""color:rgb(150, 250, 100); font-size: 35px;"">我</p>","i","categorize-html","96","142869","0.0-6.0-0.0-6.0-1.18","4","4","4","3","4","4","3","4","3","4","4","2","1","5","3","4","3","3","5","4","2","2","2","2","2","2","1","1","1","1","0","1","1","0","0","1","1","0","1","1","0","1","0","1","4","3","3","2","4","5","4","4","5","4","2","787463338580910082","周","440","","","","","","","","","","","","","","","","","","","true","3","3","ability","547","self","我","","","","","","","","","","","","","","","","",""
"null","","null","html-keyboard-response","97","143125","0.0-6.0-0.0-6.0-0.19","4","4","4","3","4","4","3","4","3","4","4","2","1","5","3","4","3","3","5","4","2","2","2","2","2","2","1","1","1","1","0","1","1","0","0","1","1","0","1","1","0","1","0","1","4","3","3","2","4","5","4","4","5","4","2","787463338580910082","周","440","","","","","","","","","","","","","","","","","","","","","","","","","","","","","","","","","","","","","","","","","",""
"691","<p style=""color:white; font-size: 35px;"">精干</p>","i","categorize-html","98","143820","0.0-6.0-0.0-6.0-1.19","4","4","4","3","4","4","3","4","3","4","4","2","1","5","3","4","3","3","5","4","2","2","2","2","2","2","1","1","1","1","0","1","1","0","0","1","1","0","1","1","0","1","0","1","4","3","3","2","4","5","4","4","5","4","2","787463338580910082","周","440","","","","","","","","","","","","","","","","","","","true","3","3","ability","691","positive","精干","","","","","","","","","","","","","","","","",""
"null","","null","html-keyboard-response","99","144077","0.0-6.0-0.0-6.0-0.20","4","4","4","3","4","4","3","4","3","4","4","2","1","5","3","4","3","3","5","4","2","2","2","2","2","2","1","1","1","1","0","1","1","0","0","1","1","0","1","1","0","1","0","1","4","3","3","2","4","5","4","4","5","4","2","787463338580910082","周","440","","","","","","","","","","","","","","","","","","","","","","","","","","","","","","","","","","","","","","","","","",""
"547","<p style=""color:rgb(150, 250, 100); font-size: 35px;"">本人</p>","i","categorize-html","100","144626","0.0-6.0-0.0-6.0-1.20","4","4","4","3","4","4","3","4","3","4","4","2","1","5","3","4","3","3","5","4","2","2","2","2","2","2","1","1","1","1","0","1","1","0","0","1","1","0","1","1","0","1","0","1","4","3","3","2","4","5","4","4","5","4","2","787463338580910082","周","440","","","","","","","","","","","","","","","","","","","true","3","3","ability","547","self","本人","","","","","","","","","","","","","","","","",""
"null","","null","html-keyboard-response","101","144885","0.0-6.0-0.0-6.0-0.21","4","4","4","3","4","4","3","4","3","4","4","2","1","5","3","4","3","3","5","4","2","2","2","2","2","2","1","1","1","1","0","1","1","0","0","1","1","0","1","1","0","1","0","1","4","3","3","2","4","5","4","4","5","4","2","787463338580910082","周","440","","","","","","","","","","","","","","","","","","","","","","","","","","","","","","","","","","","","","","","","","",""
"931","<p style=""color:white; font-size: 35px;"">能干</p>","i","categorize-html","102","145820","0.0-6.0-0.0-6.0-1.21","4","4","4","3","4","4","3","4","3","4","4","2","1","5","3","4","3","3","5","4","2","2","2","2","2","2","1","1","1","1","0","1","1","0","0","1","1","0","1","1","0","1","0","1","4","3","3","2","4","5","4","4","5","4","2","787463338580910082","周","440","","","","","","","","","","","","","","","","","","","true","3","3","ability","931","positive","能干","","","","","","","","","","","","","","","","",""
"null","","null","html-keyboard-response","103","146077","0.0-6.0-0.0-6.0-0.22","4","4","4","3","4","4","3","4","3","4","4","2","1","5","3","4","3","3","5","4","2","2","2","2","2","2","1","1","1","1","0","1","1","0","0","1","1","0","1","1","0","1","0","1","4","3","3","2","4","5","4","4","5","4","2","787463338580910082","周","440","","","","","","","","","","","","","","","","","","","","","","","","","","","","","","","","","","","","","","","","","",""
"843","<p style=""color:rgb(150, 250, 100); font-size: 35px;"">别人</p>","i","categorize-html","104","147409","0.0-6.0-0.0-6.0-1.22","4","4","4","3","4","4","3","4","3","4","4","2","1","5","3","4","3","3","5","4","2","2","2","2","2","2","1","1","1","1","0","1","1","0","0","1","1","0","1","1","0","1","0","1","4","3","3","2","4","5","4","4","5","4","2","787463338580910082","周","440","","","","","","","","","","","","","","","","","","","false","3","3","ability","1331.1363636363635","other","别人","","","","","","","","","","","","","","","","",""
"null","","null","html-keyboard-response","105","147669","0.0-6.0-0.0-6.0-0.23","4","4","4","3","4","4","3","4","3","4","4","2","1","5","3","4","3","3","5","4","2","2","2","2","2","2","1","1","1","1","0","1","1","0","0","1","1","0","1","1","0","1","0","1","4","3","3","2","4","5","4","4","5","4","2","787463338580910082","周","440","","","","","","","","","","","","","","","","","","","","","","","","","","","","","","","","","","","","","","","","","",""
"707","<p style=""color:white; font-size: 35px;"">废物</p>","e","categorize-html","106","148380","0.0-6.0-0.0-6.0-1.23","4","4","4","3","4","4","3","4","3","4","4","2","1","5","3","4","3","3","5","4","2","2","2","2","2","2","1","1","1","1","0","1","1","0","0","1","1","0","1","1","0","1","0","1","4","3","3","2","4","5","4","4","5","4","2","787463338580910082","周","440","","","","","","","","","","","","","","","","","","","true","3","3","ability","707","negative","废物","","","","","","","","","","","","","","","","",""
"738","
    <div class=""tag-bottom""><p>
    —— 任务4：对“他人/消极”词和“自我/积极”词分类 ——<p/>
    <span style=""color:#78DCE8""><b>与刚才的任务完全相同，请再次对这四类词语分类</b></span><p/>
    <span style=""color:#FFD866""><b>请根据上方标签的提示，尽可能正确并且快速地做出按键反应</b></span><p/>
    当按键错误时屏幕中会出现<span style=""color:red""> X </span>，需要按另一个键纠正才能继续<br/><p/>
    请把双手食指分别放在键盘的“E”键和“I”键上<p/>
    按<空格键>开始
    </p></div>"," ","html-keyboard-response","107","149122","0.0-6.0-0.0-7.0","4","4","4","3","4","4","3","4","3","4","4","2","1","5","3","4","3","3","5","4","2","2","2","2","2","2","1","1","1","1","0","1","1","0","0","1","1","0","1","1","0","1","0","1","4","3","3","2","4","5","4","4","5","4","2","787463338580910082","周","440","","","","","","","","","","","","","","","","","","","","","","","","","","","","","","","","","","","","","","","","","",""
"null","","null","html-keyboard-response","108","149381","0.0-6.0-0.0-8.0-0.0","4","4","4","3","4","4","3","4","3","4","4","2","1","5","3","4","3","3","5","4","2","2","2","2","2","2","1","1","1","1","0","1","1","0","0","1","1","0","1","1","0","1","0","1","4","3","3","2","4","5","4","4","5","4","2","787463338580910082","周","440","","","","","","","","","","","","","","","","","","","","","","","","","","","","","","","","","","","","","","","","","",""
"609","<p style=""color:rgb(150, 250, 100); font-size: 35px;"">我</p>","i","categorize-html","109","149996","0.0-6.0-0.0-8.0-1.0","4","4","4","3","4","4","3","4","3","4","4","2","1","5","3","4","3","3","5","4","2","2","2","2","2","2","1","1","1","1","0","1","1","0","0","1","1","0","1","1","0","1","0","1","4","3","3","2","4","5","4","4","5","4","2","787463338580910082","周","440","","","","","","","","","","","","","","","","","","","true","4","4","ability","609","self","我","","","","","","","","","","","","","","","","",""
"null","","null","html-keyboard-response","110","150252","0.0-6.0-0.0-8.0-0.1","4","4","4","3","4","4","3","4","3","4","4","2","1","5","3","4","3","3","5","4","2","2","2","2","2","2","1","1","1","1","0","1","1","0","0","1","1","0","1","1","0","1","0","1","4","3","3","2","4","5","4","4","5","4","2","787463338580910082","周","440","","","","","","","","","","","","","","","","","","","","","","","","","","","","","","","","","","","","","","","","","",""
"1035","<p style=""color:white; font-size: 35px;"">精干</p>","i","categorize-html","111","151292","0.0-6.0-0.0-8.0-1.1","4","4","4","3","4","4","3","4","3","4","4","2","1","5","3","4","3","3","5","4","2","2","2","2","2","2","1","1","1","1","0","1","1","0","0","1","1","0","1","1","0","1","0","1","4","3","3","2","4","5","4","4","5","4","2","787463338580910082","周","440","","","","","","","","","","","","","","","","","","","true","4","4","ability","1035","positive","精干","","","","","","","","","","","","","","","","",""
"null","","null","html-keyboard-response","112","151548","0.0-6.0-0.0-8.0-0.2","4","4","4","3","4","4","3","4","3","4","4","2","1","5","3","4","3","3","5","4","2","2","2","2","2","2","1","1","1","1","0","1","1","0","0","1","1","0","1","1","0","1","0","1","4","3","3","2","4","5","4","4","5","4","2","787463338580910082","周","440","","","","","","","","","","","","","","","","","","","","","","","","","","","","","","","","","","","","","","","","","",""
"595","<p style=""color:rgb(150, 250, 100); font-size: 35px;"">他的</p>","e","categorize-html","113","152149","0.0-6.0-0.0-8.0-1.2","4","4","4","3","4","4","3","4","3","4","4","2","1","5","3","4","3","3","5","4","2","2","2","2","2","2","1","1","1","1","0","1","1","0","0","1","1","0","1","1","0","1","0","1","4","3","3","2","4","5","4","4","5","4","2","787463338580910082","周","440","","","","","","","","","","","","","","","","","","","true","4","4","ability","595","other","他的","","","","","","","","","","","","","","","","",""
"null","","null","html-keyboard-response","114","152404","0.0-6.0-0.0-8.0-0.3","4","4","4","3","4","4","3","4","3","4","4","2","1","5","3","4","3","3","5","4","2","2","2","2","2","2","1","1","1","1","0","1","1","0","0","1","1","0","1","1","0","1","0","1","4","3","3","2","4","5","4","4","5","4","2","787463338580910082","周","440","","","","","","","","","","","","","","","","","","","","","","","","","","","","","","","","","","","","","","","","","",""
"515","<p style=""color:white; font-size: 35px;"">废物</p>","e","categorize-html","115","152924","0.0-6.0-0.0-8.0-1.3","4","4","4","3","4","4","3","4","3","4","4","2","1","5","3","4","3","3","5","4","2","2","2","2","2","2","1","1","1","1","0","1","1","0","0","1","1","0","1","1","0","1","0","1","4","3","3","2","4","5","4","4","5","4","2","787463338580910082","周","440","","","","","","","","","","","","","","","","","","","true","4","4","ability","515","negative","废物","","","","","","","","","","","","","","","","",""
"null","","null","html-keyboard-response","116","153180","0.0-6.0-0.0-8.0-0.4","4","4","4","3","4","4","3","4","3","4","4","2","1","5","3","4","3","3","5","4","2","2","2","2","2","2","1","1","1","1","0","1","1","0","0","1","1","0","1","1","0","1","0","1","4","3","3","2","4","5","4","4","5","4","2","787463338580910082","周","440","","","","","","","","","","","","","","","","","","","","","","","","","","","","","","","","","","","","","","","","","",""
"491","<p style=""color:rgb(150, 250, 100); font-size: 35px;"">他人</p>","e","categorize-html","117","153676","0.0-6.0-0.0-8.0-1.4","4","4","4","3","4","4","3","4","3","4","4","2","1","5","3","4","3","3","5","4","2","2","2","2","2","2","1","1","1","1","0","1","1","0","0","1","1","0","1","1","0","1","0","1","4","3","3","2","4","5","4","4","5","4","2","787463338580910082","周","440","","","","","","","","","","","","","","","","","","","true","4","4","ability","491","other","他人","","","","","","","","","","","","","","","","",""
"null","","null","html-keyboard-response","118","153932","0.0-6.0-0.0-8.0-0.5","4","4","4","3","4","4","3","4","3","4","4","2","1","5","3","4","3","3","5","4","2","2","2","2","2","2","1","1","1","1","0","1","1","0","0","1","1","0","1","1","0","1","0","1","4","3","3","2","4","5","4","4","5","4","2","787463338580910082","周","440","","","","","","","","","","","","","","","","","","","","","","","","","","","","","","","","","","","","","","","","","",""
"995","<p style=""color:white; font-size: 35px;"">精干</p>","i","categorize-html","119","154935","0.0-6.0-0.0-8.0-1.5","4","4","4","3","4","4","3","4","3","4","4","2","1","5","3","4","3","3","5","4","2","2","2","2","2","2","1","1","1","1","0","1","1","0","0","1","1","0","1","1","0","1","0","1","4","3","3","2","4","5","4","4","5","4","2","787463338580910082","周","440","","","","","","","","","","","","","","","","","","","true","4","4","ability","995","positive","精干","","","","","","","","","","","","","","","","",""
"null","","null","html-keyboard-response","120","155188","0.0-6.0-0.0-8.0-0.6","4","4","4","3","4","4","3","4","3","4","4","2","1","5","3","4","3","3","5","4","2","2","2","2","2","2","1","1","1","1","0","1","1","0","0","1","1","0","1","1","0","1","0","1","4","3","3","2","4","5","4","4","5","4","2","787463338580910082","周","440","","","","","","","","","","","","","","","","","","","","","","","","","","","","","","","","","","","","","","","","","",""
"611","<p style=""color:rgb(150, 250, 100); font-size: 35px;"">自己</p>","i","categorize-html","121","155804","0.0-6.0-0.0-8.0-1.6","4","4","4","3","4","4","3","4","3","4","4","2","1","5","3","4","3","3","5","4","2","2","2","2","2","2","1","1","1","1","0","1","1","0","0","1","1","0","1","1","0","1","0","1","4","3","3","2","4","5","4","4","5","4","2","787463338580910082","周","440","","","","","","","","","","","","","","","","","","","true","4","4","ability","611","self","自己","","","","","","","","","","","","","","","","",""
"null","","null","html-keyboard-response","122","156060","0.0-6.0-0.0-8.0-0.7","4","4","4","3","4","4","3","4","3","4","4","2","1","5","3","4","3","3","5","4","2","2","2","2","2","2","1","1","1","1","0","1","1","0","0","1","1","0","1","1","0","1","0","1","4","3","3","2","4","5","4","4","5","4","2","787463338580910082","周","440","","","","","","","","","","","","","","","","","","","","","","","","","","","","","","","","","","","","","","","","","",""
"835","<p style=""color:white; font-size: 35px;"">无能</p>","e","categorize-html","123","156900","0.0-6.0-0.0-8.0-1.7","4","4","4","3","4","4","3","4","3","4","4","2","1","5","3","4","3","3","5","4","2","2","2","2","2","2","1","1","1","1","0","1","1","0","0","1","1","0","1","1","0","1","0","1","4","3","3","2","4","5","4","4","5","4","2","787463338580910082","周","440","","","","","","","","","","","","","","","","","","","true","4","4","ability","835","negative","无能","","","","","","","","","","","","","","","","",""
"null","","null","html-keyboard-response","124","157157","0.0-6.0-0.0-8.0-0.8","4","4","4","3","4","4","3","4","3","4","4","2","1","5","3","4","3","3","5","4","2","2","2","2","2","2","1","1","1","1","0","1","1","0","0","1","1","0","1","1","0","1","0","1","4","3","3","2","4","5","4","4","5","4","2","787463338580910082","周","440","","","","","","","","","","","","","","","","","","","","","","","","","","","","","","","","","","","","","","","","","",""
"634","<p style=""color:rgb(150, 250, 100); font-size: 35px;"">自己</p>","i","categorize-html","125","157796","0.0-6.0-0.0-8.0-1.8","4","4","4","3","4","4","3","4","3","4","4","2","1","5","3","4","3","3","5","4","2","2","2","2","2","2","1","1","1","1","0","1","1","0","0","1","1","0","1","1","0","1","0","1","4","3","3","2","4","5","4","4","5","4","2","787463338580910082","周","440","","","","","","","","","","","","","","","","","","","true","4","4","ability","634","self","自己","","","","","","","","","","","","","","","","",""
"null","","null","html-keyboard-response","126","158052","0.0-6.0-0.0-8.0-0.9","4","4","4","3","4","4","3","4","3","4","4","2","1","5","3","4","3","3","5","4","2","2","2","2","2","2","1","1","1","1","0","1","1","0","0","1","1","0","1","1","0","1","0","1","4","3","3","2","4","5","4","4","5","4","2","787463338580910082","周","440","","","","","","","","","","","","","","","","","","","","","","","","","","","","","","","","","","","","","","","","","",""
"611","<p style=""color:white; font-size: 35px;"">低能</p>","e","categorize-html","127","158669","0.0-6.0-0.0-8.0-1.9","4","4","4","3","4","4","3","4","3","4","4","2","1","5","3","4","3","3","5","4","2","2","2","2","2","2","1","1","1","1","0","1","1","0","0","1","1","0","1","1","0","1","0","1","4","3","3","2","4","5","4","4","5","4","2","787463338580910082","周","440","","","","","","","","","","","","","","","","","","","true","4","4","ability","611","negative","低能","","","","","","","","","","","","","","","","",""
"null","","null","html-keyboard-response","128","158924","0.0-6.0-0.0-8.0-0.10","4","4","4","3","4","4","3","4","3","4","4","2","1","5","3","4","3","3","5","4","2","2","2","2","2","2","1","1","1","1","0","1","1","0","0","1","1","0","1","1","0","1","0","1","4","3","3","2","4","5","4","4","5","4","2","787463338580910082","周","440","","","","","","","","","","","","","","","","","","","","","","","","","","","","","","","","","","","","","","","","","",""
"595","<p style=""color:rgb(150, 250, 100); font-size: 35px;"">别人的</p>","e","categorize-html","129","159525","0.0-6.0-0.0-8.0-1.10","4","4","4","3","4","4","3","4","3","4","4","2","1","5","3","4","3","3","5","4","2","2","2","2","2","2","1","1","1","1","0","1","1","0","0","1","1","0","1","1","0","1","0","1","4","3","3","2","4","5","4","4","5","4","2","787463338580910082","周","440","","","","","","","","","","","","","","","","","","","true","4","4","ability","595","other","别人的","","","","","","","","","","","","","","","","",""
"null","","null","html-keyboard-response","130","159780","0.0-6.0-0.0-8.0-0.11","4","4","4","3","4","4","3","4","3","4","4","2","1","5","3","4","3","3","5","4","2","2","2","2","2","2","1","1","1","1","0","1","1","0","0","1","1","0","1","1","0","1","0","1","4","3","3","2","4","5","4","4","5","4","2","787463338580910082","周","440","","","","","","","","","","","","","","","","","","","","","","","","","","","","","","","","","","","","","","","","","",""
"755","<p style=""color:white; font-size: 35px;"">天才</p>","i","categorize-html","131","160540","0.0-6.0-0.0-8.0-1.11","4","4","4","3","4","4","3","4","3","4","4","2","1","5","3","4","3","3","5","4","2","2","2","2","2","2","1","1","1","1","0","1","1","0","0","1","1","0","1","1","0","1","0","1","4","3","3","2","4","5","4","4","5","4","2","787463338580910082","周","440","","","","","","","","","","","","","","","","","","","true","4","4","ability","755","positive","天才","","","","","","","","","","","","","","","","",""
"null","","null","html-keyboard-response","132","160796","0.0-6.0-0.0-8.0-0.12","4","4","4","3","4","4","3","4","3","4","4","2","1","5","3","4","3","3","5","4","2","2","2","2","2","2","1","1","1","1","0","1","1","0","0","1","1","0","1","1","0","1","0","1","4","3","3","2","4","5","4","4","5","4","2","787463338580910082","周","440","","","","","","","","","","","","","","","","","","","","","","","","","","","","","","","","","","","","","","","","","",""
"715","<p style=""color:rgb(150, 250, 100); font-size: 35px;"">他人的</p>","e","categorize-html","133","161516","0.0-6.0-0.0-8.0-1.12","4","4","4","3","4","4","3","4","3","4","4","2","1","5","3","4","3","3","5","4","2","2","2","2","2","2","1","1","1","1","0","1","1","0","0","1","1","0","1","1","0","1","0","1","4","3","3","2","4","5","4","4","5","4","2","787463338580910082","周","440","","","","","","","","","","","","","","","","","","","true","4","4","ability","715","other","他人的","","","","","","","","","","","","","","","","",""
"null","","null","html-keyboard-response","134","161772","0.0-6.0-0.0-8.0-0.13","4","4","4","3","4","4","3","4","3","4","4","2","1","5","3","4","3","3","5","4","2","2","2","2","2","2","1","1","1","1","0","1","1","0","0","1","1","0","1","1","0","1","0","1","4","3","3","2","4","5","4","4","5","4","2","787463338580910082","周","440","","","","","","","","","","","","","","","","","","","","","","","","","","","","","","","","","","","","","","","","","",""
"1235","<p style=""color:white; font-size: 35px;"">蠢笨</p>","e","categorize-html","135","163012","0.0-6.0-0.0-8.0-1.13","4","4","4","3","4","4","3","4","3","4","4","2","1","5","3","4","3","3","5","4","2","2","2","2","2","2","1","1","1","1","0","1","1","0","0","1","1","0","1","1","0","1","0","1","4","3","3","2","4","5","4","4","5","4","2","787463338580910082","周","440","","","","","","","","","","","","","","","","","","","true","4","4","ability","1235","negative","蠢笨","","","","","","","","","","","","","","","","",""
"null","","null","html-keyboard-response","136","163268","0.0-6.0-0.0-8.0-0.14","4","4","4","3","4","4","3","4","3","4","4","2","1","5","3","4","3","3","5","4","2","2","2","2","2","2","1","1","1","1","0","1","1","0","0","1","1","0","1","1","0","1","0","1","4","3","3","2","4","5","4","4","5","4","2","787463338580910082","周","440","","","","","","","","","","","","","","","","","","","","","","","","","","","","","","","","","","","","","","","","","",""
"578","<p style=""color:rgb(150, 250, 100); font-size: 35px;"">本人的</p>","i","categorize-html","137","163852","0.0-6.0-0.0-8.0-1.14","4","4","4","3","4","4","3","4","3","4","4","2","1","5","3","4","3","3","5","4","2","2","2","2","2","2","1","1","1","1","0","1","1","0","0","1","1","0","1","1","0","1","0","1","4","3","3","2","4","5","4","4","5","4","2","787463338580910082","周","440","","","","","","","","","","","","","","","","","","","true","4","4","ability","578","self","本人的","","","","","","","","","","","","","","","","",""
"null","","null","html-keyboard-response","138","164108","0.0-6.0-0.0-8.0-0.15","4","4","4","3","4","4","3","4","3","4","4","2","1","5","3","4","3","3","5","4","2","2","2","2","2","2","1","1","1","1","0","1","1","0","0","1","1","0","1","1","0","1","0","1","4","3","3","2","4","5","4","4","5","4","2","787463338580910082","周","440","","","","","","","","","","","","","","","","","","","","","","","","","","","","","","","","","","","","","","","","","",""
"627","<p style=""color:white; font-size: 35px;"">全能</p>","i","categorize-html","139","164740","0.0-6.0-0.0-8.0-1.15","4","4","4","3","4","4","3","4","3","4","4","2","1","5","3","4","3","3","5","4","2","2","2","2","2","2","1","1","1","1","0","1","1","0","0","1","1","0","1","1","0","1","0","1","4","3","3","2","4","5","4","4","5","4","2","787463338580910082","周","440","","","","","","","","","","","","","","","","","","","true","4","4","ability","627","positive","全能","","","","","","","","","","","","","","","","",""
"null","","null","html-keyboard-response","140","164996","0.0-6.0-0.0-8.0-0.16","4","4","4","3","4","4","3","4","3","4","4","2","1","5","3","4","3","3","5","4","2","2","2","2","2","2","1","1","1","1","0","1","1","0","0","1","1","0","1","1","0","1","0","1","4","3","3","2","4","5","4","4","5","4","2","787463338580910082","周","440","","","","","","","","","","","","","","","","","","","","","","","","","","","","","","","","","","","","","","","","","",""
"1042","<p style=""color:rgb(150, 250, 100); font-size: 35px;"">别人的</p>","e","categorize-html","141","166044","0.0-6.0-0.0-8.0-1.16","4","4","4","3","4","4","3","4","3","4","4","2","1","5","3","4","3","3","5","4","2","2","2","2","2","2","1","1","1","1","0","1","1","0","0","1","1","0","1","1","0","1","0","1","4","3","3","2","4","5","4","4","5","4","2","787463338580910082","周","440","","","","","","","","","","","","","","","","","","","true","4","4","ability","1042","other","别人的","","","","","","","","","","","","","","","","",""
"null","","null","html-keyboard-response","142","166300","0.0-6.0-0.0-8.0-0.17","4","4","4","3","4","4","3","4","3","4","4","2","1","5","3","4","3","3","5","4","2","2","2","2","2","2","1","1","1","1","0","1","1","0","0","1","1","0","1","1","0","1","0","1","4","3","3","2","4","5","4","4","5","4","2","787463338580910082","周","440","","","","","","","","","","","","","","","","","","","","","","","","","","","","","","","","","","","","","","","","","",""
"698","<p style=""color:white; font-size: 35px;"">拙笨</p>","e","categorize-html","143","167004","0.0-6.0-0.0-8.0-1.17","4","4","4","3","4","4","3","4","3","4","4","2","1","5","3","4","3","3","5","4","2","2","2","2","2","2","1","1","1","1","0","1","1","0","0","1","1","0","1","1","0","1","0","1","4","3","3","2","4","5","4","4","5","4","2","787463338580910082","周","440","","","","","","","","","","","","","","","","","","","true","4","4","ability","698","negative","拙笨","","","","","","","","","","","","","","","","",""
"null","","null","html-keyboard-response","144","167261","0.0-6.0-0.0-8.0-0.18","4","4","4","3","4","4","3","4","3","4","4","2","1","5","3","4","3","3","5","4","2","2","2","2","2","2","1","1","1","1","0","1","1","0","0","1","1","0","1","1","0","1","0","1","4","3","3","2","4","5","4","4","5","4","2","787463338580910082","周","440","","","","","","","","","","","","","","","","","","","","","","","","","","","","","","","","","","","","","","","","","",""
"666","<p style=""color:rgb(150, 250, 100); font-size: 35px;"">本人的</p>","i","categorize-html","145","167932","0.0-6.0-0.0-8.0-1.18","4","4","4","3","4","4","3","4","3","4","4","2","1","5","3","4","3","3","5","4","2","2","2","2","2","2","1","1","1","1","0","1","1","0","0","1","1","0","1","1","0","1","0","1","4","3","3","2","4","5","4","4","5","4","2","787463338580910082","周","440","","","","","","","","","","","","","","","","","","","true","4","4","ability","666","self","本人的","","","","","","","","","","","","","","","","",""
"null","","null","html-keyboard-response","146","168189","0.0-6.0-0.0-8.0-0.19","4","4","4","3","4","4","3","4","3","4","4","2","1","5","3","4","3","3","5","4","2","2","2","2","2","2","1","1","1","1","0","1","1","0","0","1","1","0","1","1","0","1","0","1","4","3","3","2","4","5","4","4","5","4","2","787463338580910082","周","440","","","","","","","","","","","","","","","","","","","","","","","","","","","","","","","","","","","","","","","","","",""
"578","<p style=""color:white; font-size: 35px;"">天才</p>","i","categorize-html","147","168772","0.0-6.0-0.0-8.0-1.19","4","4","4","3","4","4","3","4","3","4","4","2","1","5","3","4","3","3","5","4","2","2","2","2","2","2","1","1","1","1","0","1","1","0","0","1","1","0","1","1","0","1","0","1","4","3","3","2","4","5","4","4","5","4","2","787463338580910082","周","440","","","","","","","","","","","","","","","","","","","true","4","4","ability","578","positive","天才","","","","","","","","","","","","","","","","",""
"null","","null","html-keyboard-response","148","169029","0.0-6.0-0.0-8.0-0.20","4","4","4","3","4","4","3","4","3","4","4","2","1","5","3","4","3","3","5","4","2","2","2","2","2","2","1","1","1","1","0","1","1","0","0","1","1","0","1","1","0","1","0","1","4","3","3","2","4","5","4","4","5","4","2","787463338580910082","周","440","","","","","","","","","","","","","","","","","","","","","","","","","","","","","","","","","","","","","","","","","",""
"715","<p style=""color:rgb(150, 250, 100); font-size: 35px;"">别人</p>","e","categorize-html","149","169749","0.0-6.0-0.0-8.0-1.20","4","4","4","3","4","4","3","4","3","4","4","2","1","5","3","4","3","3","5","4","2","2","2","2","2","2","1","1","1","1","0","1","1","0","0","1","1","0","1","1","0","1","0","1","4","3","3","2","4","5","4","4","5","4","2","787463338580910082","周","440","","","","","","","","","","","","","","","","","","","true","4","4","ability","715","other","别人","","","","","","","","","","","","","","","","",""
"null","","null","html-keyboard-response","150","170005","0.0-6.0-0.0-8.0-0.21","4","4","4","3","4","4","3","4","3","4","4","2","1","5","3","4","3","3","5","4","2","2","2","2","2","2","1","1","1","1","0","1","1","0","0","1","1","0","1","1","0","1","0","1","4","3","3","2","4","5","4","4","5","4","2","787463338580910082","周","440","","","","","","","","","","","","","","","","","","","","","","","","","","","","","","","","","","","","","","","","","",""
"1562","<p style=""color:white; font-size: 35px;"">低能</p>","i","categorize-html","151","172088","0.0-6.0-0.0-8.0-1.21","4","4","4","3","4","4","3","4","3","4","4","2","1","5","3","4","3","3","5","4","2","2","2","2","2","2","1","1","1","1","0","1","1","0","0","1","1","0","1","1","0","1","0","1","4","3","3","2","4","5","4","4","5","4","2","787463338580910082","周","440","","","","","","","","","","","","","","","","","","","false","4","4","ability","1326.695652173913","negative","低能","","","","","","","","","","","","","","","","",""
"null","","null","html-keyboard-response","152","172341","0.0-6.0-0.0-8.0-0.22","4","4","4","3","4","4","3","4","3","4","4","2","1","5","3","4","3","3","5","4","2","2","2","2","2","2","1","1","1","1","0","1","1","0","0","1","1","0","1","1","0","1","0","1","4","3","3","2","4","5","4","4","5","4","2","787463338580910082","周","440","","","","","","","","","","","","","","","","","","","","","","","","","","","","","","","","","","","","","","","","","",""
"810","<p style=""color:rgb(150, 250, 100); font-size: 35px;"">本人</p>","i","categorize-html","153","173159","0.0-6.0-0.0-8.0-1.22","4","4","4","3","4","4","3","4","3","4","4","2","1","5","3","4","3","3","5","4","2","2","2","2","2","2","1","1","1","1","0","1","1","0","0","1","1","0","1","1","0","1","0","1","4","3","3","2","4","5","4","4","5","4","2","787463338580910082","周","440","","","","","","","","","","","","","","","","","","","true","4","4","ability","810","self","本人","","","","","","","","","","","","","","","","",""
"null","","null","html-keyboard-response","154","173413","0.0-6.0-0.0-8.0-0.23","4","4","4","3","4","4","3","4","3","4","4","2","1","5","3","4","3","3","5","4","2","2","2","2","2","2","1","1","1","1","0","1","1","0","0","1","1","0","1","1","0","1","0","1","4","3","3","2","4","5","4","4","5","4","2","787463338580910082","周","440","","","","","","","","","","","","","","","","","","","","","","","","","","","","","","","","","","","","","","","","","",""
"2074","<p style=""color:white; font-size: 35px;"">全能</p>","i","categorize-html","155","175492","0.0-6.0-0.0-8.0-1.23","4","4","4","3","4","4","3","4","3","4","4","2","1","5","3","4","3","3","5","4","2","2","2","2","2","2","1","1","1","1","0","1","1","0","0","1","1","0","1","1","0","1","0","1","4","3","3","2","4","5","4","4","5","4","2","787463338580910082","周","440","","","","","","","","","","","","","","","","","","","true","4","4","ability","2074","positive","全能","","","","","","","","","","","","","","","","",""
"null","","null","html-keyboard-response","156","175749","0.0-6.0-0.0-8.0-0.24","4","4","4","3","4","4","3","4","3","4","4","2","1","5","3","4","3","3","5","4","2","2","2","2","2","2","1","1","1","1","0","1","1","0","0","1","1","0","1","1","0","1","0","1","4","3","3","2","4","5","4","4","5","4","2","787463338580910082","周","440","","","","","","","","","","","","","","","","","","","","","","","","","","","","","","","","","","","","","","","","","",""
"546","<p style=""color:rgb(150, 250, 100); font-size: 35px;"">我</p>","i","categorize-html","157","176300","0.0-6.0-0.0-8.0-1.24","4","4","4","3","4","4","3","4","3","4","4","2","1","5","3","4","3","3","5","4","2","2","2","2","2","2","1","1","1","1","0","1","1","0","0","1","1","0","1","1","0","1","0","1","4","3","3","2","4","5","4","4","5","4","2","787463338580910082","周","440","","","","","","","","","","","","","","","","","","","true","4","4","ability","546","self","我","","","","","","","","","","","","","","","","",""
"null","","null","html-keyboard-response","158","176557","0.0-6.0-0.0-8.0-0.25","4","4","4","3","4","4","3","4","3","4","4","2","1","5","3","4","3","3","5","4","2","2","2","2","2","2","1","1","1","1","0","1","1","0","0","1","1","0","1","1","0","1","0","1","4","3","3","2","4","5","4","4","5","4","2","787463338580910082","周","440","","","","","","","","","","","","","","","","","","","","","","","","","","","","","","","","","","","","","","","","","",""
"1306","<p style=""color:white; font-size: 35px;"">高效</p>","i","categorize-html","159","177868","0.0-6.0-0.0-8.0-1.25","4","4","4","3","4","4","3","4","3","4","4","2","1","5","3","4","3","3","5","4","2","2","2","2","2","2","1","1","1","1","0","1","1","0","0","1","1","0","1","1","0","1","0","1","4","3","3","2","4","5","4","4","5","4","2","787463338580910082","周","440","","","","","","","","","","","","","","","","","","","true","4","4","ability","1306","positive","高效","","","","","","","","","","","","","","","","",""
"null","","null","html-keyboard-response","160","178124","0.0-6.0-0.0-8.0-0.26","4","4","4","3","4","4","3","4","3","4","4","2","1","5","3","4","3","3","5","4","2","2","2","2","2","2","1","1","1","1","0","1","1","0","0","1","1","0","1","1","0","1","0","1","4","3","3","2","4","5","4","4","5","4","2","787463338580910082","周","440","","","","","","","","","","","","","","","","","","","","","","","","","","","","","","","","","","","","","","","","","",""
"571","<p style=""color:rgb(150, 250, 100); font-size: 35px;"">他</p>","e","categorize-html","161","178700","0.0-6.0-0.0-8.0-1.26","4","4","4","3","4","4","3","4","3","4","4","2","1","5","3","4","3","3","5","4","2","2","2","2","2","2","1","1","1","1","0","1","1","0","0","1","1","0","1","1","0","1","0","1","4","3","3","2","4","5","4","4","5","4","2","787463338580910082","周","440","","","","","","","","","","","","","","","","","","","true","4","4","ability","571","other","他","","","","","","","","","","","","","","","","",""
"null","","null","html-keyboard-response","162","178956","0.0-6.0-0.0-8.0-0.27","4","4","4","3","4","4","3","4","3","4","4","2","1","5","3","4","3","3","5","4","2","2","2","2","2","2","1","1","1","1","0","1","1","0","0","1","1","0","1","1","0","1","0","1","4","3","3","2","4","5","4","4","5","4","2","787463338580910082","周","440","","","","","","","","","","","","","","","","","","","","","","","","","","","","","","","","","","","","","","","","","",""
"611","<p style=""color:white; font-size: 35px;"">愚钝</p>","e","categorize-html","163","179573","0.0-6.0-0.0-8.0-1.27","4","4","4","3","4","4","3","4","3","4","4","2","1","5","3","4","3","3","5","4","2","2","2","2","2","2","1","1","1","1","0","1","1","0","0","1","1","0","1","1","0","1","0","1","4","3","3","2","4","5","4","4","5","4","2","787463338580910082","周","440","","","","","","","","","","","","","","","","","","","true","4","4","ability","611","negative","愚钝","","","","","","","","","","","","","","","","",""
"null","","null","html-keyboard-response","164","179829","0.0-6.0-0.0-8.0-0.28","4","4","4","3","4","4","3","4","3","4","4","2","1","5","3","4","3","3","5","4","2","2","2","2","2","2","1","1","1","1","0","1","1","0","0","1","1","0","1","1","0","1","0","1","4","3","3","2","4","5","4","4","5","4","2","787463338580910082","周","440","","","","","","","","","","","","","","","","","","","","","","","","","","","","","","","","","","","","","","","","","",""
"747","<p style=""color:rgb(150, 250, 100); font-size: 35px;"">他人的</p>","e","categorize-html","165","180582","0.0-6.0-0.0-8.0-1.28","4","4","4","3","4","4","3","4","3","4","4","2","1","5","3","4","3","3","5","4","2","2","2","2","2","2","1","1","1","1","0","1","1","0","0","1","1","0","1","1","0","1","0","1","4","3","3","2","4","5","4","4","5","4","2","787463338580910082","周","440","","","","","","","","","","","","","","","","","","","true","4","4","ability","747","other","他人的","","","","","","","","","","","","","","","","",""
"null","","null","html-keyboard-response","166","180837","0.0-6.0-0.0-8.0-0.29","4","4","4","3","4","4","3","4","3","4","4","2","1","5","3","4","3","3","5","4","2","2","2","2","2","2","1","1","1","1","0","1","1","0","0","1","1","0","1","1","0","1","0","1","4","3","3","2","4","5","4","4","5","4","2","787463338580910082","周","440","","","","","","","","","","","","","","","","","","","","","","","","","","","","","","","","","","","","","","","","","",""
"626","<p style=""color:white; font-size: 35px;"">蠢笨</p>","e","categorize-html","167","181469","0.0-6.0-0.0-8.0-1.29","4","4","4","3","4","4","3","4","3","4","4","2","1","5","3","4","3","3","5","4","2","2","2","2","2","2","1","1","1","1","0","1","1","0","0","1","1","0","1","1","0","1","0","1","4","3","3","2","4","5","4","4","5","4","2","787463338580910082","周","440","","","","","","","","","","","","","","","","","","","true","4","4","ability","626","negative","蠢笨","","","","","","","","","","","","","","","","",""
"null","","null","html-keyboard-response","168","181725","0.0-6.0-0.0-8.0-0.30","4","4","4","3","4","4","3","4","3","4","4","2","1","5","3","4","3","3","5","4","2","2","2","2","2","2","1","1","1","1","0","1","1","0","0","1","1","0","1","1","0","1","0","1","4","3","3","2","4","5","4","4","5","4","2","787463338580910082","周","440","","","","","","","","","","","","","","","","","","","","","","","","","","","","","","","","","","","","","","","","","",""
"578","<p style=""color:rgb(150, 250, 100); font-size: 35px;"">自己的</p>","i","categorize-html","169","182309","0.0-6.0-0.0-8.0-1.30","4","4","4","3","4","4","3","4","3","4","4","2","1","5","3","4","3","3","5","4","2","2","2","2","2","2","1","1","1","1","0","1","1","0","0","1","1","0","1","1","0","1","0","1","4","3","3","2","4","5","4","4","5","4","2","787463338580910082","周","440","","","","","","","","","","","","","","","","","","","true","4","4","ability","578","self","自己的","","","","","","","","","","","","","","","","",""
"null","","null","html-keyboard-response","170","182565","0.0-6.0-0.0-8.0-0.31","4","4","4","3","4","4","3","4","3","4","4","2","1","5","3","4","3","3","5","4","2","2","2","2","2","2","1","1","1","1","0","1","1","0","0","1","1","0","1","1","0","1","0","1","4","3","3","2","4","5","4","4","5","4","2","787463338580910082","周","440","","","","","","","","","","","","","","","","","","","","","","","","","","","","","","","","","","","","","","","","","",""
"778","<p style=""color:white; font-size: 35px;"">能干</p>","i","categorize-html","171","183349","0.0-6.0-0.0-8.0-1.31","4","4","4","3","4","4","3","4","3","4","4","2","1","5","3","4","3","3","5","4","2","2","2","2","2","2","1","1","1","1","0","1","1","0","0","1","1","0","1","1","0","1","0","1","4","3","3","2","4","5","4","4","5","4","2","787463338580910082","周","440","","","","","","","","","","","","","","","","","","","true","4","4","ability","778","positive","能干","","","","","","","","","","","","","","","","",""
"null","","null","html-keyboard-response","172","183605","0.0-6.0-0.0-8.0-0.32","4","4","4","3","4","4","3","4","3","4","4","2","1","5","3","4","3","3","5","4","2","2","2","2","2","2","1","1","1","1","0","1","1","0","0","1","1","0","1","1","0","1","0","1","4","3","3","2","4","5","4","4","5","4","2","787463338580910082","周","440","","","","","","","","","","","","","","","","","","","","","","","","","","","","","","","","","","","","","","","","","",""
"578","<p style=""color:rgb(150, 250, 100); font-size: 35px;"">我的</p>","i","categorize-html","173","184189","0.0-6.0-0.0-8.0-1.32","4","4","4","3","4","4","3","4","3","4","4","2","1","5","3","4","3","3","5","4","2","2","2","2","2","2","1","1","1","1","0","1","1","0","0","1","1","0","1","1","0","1","0","1","4","3","3","2","4","5","4","4","5","4","2","787463338580910082","周","440","","","","","","","","","","","","","","","","","","","true","4","4","ability","578","self","我的","","","","","","","","","","","","","","","","",""
"null","","null","html-keyboard-response","174","184445","0.0-6.0-0.0-8.0-0.33","4","4","4","3","4","4","3","4","3","4","4","2","1","5","3","4","3","3","5","4","2","2","2","2","2","2","1","1","1","1","0","1","1","0","0","1","1","0","1","1","0","1","0","1","4","3","3","2","4","5","4","4","5","4","2","787463338580910082","周","440","","","","","","","","","","","","","","","","","","","","","","","","","","","","","","","","","","","","","","","","","",""
"866","<p style=""color:white; font-size: 35px;"">高效</p>","i","categorize-html","175","185317","0.0-6.0-0.0-8.0-1.33","4","4","4","3","4","4","3","4","3","4","4","2","1","5","3","4","3","3","5","4","2","2","2","2","2","2","1","1","1","1","0","1","1","0","0","1","1","0","1","1","0","1","0","1","4","3","3","2","4","5","4","4","5","4","2","787463338580910082","周","440","","","","","","","","","","","","","","","","","","","true","4","4","ability","866","positive","高效","","","","","","","","","","","","","","","","",""
"null","","null","html-keyboard-response","176","185573","0.0-6.0-0.0-8.0-0.34","4","4","4","3","4","4","3","4","3","4","4","2","1","5","3","4","3","3","5","4","2","2","2","2","2","2","1","1","1","1","0","1","1","0","0","1","1","0","1","1","0","1","0","1","4","3","3","2","4","5","4","4","5","4","2","787463338580910082","周","440","","","","","","","","","","","","","","","","","","","","","","","","","","","","","","","","","","","","","","","","","",""
"530","<p style=""color:rgb(150, 250, 100); font-size: 35px;"">他</p>","e","categorize-html","177","186109","0.0-6.0-0.0-8.0-1.34","4","4","4","3","4","4","3","4","3","4","4","2","1","5","3","4","3","3","5","4","2","2","2","2","2","2","1","1","1","1","0","1","1","0","0","1","1","0","1","1","0","1","0","1","4","3","3","2","4","5","4","4","5","4","2","787463338580910082","周","440","","","","","","","","","","","","","","","","","","","true","4","4","ability","530","other","他","","","","","","","","","","","","","","","","",""
"null","","null","html-keyboard-response","178","186366","0.0-6.0-0.0-8.0-0.35","4","4","4","3","4","4","3","4","3","4","4","2","1","5","3","4","3","3","5","4","2","2","2","2","2","2","1","1","1","1","0","1","1","0","0","1","1","0","1","1","0","1","0","1","4","3","3","2","4","5","4","4","5","4","2","787463338580910082","周","440","","","","","","","","","","","","","","","","","","","","","","","","","","","","","","","","","","","","","","","","","",""
"522","<p style=""color:white; font-size: 35px;"">愚钝</p>","e","categorize-html","179","186893","0.0-6.0-0.0-8.0-1.35","4","4","4","3","4","4","3","4","3","4","4","2","1","5","3","4","3","3","5","4","2","2","2","2","2","2","1","1","1","1","0","1","1","0","0","1","1","0","1","1","0","1","0","1","4","3","3","2","4","5","4","4","5","4","2","787463338580910082","周","440","","","","","","","","","","","","","","","","","","","true","4","4","ability","522","negative","愚钝","","","","","","","","","","","","","","","","",""
"null","","null","html-keyboard-response","180","187149","0.0-6.0-0.0-8.0-0.36","4","4","4","3","4","4","3","4","3","4","4","2","1","5","3","4","3","3","5","4","2","2","2","2","2","2","1","1","1","1","0","1","1","0","0","1","1","0","1","1","0","1","0","1","4","3","3","2","4","5","4","4","5","4","2","787463338580910082","周","440","","","","","","","","","","","","","","","","","","","","","","","","","","","","","","","","","","","","","","","","","",""
"554","<p style=""color:rgb(150, 250, 100); font-size: 35px;"">他的</p>","e","categorize-html","181","187709","0.0-6.0-0.0-8.0-1.36","4","4","4","3","4","4","3","4","3","4","4","2","1","5","3","4","3","3","5","4","2","2","2","2","2","2","1","1","1","1","0","1","1","0","0","1","1","0","1","1","0","1","0","1","4","3","3","2","4","5","4","4","5","4","2","787463338580910082","周","440","","","","","","","","","","","","","","","","","","","true","4","4","ability","554","other","他的","","","","","","","","","","","","","","","","",""
"null","","null","html-keyboard-response","182","187965","0.0-6.0-0.0-8.0-0.37","4","4","4","3","4","4","3","4","3","4","4","2","1","5","3","4","3","3","5","4","2","2","2","2","2","2","1","1","1","1","0","1","1","0","0","1","1","0","1","1","0","1","0","1","4","3","3","2","4","5","4","4","5","4","2","787463338580910082","周","440","","","","","","","","","","","","","","","","","","","","","","","","","","","","","","","","","","","","","","","","","",""
"786","<p style=""color:white; font-size: 35px;"">能干</p>","i","categorize-html","183","188757","0.0-6.0-0.0-8.0-1.37","4","4","4","3","4","4","3","4","3","4","4","2","1","5","3","4","3","3","5","4","2","2","2","2","2","2","1","1","1","1","0","1","1","0","0","1","1","0","1","1","0","1","0","1","4","3","3","2","4","5","4","4","5","4","2","787463338580910082","周","440","","","","","","","","","","","","","","","","","","","true","4","4","ability","786","positive","能干","","","","","","","","","","","","","","","","",""
"null","","null","html-keyboard-response","184","189014","0.0-6.0-0.0-8.0-0.38","4","4","4","3","4","4","3","4","3","4","4","2","1","5","3","4","3","3","5","4","2","2","2","2","2","2","1","1","1","1","0","1","1","0","0","1","1","0","1","1","0","1","0","1","4","3","3","2","4","5","4","4","5","4","2","787463338580910082","周","440","","","","","","","","","","","","","","","","","","","","","","","","","","","","","","","","","","","","","","","","","",""
"562","<p style=""color:rgb(150, 250, 100); font-size: 35px;"">我的</p>","i","categorize-html","185","189581","0.0-6.0-0.0-8.0-1.38","4","4","4","3","4","4","3","4","3","4","4","2","1","5","3","4","3","3","5","4","2","2","2","2","2","2","1","1","1","1","0","1","1","0","0","1","1","0","1","1","0","1","0","1","4","3","3","2","4","5","4","4","5","4","2","787463338580910082","周","440","","","","","","","","","","","","","","","","","","","true","4","4","ability","562","self","我的","","","","","","","","","","","","","","","","",""
"null","","null","html-keyboard-response","186","189838","0.0-6.0-0.0-8.0-0.39","4","4","4","3","4","4","3","4","3","4","4","2","1","5","3","4","3","3","5","4","2","2","2","2","2","2","1","1","1","1","0","1","1","0","0","1","1","0","1","1","0","1","0","1","4","3","3","2","4","5","4","4","5","4","2","787463338580910082","周","440","","","","","","","","","","","","","","","","","","","","","","","","","","","","","","","","","","","","","","","","","",""
"618","<p style=""color:white; font-size: 35px;"">无能</p>","e","categorize-html","187","190461","0.0-6.0-0.0-8.0-1.39","4","4","4","3","4","4","3","4","3","4","4","2","1","5","3","4","3","3","5","4","2","2","2","2","2","2","1","1","1","1","0","1","1","0","0","1","1","0","1","1","0","1","0","1","4","3","3","2","4","5","4","4","5","4","2","787463338580910082","周","440","","","","","","","","","","","","","","","","","","","true","4","4","ability","618","negative","无能","","","","","","","","","","","","","","","","",""
"null","","null","html-keyboard-response","188","190718","0.0-6.0-0.0-8.0-0.40","4","4","4","3","4","4","3","4","3","4","4","2","1","5","3","4","3","3","5","4","2","2","2","2","2","2","1","1","1","1","0","1","1","0","0","1","1","0","1","1","0","1","0","1","4","3","3","2","4","5","4","4","5","4","2","787463338580910082","周","440","","","","","","","","","","","","","","","","","","","","","","","","","","","","","","","","","","","","","","","","","",""
"610","<p style=""color:rgb(150, 250, 100); font-size: 35px;"">自己的</p>","i","categorize-html","189","191333","0.0-6.0-0.0-8.0-1.40","4","4","4","3","4","4","3","4","3","4","4","2","1","5","3","4","3","3","5","4","2","2","2","2","2","2","1","1","1","1","0","1","1","0","0","1","1","0","1","1","0","1","0","1","4","3","3","2","4","5","4","4","5","4","2","787463338580910082","周","440","","","","","","","","","","","","","","","","","","","true","4","4","ability","610","self","自己的","","","","","","","","","","","","","","","","",""
"null","","null","html-keyboard-response","190","191590","0.0-6.0-0.0-8.0-0.41","4","4","4","3","4","4","3","4","3","4","4","2","1","5","3","4","3","3","5","4","2","2","2","2","2","2","1","1","1","1","0","1","1","0","0","1","1","0","1","1","0","1","0","1","4","3","3","2","4","5","4","4","5","4","2","787463338580910082","周","440","","","","","","","","","","","","","","","","","","","","","","","","","","","","","","","","","","","","","","","","","",""
"682","<p style=""color:white; font-size: 35px;"">废物</p>","e","categorize-html","191","192277","0.0-6.0-0.0-8.0-1.41","4","4","4","3","4","4","3","4","3","4","4","2","1","5","3","4","3","3","5","4","2","2","2","2","2","2","1","1","1","1","0","1","1","0","0","1","1","0","1","1","0","1","0","1","4","3","3","2","4","5","4","4","5","4","2","787463338580910082","周","440","","","","","","","","","","","","","","","","","","","true","4","4","ability","682","negative","废物","","","","","","","","","","","","","","","","",""
"null","","null","html-keyboard-response","192","192534","0.0-6.0-0.0-8.0-0.42","4","4","4","3","4","4","3","4","3","4","4","2","1","5","3","4","3","3","5","4","2","2","2","2","2","2","1","1","1","1","0","1","1","0","0","1","1","0","1","1","0","1","0","1","4","3","3","2","4","5","4","4","5","4","2","787463338580910082","周","440","","","","","","","","","","","","","","","","","","","","","","","","","","","","","","","","","","","","","","","","","",""
