"rt","stimulus","response","trial_type","trial_index","time_elapsed","internal_node_id","ses_1","ses_2","ses_3","ses_4","ses_5","ses_6","ses_7","ses_8","ses_9","ses_10","coreself_1","coreself_2","coreself_3","coreself_4","coreself_5","coreself_6","coreself_7","coreself_8","coreself_9","coreself_10","SGPS_1","SGPS_2","SGPS_3","SGPS_4","SGPS_5","SGPS_6","SGPS_7","SGPS_8","SGPS_9","NPI1","NPI2","NPI3","NPI4","NPI5","NPI6","NPI7","NPI8","NPI9","NPI10","NPI11","NPI12","NPI13","NPI14","NPI15","hsns_1","hsns_2","hsns_3","hsns_4","hsns_5","trap1","hsns_6","hsns_7","hsns_8","hsns_9","hsns_10","subj_idx","friend_name","ParticipantID","value","success","user_agent","responses","item_order","radio_event_ids","radio_event_times","key_event_times","mouse_event_times","straightlining","zigzagging","honeypot","timeout","failed_images","failed_audio","failed_video","version_attrib","version_target","correct","IAT","screen_id","task_id","RT","condition","word","varname","summary","version_attrib2","version_target2","time_stamp","view_history","response_type","key_press","avg_frame_time","center_x","center_y","correct_response","identity","Image","question_order","correct_answer","trap1_item"
"8379","
   <p><div style = ""color: white;font-size:25px;"">您好，欢迎参加本次实验。</div> </p>
   <p><div style = ""color: white;font-size:25px;"">为充分保障您的权利，请确保您已经知晓并同意《参与实验同意书》以及《数据公开知情同意书》。</div></p>
   <p><div style = ""color: white;font-size:25px;"">如果您未见过上述内容，请咨询实验员。</div></p>
   <p><div style = ""color: white;font-size:25px;"">如果您选择继续实验，则表示您已经清楚两份知情同意书的内容并同意。</div></p>
   <p><div style = ""color: pink;font-size:30px;"">请确保您记得day0的实验编号，您将在本次实验输入该编号，若您忘记，请咨询实验员后作答。</div></p>
   <p><div style = ""color: lightblue;font-size:25px;"">请您尽可能认真地作答，我们将依据您在各问卷和按键任务中的作答质量发放报酬。</div></p>
   <p> <div style = ""color: green;font-size:25px;""><按空格键至下页></div> </p>
   "," ","html-keyboard-response","0","8390","0.0-0.0","3","4","4","3","4","4","3","3","4","4","4","5","4","5","5","4","4","5","5","5","2","1","2","2","1","1","1","2","1","0","1","0","0","1","1","0","1","1","0","0","0","0","1","0","5","2","1","2","4","1","5","4","4","5","4","786960916901269506","王","438","","","","","","","","","","","","","","","","","","","","","","","","","","","","","","","","","","","","","","","","","",""
"","","","call-function","1","8398","0.0-1.0-0.0","3","4","4","3","4","4","3","3","4","4","4","5","4","5","5","4","4","5","5","5","2","1","2","2","1","1","1","2","1","0","1","0","0","1","1","0","1","1","0","0","0","0","1","0","5","2","1","2","4","1","5","4","4","5","4","786960916901269506","王","438","","","","","","","","","","","","","","","","","","","","","","","","","","","","","","","","","","","","","","","","","",""
"31116","","{""friend_name"":""王"",""ParticipantID"":""438""}","survey-html-form","2","39609","0.0-1.0-1.0","3","4","4","3","4","4","3","3","4","4","4","5","4","5","5","4","4","5","5","5","2","1","2","2","1","1","1","2","1","0","1","0","0","1","1","0","1","1","0","0","0","0","1","0","5","2","1","2","4","1","5","4","4","5","4","786960916901269506","王","438","","","","","","","","","","","","","","","","","","","","","","","","","","","","","","","","","","","","","","","","","",""
"","","","fullscreen","3","62168","0.0-2.0","3","4","4","3","4","4","3","3","4","4","4","5","4","5","5","4","4","5","5","5","2","1","2","2","1","1","1","2","1","0","1","0","0","1","1","0","1","1","0","0","0","0","1","0","5","2","1","2","4","1","5","4","4","5","4","786960916901269506","王","438","","true","{}","","","","","","","","","","","","","","","","","","","","","","","","","","","","","","","","","","","","","","",""
"29620.199999999953","","{""Q01"":""3"",""Q02"":""4"",""Q03"":""4"",""Q04"":""3"",""Q05"":""4"",""Q06"":""4"",""Q07"":""3"",""Q08"":""3"",""Q09"":""4"",""Q10"":""4""}","survey-template","4","91838","0.0-3.0","3","4","4","3","4","4","3","3","4","4","4","5","4","5","5","4","4","5","5","5","2","1","2","2","1","1","1","2","1","0","1","0","0","1","1","0","1","1","0","0","0","0","1","0","5","2","1","2","4","1","5","4","4","5","4","786960916901269506","王","438","","","","{""Q01"":""3"",""Q02"":""4"",""Q03"":""4"",""Q04"":""3"",""Q05"":""4"",""Q06"":""4"",""Q07"":""3"",""Q08"":""3"",""Q09"":""4"",""Q10"":""4""}","[0,1,2,3,4,5,6,7,8,9]","[""Q01"",""Q02"",""Q03"",""Q04"",""Q05"",""Q06"",""Q07"",""Q08"",""Q08"",""Q09"",""Q10""]","[2529.899999999907,4321,6816.600000000093,8344.399999999907,10463.399999999907,11799.600000000093,14007.5,16287,17974.699999999953,18958.899999999907,20007.199999999953]","[]","[2529.899999999907,4321,6816.600000000093,8344.399999999907,10463.399999999907,11799.600000000093,14007.5,16287,17974.699999999953,18958.899999999907,20007.199999999953,29612.600000000093]","0.4","0.6666666666666666","0","","","","","","","","","","","","","","","","","","","","","","","","","","","","","",""
"30370.800000000047","","{""Q01"":""4"",""Q02"":""5"",""Q03"":""4"",""Q04"":""5"",""Q05"":""5"",""Q06"":""4"",""Q07"":""4"",""Q08"":""5"",""Q09"":""5"",""Q10"":""5""}","survey-template","5","122240","0.0-4.0","3","4","4","3","4","4","3","3","4","4","4","5","4","5","5","4","4","5","5","5","2","1","2","2","1","1","1","2","1","0","1","0","0","1","1","0","1","1","0","0","0","0","1","0","5","2","1","2","4","1","5","4","4","5","4","786960916901269506","王","438","","","","{""Q01"":""4"",""Q02"":""5"",""Q03"":""4"",""Q04"":""5"",""Q05"":""5"",""Q06"":""4"",""Q07"":""4"",""Q08"":""5"",""Q09"":""5"",""Q10"":""5""}","[0,1,2,3,4,5,6,7,8,9]","[""Q01"",""Q02"",""Q03"",""Q04"",""Q05"",""Q06"",""Q07"",""Q08"",""Q09"",""Q10""]","[3254.399999999907,4326.5,7710.399999999907,10223.399999999907,12076.899999999907,14108.5,15788.699999999953,17395.899999999907,19755.59999999986,21180.59999999986]","[]","[3254.399999999907,4326.5,7710.399999999907,10223.399999999907,12076.899999999907,14108.5,15788.699999999953,17395.899999999907,19755.59999999986,21180.59999999986,30363.09999999986]","0.4","0.5555555555555556","0","","","","","","","","","","","","","","","","","","","","","","","","","","","","","",""
"","","","preload","6","122937","0.0-5.0","3","4","4","3","4","4","3","3","4","4","4","5","4","5","5","4","4","5","5","5","2","1","2","2","1","1","1","2","1","0","1","0","0","1","1","0","1","1","0","0","0","0","1","0","5","2","1","2","4","1","5","4","4","5","4","786960916901269506","王","438","","true","","","","","","","","","","","false","[]","[]","[]","","","","","","","","","","","","","","","","","","","","","","","","","",""
"37111","
    <h3>词语分类任务</h3>
    <p>在接下来的任务中，你需要对一系列词语进行分类。</p>
    <p>请先熟悉这些词语，这有利于你完成接下来的任务。</p>
    <table align=""center"" border=1 cellpadding=3 cellspacing=0>
    <tr> <th>类别</th> <th>词语</th> </tr>
    <tr> <td>&emsp;积极&emsp;</td> <td>&emsp;能干、全能、全才、高效、精干、天才&emsp;</td> </tr>
    <tr> <td>&emsp;消极&emsp;</td> <td>&emsp;无能、低能、废物、拙笨、愚钝、蠢笨&emsp;</td> </tr>
    <tr> <td>&emsp;自我&emsp;</td> <td>&emsp;我、我的、自己、自己的、本人、本人的&emsp;</td> </tr>
    <tr> <td>&emsp;他人&emsp;</td> <td>&emsp;他、他的、别人、别人的、他人、他人的&emsp;</td> </tr>
    </table><br/>","0","html-button-response","7","160059","0.0-6.0-0.0-0.0","3","4","4","3","4","4","3","3","4","4","4","5","4","5","5","4","4","5","5","5","2","1","2","2","1","1","1","2","1","0","1","0","0","1","1","0","1","1","0","0","0","0","1","0","5","2","1","2","4","1","5","4","4","5","4","786960916901269506","王","438","","","","","","","","","","","","","","","","","2","1","","","","","","","","","","","","","","","","","","","","","","","",""
"25544","
    <div class=""tag-bottom"">
    <p> —— 任务1：对“自我”词和“他人”词分类 ——<p/>
    不同词语会出现在屏幕中央，类别标签将始终显示在屏幕上方<p/>   
    <span style=""color:#FFD866""><b>请根据上方标签的提示，尽可能正确并且快速地做出按键反应</b></span><p/>
    当按键错误时屏幕中会出现<span style=""color:red""> X </span>，需要按另一个键纠正才能继续<br/><p/>
    请把双手食指分别放在键盘的“E”键和“I”键上<p/>
    按<空格键>开始
    </p></div>"," ","html-keyboard-response","8","185619","0.0-6.0-0.0-1.0","3","4","4","3","4","4","3","3","4","4","4","5","4","5","5","4","4","5","5","5","2","1","2","2","1","1","1","2","1","0","1","0","0","1","1","0","1","1","0","0","0","0","1","0","5","2","1","2","4","1","5","4","4","5","4","786960916901269506","王","438","","","","","","","","","","","","","","","","","","","","","","","","","","","","","","","","","","","","","","","","","",""
"null","","null","html-keyboard-response","9","185873","0.0-6.0-0.0-2.0-0.0","3","4","4","3","4","4","3","3","4","4","4","5","4","5","5","4","4","5","5","5","2","1","2","2","1","1","1","2","1","0","1","0","0","1","1","0","1","1","0","0","0","0","1","0","5","2","1","2","4","1","5","4","4","5","4","786960916901269506","王","438","","","","","","","","","","","","","","","","","","","","","","","","","","","","","","","","","","","","","","","","","",""
"667","<p style=""color:rgb(150, 250, 100); font-size: 35px;"">我的</p>","e","categorize-html","10","186554","0.0-6.0-0.0-2.0-1.0","3","4","4","3","4","4","3","3","4","4","4","5","4","5","5","4","4","5","5","5","2","1","2","2","1","1","1","2","1","0","1","0","0","1","1","0","1","1","0","0","0","0","1","0","5","2","1","2","4","1","5","4","4","5","4","786960916901269506","王","438","","","","","","","","","","","","","","","","","","","true","1","1","ability","667","self","我的","","","","","","","","","","","","","","","","",""
"null","","null","html-keyboard-response","11","186808","0.0-6.0-0.0-2.0-0.1","3","4","4","3","4","4","3","3","4","4","4","5","4","5","5","4","4","5","5","5","2","1","2","2","1","1","1","2","1","0","1","0","0","1","1","0","1","1","0","0","0","0","1","0","5","2","1","2","4","1","5","4","4","5","4","786960916901269506","王","438","","","","","","","","","","","","","","","","","","","","","","","","","","","","","","","","","","","","","","","","","",""
"824","<p style=""color:rgb(150, 250, 100); font-size: 35px;"">本人的</p>","e","categorize-html","12","187641","0.0-6.0-0.0-2.0-1.1","3","4","4","3","4","4","3","3","4","4","4","5","4","5","5","4","4","5","5","5","2","1","2","2","1","1","1","2","1","0","1","0","0","1","1","0","1","1","0","0","0","0","1","0","5","2","1","2","4","1","5","4","4","5","4","786960916901269506","王","438","","","","","","","","","","","","","","","","","","","true","1","1","ability","824","self","本人的","","","","","","","","","","","","","","","","",""
"null","","null","html-keyboard-response","13","187894","0.0-6.0-0.0-2.0-0.2","3","4","4","3","4","4","3","3","4","4","4","5","4","5","5","4","4","5","5","5","2","1","2","2","1","1","1","2","1","0","1","0","0","1","1","0","1","1","0","0","0","0","1","0","5","2","1","2","4","1","5","4","4","5","4","786960916901269506","王","438","","","","","","","","","","","","","","","","","","","","","","","","","","","","","","","","","","","","","","","","","",""
"656","<p style=""color:rgb(150, 250, 100); font-size: 35px;"">他人的</p>","i","categorize-html","14","188560","0.0-6.0-0.0-2.0-1.2","3","4","4","3","4","4","3","3","4","4","4","5","4","5","5","4","4","5","5","5","2","1","2","2","1","1","1","2","1","0","1","0","0","1","1","0","1","1","0","0","0","0","1","0","5","2","1","2","4","1","5","4","4","5","4","786960916901269506","王","438","","","","","","","","","","","","","","","","","","","true","1","1","ability","656","other","他人的","","","","","","","","","","","","","","","","",""
"null","","null","html-keyboard-response","15","188812","0.0-6.0-0.0-2.0-0.3","3","4","4","3","4","4","3","3","4","4","4","5","4","5","5","4","4","5","5","5","2","1","2","2","1","1","1","2","1","0","1","0","0","1","1","0","1","1","0","0","0","0","1","0","5","2","1","2","4","1","5","4","4","5","4","786960916901269506","王","438","","","","","","","","","","","","","","","","","","","","","","","","","","","","","","","","","","","","","","","","","",""
"792","<p style=""color:rgb(150, 250, 100); font-size: 35px;"">别人的</p>","i","categorize-html","16","189614","0.0-6.0-0.0-2.0-1.3","3","4","4","3","4","4","3","3","4","4","4","5","4","5","5","4","4","5","5","5","2","1","2","2","1","1","1","2","1","0","1","0","0","1","1","0","1","1","0","0","0","0","1","0","5","2","1","2","4","1","5","4","4","5","4","786960916901269506","王","438","","","","","","","","","","","","","","","","","","","true","1","1","ability","792","other","别人的","","","","","","","","","","","","","","","","",""
"null","","null","html-keyboard-response","17","189866","0.0-6.0-0.0-2.0-0.4","3","4","4","3","4","4","3","3","4","4","4","5","4","5","5","4","4","5","5","5","2","1","2","2","1","1","1","2","1","0","1","0","0","1","1","0","1","1","0","0","0","0","1","0","5","2","1","2","4","1","5","4","4","5","4","786960916901269506","王","438","","","","","","","","","","","","","","","","","","","","","","","","","","","","","","","","","","","","","","","","","",""
"563","<p style=""color:rgb(150, 250, 100); font-size: 35px;"">自己的</p>","e","categorize-html","18","190439","0.0-6.0-0.0-2.0-1.4","3","4","4","3","4","4","3","3","4","4","4","5","4","5","5","4","4","5","5","5","2","1","2","2","1","1","1","2","1","0","1","0","0","1","1","0","1","1","0","0","0","0","1","0","5","2","1","2","4","1","5","4","4","5","4","786960916901269506","王","438","","","","","","","","","","","","","","","","","","","true","1","1","ability","563","self","自己的","","","","","","","","","","","","","","","","",""
"null","","null","html-keyboard-response","19","190691","0.0-6.0-0.0-2.0-0.5","3","4","4","3","4","4","3","3","4","4","4","5","4","5","5","4","4","5","5","5","2","1","2","2","1","1","1","2","1","0","1","0","0","1","1","0","1","1","0","0","0","0","1","0","5","2","1","2","4","1","5","4","4","5","4","786960916901269506","王","438","","","","","","","","","","","","","","","","","","","","","","","","","","","","","","","","","","","","","","","","","",""
"545","<p style=""color:rgb(150, 250, 100); font-size: 35px;"">他人</p>","i","categorize-html","20","191246","0.0-6.0-0.0-2.0-1.5","3","4","4","3","4","4","3","3","4","4","4","5","4","5","5","4","4","5","5","5","2","1","2","2","1","1","1","2","1","0","1","0","0","1","1","0","1","1","0","0","0","0","1","0","5","2","1","2","4","1","5","4","4","5","4","786960916901269506","王","438","","","","","","","","","","","","","","","","","","","true","1","1","ability","545","other","他人","","","","","","","","","","","","","","","","",""
"null","","null","html-keyboard-response","21","191511","0.0-6.0-0.0-2.0-0.6","3","4","4","3","4","4","3","3","4","4","4","5","4","5","5","4","4","5","5","5","2","1","2","2","1","1","1","2","1","0","1","0","0","1","1","0","1","1","0","0","0","0","1","0","5","2","1","2","4","1","5","4","4","5","4","786960916901269506","王","438","","","","","","","","","","","","","","","","","","","","","","","","","","","","","","","","","","","","","","","","","",""
"576","<p style=""color:rgb(150, 250, 100); font-size: 35px;"">他的</p>","i","categorize-html","22","192095","0.0-6.0-0.0-2.0-1.6","3","4","4","3","4","4","3","3","4","4","4","5","4","5","5","4","4","5","5","5","2","1","2","2","1","1","1","2","1","0","1","0","0","1","1","0","1","1","0","0","0","0","1","0","5","2","1","2","4","1","5","4","4","5","4","786960916901269506","王","438","","","","","","","","","","","","","","","","","","","true","1","1","ability","576","other","他的","","","","","","","","","","","","","","","","",""
"null","","null","html-keyboard-response","23","192347","0.0-6.0-0.0-2.0-0.7","3","4","4","3","4","4","3","3","4","4","4","5","4","5","5","4","4","5","5","5","2","1","2","2","1","1","1","2","1","0","1","0","0","1","1","0","1","1","0","0","0","0","1","0","5","2","1","2","4","1","5","4","4","5","4","786960916901269506","王","438","","","","","","","","","","","","","","","","","","","","","","","","","","","","","","","","","","","","","","","","","",""
"530","<p style=""color:rgb(150, 250, 100); font-size: 35px;"">本人</p>","e","categorize-html","24","192887","0.0-6.0-0.0-2.0-1.7","3","4","4","3","4","4","3","3","4","4","4","5","4","5","5","4","4","5","5","5","2","1","2","2","1","1","1","2","1","0","1","0","0","1","1","0","1","1","0","0","0","0","1","0","5","2","1","2","4","1","5","4","4","5","4","786960916901269506","王","438","","","","","","","","","","","","","","","","","","","true","1","1","ability","530","self","本人","","","","","","","","","","","","","","","","",""
"null","","null","html-keyboard-response","25","193139","0.0-6.0-0.0-2.0-0.8","3","4","4","3","4","4","3","3","4","4","4","5","4","5","5","4","4","5","5","5","2","1","2","2","1","1","1","2","1","0","1","0","0","1","1","0","1","1","0","0","0","0","1","0","5","2","1","2","4","1","5","4","4","5","4","786960916901269506","王","438","","","","","","","","","","","","","","","","","","","","","","","","","","","","","","","","","","","","","","","","","",""
"486","<p style=""color:rgb(150, 250, 100); font-size: 35px;"">他</p>","i","categorize-html","26","193633","0.0-6.0-0.0-2.0-1.8","3","4","4","3","4","4","3","3","4","4","4","5","4","5","5","4","4","5","5","5","2","1","2","2","1","1","1","2","1","0","1","0","0","1","1","0","1","1","0","0","0","0","1","0","5","2","1","2","4","1","5","4","4","5","4","786960916901269506","王","438","","","","","","","","","","","","","","","","","","","true","1","1","ability","486","other","他","","","","","","","","","","","","","","","","",""
"null","","null","html-keyboard-response","27","193887","0.0-6.0-0.0-2.0-0.9","3","4","4","3","4","4","3","3","4","4","4","5","4","5","5","4","4","5","5","5","2","1","2","2","1","1","1","2","1","0","1","0","0","1","1","0","1","1","0","0","0","0","1","0","5","2","1","2","4","1","5","4","4","5","4","786960916901269506","王","438","","","","","","","","","","","","","","","","","","","","","","","","","","","","","","","","","","","","","","","","","",""
"614","<p style=""color:rgb(150, 250, 100); font-size: 35px;"">别人</p>","e","categorize-html","28","195725","0.0-6.0-0.0-2.0-1.9","3","4","4","3","4","4","3","3","4","4","4","5","4","5","5","4","4","5","5","5","2","1","2","2","1","1","1","2","1","0","1","0","0","1","1","0","1","1","0","0","0","0","1","0","5","2","1","2","4","1","5","4","4","5","4","786960916901269506","王","438","","","","","","","","","","","","","","","","","","","false","1","1","ability","614","other","别人","","","","","","","","","","","","","","","","",""
"null","","null","html-keyboard-response","29","195978","0.0-6.0-0.0-2.0-0.10","3","4","4","3","4","4","3","3","4","4","4","5","4","5","5","4","4","5","5","5","2","1","2","2","1","1","1","2","1","0","1","0","0","1","1","0","1","1","0","0","0","0","1","0","5","2","1","2","4","1","5","4","4","5","4","786960916901269506","王","438","","","","","","","","","","","","","","","","","","","","","","","","","","","","","","","","","","","","","","","","","",""
"724","<p style=""color:rgb(150, 250, 100); font-size: 35px;"">自己</p>","e","categorize-html","30","196711","0.0-6.0-0.0-2.0-1.10","3","4","4","3","4","4","3","3","4","4","4","5","4","5","5","4","4","5","5","5","2","1","2","2","1","1","1","2","1","0","1","0","0","1","1","0","1","1","0","0","0","0","1","0","5","2","1","2","4","1","5","4","4","5","4","786960916901269506","王","438","","","","","","","","","","","","","","","","","","","true","1","1","ability","724","self","自己","","","","","","","","","","","","","","","","",""
"null","","null","html-keyboard-response","31","196964","0.0-6.0-0.0-2.0-0.11","3","4","4","3","4","4","3","3","4","4","4","5","4","5","5","4","4","5","5","5","2","1","2","2","1","1","1","2","1","0","1","0","0","1","1","0","1","1","0","0","0","0","1","0","5","2","1","2","4","1","5","4","4","5","4","786960916901269506","王","438","","","","","","","","","","","","","","","","","","","","","","","","","","","","","","","","","","","","","","","","","",""
"781","<p style=""color:rgb(150, 250, 100); font-size: 35px;"">我</p>","e","categorize-html","32","197753","0.0-6.0-0.0-2.0-1.11","3","4","4","3","4","4","3","3","4","4","4","5","4","5","5","4","4","5","5","5","2","1","2","2","1","1","1","2","1","0","1","0","0","1","1","0","1","1","0","0","0","0","1","0","5","2","1","2","4","1","5","4","4","5","4","786960916901269506","王","438","","","","","","","","","","","","","","","","","","","true","1","1","ability","781","self","我","","","","","","","","","","","","","","","","",""
"17450","
    <div class=""tag-bottom""><p>
    —— 任务2：对“消极”词和“积极”词分类 ——<p/>   
    <span style=""color:#78DCE8""><b>注意上方，类别标签和需要分类的词语都已经改变</b></span><p/>
    <span style=""color:#FFD866""><b>请根据上方标签的提示，尽可能正确并且快速地做出按键反应</b></span><p/>
    当按键错误时屏幕中会出现<span style=""color:red""> X </span>，需要按另一个键纠正才能继续<br/><p/>
    请把双手食指分别放在键盘的“E”键和“I”键上<p/>
    按<空格键>开始
    </p></div>"," ","html-keyboard-response","33","215208","0.0-6.0-0.0-3.0","3","4","4","3","4","4","3","3","4","4","4","5","4","5","5","4","4","5","5","5","2","1","2","2","1","1","1","2","1","0","1","0","0","1","1","0","1","1","0","0","0","0","1","0","5","2","1","2","4","1","5","4","4","5","4","786960916901269506","王","438","","","","","","","","","","","","","","","","","","","","","","","","","","","","","","","","","","","","","","","","","",""
"null","","null","html-keyboard-response","34","215461","0.0-6.0-0.0-4.0-0.0","3","4","4","3","4","4","3","3","4","4","4","5","4","5","5","4","4","5","5","5","2","1","2","2","1","1","1","2","1","0","1","0","0","1","1","0","1","1","0","0","0","0","1","0","5","2","1","2","4","1","5","4","4","5","4","786960916901269506","王","438","","","","","","","","","","","","","","","","","","","","","","","","","","","","","","","","","","","","","","","","","",""
"847","<p style=""color:white; font-size: 35px;"">蠢笨</p>","e","categorize-html","35","216318","0.0-6.0-0.0-4.0-1.0","3","4","4","3","4","4","3","3","4","4","4","5","4","5","5","4","4","5","5","5","2","1","2","2","1","1","1","2","1","0","1","0","0","1","1","0","1","1","0","0","0","0","1","0","5","2","1","2","4","1","5","4","4","5","4","786960916901269506","王","438","","","","","","","","","","","","","","","","","","","true","2","2","ability","847","negative","蠢笨","","","","","","","","","","","","","","","","",""
"null","","null","html-keyboard-response","36","216570","0.0-6.0-0.0-4.0-0.1","3","4","4","3","4","4","3","3","4","4","4","5","4","5","5","4","4","5","5","5","2","1","2","2","1","1","1","2","1","0","1","0","0","1","1","0","1","1","0","0","0","0","1","0","5","2","1","2","4","1","5","4","4","5","4","786960916901269506","王","438","","","","","","","","","","","","","","","","","","","","","","","","","","","","","","","","","","","","","","","","","",""
"566","<p style=""color:white; font-size: 35px;"">天才</p>","i","categorize-html","37","217145","0.0-6.0-0.0-4.0-1.1","3","4","4","3","4","4","3","3","4","4","4","5","4","5","5","4","4","5","5","5","2","1","2","2","1","1","1","2","1","0","1","0","0","1","1","0","1","1","0","0","0","0","1","0","5","2","1","2","4","1","5","4","4","5","4","786960916901269506","王","438","","","","","","","","","","","","","","","","","","","true","2","2","ability","566","positive","天才","","","","","","","","","","","","","","","","",""
"null","","null","html-keyboard-response","38","217397","0.0-6.0-0.0-4.0-0.2","3","4","4","3","4","4","3","3","4","4","4","5","4","5","5","4","4","5","5","5","2","1","2","2","1","1","1","2","1","0","1","0","0","1","1","0","1","1","0","0","0","0","1","0","5","2","1","2","4","1","5","4","4","5","4","786960916901269506","王","438","","","","","","","","","","","","","","","","","","","","","","","","","","","","","","","","","","","","","","","","","",""
"897","<p style=""color:white; font-size: 35px;"">全能</p>","i","categorize-html","39","218303","0.0-6.0-0.0-4.0-1.2","3","4","4","3","4","4","3","3","4","4","4","5","4","5","5","4","4","5","5","5","2","1","2","2","1","1","1","2","1","0","1","0","0","1","1","0","1","1","0","0","0","0","1","0","5","2","1","2","4","1","5","4","4","5","4","786960916901269506","王","438","","","","","","","","","","","","","","","","","","","true","2","2","ability","897","positive","全能","","","","","","","","","","","","","","","","",""
"null","","null","html-keyboard-response","40","218555","0.0-6.0-0.0-4.0-0.3","3","4","4","3","4","4","3","3","4","4","4","5","4","5","5","4","4","5","5","5","2","1","2","2","1","1","1","2","1","0","1","0","0","1","1","0","1","1","0","0","0","0","1","0","5","2","1","2","4","1","5","4","4","5","4","786960916901269506","王","438","","","","","","","","","","","","","","","","","","","","","","","","","","","","","","","","","","","","","","","","","",""
"655","<p style=""color:white; font-size: 35px;"">愚钝</p>","e","categorize-html","41","219219","0.0-6.0-0.0-4.0-1.3","3","4","4","3","4","4","3","3","4","4","4","5","4","5","5","4","4","5","5","5","2","1","2","2","1","1","1","2","1","0","1","0","0","1","1","0","1","1","0","0","0","0","1","0","5","2","1","2","4","1","5","4","4","5","4","786960916901269506","王","438","","","","","","","","","","","","","","","","","","","true","2","2","ability","655","negative","愚钝","","","","","","","","","","","","","","","","",""
"null","","null","html-keyboard-response","42","219471","0.0-6.0-0.0-4.0-0.4","3","4","4","3","4","4","3","3","4","4","4","5","4","5","5","4","4","5","5","5","2","1","2","2","1","1","1","2","1","0","1","0","0","1","1","0","1","1","0","0","0","0","1","0","5","2","1","2","4","1","5","4","4","5","4","786960916901269506","王","438","","","","","","","","","","","","","","","","","","","","","","","","","","","","","","","","","","","","","","","","","",""
"819","<p style=""color:white; font-size: 35px;"">能干</p>","i","categorize-html","43","220298","0.0-6.0-0.0-4.0-1.4","3","4","4","3","4","4","3","3","4","4","4","5","4","5","5","4","4","5","5","5","2","1","2","2","1","1","1","2","1","0","1","0","0","1","1","0","1","1","0","0","0","0","1","0","5","2","1","2","4","1","5","4","4","5","4","786960916901269506","王","438","","","","","","","","","","","","","","","","","","","true","2","2","ability","819","positive","能干","","","","","","","","","","","","","","","","",""
"null","","null","html-keyboard-response","44","220551","0.0-6.0-0.0-4.0-0.5","3","4","4","3","4","4","3","3","4","4","4","5","4","5","5","4","4","5","5","5","2","1","2","2","1","1","1","2","1","0","1","0","0","1","1","0","1","1","0","0","0","0","1","0","5","2","1","2","4","1","5","4","4","5","4","786960916901269506","王","438","","","","","","","","","","","","","","","","","","","","","","","","","","","","","","","","","","","","","","","","","",""
"696","<p style=""color:white; font-size: 35px;"">拙笨</p>","e","categorize-html","45","221255","0.0-6.0-0.0-4.0-1.5","3","4","4","3","4","4","3","3","4","4","4","5","4","5","5","4","4","5","5","5","2","1","2","2","1","1","1","2","1","0","1","0","0","1","1","0","1","1","0","0","0","0","1","0","5","2","1","2","4","1","5","4","4","5","4","786960916901269506","王","438","","","","","","","","","","","","","","","","","","","true","2","2","ability","696","negative","拙笨","","","","","","","","","","","","","","","","",""
"null","","null","html-keyboard-response","46","221508","0.0-6.0-0.0-4.0-0.6","3","4","4","3","4","4","3","3","4","4","4","5","4","5","5","4","4","5","5","5","2","1","2","2","1","1","1","2","1","0","1","0","0","1","1","0","1","1","0","0","0","0","1","0","5","2","1","2","4","1","5","4","4","5","4","786960916901269506","王","438","","","","","","","","","","","","","","","","","","","","","","","","","","","","","","","","","","","","","","","","","",""
"1176","<p style=""color:white; font-size: 35px;"">低能</p>","e","categorize-html","47","222692","0.0-6.0-0.0-4.0-1.6","3","4","4","3","4","4","3","3","4","4","4","5","4","5","5","4","4","5","5","5","2","1","2","2","1","1","1","2","1","0","1","0","0","1","1","0","1","1","0","0","0","0","1","0","5","2","1","2","4","1","5","4","4","5","4","786960916901269506","王","438","","","","","","","","","","","","","","","","","","","true","2","2","ability","1176","negative","低能","","","","","","","","","","","","","","","","",""
"null","","null","html-keyboard-response","48","222944","0.0-6.0-0.0-4.0-0.7","3","4","4","3","4","4","3","3","4","4","4","5","4","5","5","4","4","5","5","5","2","1","2","2","1","1","1","2","1","0","1","0","0","1","1","0","1","1","0","0","0","0","1","0","5","2","1","2","4","1","5","4","4","5","4","786960916901269506","王","438","","","","","","","","","","","","","","","","","","","","","","","","","","","","","","","","","","","","","","","","","",""
"713","<p style=""color:white; font-size: 35px;"">废物</p>","e","categorize-html","49","223665","0.0-6.0-0.0-4.0-1.7","3","4","4","3","4","4","3","3","4","4","4","5","4","5","5","4","4","5","5","5","2","1","2","2","1","1","1","2","1","0","1","0","0","1","1","0","1","1","0","0","0","0","1","0","5","2","1","2","4","1","5","4","4","5","4","786960916901269506","王","438","","","","","","","","","","","","","","","","","","","true","2","2","ability","713","negative","废物","","","","","","","","","","","","","","","","",""
"null","","null","html-keyboard-response","50","223918","0.0-6.0-0.0-4.0-0.8","3","4","4","3","4","4","3","3","4","4","4","5","4","5","5","4","4","5","5","5","2","1","2","2","1","1","1","2","1","0","1","0","0","1","1","0","1","1","0","0","0","0","1","0","5","2","1","2","4","1","5","4","4","5","4","786960916901269506","王","438","","","","","","","","","","","","","","","","","","","","","","","","","","","","","","","","","","","","","","","","","",""
"630","<p style=""color:white; font-size: 35px;"">全才</p>","i","categorize-html","51","224556","0.0-6.0-0.0-4.0-1.8","3","4","4","3","4","4","3","3","4","4","4","5","4","5","5","4","4","5","5","5","2","1","2","2","1","1","1","2","1","0","1","0","0","1","1","0","1","1","0","0","0","0","1","0","5","2","1","2","4","1","5","4","4","5","4","786960916901269506","王","438","","","","","","","","","","","","","","","","","","","true","2","2","ability","630","positive","全才","","","","","","","","","","","","","","","","",""
"null","","null","html-keyboard-response","52","224808","0.0-6.0-0.0-4.0-0.9","3","4","4","3","4","4","3","3","4","4","4","5","4","5","5","4","4","5","5","5","2","1","2","2","1","1","1","2","1","0","1","0","0","1","1","0","1","1","0","0","0","0","1","0","5","2","1","2","4","1","5","4","4","5","4","786960916901269506","王","438","","","","","","","","","","","","","","","","","","","","","","","","","","","","","","","","","","","","","","","","","",""
"752","<p style=""color:white; font-size: 35px;"">无能</p>","e","categorize-html","53","225569","0.0-6.0-0.0-4.0-1.9","3","4","4","3","4","4","3","3","4","4","4","5","4","5","5","4","4","5","5","5","2","1","2","2","1","1","1","2","1","0","1","0","0","1","1","0","1","1","0","0","0","0","1","0","5","2","1","2","4","1","5","4","4","5","4","786960916901269506","王","438","","","","","","","","","","","","","","","","","","","true","2","2","ability","752","negative","无能","","","","","","","","","","","","","","","","",""
"null","","null","html-keyboard-response","54","225821","0.0-6.0-0.0-4.0-0.10","3","4","4","3","4","4","3","3","4","4","4","5","4","5","5","4","4","5","5","5","2","1","2","2","1","1","1","2","1","0","1","0","0","1","1","0","1","1","0","0","0","0","1","0","5","2","1","2","4","1","5","4","4","5","4","786960916901269506","王","438","","","","","","","","","","","","","","","","","","","","","","","","","","","","","","","","","","","","","","","","","",""
"757","<p style=""color:white; font-size: 35px;"">精干</p>","i","categorize-html","55","226587","0.0-6.0-0.0-4.0-1.10","3","4","4","3","4","4","3","3","4","4","4","5","4","5","5","4","4","5","5","5","2","1","2","2","1","1","1","2","1","0","1","0","0","1","1","0","1","1","0","0","0","0","1","0","5","2","1","2","4","1","5","4","4","5","4","786960916901269506","王","438","","","","","","","","","","","","","","","","","","","true","2","2","ability","757","positive","精干","","","","","","","","","","","","","","","","",""
"null","","null","html-keyboard-response","56","226839","0.0-6.0-0.0-4.0-0.11","3","4","4","3","4","4","3","3","4","4","4","5","4","5","5","4","4","5","5","5","2","1","2","2","1","1","1","2","1","0","1","0","0","1","1","0","1","1","0","0","0","0","1","0","5","2","1","2","4","1","5","4","4","5","4","786960916901269506","王","438","","","","","","","","","","","","","","","","","","","","","","","","","","","","","","","","","","","","","","","","","",""
"1477","<p style=""color:white; font-size: 35px;"">高效</p>","i","categorize-html","57","228325","0.0-6.0-0.0-4.0-1.11","3","4","4","3","4","4","3","3","4","4","4","5","4","5","5","4","4","5","5","5","2","1","2","2","1","1","1","2","1","0","1","0","0","1","1","0","1","1","0","0","0","0","1","0","5","2","1","2","4","1","5","4","4","5","4","786960916901269506","王","438","","","","","","","","","","","","","","","","","","","true","2","2","ability","1477","positive","高效","","","","","","","","","","","","","","","","",""
"15050","
    <div class=""tag-bottom""><p>
    —— 任务3：对“自我/消极”词和“他人/积极”词分类 ——<p/>
    <span style=""color:#78DCE8""><b>注意上方，之前的四类词语将混合在一起交替呈现</b></span><p/>
    <span style=""color:#FFD866""><b>请根据上方标签的提示，尽可能正确并且快速地做出按键反应</b></span><p/>
    当按键错误时屏幕中会出现<span style=""color:red""> X </span>，需要按另一个键纠正才能继续<br/><p/>
    请把双手食指分别放在键盘的“E”键和“I”键上<p/>
    按<空格键>开始
    </p></div>"," ","html-keyboard-response","58","243378","0.0-6.0-0.0-5.0","3","4","4","3","4","4","3","3","4","4","4","5","4","5","5","4","4","5","5","5","2","1","2","2","1","1","1","2","1","0","1","0","0","1","1","0","1","1","0","0","0","0","1","0","5","2","1","2","4","1","5","4","4","5","4","786960916901269506","王","438","","","","","","","","","","","","","","","","","","","","","","","","","","","","","","","","","","","","","","","","","",""
"null","","null","html-keyboard-response","59","243630","0.0-6.0-0.0-6.0-0.0","3","4","4","3","4","4","3","3","4","4","4","5","4","5","5","4","4","5","5","5","2","1","2","2","1","1","1","2","1","0","1","0","0","1","1","0","1","1","0","0","0","0","1","0","5","2","1","2","4","1","5","4","4","5","4","786960916901269506","王","438","","","","","","","","","","","","","","","","","","","","","","","","","","","","","","","","","","","","","","","","","",""
"656","<p style=""color:rgb(150, 250, 100); font-size: 35px;"">他</p>","i","categorize-html","60","244296","0.0-6.0-0.0-6.0-1.0","3","4","4","3","4","4","3","3","4","4","4","5","4","5","5","4","4","5","5","5","2","1","2","2","1","1","1","2","1","0","1","0","0","1","1","0","1","1","0","0","0","0","1","0","5","2","1","2","4","1","5","4","4","5","4","786960916901269506","王","438","","","","","","","","","","","","","","","","","","","true","3","3","ability","656","other","他","","","","","","","","","","","","","","","","",""
"null","","null","html-keyboard-response","61","244548","0.0-6.0-0.0-6.0-0.1","3","4","4","3","4","4","3","3","4","4","4","5","4","5","5","4","4","5","5","5","2","1","2","2","1","1","1","2","1","0","1","0","0","1","1","0","1","1","0","0","0","0","1","0","5","2","1","2","4","1","5","4","4","5","4","786960916901269506","王","438","","","","","","","","","","","","","","","","","","","","","","","","","","","","","","","","","","","","","","","","","",""
"1391","<p style=""color:white; font-size: 35px;"">高效</p>","i","categorize-html","62","245948","0.0-6.0-0.0-6.0-1.1","3","4","4","3","4","4","3","3","4","4","4","5","4","5","5","4","4","5","5","5","2","1","2","2","1","1","1","2","1","0","1","0","0","1","1","0","1","1","0","0","0","0","1","0","5","2","1","2","4","1","5","4","4","5","4","786960916901269506","王","438","","","","","","","","","","","","","","","","","","","true","3","3","ability","1391","positive","高效","","","","","","","","","","","","","","","","",""
"null","","null","html-keyboard-response","63","246201","0.0-6.0-0.0-6.0-0.2","3","4","4","3","4","4","3","3","4","4","4","5","4","5","5","4","4","5","5","5","2","1","2","2","1","1","1","2","1","0","1","0","0","1","1","0","1","1","0","0","0","0","1","0","5","2","1","2","4","1","5","4","4","5","4","786960916901269506","王","438","","","","","","","","","","","","","","","","","","","","","","","","","","","","","","","","","","","","","","","","","",""
"1001","<p style=""color:rgb(150, 250, 100); font-size: 35px;"">自己的</p>","e","categorize-html","64","247211","0.0-6.0-0.0-6.0-1.2","3","4","4","3","4","4","3","3","4","4","4","5","4","5","5","4","4","5","5","5","2","1","2","2","1","1","1","2","1","0","1","0","0","1","1","0","1","1","0","0","0","0","1","0","5","2","1","2","4","1","5","4","4","5","4","786960916901269506","王","438","","","","","","","","","","","","","","","","","","","true","3","3","ability","1001","self","自己的","","","","","","","","","","","","","","","","",""
"null","","null","html-keyboard-response","65","247465","0.0-6.0-0.0-6.0-0.3","3","4","4","3","4","4","3","3","4","4","4","5","4","5","5","4","4","5","5","5","2","1","2","2","1","1","1","2","1","0","1","0","0","1","1","0","1","1","0","0","0","0","1","0","5","2","1","2","4","1","5","4","4","5","4","786960916901269506","王","438","","","","","","","","","","","","","","","","","","","","","","","","","","","","","","","","","","","","","","","","","",""
"589","<p style=""color:white; font-size: 35px;"">无能</p>","e","categorize-html","66","248062","0.0-6.0-0.0-6.0-1.3","3","4","4","3","4","4","3","3","4","4","4","5","4","5","5","4","4","5","5","5","2","1","2","2","1","1","1","2","1","0","1","0","0","1","1","0","1","1","0","0","0","0","1","0","5","2","1","2","4","1","5","4","4","5","4","786960916901269506","王","438","","","","","","","","","","","","","","","","","","","true","3","3","ability","589","negative","无能","","","","","","","","","","","","","","","","",""
"null","","null","html-keyboard-response","67","248315","0.0-6.0-0.0-6.0-0.4","3","4","4","3","4","4","3","3","4","4","4","5","4","5","5","4","4","5","5","5","2","1","2","2","1","1","1","2","1","0","1","0","0","1","1","0","1","1","0","0","0","0","1","0","5","2","1","2","4","1","5","4","4","5","4","786960916901269506","王","438","","","","","","","","","","","","","","","","","","","","","","","","","","","","","","","","","","","","","","","","","",""
"821","<p style=""color:rgb(150, 250, 100); font-size: 35px;"">我</p>","e","categorize-html","68","249146","0.0-6.0-0.0-6.0-1.4","3","4","4","3","4","4","3","3","4","4","4","5","4","5","5","4","4","5","5","5","2","1","2","2","1","1","1","2","1","0","1","0","0","1","1","0","1","1","0","0","0","0","1","0","5","2","1","2","4","1","5","4","4","5","4","786960916901269506","王","438","","","","","","","","","","","","","","","","","","","true","3","3","ability","821","self","我","","","","","","","","","","","","","","","","",""
"null","","null","html-keyboard-response","69","249399","0.0-6.0-0.0-6.0-0.5","3","4","4","3","4","4","3","3","4","4","4","5","4","5","5","4","4","5","5","5","2","1","2","2","1","1","1","2","1","0","1","0","0","1","1","0","1","1","0","0","0","0","1","0","5","2","1","2","4","1","5","4","4","5","4","786960916901269506","王","438","","","","","","","","","","","","","","","","","","","","","","","","","","","","","","","","","","","","","","","","","",""
"624","<p style=""color:white; font-size: 35px;"">愚钝</p>","e","categorize-html","70","250031","0.0-6.0-0.0-6.0-1.5","3","4","4","3","4","4","3","3","4","4","4","5","4","5","5","4","4","5","5","5","2","1","2","2","1","1","1","2","1","0","1","0","0","1","1","0","1","1","0","0","0","0","1","0","5","2","1","2","4","1","5","4","4","5","4","786960916901269506","王","438","","","","","","","","","","","","","","","","","","","true","3","3","ability","624","negative","愚钝","","","","","","","","","","","","","","","","",""
"null","","null","html-keyboard-response","71","250283","0.0-6.0-0.0-6.0-0.6","3","4","4","3","4","4","3","3","4","4","4","5","4","5","5","4","4","5","5","5","2","1","2","2","1","1","1","2","1","0","1","0","0","1","1","0","1","1","0","0","0","0","1","0","5","2","1","2","4","1","5","4","4","5","4","786960916901269506","王","438","","","","","","","","","","","","","","","","","","","","","","","","","","","","","","","","","","","","","","","","","",""
"546","<p style=""color:rgb(150, 250, 100); font-size: 35px;"">他人</p>","i","categorize-html","72","250839","0.0-6.0-0.0-6.0-1.6","3","4","4","3","4","4","3","3","4","4","4","5","4","5","5","4","4","5","5","5","2","1","2","2","1","1","1","2","1","0","1","0","0","1","1","0","1","1","0","0","0","0","1","0","5","2","1","2","4","1","5","4","4","5","4","786960916901269506","王","438","","","","","","","","","","","","","","","","","","","true","3","3","ability","546","other","他人","","","","","","","","","","","","","","","","",""
"null","","null","html-keyboard-response","73","251092","0.0-6.0-0.0-6.0-0.7","3","4","4","3","4","4","3","3","4","4","4","5","4","5","5","4","4","5","5","5","2","1","2","2","1","1","1","2","1","0","1","0","0","1","1","0","1","1","0","0","0","0","1","0","5","2","1","2","4","1","5","4","4","5","4","786960916901269506","王","438","","","","","","","","","","","","","","","","","","","","","","","","","","","","","","","","","","","","","","","","","",""
"610","<p style=""color:white; font-size: 35px;"">天才</p>","i","categorize-html","74","251711","0.0-6.0-0.0-6.0-1.7","3","4","4","3","4","4","3","3","4","4","4","5","4","5","5","4","4","5","5","5","2","1","2","2","1","1","1","2","1","0","1","0","0","1","1","0","1","1","0","0","0","0","1","0","5","2","1","2","4","1","5","4","4","5","4","786960916901269506","王","438","","","","","","","","","","","","","","","","","","","true","3","3","ability","610","positive","天才","","","","","","","","","","","","","","","","",""
"null","","null","html-keyboard-response","75","251963","0.0-6.0-0.0-6.0-0.8","3","4","4","3","4","4","3","3","4","4","4","5","4","5","5","4","4","5","5","5","2","1","2","2","1","1","1","2","1","0","1","0","0","1","1","0","1","1","0","0","0","0","1","0","5","2","1","2","4","1","5","4","4","5","4","786960916901269506","王","438","","","","","","","","","","","","","","","","","","","","","","","","","","","","","","","","","","","","","","","","","",""
"933","<p style=""color:rgb(150, 250, 100); font-size: 35px;"">本人</p>","e","categorize-html","76","252905","0.0-6.0-0.0-6.0-1.8","3","4","4","3","4","4","3","3","4","4","4","5","4","5","5","4","4","5","5","5","2","1","2","2","1","1","1","2","1","0","1","0","0","1","1","0","1","1","0","0","0","0","1","0","5","2","1","2","4","1","5","4","4","5","4","786960916901269506","王","438","","","","","","","","","","","","","","","","","","","true","3","3","ability","933","self","本人","","","","","","","","","","","","","","","","",""
"null","","null","html-keyboard-response","77","253160","0.0-6.0-0.0-6.0-0.9","3","4","4","3","4","4","3","3","4","4","4","5","4","5","5","4","4","5","5","5","2","1","2","2","1","1","1","2","1","0","1","0","0","1","1","0","1","1","0","0","0","0","1","0","5","2","1","2","4","1","5","4","4","5","4","786960916901269506","王","438","","","","","","","","","","","","","","","","","","","","","","","","","","","","","","","","","","","","","","","","","",""
"785","<p style=""color:white; font-size: 35px;"">拙笨</p>","e","categorize-html","78","253959","0.0-6.0-0.0-6.0-1.9","3","4","4","3","4","4","3","3","4","4","4","5","4","5","5","4","4","5","5","5","2","1","2","2","1","1","1","2","1","0","1","0","0","1","1","0","1","1","0","0","0","0","1","0","5","2","1","2","4","1","5","4","4","5","4","786960916901269506","王","438","","","","","","","","","","","","","","","","","","","true","3","3","ability","785","negative","拙笨","","","","","","","","","","","","","","","","",""
"null","","null","html-keyboard-response","79","254212","0.0-6.0-0.0-6.0-0.10","3","4","4","3","4","4","3","3","4","4","4","5","4","5","5","4","4","5","5","5","2","1","2","2","1","1","1","2","1","0","1","0","0","1","1","0","1","1","0","0","0","0","1","0","5","2","1","2","4","1","5","4","4","5","4","786960916901269506","王","438","","","","","","","","","","","","","","","","","","","","","","","","","","","","","","","","","","","","","","","","","",""
"573","<p style=""color:rgb(150, 250, 100); font-size: 35px;"">别人</p>","i","categorize-html","80","254794","0.0-6.0-0.0-6.0-1.10","3","4","4","3","4","4","3","3","4","4","4","5","4","5","5","4","4","5","5","5","2","1","2","2","1","1","1","2","1","0","1","0","0","1","1","0","1","1","0","0","0","0","1","0","5","2","1","2","4","1","5","4","4","5","4","786960916901269506","王","438","","","","","","","","","","","","","","","","","","","true","3","3","ability","573","other","别人","","","","","","","","","","","","","","","","",""
"null","","null","html-keyboard-response","81","255047","0.0-6.0-0.0-6.0-0.11","3","4","4","3","4","4","3","3","4","4","4","5","4","5","5","4","4","5","5","5","2","1","2","2","1","1","1","2","1","0","1","0","0","1","1","0","1","1","0","0","0","0","1","0","5","2","1","2","4","1","5","4","4","5","4","786960916901269506","王","438","","","","","","","","","","","","","","","","","","","","","","","","","","","","","","","","","","","","","","","","","",""
"578","<p style=""color:white; font-size: 35px;"">全能</p>","i","categorize-html","82","255634","0.0-6.0-0.0-6.0-1.11","3","4","4","3","4","4","3","3","4","4","4","5","4","5","5","4","4","5","5","5","2","1","2","2","1","1","1","2","1","0","1","0","0","1","1","0","1","1","0","0","0","0","1","0","5","2","1","2","4","1","5","4","4","5","4","786960916901269506","王","438","","","","","","","","","","","","","","","","","","","true","3","3","ability","578","positive","全能","","","","","","","","","","","","","","","","",""
"null","","null","html-keyboard-response","83","255886","0.0-6.0-0.0-6.0-0.12","3","4","4","3","4","4","3","3","4","4","4","5","4","5","5","4","4","5","5","5","2","1","2","2","1","1","1","2","1","0","1","0","0","1","1","0","1","1","0","0","0","0","1","0","5","2","1","2","4","1","5","4","4","5","4","786960916901269506","王","438","","","","","","","","","","","","","","","","","","","","","","","","","","","","","","","","","","","","","","","","","",""
"751","<p style=""color:rgb(150, 250, 100); font-size: 35px;"">他人的</p>","i","categorize-html","84","256646","0.0-6.0-0.0-6.0-1.12","3","4","4","3","4","4","3","3","4","4","4","5","4","5","5","4","4","5","5","5","2","1","2","2","1","1","1","2","1","0","1","0","0","1","1","0","1","1","0","0","0","0","1","0","5","2","1","2","4","1","5","4","4","5","4","786960916901269506","王","438","","","","","","","","","","","","","","","","","","","true","3","3","ability","751","other","他人的","","","","","","","","","","","","","","","","",""
"null","","null","html-keyboard-response","85","256899","0.0-6.0-0.0-6.0-0.13","3","4","4","3","4","4","3","3","4","4","4","5","4","5","5","4","4","5","5","5","2","1","2","2","1","1","1","2","1","0","1","0","0","1","1","0","1","1","0","0","0","0","1","0","5","2","1","2","4","1","5","4","4","5","4","786960916901269506","王","438","","","","","","","","","","","","","","","","","","","","","","","","","","","","","","","","","","","","","","","","","",""
"872","<p style=""color:white; font-size: 35px;"">低能</p>","e","categorize-html","86","257779","0.0-6.0-0.0-6.0-1.13","3","4","4","3","4","4","3","3","4","4","4","5","4","5","5","4","4","5","5","5","2","1","2","2","1","1","1","2","1","0","1","0","0","1","1","0","1","1","0","0","0","0","1","0","5","2","1","2","4","1","5","4","4","5","4","786960916901269506","王","438","","","","","","","","","","","","","","","","","","","true","3","3","ability","872","negative","低能","","","","","","","","","","","","","","","","",""
"null","","null","html-keyboard-response","87","258032","0.0-6.0-0.0-6.0-0.14","3","4","4","3","4","4","3","3","4","4","4","5","4","5","5","4","4","5","5","5","2","1","2","2","1","1","1","2","1","0","1","0","0","1","1","0","1","1","0","0","0","0","1","0","5","2","1","2","4","1","5","4","4","5","4","786960916901269506","王","438","","","","","","","","","","","","","","","","","","","","","","","","","","","","","","","","","","","","","","","","","",""
"1877","<p style=""color:rgb(150, 250, 100); font-size: 35px;"">我的</p>","e","categorize-html","88","259919","0.0-6.0-0.0-6.0-1.14","3","4","4","3","4","4","3","3","4","4","4","5","4","5","5","4","4","5","5","5","2","1","2","2","1","1","1","2","1","0","1","0","0","1","1","0","1","1","0","0","0","0","1","0","5","2","1","2","4","1","5","4","4","5","4","786960916901269506","王","438","","","","","","","","","","","","","","","","","","","true","3","3","ability","1877","self","我的","","","","","","","","","","","","","","","","",""
"null","","null","html-keyboard-response","89","260171","0.0-6.0-0.0-6.0-0.15","3","4","4","3","4","4","3","3","4","4","4","5","4","5","5","4","4","5","5","5","2","1","2","2","1","1","1","2","1","0","1","0","0","1","1","0","1","1","0","0","0","0","1","0","5","2","1","2","4","1","5","4","4","5","4","786960916901269506","王","438","","","","","","","","","","","","","","","","","","","","","","","","","","","","","","","","","","","","","","","","","",""
"1313","<p style=""color:white; font-size: 35px;"">全才</p>","i","categorize-html","90","261495","0.0-6.0-0.0-6.0-1.15","3","4","4","3","4","4","3","3","4","4","4","5","4","5","5","4","4","5","5","5","2","1","2","2","1","1","1","2","1","0","1","0","0","1","1","0","1","1","0","0","0","0","1","0","5","2","1","2","4","1","5","4","4","5","4","786960916901269506","王","438","","","","","","","","","","","","","","","","","","","true","3","3","ability","1313","positive","全才","","","","","","","","","","","","","","","","",""
"null","","null","html-keyboard-response","91","261748","0.0-6.0-0.0-6.0-0.16","3","4","4","3","4","4","3","3","4","4","4","5","4","5","5","4","4","5","5","5","2","1","2","2","1","1","1","2","1","0","1","0","0","1","1","0","1","1","0","0","0","0","1","0","5","2","1","2","4","1","5","4","4","5","4","786960916901269506","王","438","","","","","","","","","","","","","","","","","","","","","","","","","","","","","","","","","","","","","","","","","",""
"1111","<p style=""color:rgb(150, 250, 100); font-size: 35px;"">自己</p>","e","categorize-html","92","262868","0.0-6.0-0.0-6.0-1.16","3","4","4","3","4","4","3","3","4","4","4","5","4","5","5","4","4","5","5","5","2","1","2","2","1","1","1","2","1","0","1","0","0","1","1","0","1","1","0","0","0","0","1","0","5","2","1","2","4","1","5","4","4","5","4","786960916901269506","王","438","","","","","","","","","","","","","","","","","","","true","3","3","ability","1111","self","自己","","","","","","","","","","","","","","","","",""
"null","","null","html-keyboard-response","93","263120","0.0-6.0-0.0-6.0-0.17","3","4","4","3","4","4","3","3","4","4","4","5","4","5","5","4","4","5","5","5","2","1","2","2","1","1","1","2","1","0","1","0","0","1","1","0","1","1","0","0","0","0","1","0","5","2","1","2","4","1","5","4","4","5","4","786960916901269506","王","438","","","","","","","","","","","","","","","","","","","","","","","","","","","","","","","","","","","","","","","","","",""
"1604","<p style=""color:white; font-size: 35px;"">能干</p>","i","categorize-html","94","264733","0.0-6.0-0.0-6.0-1.17","3","4","4","3","4","4","3","3","4","4","4","5","4","5","5","4","4","5","5","5","2","1","2","2","1","1","1","2","1","0","1","0","0","1","1","0","1","1","0","0","0","0","1","0","5","2","1","2","4","1","5","4","4","5","4","786960916901269506","王","438","","","","","","","","","","","","","","","","","","","true","3","3","ability","1604","positive","能干","","","","","","","","","","","","","","","","",""
"null","","null","html-keyboard-response","95","264986","0.0-6.0-0.0-6.0-0.18","3","4","4","3","4","4","3","3","4","4","4","5","4","5","5","4","4","5","5","5","2","1","2","2","1","1","1","2","1","0","1","0","0","1","1","0","1","1","0","0","0","0","1","0","5","2","1","2","4","1","5","4","4","5","4","786960916901269506","王","438","","","","","","","","","","","","","","","","","","","","","","","","","","","","","","","","","","","","","","","","","",""
"950","<p style=""color:rgb(150, 250, 100); font-size: 35px;"">他的</p>","i","categorize-html","96","265945","0.0-6.0-0.0-6.0-1.18","3","4","4","3","4","4","3","3","4","4","4","5","4","5","5","4","4","5","5","5","2","1","2","2","1","1","1","2","1","0","1","0","0","1","1","0","1","1","0","0","0","0","1","0","5","2","1","2","4","1","5","4","4","5","4","786960916901269506","王","438","","","","","","","","","","","","","","","","","","","true","3","3","ability","950","other","他的","","","","","","","","","","","","","","","","",""
"null","","null","html-keyboard-response","97","266198","0.0-6.0-0.0-6.0-0.19","3","4","4","3","4","4","3","3","4","4","4","5","4","5","5","4","4","5","5","5","2","1","2","2","1","1","1","2","1","0","1","0","0","1","1","0","1","1","0","0","0","0","1","0","5","2","1","2","4","1","5","4","4","5","4","786960916901269506","王","438","","","","","","","","","","","","","","","","","","","","","","","","","","","","","","","","","","","","","","","","","",""
"771","<p style=""color:white; font-size: 35px;"">废物</p>","e","categorize-html","98","266979","0.0-6.0-0.0-6.0-1.19","3","4","4","3","4","4","3","3","4","4","4","5","4","5","5","4","4","5","5","5","2","1","2","2","1","1","1","2","1","0","1","0","0","1","1","0","1","1","0","0","0","0","1","0","5","2","1","2","4","1","5","4","4","5","4","786960916901269506","王","438","","","","","","","","","","","","","","","","","","","true","3","3","ability","771","negative","废物","","","","","","","","","","","","","","","","",""
"null","","null","html-keyboard-response","99","267234","0.0-6.0-0.0-6.0-0.20","3","4","4","3","4","4","3","3","4","4","4","5","4","5","5","4","4","5","5","5","2","1","2","2","1","1","1","2","1","0","1","0","0","1","1","0","1","1","0","0","0","0","1","0","5","2","1","2","4","1","5","4","4","5","4","786960916901269506","王","438","","","","","","","","","","","","","","","","","","","","","","","","","","","","","","","","","","","","","","","","","",""
"770","<p style=""color:rgb(150, 250, 100); font-size: 35px;"">别人的</p>","i","categorize-html","100","268013","0.0-6.0-0.0-6.0-1.20","3","4","4","3","4","4","3","3","4","4","4","5","4","5","5","4","4","5","5","5","2","1","2","2","1","1","1","2","1","0","1","0","0","1","1","0","1","1","0","0","0","0","1","0","5","2","1","2","4","1","5","4","4","5","4","786960916901269506","王","438","","","","","","","","","","","","","","","","","","","true","3","3","ability","770","other","别人的","","","","","","","","","","","","","","","","",""
"null","","null","html-keyboard-response","101","268267","0.0-6.0-0.0-6.0-0.21","3","4","4","3","4","4","3","3","4","4","4","5","4","5","5","4","4","5","5","5","2","1","2","2","1","1","1","2","1","0","1","0","0","1","1","0","1","1","0","0","0","0","1","0","5","2","1","2","4","1","5","4","4","5","4","786960916901269506","王","438","","","","","","","","","","","","","","","","","","","","","","","","","","","","","","","","","","","","","","","","","",""
"794","<p style=""color:white; font-size: 35px;"">蠢笨</p>","e","categorize-html","102","269069","0.0-6.0-0.0-6.0-1.21","3","4","4","3","4","4","3","3","4","4","4","5","4","5","5","4","4","5","5","5","2","1","2","2","1","1","1","2","1","0","1","0","0","1","1","0","1","1","0","0","0","0","1","0","5","2","1","2","4","1","5","4","4","5","4","786960916901269506","王","438","","","","","","","","","","","","","","","","","","","true","3","3","ability","794","negative","蠢笨","","","","","","","","","","","","","","","","",""
"null","","null","html-keyboard-response","103","269322","0.0-6.0-0.0-6.0-0.22","3","4","4","3","4","4","3","3","4","4","4","5","4","5","5","4","4","5","5","5","2","1","2","2","1","1","1","2","1","0","1","0","0","1","1","0","1","1","0","0","0","0","1","0","5","2","1","2","4","1","5","4","4","5","4","786960916901269506","王","438","","","","","","","","","","","","","","","","","","","","","","","","","","","","","","","","","","","","","","","","","",""
"1543","<p style=""color:rgb(150, 250, 100); font-size: 35px;"">本人的</p>","e","categorize-html","104","270875","0.0-6.0-0.0-6.0-1.22","3","4","4","3","4","4","3","3","4","4","4","5","4","5","5","4","4","5","5","5","2","1","2","2","1","1","1","2","1","0","1","0","0","1","1","0","1","1","0","0","0","0","1","0","5","2","1","2","4","1","5","4","4","5","4","786960916901269506","王","438","","","","","","","","","","","","","","","","","","","true","3","3","ability","1543","self","本人的","","","","","","","","","","","","","","","","",""
"null","","null","html-keyboard-response","105","271127","0.0-6.0-0.0-6.0-0.23","3","4","4","3","4","4","3","3","4","4","4","5","4","5","5","4","4","5","5","5","2","1","2","2","1","1","1","2","1","0","1","0","0","1","1","0","1","1","0","0","0","0","1","0","5","2","1","2","4","1","5","4","4","5","4","786960916901269506","王","438","","","","","","","","","","","","","","","","","","","","","","","","","","","","","","","","","","","","","","","","","",""
"903","<p style=""color:white; font-size: 35px;"">精干</p>","i","categorize-html","106","272039","0.0-6.0-0.0-6.0-1.23","3","4","4","3","4","4","3","3","4","4","4","5","4","5","5","4","4","5","5","5","2","1","2","2","1","1","1","2","1","0","1","0","0","1","1","0","1","1","0","0","0","0","1","0","5","2","1","2","4","1","5","4","4","5","4","786960916901269506","王","438","","","","","","","","","","","","","","","","","","","true","3","3","ability","903","positive","精干","","","","","","","","","","","","","","","","",""
"11509","
    <div class=""tag-bottom""><p>
    —— 任务4：对“自我/消极”词和“他人/积极”词分类 ——<p/>
    <span style=""color:#78DCE8""><b>与刚才的任务完全相同，请再次对这四类词语分类</b></span><p/>
    <span style=""color:#FFD866""><b>请根据上方标签的提示，尽可能正确并且快速地做出按键反应</b></span><p/>
    当按键错误时屏幕中会出现<span style=""color:red""> X </span>，需要按另一个键纠正才能继续<br/><p/>
    请把双手食指分别放在键盘的“E”键和“I”键上<p/>
    按<空格键>开始
    </p></div>"," ","html-keyboard-response","107","283551","0.0-6.0-0.0-7.0","3","4","4","3","4","4","3","3","4","4","4","5","4","5","5","4","4","5","5","5","2","1","2","2","1","1","1","2","1","0","1","0","0","1","1","0","1","1","0","0","0","0","1","0","5","2","1","2","4","1","5","4","4","5","4","786960916901269506","王","438","","","","","","","","","","","","","","","","","","","","","","","","","","","","","","","","","","","","","","","","","",""
"null","","null","html-keyboard-response","108","283804","0.0-6.0-0.0-8.0-0.0","3","4","4","3","4","4","3","3","4","4","4","5","4","5","5","4","4","5","5","5","2","1","2","2","1","1","1","2","1","0","1","0","0","1","1","0","1","1","0","0","0","0","1","0","5","2","1","2","4","1","5","4","4","5","4","786960916901269506","王","438","","","","","","","","","","","","","","","","","","","","","","","","","","","","","","","","","","","","","","","","","",""
"669","<p style=""color:rgb(150, 250, 100); font-size: 35px;"">自己的</p>","e","categorize-html","109","284483","0.0-6.0-0.0-8.0-1.0","3","4","4","3","4","4","3","3","4","4","4","5","4","5","5","4","4","5","5","5","2","1","2","2","1","1","1","2","1","0","1","0","0","1","1","0","1","1","0","0","0","0","1","0","5","2","1","2","4","1","5","4","4","5","4","786960916901269506","王","438","","","","","","","","","","","","","","","","","","","true","4","4","ability","669","self","自己的","","","","","","","","","","","","","","","","",""
"null","","null","html-keyboard-response","110","284736","0.0-6.0-0.0-8.0-0.1","3","4","4","3","4","4","3","3","4","4","4","5","4","5","5","4","4","5","5","5","2","1","2","2","1","1","1","2","1","0","1","0","0","1","1","0","1","1","0","0","0","0","1","0","5","2","1","2","4","1","5","4","4","5","4","786960916901269506","王","438","","","","","","","","","","","","","","","","","","","","","","","","","","","","","","","","","","","","","","","","","",""
"732","<p style=""color:white; font-size: 35px;"">能干</p>","i","categorize-html","111","285476","0.0-6.0-0.0-8.0-1.1","3","4","4","3","4","4","3","3","4","4","4","5","4","5","5","4","4","5","5","5","2","1","2","2","1","1","1","2","1","0","1","0","0","1","1","0","1","1","0","0","0","0","1","0","5","2","1","2","4","1","5","4","4","5","4","786960916901269506","王","438","","","","","","","","","","","","","","","","","","","true","4","4","ability","732","positive","能干","","","","","","","","","","","","","","","","",""
"null","","null","html-keyboard-response","112","285729","0.0-6.0-0.0-8.0-0.2","3","4","4","3","4","4","3","3","4","4","4","5","4","5","5","4","4","5","5","5","2","1","2","2","1","1","1","2","1","0","1","0","0","1","1","0","1","1","0","0","0","0","1","0","5","2","1","2","4","1","5","4","4","5","4","786960916901269506","王","438","","","","","","","","","","","","","","","","","","","","","","","","","","","","","","","","","","","","","","","","","",""
"960","<p style=""color:rgb(150, 250, 100); font-size: 35px;"">他</p>","i","categorize-html","113","286698","0.0-6.0-0.0-8.0-1.2","3","4","4","3","4","4","3","3","4","4","4","5","4","5","5","4","4","5","5","5","2","1","2","2","1","1","1","2","1","0","1","0","0","1","1","0","1","1","0","0","0","0","1","0","5","2","1","2","4","1","5","4","4","5","4","786960916901269506","王","438","","","","","","","","","","","","","","","","","","","true","4","4","ability","960","other","他","","","","","","","","","","","","","","","","",""
"null","","null","html-keyboard-response","114","286950","0.0-6.0-0.0-8.0-0.3","3","4","4","3","4","4","3","3","4","4","4","5","4","5","5","4","4","5","5","5","2","1","2","2","1","1","1","2","1","0","1","0","0","1","1","0","1","1","0","0","0","0","1","0","5","2","1","2","4","1","5","4","4","5","4","786960916901269506","王","438","","","","","","","","","","","","","","","","","","","","","","","","","","","","","","","","","","","","","","","","","",""
"778","<p style=""color:white; font-size: 35px;"">愚钝</p>","e","categorize-html","115","287738","0.0-6.0-0.0-8.0-1.3","3","4","4","3","4","4","3","3","4","4","4","5","4","5","5","4","4","5","5","5","2","1","2","2","1","1","1","2","1","0","1","0","0","1","1","0","1","1","0","0","0","0","1","0","5","2","1","2","4","1","5","4","4","5","4","786960916901269506","王","438","","","","","","","","","","","","","","","","","","","true","4","4","ability","778","negative","愚钝","","","","","","","","","","","","","","","","",""
"null","","null","html-keyboard-response","116","287990","0.0-6.0-0.0-8.0-0.4","3","4","4","3","4","4","3","3","4","4","4","5","4","5","5","4","4","5","5","5","2","1","2","2","1","1","1","2","1","0","1","0","0","1","1","0","1","1","0","0","0","0","1","0","5","2","1","2","4","1","5","4","4","5","4","786960916901269506","王","438","","","","","","","","","","","","","","","","","","","","","","","","","","","","","","","","","","","","","","","","","",""
"777","<p style=""color:rgb(150, 250, 100); font-size: 35px;"">本人</p>","e","categorize-html","117","288777","0.0-6.0-0.0-8.0-1.4","3","4","4","3","4","4","3","3","4","4","4","5","4","5","5","4","4","5","5","5","2","1","2","2","1","1","1","2","1","0","1","0","0","1","1","0","1","1","0","0","0","0","1","0","5","2","1","2","4","1","5","4","4","5","4","786960916901269506","王","438","","","","","","","","","","","","","","","","","","","true","4","4","ability","777","self","本人","","","","","","","","","","","","","","","","",""
"null","","null","html-keyboard-response","118","289028","0.0-6.0-0.0-8.0-0.5","3","4","4","3","4","4","3","3","4","4","4","5","4","5","5","4","4","5","5","5","2","1","2","2","1","1","1","2","1","0","1","0","0","1","1","0","1","1","0","0","0","0","1","0","5","2","1","2","4","1","5","4","4","5","4","786960916901269506","王","438","","","","","","","","","","","","","","","","","","","","","","","","","","","","","","","","","","","","","","","","","",""
"1377","<p style=""color:white; font-size: 35px;"">能干</p>","i","categorize-html","119","290415","0.0-6.0-0.0-8.0-1.5","3","4","4","3","4","4","3","3","4","4","4","5","4","5","5","4","4","5","5","5","2","1","2","2","1","1","1","2","1","0","1","0","0","1","1","0","1","1","0","0","0","0","1","0","5","2","1","2","4","1","5","4","4","5","4","786960916901269506","王","438","","","","","","","","","","","","","","","","","","","true","4","4","ability","1377","positive","能干","","","","","","","","","","","","","","","","",""
"null","","null","html-keyboard-response","120","290667","0.0-6.0-0.0-8.0-0.6","3","4","4","3","4","4","3","3","4","4","4","5","4","5","5","4","4","5","5","5","2","1","2","2","1","1","1","2","1","0","1","0","0","1","1","0","1","1","0","0","0","0","1","0","5","2","1","2","4","1","5","4","4","5","4","786960916901269506","王","438","","","","","","","","","","","","","","","","","","","","","","","","","","","","","","","","","","","","","","","","","",""
"740","<p style=""color:rgb(150, 250, 100); font-size: 35px;"">别人</p>","i","categorize-html","121","291416","0.0-6.0-0.0-8.0-1.6","3","4","4","3","4","4","3","3","4","4","4","5","4","5","5","4","4","5","5","5","2","1","2","2","1","1","1","2","1","0","1","0","0","1","1","0","1","1","0","0","0","0","1","0","5","2","1","2","4","1","5","4","4","5","4","786960916901269506","王","438","","","","","","","","","","","","","","","","","","","true","4","4","ability","740","other","别人","","","","","","","","","","","","","","","","",""
"null","","null","html-keyboard-response","122","291668","0.0-6.0-0.0-8.0-0.7","3","4","4","3","4","4","3","3","4","4","4","5","4","5","5","4","4","5","5","5","2","1","2","2","1","1","1","2","1","0","1","0","0","1","1","0","1","1","0","0","0","0","1","0","5","2","1","2","4","1","5","4","4","5","4","786960916901269506","王","438","","","","","","","","","","","","","","","","","","","","","","","","","","","","","","","","","","","","","","","","","",""
"1275","<p style=""color:white; font-size: 35px;"">低能</p>","e","categorize-html","123","292952","0.0-6.0-0.0-8.0-1.7","3","4","4","3","4","4","3","3","4","4","4","5","4","5","5","4","4","5","5","5","2","1","2","2","1","1","1","2","1","0","1","0","0","1","1","0","1","1","0","0","0","0","1","0","5","2","1","2","4","1","5","4","4","5","4","786960916901269506","王","438","","","","","","","","","","","","","","","","","","","true","4","4","ability","1275","negative","低能","","","","","","","","","","","","","","","","",""
"null","","null","html-keyboard-response","124","293204","0.0-6.0-0.0-8.0-0.8","3","4","4","3","4","4","3","3","4","4","4","5","4","5","5","4","4","5","5","5","2","1","2","2","1","1","1","2","1","0","1","0","0","1","1","0","1","1","0","0","0","0","1","0","5","2","1","2","4","1","5","4","4","5","4","786960916901269506","王","438","","","","","","","","","","","","","","","","","","","","","","","","","","","","","","","","","","","","","","","","","",""
"1182","<p style=""color:rgb(150, 250, 100); font-size: 35px;"">他的</p>","i","categorize-html","125","294396","0.0-6.0-0.0-8.0-1.8","3","4","4","3","4","4","3","3","4","4","4","5","4","5","5","4","4","5","5","5","2","1","2","2","1","1","1","2","1","0","1","0","0","1","1","0","1","1","0","0","0","0","1","0","5","2","1","2","4","1","5","4","4","5","4","786960916901269506","王","438","","","","","","","","","","","","","","","","","","","true","4","4","ability","1182","other","他的","","","","","","","","","","","","","","","","",""
"null","","null","html-keyboard-response","126","294648","0.0-6.0-0.0-8.0-0.9","3","4","4","3","4","4","3","3","4","4","4","5","4","5","5","4","4","5","5","5","2","1","2","2","1","1","1","2","1","0","1","0","0","1","1","0","1","1","0","0","0","0","1","0","5","2","1","2","4","1","5","4","4","5","4","786960916901269506","王","438","","","","","","","","","","","","","","","","","","","","","","","","","","","","","","","","","","","","","","","","","",""
"808","<p style=""color:white; font-size: 35px;"">全能</p>","i","categorize-html","127","295465","0.0-6.0-0.0-8.0-1.9","3","4","4","3","4","4","3","3","4","4","4","5","4","5","5","4","4","5","5","5","2","1","2","2","1","1","1","2","1","0","1","0","0","1","1","0","1","1","0","0","0","0","1","0","5","2","1","2","4","1","5","4","4","5","4","786960916901269506","王","438","","","","","","","","","","","","","","","","","","","true","4","4","ability","808","positive","全能","","","","","","","","","","","","","","","","",""
"null","","null","html-keyboard-response","128","295718","0.0-6.0-0.0-8.0-0.10","3","4","4","3","4","4","3","3","4","4","4","5","4","5","5","4","4","5","5","5","2","1","2","2","1","1","1","2","1","0","1","0","0","1","1","0","1","1","0","0","0","0","1","0","5","2","1","2","4","1","5","4","4","5","4","786960916901269506","王","438","","","","","","","","","","","","","","","","","","","","","","","","","","","","","","","","","","","","","","","","","",""
"624","<p style=""color:rgb(150, 250, 100); font-size: 35px;"">我的</p>","e","categorize-html","129","296351","0.0-6.0-0.0-8.0-1.10","3","4","4","3","4","4","3","3","4","4","4","5","4","5","5","4","4","5","5","5","2","1","2","2","1","1","1","2","1","0","1","0","0","1","1","0","1","1","0","0","0","0","1","0","5","2","1","2","4","1","5","4","4","5","4","786960916901269506","王","438","","","","","","","","","","","","","","","","","","","true","4","4","ability","624","self","我的","","","","","","","","","","","","","","","","",""
"null","","null","html-keyboard-response","130","296603","0.0-6.0-0.0-8.0-0.11","3","4","4","3","4","4","3","3","4","4","4","5","4","5","5","4","4","5","5","5","2","1","2","2","1","1","1","2","1","0","1","0","0","1","1","0","1","1","0","0","0","0","1","0","5","2","1","2","4","1","5","4","4","5","4","786960916901269506","王","438","","","","","","","","","","","","","","","","","","","","","","","","","","","","","","","","","","","","","","","","","",""
"824","<p style=""color:white; font-size: 35px;"">拙笨</p>","e","categorize-html","131","297436","0.0-6.0-0.0-8.0-1.11","3","4","4","3","4","4","3","3","4","4","4","5","4","5","5","4","4","5","5","5","2","1","2","2","1","1","1","2","1","0","1","0","0","1","1","0","1","1","0","0","0","0","1","0","5","2","1","2","4","1","5","4","4","5","4","786960916901269506","王","438","","","","","","","","","","","","","","","","","","","true","4","4","ability","824","negative","拙笨","","","","","","","","","","","","","","","","",""
"null","","null","html-keyboard-response","132","297689","0.0-6.0-0.0-8.0-0.12","3","4","4","3","4","4","3","3","4","4","4","5","4","5","5","4","4","5","5","5","2","1","2","2","1","1","1","2","1","0","1","0","0","1","1","0","1","1","0","0","0","0","1","0","5","2","1","2","4","1","5","4","4","5","4","786960916901269506","王","438","","","","","","","","","","","","","","","","","","","","","","","","","","","","","","","","","","","","","","","","","",""
"713","<p style=""color:rgb(150, 250, 100); font-size: 35px;"">我</p>","e","categorize-html","133","298411","0.0-6.0-0.0-8.0-1.12","3","4","4","3","4","4","3","3","4","4","4","5","4","5","5","4","4","5","5","5","2","1","2","2","1","1","1","2","1","0","1","0","0","1","1","0","1","1","0","0","0","0","1","0","5","2","1","2","4","1","5","4","4","5","4","786960916901269506","王","438","","","","","","","","","","","","","","","","","","","true","4","4","ability","713","self","我","","","","","","","","","","","","","","","","",""
"null","","null","html-keyboard-response","134","298664","0.0-6.0-0.0-8.0-0.13","3","4","4","3","4","4","3","3","4","4","4","5","4","5","5","4","4","5","5","5","2","1","2","2","1","1","1","2","1","0","1","0","0","1","1","0","1","1","0","0","0","0","1","0","5","2","1","2","4","1","5","4","4","5","4","786960916901269506","王","438","","","","","","","","","","","","","","","","","","","","","","","","","","","","","","","","","","","","","","","","","",""
"675","<p style=""color:white; font-size: 35px;"">蠢笨</p>","e","categorize-html","135","299349","0.0-6.0-0.0-8.0-1.13","3","4","4","3","4","4","3","3","4","4","4","5","4","5","5","4","4","5","5","5","2","1","2","2","1","1","1","2","1","0","1","0","0","1","1","0","1","1","0","0","0","0","1","0","5","2","1","2","4","1","5","4","4","5","4","786960916901269506","王","438","","","","","","","","","","","","","","","","","","","true","4","4","ability","675","negative","蠢笨","","","","","","","","","","","","","","","","",""
"null","","null","html-keyboard-response","136","299602","0.0-6.0-0.0-8.0-0.14","3","4","4","3","4","4","3","3","4","4","4","5","4","5","5","4","4","5","5","5","2","1","2","2","1","1","1","2","1","0","1","0","0","1","1","0","1","1","0","0","0","0","1","0","5","2","1","2","4","1","5","4","4","5","4","786960916901269506","王","438","","","","","","","","","","","","","","","","","","","","","","","","","","","","","","","","","","","","","","","","","",""
"548","<p style=""color:rgb(150, 250, 100); font-size: 35px;"">他人</p>","i","categorize-html","137","300158","0.0-6.0-0.0-8.0-1.14","3","4","4","3","4","4","3","3","4","4","4","5","4","5","5","4","4","5","5","5","2","1","2","2","1","1","1","2","1","0","1","0","0","1","1","0","1","1","0","0","0","0","1","0","5","2","1","2","4","1","5","4","4","5","4","786960916901269506","王","438","","","","","","","","","","","","","","","","","","","true","4","4","ability","548","other","他人","","","","","","","","","","","","","","","","",""
"null","","null","html-keyboard-response","138","300411","0.0-6.0-0.0-8.0-0.15","3","4","4","3","4","4","3","3","4","4","4","5","4","5","5","4","4","5","5","5","2","1","2","2","1","1","1","2","1","0","1","0","0","1","1","0","1","1","0","0","0","0","1","0","5","2","1","2","4","1","5","4","4","5","4","786960916901269506","王","438","","","","","","","","","","","","","","","","","","","","","","","","","","","","","","","","","","","","","","","","","",""
"925","<p style=""color:white; font-size: 35px;"">精干</p>","i","categorize-html","139","301345","0.0-6.0-0.0-8.0-1.15","3","4","4","3","4","4","3","3","4","4","4","5","4","5","5","4","4","5","5","5","2","1","2","2","1","1","1","2","1","0","1","0","0","1","1","0","1","1","0","0","0","0","1","0","5","2","1","2","4","1","5","4","4","5","4","786960916901269506","王","438","","","","","","","","","","","","","","","","","","","true","4","4","ability","925","positive","精干","","","","","","","","","","","","","","","","",""
"null","","null","html-keyboard-response","140","301597","0.0-6.0-0.0-8.0-0.16","3","4","4","3","4","4","3","3","4","4","4","5","4","5","5","4","4","5","5","5","2","1","2","2","1","1","1","2","1","0","1","0","0","1","1","0","1","1","0","0","0","0","1","0","5","2","1","2","4","1","5","4","4","5","4","786960916901269506","王","438","","","","","","","","","","","","","","","","","","","","","","","","","","","","","","","","","","","","","","","","","",""
"698","<p style=""color:rgb(150, 250, 100); font-size: 35px;"">他人</p>","i","categorize-html","141","302304","0.0-6.0-0.0-8.0-1.16","3","4","4","3","4","4","3","3","4","4","4","5","4","5","5","4","4","5","5","5","2","1","2","2","1","1","1","2","1","0","1","0","0","1","1","0","1","1","0","0","0","0","1","0","5","2","1","2","4","1","5","4","4","5","4","786960916901269506","王","438","","","","","","","","","","","","","","","","","","","true","4","4","ability","698","other","他人","","","","","","","","","","","","","","","","",""
"null","","null","html-keyboard-response","142","302556","0.0-6.0-0.0-8.0-0.17","3","4","4","3","4","4","3","3","4","4","4","5","4","5","5","4","4","5","5","5","2","1","2","2","1","1","1","2","1","0","1","0","0","1","1","0","1","1","0","0","0","0","1","0","5","2","1","2","4","1","5","4","4","5","4","786960916901269506","王","438","","","","","","","","","","","","","","","","","","","","","","","","","","","","","","","","","","","","","","","","","",""
"661","<p style=""color:white; font-size: 35px;"">无能</p>","e","categorize-html","143","303227","0.0-6.0-0.0-8.0-1.17","3","4","4","3","4","4","3","3","4","4","4","5","4","5","5","4","4","5","5","5","2","1","2","2","1","1","1","2","1","0","1","0","0","1","1","0","1","1","0","0","0","0","1","0","5","2","1","2","4","1","5","4","4","5","4","786960916901269506","王","438","","","","","","","","","","","","","","","","","","","true","4","4","ability","661","negative","无能","","","","","","","","","","","","","","","","",""
"null","","null","html-keyboard-response","144","303480","0.0-6.0-0.0-8.0-0.18","3","4","4","3","4","4","3","3","4","4","4","5","4","5","5","4","4","5","5","5","2","1","2","2","1","1","1","2","1","0","1","0","0","1","1","0","1","1","0","0","0","0","1","0","5","2","1","2","4","1","5","4","4","5","4","786960916901269506","王","438","","","","","","","","","","","","","","","","","","","","","","","","","","","","","","","","","","","","","","","","","",""
"685","<p style=""color:rgb(150, 250, 100); font-size: 35px;"">自己的</p>","e","categorize-html","145","304173","0.0-6.0-0.0-8.0-1.18","3","4","4","3","4","4","3","3","4","4","4","5","4","5","5","4","4","5","5","5","2","1","2","2","1","1","1","2","1","0","1","0","0","1","1","0","1","1","0","0","0","0","1","0","5","2","1","2","4","1","5","4","4","5","4","786960916901269506","王","438","","","","","","","","","","","","","","","","","","","true","4","4","ability","685","self","自己的","","","","","","","","","","","","","","","","",""
"null","","null","html-keyboard-response","146","304426","0.0-6.0-0.0-8.0-0.19","3","4","4","3","4","4","3","3","4","4","4","5","4","5","5","4","4","5","5","5","2","1","2","2","1","1","1","2","1","0","1","0","0","1","1","0","1","1","0","0","0","0","1","0","5","2","1","2","4","1","5","4","4","5","4","786960916901269506","王","438","","","","","","","","","","","","","","","","","","","","","","","","","","","","","","","","","","","","","","","","","",""
"598","<p style=""color:white; font-size: 35px;"">精干</p>","i","categorize-html","147","305033","0.0-6.0-0.0-8.0-1.19","3","4","4","3","4","4","3","3","4","4","4","5","4","5","5","4","4","5","5","5","2","1","2","2","1","1","1","2","1","0","1","0","0","1","1","0","1","1","0","0","0","0","1","0","5","2","1","2","4","1","5","4","4","5","4","786960916901269506","王","438","","","","","","","","","","","","","","","","","","","true","4","4","ability","598","positive","精干","","","","","","","","","","","","","","","","",""
"null","","null","html-keyboard-response","148","305286","0.0-6.0-0.0-8.0-0.20","3","4","4","3","4","4","3","3","4","4","4","5","4","5","5","4","4","5","5","5","2","1","2","2","1","1","1","2","1","0","1","0","0","1","1","0","1","1","0","0","0","0","1","0","5","2","1","2","4","1","5","4","4","5","4","786960916901269506","王","438","","","","","","","","","","","","","","","","","","","","","","","","","","","","","","","","","","","","","","","","","",""
"717","<p style=""color:rgb(150, 250, 100); font-size: 35px;"">别人的</p>","i","categorize-html","149","306012","0.0-6.0-0.0-8.0-1.20","3","4","4","3","4","4","3","3","4","4","4","5","4","5","5","4","4","5","5","5","2","1","2","2","1","1","1","2","1","0","1","0","0","1","1","0","1","1","0","0","0","0","1","0","5","2","1","2","4","1","5","4","4","5","4","786960916901269506","王","438","","","","","","","","","","","","","","","","","","","true","4","4","ability","717","other","别人的","","","","","","","","","","","","","","","","",""
"null","","null","html-keyboard-response","150","306265","0.0-6.0-0.0-8.0-0.21","3","4","4","3","4","4","3","3","4","4","4","5","4","5","5","4","4","5","5","5","2","1","2","2","1","1","1","2","1","0","1","0","0","1","1","0","1","1","0","0","0","0","1","0","5","2","1","2","4","1","5","4","4","5","4","786960916901269506","王","438","","","","","","","","","","","","","","","","","","","","","","","","","","","","","","","","","","","","","","","","","",""
"2396","<p style=""color:white; font-size: 35px;"">全才</p>","i","categorize-html","151","308671","0.0-6.0-0.0-8.0-1.21","3","4","4","3","4","4","3","3","4","4","4","5","4","5","5","4","4","5","5","5","2","1","2","2","1","1","1","2","1","0","1","0","0","1","1","0","1","1","0","0","0","0","1","0","5","2","1","2","4","1","5","4","4","5","4","786960916901269506","王","438","","","","","","","","","","","","","","","","","","","true","4","4","ability","2396","positive","全才","","","","","","","","","","","","","","","","",""
"null","","null","html-keyboard-response","152","308923","0.0-6.0-0.0-8.0-0.22","3","4","4","3","4","4","3","3","4","4","4","5","4","5","5","4","4","5","5","5","2","1","2","2","1","1","1","2","1","0","1","0","0","1","1","0","1","1","0","0","0","0","1","0","5","2","1","2","4","1","5","4","4","5","4","786960916901269506","王","438","","","","","","","","","","","","","","","","","","","","","","","","","","","","","","","","","","","","","","","","","",""
"788","<p style=""color:rgb(150, 250, 100); font-size: 35px;"">本人的</p>","e","categorize-html","153","309720","0.0-6.0-0.0-8.0-1.22","3","4","4","3","4","4","3","3","4","4","4","5","4","5","5","4","4","5","5","5","2","1","2","2","1","1","1","2","1","0","1","0","0","1","1","0","1","1","0","0","0","0","1","0","5","2","1","2","4","1","5","4","4","5","4","786960916901269506","王","438","","","","","","","","","","","","","","","","","","","true","4","4","ability","788","self","本人的","","","","","","","","","","","","","","","","",""
"null","","null","html-keyboard-response","154","309973","0.0-6.0-0.0-8.0-0.23","3","4","4","3","4","4","3","3","4","4","4","5","4","5","5","4","4","5","5","5","2","1","2","2","1","1","1","2","1","0","1","0","0","1","1","0","1","1","0","0","0","0","1","0","5","2","1","2","4","1","5","4","4","5","4","786960916901269506","王","438","","","","","","","","","","","","","","","","","","","","","","","","","","","","","","","","","","","","","","","","","",""
"698","<p style=""color:white; font-size: 35px;"">拙笨</p>","e","categorize-html","155","310680","0.0-6.0-0.0-8.0-1.23","3","4","4","3","4","4","3","3","4","4","4","5","4","5","5","4","4","5","5","5","2","1","2","2","1","1","1","2","1","0","1","0","0","1","1","0","1","1","0","0","0","0","1","0","5","2","1","2","4","1","5","4","4","5","4","786960916901269506","王","438","","","","","","","","","","","","","","","","","","","true","4","4","ability","698","negative","拙笨","","","","","","","","","","","","","","","","",""
"null","","null","html-keyboard-response","156","310932","0.0-6.0-0.0-8.0-0.24","3","4","4","3","4","4","3","3","4","4","4","5","4","5","5","4","4","5","5","5","2","1","2","2","1","1","1","2","1","0","1","0","0","1","1","0","1","1","0","0","0","0","1","0","5","2","1","2","4","1","5","4","4","5","4","786960916901269506","王","438","","","","","","","","","","","","","","","","","","","","","","","","","","","","","","","","","","","","","","","","","",""
"989","<p style=""color:rgb(150, 250, 100); font-size: 35px;"">他人的</p>","i","categorize-html","157","311930","0.0-6.0-0.0-8.0-1.24","3","4","4","3","4","4","3","3","4","4","4","5","4","5","5","4","4","5","5","5","2","1","2","2","1","1","1","2","1","0","1","0","0","1","1","0","1","1","0","0","0","0","1","0","5","2","1","2","4","1","5","4","4","5","4","786960916901269506","王","438","","","","","","","","","","","","","","","","","","","true","4","4","ability","989","other","他人的","","","","","","","","","","","","","","","","",""
"null","","null","html-keyboard-response","158","312183","0.0-6.0-0.0-8.0-0.25","3","4","4","3","4","4","3","3","4","4","4","5","4","5","5","4","4","5","5","5","2","1","2","2","1","1","1","2","1","0","1","0","0","1","1","0","1","1","0","0","0","0","1","0","5","2","1","2","4","1","5","4","4","5","4","786960916901269506","王","438","","","","","","","","","","","","","","","","","","","","","","","","","","","","","","","","","","","","","","","","","",""
"1113","<p style=""color:white; font-size: 35px;"">高效</p>","i","categorize-html","159","313304","0.0-6.0-0.0-8.0-1.25","3","4","4","3","4","4","3","3","4","4","4","5","4","5","5","4","4","5","5","5","2","1","2","2","1","1","1","2","1","0","1","0","0","1","1","0","1","1","0","0","0","0","1","0","5","2","1","2","4","1","5","4","4","5","4","786960916901269506","王","438","","","","","","","","","","","","","","","","","","","true","4","4","ability","1113","positive","高效","","","","","","","","","","","","","","","","",""
"null","","null","html-keyboard-response","160","313556","0.0-6.0-0.0-8.0-0.26","3","4","4","3","4","4","3","3","4","4","4","5","4","5","5","4","4","5","5","5","2","1","2","2","1","1","1","2","1","0","1","0","0","1","1","0","1","1","0","0","0","0","1","0","5","2","1","2","4","1","5","4","4","5","4","786960916901269506","王","438","","","","","","","","","","","","","","","","","","","","","","","","","","","","","","","","","","","","","","","","","",""
"769","<p style=""color:rgb(150, 250, 100); font-size: 35px;"">自己</p>","e","categorize-html","161","314334","0.0-6.0-0.0-8.0-1.26","3","4","4","3","4","4","3","3","4","4","4","5","4","5","5","4","4","5","5","5","2","1","2","2","1","1","1","2","1","0","1","0","0","1","1","0","1","1","0","0","0","0","1","0","5","2","1","2","4","1","5","4","4","5","4","786960916901269506","王","438","","","","","","","","","","","","","","","","","","","true","4","4","ability","769","self","自己","","","","","","","","","","","","","","","","",""
"null","","null","html-keyboard-response","162","314586","0.0-6.0-0.0-8.0-0.27","3","4","4","3","4","4","3","3","4","4","4","5","4","5","5","4","4","5","5","5","2","1","2","2","1","1","1","2","1","0","1","0","0","1","1","0","1","1","0","0","0","0","1","0","5","2","1","2","4","1","5","4","4","5","4","786960916901269506","王","438","","","","","","","","","","","","","","","","","","","","","","","","","","","","","","","","","","","","","","","","","",""
"604","<p style=""color:white; font-size: 35px;"">废物</p>","e","categorize-html","163","315200","0.0-6.0-0.0-8.0-1.27","3","4","4","3","4","4","3","3","4","4","4","5","4","5","5","4","4","5","5","5","2","1","2","2","1","1","1","2","1","0","1","0","0","1","1","0","1","1","0","0","0","0","1","0","5","2","1","2","4","1","5","4","4","5","4","786960916901269506","王","438","","","","","","","","","","","","","","","","","","","true","4","4","ability","604","negative","废物","","","","","","","","","","","","","","","","",""
"null","","null","html-keyboard-response","164","315452","0.0-6.0-0.0-8.0-0.28","3","4","4","3","4","4","3","3","4","4","4","5","4","5","5","4","4","5","5","5","2","1","2","2","1","1","1","2","1","0","1","0","0","1","1","0","1","1","0","0","0","0","1","0","5","2","1","2","4","1","5","4","4","5","4","786960916901269506","王","438","","","","","","","","","","","","","","","","","","","","","","","","","","","","","","","","","","","","","","","","","",""
"1158","<p style=""color:rgb(150, 250, 100); font-size: 35px;"">本人</p>","e","categorize-html","165","316620","0.0-6.0-0.0-8.0-1.28","3","4","4","3","4","4","3","3","4","4","4","5","4","5","5","4","4","5","5","5","2","1","2","2","1","1","1","2","1","0","1","0","0","1","1","0","1","1","0","0","0","0","1","0","5","2","1","2","4","1","5","4","4","5","4","786960916901269506","王","438","","","","","","","","","","","","","","","","","","","true","4","4","ability","1158","self","本人","","","","","","","","","","","","","","","","",""
"null","","null","html-keyboard-response","166","316873","0.0-6.0-0.0-8.0-0.29","3","4","4","3","4","4","3","3","4","4","4","5","4","5","5","4","4","5","5","5","2","1","2","2","1","1","1","2","1","0","1","0","0","1","1","0","1","1","0","0","0","0","1","0","5","2","1","2","4","1","5","4","4","5","4","786960916901269506","王","438","","","","","","","","","","","","","","","","","","","","","","","","","","","","","","","","","","","","","","","","","",""
"896","<p style=""color:white; font-size: 35px;"">废物</p>","e","categorize-html","167","317778","0.0-6.0-0.0-8.0-1.29","3","4","4","3","4","4","3","3","4","4","4","5","4","5","5","4","4","5","5","5","2","1","2","2","1","1","1","2","1","0","1","0","0","1","1","0","1","1","0","0","0","0","1","0","5","2","1","2","4","1","5","4","4","5","4","786960916901269506","王","438","","","","","","","","","","","","","","","","","","","true","4","4","ability","896","negative","废物","","","","","","","","","","","","","","","","",""
"null","","null","html-keyboard-response","168","318030","0.0-6.0-0.0-8.0-0.30","3","4","4","3","4","4","3","3","4","4","4","5","4","5","5","4","4","5","5","5","2","1","2","2","1","1","1","2","1","0","1","0","0","1","1","0","1","1","0","0","0","0","1","0","5","2","1","2","4","1","5","4","4","5","4","786960916901269506","王","438","","","","","","","","","","","","","","","","","","","","","","","","","","","","","","","","","","","","","","","","","",""
"764","<p style=""color:rgb(150, 250, 100); font-size: 35px;"">他人的</p>","i","categorize-html","169","318798","0.0-6.0-0.0-8.0-1.30","3","4","4","3","4","4","3","3","4","4","4","5","4","5","5","4","4","5","5","5","2","1","2","2","1","1","1","2","1","0","1","0","0","1","1","0","1","1","0","0","0","0","1","0","5","2","1","2","4","1","5","4","4","5","4","786960916901269506","王","438","","","","","","","","","","","","","","","","","","","true","4","4","ability","764","other","他人的","","","","","","","","","","","","","","","","",""
"null","","null","html-keyboard-response","170","319051","0.0-6.0-0.0-8.0-0.31","3","4","4","3","4","4","3","3","4","4","4","5","4","5","5","4","4","5","5","5","2","1","2","2","1","1","1","2","1","0","1","0","0","1","1","0","1","1","0","0","0","0","1","0","5","2","1","2","4","1","5","4","4","5","4","786960916901269506","王","438","","","","","","","","","","","","","","","","","","","","","","","","","","","","","","","","","","","","","","","","","",""
"632","<p style=""color:white; font-size: 35px;"">全才</p>","i","categorize-html","171","319692","0.0-6.0-0.0-8.0-1.31","3","4","4","3","4","4","3","3","4","4","4","5","4","5","5","4","4","5","5","5","2","1","2","2","1","1","1","2","1","0","1","0","0","1","1","0","1","1","0","0","0","0","1","0","5","2","1","2","4","1","5","4","4","5","4","786960916901269506","王","438","","","","","","","","","","","","","","","","","","","true","4","4","ability","632","positive","全才","","","","","","","","","","","","","","","","",""
"null","","null","html-keyboard-response","172","319944","0.0-6.0-0.0-8.0-0.32","3","4","4","3","4","4","3","3","4","4","4","5","4","5","5","4","4","5","5","5","2","1","2","2","1","1","1","2","1","0","1","0","0","1","1","0","1","1","0","0","0","0","1","0","5","2","1","2","4","1","5","4","4","5","4","786960916901269506","王","438","","","","","","","","","","","","","","","","","","","","","","","","","","","","","","","","","","","","","","","","","",""
"1161","<p style=""color:rgb(150, 250, 100); font-size: 35px;"">他的</p>","i","categorize-html","173","321114","0.0-6.0-0.0-8.0-1.32","3","4","4","3","4","4","3","3","4","4","4","5","4","5","5","4","4","5","5","5","2","1","2","2","1","1","1","2","1","0","1","0","0","1","1","0","1","1","0","0","0","0","1","0","5","2","1","2","4","1","5","4","4","5","4","786960916901269506","王","438","","","","","","","","","","","","","","","","","","","true","4","4","ability","1161","other","他的","","","","","","","","","","","","","","","","",""
"null","","null","html-keyboard-response","174","321367","0.0-6.0-0.0-8.0-0.33","3","4","4","3","4","4","3","3","4","4","4","5","4","5","5","4","4","5","5","5","2","1","2","2","1","1","1","2","1","0","1","0","0","1","1","0","1","1","0","0","0","0","1","0","5","2","1","2","4","1","5","4","4","5","4","786960916901269506","王","438","","","","","","","","","","","","","","","","","","","","","","","","","","","","","","","","","","","","","","","","","",""
"871","<p style=""color:white; font-size: 35px;"">无能</p>","e","categorize-html","175","322247","0.0-6.0-0.0-8.0-1.33","3","4","4","3","4","4","3","3","4","4","4","5","4","5","5","4","4","5","5","5","2","1","2","2","1","1","1","2","1","0","1","0","0","1","1","0","1","1","0","0","0","0","1","0","5","2","1","2","4","1","5","4","4","5","4","786960916901269506","王","438","","","","","","","","","","","","","","","","","","","true","4","4","ability","871","negative","无能","","","","","","","","","","","","","","","","",""
"null","","null","html-keyboard-response","176","322500","0.0-6.0-0.0-8.0-0.34","3","4","4","3","4","4","3","3","4","4","4","5","4","5","5","4","4","5","5","5","2","1","2","2","1","1","1","2","1","0","1","0","0","1","1","0","1","1","0","0","0","0","1","0","5","2","1","2","4","1","5","4","4","5","4","786960916901269506","王","438","","","","","","","","","","","","","","","","","","","","","","","","","","","","","","","","","","","","","","","","","",""
"911","<p style=""color:rgb(150, 250, 100); font-size: 35px;"">自己</p>","e","categorize-html","177","323420","0.0-6.0-0.0-8.0-1.34","3","4","4","3","4","4","3","3","4","4","4","5","4","5","5","4","4","5","5","5","2","1","2","2","1","1","1","2","1","0","1","0","0","1","1","0","1","1","0","0","0","0","1","0","5","2","1","2","4","1","5","4","4","5","4","786960916901269506","王","438","","","","","","","","","","","","","","","","","","","true","4","4","ability","911","self","自己","","","","","","","","","","","","","","","","",""
"null","","null","html-keyboard-response","178","323672","0.0-6.0-0.0-8.0-0.35","3","4","4","3","4","4","3","3","4","4","4","5","4","5","5","4","4","5","5","5","2","1","2","2","1","1","1","2","1","0","1","0","0","1","1","0","1","1","0","0","0","0","1","0","5","2","1","2","4","1","5","4","4","5","4","786960916901269506","王","438","","","","","","","","","","","","","","","","","","","","","","","","","","","","","","","","","","","","","","","","","",""
"1593","<p style=""color:white; font-size: 35px;"">高效</p>","i","categorize-html","179","325274","0.0-6.0-0.0-8.0-1.35","3","4","4","3","4","4","3","3","4","4","4","5","4","5","5","4","4","5","5","5","2","1","2","2","1","1","1","2","1","0","1","0","0","1","1","0","1","1","0","0","0","0","1","0","5","2","1","2","4","1","5","4","4","5","4","786960916901269506","王","438","","","","","","","","","","","","","","","","","","","true","4","4","ability","1593","positive","高效","","","","","","","","","","","","","","","","",""
"null","","null","html-keyboard-response","180","325526","0.0-6.0-0.0-8.0-0.36","3","4","4","3","4","4","3","3","4","4","4","5","4","5","5","4","4","5","5","5","2","1","2","2","1","1","1","2","1","0","1","0","0","1","1","0","1","1","0","0","0","0","1","0","5","2","1","2","4","1","5","4","4","5","4","786960916901269506","王","438","","","","","","","","","","","","","","","","","","","","","","","","","","","","","","","","","","","","","","","","","",""
"2140","<p style=""color:rgb(150, 250, 100); font-size: 35px;"">别人的</p>","i","categorize-html","181","327678","0.0-6.0-0.0-8.0-1.36","3","4","4","3","4","4","3","3","4","4","4","5","4","5","5","4","4","5","5","5","2","1","2","2","1","1","1","2","1","0","1","0","0","1","1","0","1","1","0","0","0","0","1","0","5","2","1","2","4","1","5","4","4","5","4","786960916901269506","王","438","","","","","","","","","","","","","","","","","","","true","4","4","ability","2140","other","别人的","","","","","","","","","","","","","","","","",""
"null","","null","html-keyboard-response","182","327930","0.0-6.0-0.0-8.0-0.37","3","4","4","3","4","4","3","3","4","4","4","5","4","5","5","4","4","5","5","5","2","1","2","2","1","1","1","2","1","0","1","0","0","1","1","0","1","1","0","0","0","0","1","0","5","2","1","2","4","1","5","4","4","5","4","786960916901269506","王","438","","","","","","","","","","","","","","","","","","","","","","","","","","","","","","","","","","","","","","","","","",""
"739","<p style=""color:white; font-size: 35px;"">愚钝</p>","e","categorize-html","183","328677","0.0-6.0-0.0-8.0-1.37","3","4","4","3","4","4","3","3","4","4","4","5","4","5","5","4","4","5","5","5","2","1","2","2","1","1","1","2","1","0","1","0","0","1","1","0","1","1","0","0","0","0","1","0","5","2","1","2","4","1","5","4","4","5","4","786960916901269506","王","438","","","","","","","","","","","","","","","","","","","true","4","4","ability","739","negative","愚钝","","","","","","","","","","","","","","","","",""
"null","","null","html-keyboard-response","184","328929","0.0-6.0-0.0-8.0-0.38","3","4","4","3","4","4","3","3","4","4","4","5","4","5","5","4","4","5","5","5","2","1","2","2","1","1","1","2","1","0","1","0","0","1","1","0","1","1","0","0","0","0","1","0","5","2","1","2","4","1","5","4","4","5","4","786960916901269506","王","438","","","","","","","","","","","","","","","","","","","","","","","","","","","","","","","","","","","","","","","","","",""
"816","<p style=""color:rgb(150, 250, 100); font-size: 35px;"">我的</p>","e","categorize-html","185","329753","0.0-6.0-0.0-8.0-1.38","3","4","4","3","4","4","3","3","4","4","4","5","4","5","5","4","4","5","5","5","2","1","2","2","1","1","1","2","1","0","1","0","0","1","1","0","1","1","0","0","0","0","1","0","5","2","1","2","4","1","5","4","4","5","4","786960916901269506","王","438","","","","","","","","","","","","","","","","","","","true","4","4","ability","816","self","我的","","","","","","","","","","","","","","","","",""
"null","","null","html-keyboard-response","186","330006","0.0-6.0-0.0-8.0-0.39","3","4","4","3","4","4","3","3","4","4","4","5","4","5","5","4","4","5","5","5","2","1","2","2","1","1","1","2","1","0","1","0","0","1","1","0","1","1","0","0","0","0","1","0","5","2","1","2","4","1","5","4","4","5","4","786960916901269506","王","438","","","","","","","","","","","","","","","","","","","","","","","","","","","","","","","","","","","","","","","","","",""
"1200","<p style=""color:white; font-size: 35px;"">天才</p>","i","categorize-html","187","331215","0.0-6.0-0.0-8.0-1.39","3","4","4","3","4","4","3","3","4","4","4","5","4","5","5","4","4","5","5","5","2","1","2","2","1","1","1","2","1","0","1","0","0","1","1","0","1","1","0","0","0","0","1","0","5","2","1","2","4","1","5","4","4","5","4","786960916901269506","王","438","","","","","","","","","","","","","","","","","","","true","4","4","ability","1200","positive","天才","","","","","","","","","","","","","","","","",""
"null","","null","html-keyboard-response","188","331469","0.0-6.0-0.0-8.0-0.40","3","4","4","3","4","4","3","3","4","4","4","5","4","5","5","4","4","5","5","5","2","1","2","2","1","1","1","2","1","0","1","0","0","1","1","0","1","1","0","0","0","0","1","0","5","2","1","2","4","1","5","4","4","5","4","786960916901269506","王","438","","","","","","","","","","","","","","","","","","","","","","","","","","","","","","","","","","","","","","","","","",""
"1238","<p style=""color:rgb(150, 250, 100); font-size: 35px;"">我</p>","e","categorize-html","189","332717","0.0-6.0-0.0-8.0-1.40","3","4","4","3","4","4","3","3","4","4","4","5","4","5","5","4","4","5","5","5","2","1","2","2","1","1","1","2","1","0","1","0","0","1","1","0","1","1","0","0","0","0","1","0","5","2","1","2","4","1","5","4","4","5","4","786960916901269506","王","438","","","","","","","","","","","","","","","","","","","true","4","4","ability","1238","self","我","","","","","","","","","","","","","","","","",""
"null","","null","html-keyboard-response","190","332973","0.0-6.0-0.0-8.0-0.41","3","4","4","3","4","4","3","3","4","4","4","5","4","5","5","4","4","5","5","5","2","1","2","2","1","1","1","2","1","0","1","0","0","1","1","0","1","1","0","0","0","0","1","0","5","2","1","2","4","1","5","4","4","5","4","786960916901269506","王","438","","","","","","","","","","","","","","","","","","","","","","","","","","","","","","","","","","","","","","","","","",""
"2175","<p style=""color:white; font-size: 35px;"">低能</p>","e","categorize-html","191","335158","0.0-6.0-0.0-8.0-1.41","3","4","4","3","4","4","3","3","4","4","4","5","4","5","5","4","4","5","5","5","2","1","2","2","1","1","1","2","1","0","1","0","0","1","1","0","1","1","0","0","0","0","1","0","5","2","1","2","4","1","5","4","4","5","4","786960916901269506","王","438","","","","","","","","","","","","","","","","","","","true","4","4","ability","2175","negative","低能","","","","","","","","","","","","","","","","",""
"null","","null","html-keyboard-response","192","335411","0.0-6.0-0.0-8.0-0.42","3","4","4","3","4","4","3","3","4","4","4","5","4","5","5","4","4","5","5","5","2","1","2","2","1","1","1","2","1","0","1","0","0","1","1","0","1","1","0","0","0","0","1","0","5","2","1","2","4","1","5","4","4","5","4","786960916901269506","王","438","","","","","","","","","","","","","","","","","","","","","","","","","","","","","","","","","","","","","","","","","",""
"1161","<p style=""color:rgb(150, 250, 100); font-size: 35px;"">他</p>","i","categorize-html","193","336581","0.0-6.0-0.0-8.0-1.42","3","4","4","3","4","4","3","3","4","4","4","5","4","5","5","4","4","5","5","5","2","1","2","2","1","1","1","2","1","0","1","0","0","1","1","0","1","1","0","0","0","0","1","0","5","2","1","2","4","1","5","4","4","5","4","786960916901269506","王","438","","","","","","","","","","","","","","","","","","","true","4","4","ability","1161","other","他","","","","","","","","","","","","","","","","",""
