"rt","stimulus","response","trial_type","trial_index","time_elapsed","internal_node_id","ses_1","ses_2","ses_3","ses_4","ses_5","ses_6","ses_7","ses_8","ses_9","ses_10","coreself_1","coreself_2","coreself_3","coreself_4","coreself_5","coreself_6","coreself_7","coreself_8","coreself_9","coreself_10","SGPS_1","SGPS_2","SGPS_3","SGPS_4","SGPS_5","SGPS_6","SGPS_7","SGPS_8","SGPS_9","NPI1","NPI2","NPI3","NPI4","NPI5","NPI6","NPI7","NPI8","NPI9","NPI10","NPI11","NPI12","NPI13","NPI14","NPI15","hsns_1","hsns_2","hsns_3","hsns_4","hsns_5","trap1","hsns_6","hsns_7","hsns_8","hsns_9","hsns_10","subj_idx","friend_name","ParticipantID","value","success","user_agent","responses","item_order","radio_event_ids","radio_event_times","key_event_times","mouse_event_times","straightlining","zigzagging","honeypot","timeout","failed_images","failed_audio","failed_video","version_attrib2","version_target2","correct","IAT","screen_id","task_id","RT","condition","word","varname","summary","version_attrib","version_target","time_stamp","view_history","response_type","key_press","avg_frame_time","center_x","center_y","correct_response","identity","Image","question_order","correct_answer","trap1_item"
"11566","
   <p><div style = ""color: white;font-size:25px;"">您好，欢迎参加本次实验。</div> </p>
   <p><div style = ""color: white;font-size:25px;"">为充分保障您的权利，请确保您已经知晓并同意《参与实验同意书》以及《数据公开知情同意书》。</div></p>
   <p><div style = ""color: white;font-size:25px;"">如果您未见过上述内容，请咨询实验员。</div></p>
   <p><div style = ""color: white;font-size:25px;"">如果您选择继续实验，则表示您已经清楚两份知情同意书的内容并同意。</div></p>
   <p><div style = ""color: pink;font-size:30px;"">请确保您记得day0的实验编号，您将在本次实验输入该编号，若您忘记，请咨询实验员后作答。</div></p>
   <p><div style = ""color: lightblue;font-size:25px;"">请您尽可能认真地作答，我们将依据您在各问卷和按键任务中的作答质量发放报酬。</div></p>
   <p> <div style = ""color: green;font-size:25px;""><按空格键至下页></div> </p>
   "," ","html-keyboard-response","0","11570","0.0-0.0","3","3","3","3","2","3","3","3","3","3","4","3","4","4","4","4","4","4","4","4","2","2","3","2","2","2","2","2","1","1","0","0","1","0","0","1","1","0","1","1","0","1","0","1","4","4","3","2","4","3","3","4","4","2","2","781892112919826433","张","105","","","","","","","","","","","","","","","","","","","","","","","","","","","","","","","","","","","","","","","","","",""
"","","","call-function","1","11572","0.0-1.0-0.0","3","3","3","3","2","3","3","3","3","3","4","3","4","4","4","4","4","4","4","4","2","2","3","2","2","2","2","2","1","1","0","0","1","0","0","1","1","0","1","1","0","1","0","1","4","4","3","2","4","3","3","4","4","2","2","781892112919826433","张","105","","","","","","","","","","","","","","","","","","","","","","","","","","","","","","","","","","","","","","","","","",""
"27571","","{""friend_name"":""张"",""ParticipantID"":""105""}","survey-html-form","2","39148","0.0-1.0-1.0","3","3","3","3","2","3","3","3","3","3","4","3","4","4","4","4","4","4","4","4","2","2","3","2","2","2","2","2","1","1","0","0","1","0","0","1","1","0","1","1","0","1","0","1","4","4","3","2","4","3","3","4","4","2","2","781892112919826433","张","105","","","","","","","","","","","","","","","","","","","","","","","","","","","","","","","","","","","","","","","","","",""
"","","","fullscreen","3","70432","0.0-2.0","3","3","3","3","2","3","3","3","3","3","4","3","4","4","4","4","4","4","4","4","2","2","3","2","2","2","2","2","1","1","0","0","1","0","0","1","1","0","1","1","0","1","0","1","4","4","3","2","4","3","3","4","4","2","2","781892112919826433","张","105","","true","{}","","","","","","","","","","","","","","","","","","","","","","","","","","","","","","","","","","","","","","",""
"32094.5","","{""Q01"":""3"",""Q02"":""3"",""Q03"":""3"",""Q04"":""3"",""Q05"":""2"",""Q06"":""3"",""Q07"":""3"",""Q08"":""3"",""Q09"":""3"",""Q10"":""3""}","survey-template","4","102529","0.0-3.0","3","3","3","3","2","3","3","3","3","3","4","3","4","4","4","4","4","4","4","4","2","2","3","2","2","2","2","2","1","1","0","0","1","0","0","1","1","0","1","1","0","1","0","1","4","4","3","2","4","3","3","4","4","2","2","781892112919826433","张","105","","","","{""Q01"":""3"",""Q02"":""3"",""Q03"":""3"",""Q04"":""3"",""Q05"":""2"",""Q06"":""3"",""Q07"":""3"",""Q08"":""3"",""Q09"":""3"",""Q10"":""3""}","[0,1,2,3,4,5,6,7,8,9]","[""Q01"",""Q02"",""Q03"",""Q04"",""Q05"",""Q06"",""Q07"",""Q08"",""Q09"",""Q10""]","[4058.6000000089407,6041.9000000059605,9811.20000000298,12688.800000011921,15859.10000000894,19261.40000000596,20955.10000000894,23497.60000000894,28625.20000000298,30005.5]","[]","[3091.2000000029802,4058.6000000089407,6041.9000000059605,9811.20000000298,12688.800000011921,15859.10000000894,19261.40000000596,20955.10000000894,23497.60000000894,28625.20000000298,30005.5,32093.20000000298]","0.6","0.3333333333333333","0","","","","","","","","","","","","","","","","","","","","","","","","","","","","","",""
"30148.39999999106","","{""Q01"":""4"",""Q02"":""3"",""Q03"":""4"",""Q04"":""4"",""Q05"":""4"",""Q06"":""4"",""Q07"":""4"",""Q08"":""4"",""Q09"":""4"",""Q10"":""4""}","survey-template","5","132684","0.0-4.0","3","3","3","3","2","3","3","3","3","3","4","3","4","4","4","4","4","4","4","4","2","2","3","2","2","2","2","2","1","1","0","0","1","0","0","1","1","0","1","1","0","1","0","1","4","4","3","2","4","3","3","4","4","2","2","781892112919826433","张","105","","","","{""Q01"":""4"",""Q02"":""3"",""Q03"":""4"",""Q04"":""4"",""Q05"":""4"",""Q06"":""4"",""Q07"":""4"",""Q08"":""4"",""Q09"":""4"",""Q10"":""4""}","[0,1,2,3,4,5,6,7,8,9]","[""Q01"",""Q02"",""Q03"",""Q04"",""Q05"",""Q06"",""Q07"",""Q08"",""Q09"",""Q10""]","[5509,7072.899999991059,12724.79999999702,14792.29999999702,17159.19999998808,19178.79999999702,21685.29999999702,23882.69999998808,26938.79999999702,28480.79999999702]","[]","[5509,7072.899999991059,11881.29999999702,12724.79999999702,14792.29999999702,17159.19999998808,19178.79999999702,21685.29999999702,23882.69999998808,26938.79999999702,28480.79999999702,30147.19999998808]","0.5","0.2222222222222222","0","","","","","","","","","","","","","","","","","","","","","","","","","","","","","",""
"","","","preload","6","133244","0.0-5.0","3","3","3","3","2","3","3","3","3","3","4","3","4","4","4","4","4","4","4","4","2","2","3","2","2","2","2","2","1","1","0","0","1","0","0","1","1","0","1","1","0","1","0","1","4","4","3","2","4","3","3","4","4","2","2","781892112919826433","张","105","","true","","","","","","","","","","","false","[]","[]","[]","","","","","","","","","","","","","","","","","","","","","","","","","",""
"15897","
    <h3>词语分类任务</h3>
    <p>在接下来的任务中，你需要对一系列词语进行分类。<p/>
    请先熟悉这些词语，这有利于你完成接下来的任务。</p>
    <table align=""center"" border=1 cellpadding=3 cellspacing=0>
    <tr> <th>类别</th> <th>词语</th> </tr>
    <tr> <td>&emsp;积极&emsp;</td> <td>&emsp;高尚、诚信、善良、君子、廉正、正直&emsp;</td> </tr>
    <tr> <td>&emsp;消极&emsp;</td> <td>&emsp;缺德、卑鄙、不孝、不仁、小人、黑心&emsp;</td> </tr>
    <tr> <td>&emsp;自我&emsp;</td> <td>&emsp;我、我的、自己、自己的、本人、本人的&emsp;</td> </tr>
    <tr> <td>&emsp;他人&emsp;</td> <td>&emsp;他、他的、别人、别人的、他人、他人的&emsp;</td> </tr>
    </table><br/>","0","html-button-response","7","149144","0.0-6.0-1.0-0.0","3","3","3","3","2","3","3","3","3","3","4","3","4","4","4","4","4","4","4","4","2","2","3","2","2","2","2","2","1","1","0","0","1","0","0","1","1","0","1","1","0","1","0","1","4","4","3","2","4","3","3","4","4","2","2","781892112919826433","张","105","","","","","","","","","","","","","","","","","2","1","","","","","","","","","","","","","","","","","","","","","","","",""
"10338","
    <div class=""tag-bottom""><p>
    —— 任务1：对“自我”词和“他人”词分类 ——<p/>
    不同词语会出现在屏幕中央，类别标签将始终显示在屏幕上方<p/>   
    <span style=""color:#FFD866""><b>请根据上方标签的提示，尽可能正确并且快速地做出按键反应</b></span><p/>
    当按键错误时屏幕中会出现<span style=""color:red""> X </span>，需要按另一个键纠正才能继续<br/><p/>
    请把双手食指分别放在键盘的“E”键和“I”键上<p/>
    按<空格键>开始
    </p></div>"," ","html-keyboard-response","8","159486","0.0-6.0-1.0-1.0","3","3","3","3","2","3","3","3","3","3","4","3","4","4","4","4","4","4","4","4","2","2","3","2","2","2","2","2","1","1","0","0","1","0","0","1","1","0","1","1","0","1","0","1","4","4","3","2","4","3","3","4","4","2","2","781892112919826433","张","105","","","","","","","","","","","","","","","","","","","","","","","","","","","","","","","","","","","","","","","","","",""
"null","","null","html-keyboard-response","9","159737","0.0-6.0-1.0-2.0-0.0","3","3","3","3","2","3","3","3","3","3","4","3","4","4","4","4","4","4","4","4","2","2","3","2","2","2","2","2","1","1","0","0","1","0","0","1","1","0","1","1","0","1","0","1","4","4","3","2","4","3","3","4","4","2","2","781892112919826433","张","105","","","","","","","","","","","","","","","","","","","","","","","","","","","","","","","","","","","","","","","","","",""
"1399","<p style=""color:rgb(150, 250, 100); font-size: 35px;"">别人的</p>","i","categorize-html","10","161143","0.0-6.0-1.0-2.0-1.0","3","3","3","3","2","3","3","3","3","3","4","3","4","4","4","4","4","4","4","4","2","2","3","2","2","2","2","2","1","1","0","0","1","0","0","1","1","0","1","1","0","1","0","1","4","4","3","2","4","3","3","4","4","2","2","781892112919826433","张","105","","","","","","","","","","","","","","","","","","","true","11","1","moral","1399","other","别人的","","","","","","","","","","","","","","","","",""
"null","","null","html-keyboard-response","11","161396","0.0-6.0-1.0-2.0-0.1","3","3","3","3","2","3","3","3","3","3","4","3","4","4","4","4","4","4","4","4","2","2","3","2","2","2","2","2","1","1","0","0","1","0","0","1","1","0","1","1","0","1","0","1","4","4","3","2","4","3","3","4","4","2","2","781892112919826433","张","105","","","","","","","","","","","","","","","","","","","","","","","","","","","","","","","","","","","","","","","","","",""
"659","<p style=""color:rgb(150, 250, 100); font-size: 35px;"">自己的</p>","e","categorize-html","12","162057","0.0-6.0-1.0-2.0-1.1","3","3","3","3","2","3","3","3","3","3","4","3","4","4","4","4","4","4","4","4","2","2","3","2","2","2","2","2","1","1","0","0","1","0","0","1","1","0","1","1","0","1","0","1","4","4","3","2","4","3","3","4","4","2","2","781892112919826433","张","105","","","","","","","","","","","","","","","","","","","true","11","1","moral","659","self","自己的","","","","","","","","","","","","","","","","",""
"null","","null","html-keyboard-response","13","162319","0.0-6.0-1.0-2.0-0.2","3","3","3","3","2","3","3","3","3","3","4","3","4","4","4","4","4","4","4","4","2","2","3","2","2","2","2","2","1","1","0","0","1","0","0","1","1","0","1","1","0","1","0","1","4","4","3","2","4","3","3","4","4","2","2","781892112919826433","张","105","","","","","","","","","","","","","","","","","","","","","","","","","","","","","","","","","","","","","","","","","",""
"942","<p style=""color:rgb(150, 250, 100); font-size: 35px;"">我</p>","e","categorize-html","14","163265","0.0-6.0-1.0-2.0-1.2","3","3","3","3","2","3","3","3","3","3","4","3","4","4","4","4","4","4","4","4","2","2","3","2","2","2","2","2","1","1","0","0","1","0","0","1","1","0","1","1","0","1","0","1","4","4","3","2","4","3","3","4","4","2","2","781892112919826433","张","105","","","","","","","","","","","","","","","","","","","true","11","1","moral","942","self","我","","","","","","","","","","","","","","","","",""
"null","","null","html-keyboard-response","15","163517","0.0-6.0-1.0-2.0-0.3","3","3","3","3","2","3","3","3","3","3","4","3","4","4","4","4","4","4","4","4","2","2","3","2","2","2","2","2","1","1","0","0","1","0","0","1","1","0","1","1","0","1","0","1","4","4","3","2","4","3","3","4","4","2","2","781892112919826433","张","105","","","","","","","","","","","","","","","","","","","","","","","","","","","","","","","","","","","","","","","","","",""
"884","<p style=""color:rgb(150, 250, 100); font-size: 35px;"">自己</p>","e","categorize-html","16","164406","0.0-6.0-1.0-2.0-1.3","3","3","3","3","2","3","3","3","3","3","4","3","4","4","4","4","4","4","4","4","2","2","3","2","2","2","2","2","1","1","0","0","1","0","0","1","1","0","1","1","0","1","0","1","4","4","3","2","4","3","3","4","4","2","2","781892112919826433","张","105","","","","","","","","","","","","","","","","","","","true","11","1","moral","884","self","自己","","","","","","","","","","","","","","","","",""
"null","","null","html-keyboard-response","17","164659","0.0-6.0-1.0-2.0-0.4","3","3","3","3","2","3","3","3","3","3","4","3","4","4","4","4","4","4","4","4","2","2","3","2","2","2","2","2","1","1","0","0","1","0","0","1","1","0","1","1","0","1","0","1","4","4","3","2","4","3","3","4","4","2","2","781892112919826433","张","105","","","","","","","","","","","","","","","","","","","","","","","","","","","","","","","","","","","","","","","","","",""
"720","<p style=""color:rgb(150, 250, 100); font-size: 35px;"">我的</p>","e","categorize-html","18","165379","0.0-6.0-1.0-2.0-1.4","3","3","3","3","2","3","3","3","3","3","4","3","4","4","4","4","4","4","4","4","2","2","3","2","2","2","2","2","1","1","0","0","1","0","0","1","1","0","1","1","0","1","0","1","4","4","3","2","4","3","3","4","4","2","2","781892112919826433","张","105","","","","","","","","","","","","","","","","","","","true","11","1","moral","720","self","我的","","","","","","","","","","","","","","","","",""
"null","","null","html-keyboard-response","19","165630","0.0-6.0-1.0-2.0-0.5","3","3","3","3","2","3","3","3","3","3","4","3","4","4","4","4","4","4","4","4","2","2","3","2","2","2","2","2","1","1","0","0","1","0","0","1","1","0","1","1","0","1","0","1","4","4","3","2","4","3","3","4","4","2","2","781892112919826433","张","105","","","","","","","","","","","","","","","","","","","","","","","","","","","","","","","","","","","","","","","","","",""
"643","<p style=""color:rgb(150, 250, 100); font-size: 35px;"">他人</p>","i","categorize-html","20","166275","0.0-6.0-1.0-2.0-1.5","3","3","3","3","2","3","3","3","3","3","4","3","4","4","4","4","4","4","4","4","2","2","3","2","2","2","2","2","1","1","0","0","1","0","0","1","1","0","1","1","0","1","0","1","4","4","3","2","4","3","3","4","4","2","2","781892112919826433","张","105","","","","","","","","","","","","","","","","","","","true","11","1","moral","643","other","他人","","","","","","","","","","","","","","","","",""
"null","","null","html-keyboard-response","21","166527","0.0-6.0-1.0-2.0-0.6","3","3","3","3","2","3","3","3","3","3","4","3","4","4","4","4","4","4","4","4","2","2","3","2","2","2","2","2","1","1","0","0","1","0","0","1","1","0","1","1","0","1","0","1","4","4","3","2","4","3","3","4","4","2","2","781892112919826433","张","105","","","","","","","","","","","","","","","","","","","","","","","","","","","","","","","","","","","","","","","","","",""
"877","<p style=""color:rgb(150, 250, 100); font-size: 35px;"">本人</p>","e","categorize-html","22","167405","0.0-6.0-1.0-2.0-1.6","3","3","3","3","2","3","3","3","3","3","4","3","4","4","4","4","4","4","4","4","2","2","3","2","2","2","2","2","1","1","0","0","1","0","0","1","1","0","1","1","0","1","0","1","4","4","3","2","4","3","3","4","4","2","2","781892112919826433","张","105","","","","","","","","","","","","","","","","","","","true","11","1","moral","877","self","本人","","","","","","","","","","","","","","","","",""
"null","","null","html-keyboard-response","23","167657","0.0-6.0-1.0-2.0-0.7","3","3","3","3","2","3","3","3","3","3","4","3","4","4","4","4","4","4","4","4","2","2","3","2","2","2","2","2","1","1","0","0","1","0","0","1","1","0","1","1","0","1","0","1","4","4","3","2","4","3","3","4","4","2","2","781892112919826433","张","105","","","","","","","","","","","","","","","","","","","","","","","","","","","","","","","","","","","","","","","","","",""
"805","<p style=""color:rgb(150, 250, 100); font-size: 35px;"">别人</p>","i","categorize-html","24","168466","0.0-6.0-1.0-2.0-1.7","3","3","3","3","2","3","3","3","3","3","4","3","4","4","4","4","4","4","4","4","2","2","3","2","2","2","2","2","1","1","0","0","1","0","0","1","1","0","1","1","0","1","0","1","4","4","3","2","4","3","3","4","4","2","2","781892112919826433","张","105","","","","","","","","","","","","","","","","","","","true","11","1","moral","805","other","别人","","","","","","","","","","","","","","","","",""
"null","","null","html-keyboard-response","25","168719","0.0-6.0-1.0-2.0-0.8","3","3","3","3","2","3","3","3","3","3","4","3","4","4","4","4","4","4","4","4","2","2","3","2","2","2","2","2","1","1","0","0","1","0","0","1","1","0","1","1","0","1","0","1","4","4","3","2","4","3","3","4","4","2","2","781892112919826433","张","105","","","","","","","","","","","","","","","","","","","","","","","","","","","","","","","","","","","","","","","","","",""
"999","<p style=""color:rgb(150, 250, 100); font-size: 35px;"">本人的</p>","e","categorize-html","26","169722","0.0-6.0-1.0-2.0-1.8","3","3","3","3","2","3","3","3","3","3","4","3","4","4","4","4","4","4","4","4","2","2","3","2","2","2","2","2","1","1","0","0","1","0","0","1","1","0","1","1","0","1","0","1","4","4","3","2","4","3","3","4","4","2","2","781892112919826433","张","105","","","","","","","","","","","","","","","","","","","true","11","1","moral","999","self","本人的","","","","","","","","","","","","","","","","",""
"null","","null","html-keyboard-response","27","169973","0.0-6.0-1.0-2.0-0.9","3","3","3","3","2","3","3","3","3","3","4","3","4","4","4","4","4","4","4","4","2","2","3","2","2","2","2","2","1","1","0","0","1","0","0","1","1","0","1","1","0","1","0","1","4","4","3","2","4","3","3","4","4","2","2","781892112919826433","张","105","","","","","","","","","","","","","","","","","","","","","","","","","","","","","","","","","","","","","","","","","",""
"807","<p style=""color:rgb(150, 250, 100); font-size: 35px;"">他的</p>","i","categorize-html","28","170781","0.0-6.0-1.0-2.0-1.9","3","3","3","3","2","3","3","3","3","3","4","3","4","4","4","4","4","4","4","4","2","2","3","2","2","2","2","2","1","1","0","0","1","0","0","1","1","0","1","1","0","1","0","1","4","4","3","2","4","3","3","4","4","2","2","781892112919826433","张","105","","","","","","","","","","","","","","","","","","","true","11","1","moral","807","other","他的","","","","","","","","","","","","","","","","",""
"null","","null","html-keyboard-response","29","171033","0.0-6.0-1.0-2.0-0.10","3","3","3","3","2","3","3","3","3","3","4","3","4","4","4","4","4","4","4","4","2","2","3","2","2","2","2","2","1","1","0","0","1","0","0","1","1","0","1","1","0","1","0","1","4","4","3","2","4","3","3","4","4","2","2","781892112919826433","张","105","","","","","","","","","","","","","","","","","","","","","","","","","","","","","","","","","","","","","","","","","",""
"639","<p style=""color:rgb(150, 250, 100); font-size: 35px;"">他人的</p>","i","categorize-html","30","171673","0.0-6.0-1.0-2.0-1.10","3","3","3","3","2","3","3","3","3","3","4","3","4","4","4","4","4","4","4","4","2","2","3","2","2","2","2","2","1","1","0","0","1","0","0","1","1","0","1","1","0","1","0","1","4","4","3","2","4","3","3","4","4","2","2","781892112919826433","张","105","","","","","","","","","","","","","","","","","","","true","11","1","moral","639","other","他人的","","","","","","","","","","","","","","","","",""
"null","","null","html-keyboard-response","31","171924","0.0-6.0-1.0-2.0-0.11","3","3","3","3","2","3","3","3","3","3","4","3","4","4","4","4","4","4","4","4","2","2","3","2","2","2","2","2","1","1","0","0","1","0","0","1","1","0","1","1","0","1","0","1","4","4","3","2","4","3","3","4","4","2","2","781892112919826433","张","105","","","","","","","","","","","","","","","","","","","","","","","","","","","","","","","","","","","","","","","","","",""
"690","<p style=""color:rgb(150, 250, 100); font-size: 35px;"">他</p>","i","categorize-html","32","172616","0.0-6.0-1.0-2.0-1.11","3","3","3","3","2","3","3","3","3","3","4","3","4","4","4","4","4","4","4","4","2","2","3","2","2","2","2","2","1","1","0","0","1","0","0","1","1","0","1","1","0","1","0","1","4","4","3","2","4","3","3","4","4","2","2","781892112919826433","张","105","","","","","","","","","","","","","","","","","","","true","11","1","moral","690","other","他","","","","","","","","","","","","","","","","",""
"6733","
    <div class=""tag-bottom""><p>
    —— 任务2：对“消极”词和“积极”词分类 ——<p/>   
    <span style=""color:#78DCE8""><b>注意上方，类别标签和需要分类的词语都已经改变</b></span><p/>
    <span style=""color:#FFD866""><b>请根据上方标签的提示，尽可能正确并且快速地做出按键反应</b></span><p/>
    当按键错误时屏幕中会出现<span style=""color:red""> X </span>，需要按另一个键纠正才能继续<br/><p/>
    请把双手食指分别放在键盘的“E”键和“I”键上<p/>
    按<空格键>开始
    </p></div>"," ","html-keyboard-response","33","179349","0.0-6.0-1.0-3.0","3","3","3","3","2","3","3","3","3","3","4","3","4","4","4","4","4","4","4","4","2","2","3","2","2","2","2","2","1","1","0","0","1","0","0","1","1","0","1","1","0","1","0","1","4","4","3","2","4","3","3","4","4","2","2","781892112919826433","张","105","","","","","","","","","","","","","","","","","","","","","","","","","","","","","","","","","","","","","","","","","",""
"null","","null","html-keyboard-response","34","179601","0.0-6.0-1.0-4.0-0.0","3","3","3","3","2","3","3","3","3","3","4","3","4","4","4","4","4","4","4","4","2","2","3","2","2","2","2","2","1","1","0","0","1","0","0","1","1","0","1","1","0","1","0","1","4","4","3","2","4","3","3","4","4","2","2","781892112919826433","张","105","","","","","","","","","","","","","","","","","","","","","","","","","","","","","","","","","","","","","","","","","",""
"1949","<p style=""color:white; font-size: 35px;"">廉正</p>","i","categorize-html","35","181552","0.0-6.0-1.0-4.0-1.0","3","3","3","3","2","3","3","3","3","3","4","3","4","4","4","4","4","4","4","4","2","2","3","2","2","2","2","2","1","1","0","0","1","0","0","1","1","0","1","1","0","1","0","1","4","4","3","2","4","3","3","4","4","2","2","781892112919826433","张","105","","","","","","","","","","","","","","","","","","","true","12","2","moral","1949","positive","廉正","","","","","","","","","","","","","","","","",""
"null","","null","html-keyboard-response","36","181803","0.0-6.0-1.0-4.0-0.1","3","3","3","3","2","3","3","3","3","3","4","3","4","4","4","4","4","4","4","4","2","2","3","2","2","2","2","2","1","1","0","0","1","0","0","1","1","0","1","1","0","1","0","1","4","4","3","2","4","3","3","4","4","2","2","781892112919826433","张","105","","","","","","","","","","","","","","","","","","","","","","","","","","","","","","","","","","","","","","","","","",""
"692","<p style=""color:white; font-size: 35px;"">诚信</p>","i","categorize-html","37","182497","0.0-6.0-1.0-4.0-1.1","3","3","3","3","2","3","3","3","3","3","4","3","4","4","4","4","4","4","4","4","2","2","3","2","2","2","2","2","1","1","0","0","1","0","0","1","1","0","1","1","0","1","0","1","4","4","3","2","4","3","3","4","4","2","2","781892112919826433","张","105","","","","","","","","","","","","","","","","","","","true","12","2","moral","692","positive","诚信","","","","","","","","","","","","","","","","",""
"null","","null","html-keyboard-response","38","182748","0.0-6.0-1.0-4.0-0.2","3","3","3","3","2","3","3","3","3","3","4","3","4","4","4","4","4","4","4","4","2","2","3","2","2","2","2","2","1","1","0","0","1","0","0","1","1","0","1","1","0","1","0","1","4","4","3","2","4","3","3","4","4","2","2","781892112919826433","张","105","","","","","","","","","","","","","","","","","","","","","","","","","","","","","","","","","","","","","","","","","",""
"653","<p style=""color:white; font-size: 35px;"">不孝</p>","e","categorize-html","39","183403","0.0-6.0-1.0-4.0-1.2","3","3","3","3","2","3","3","3","3","3","4","3","4","4","4","4","4","4","4","4","2","2","3","2","2","2","2","2","1","1","0","0","1","0","0","1","1","0","1","1","0","1","0","1","4","4","3","2","4","3","3","4","4","2","2","781892112919826433","张","105","","","","","","","","","","","","","","","","","","","true","12","2","moral","653","negative","不孝","","","","","","","","","","","","","","","","",""
"null","","null","html-keyboard-response","40","183654","0.0-6.0-1.0-4.0-0.3","3","3","3","3","2","3","3","3","3","3","4","3","4","4","4","4","4","4","4","4","2","2","3","2","2","2","2","2","1","1","0","0","1","0","0","1","1","0","1","1","0","1","0","1","4","4","3","2","4","3","3","4","4","2","2","781892112919826433","张","105","","","","","","","","","","","","","","","","","","","","","","","","","","","","","","","","","","","","","","","","","",""
"748","<p style=""color:white; font-size: 35px;"">正直</p>","i","categorize-html","41","184403","0.0-6.0-1.0-4.0-1.3","3","3","3","3","2","3","3","3","3","3","4","3","4","4","4","4","4","4","4","4","2","2","3","2","2","2","2","2","1","1","0","0","1","0","0","1","1","0","1","1","0","1","0","1","4","4","3","2","4","3","3","4","4","2","2","781892112919826433","张","105","","","","","","","","","","","","","","","","","","","true","12","2","moral","748","positive","正直","","","","","","","","","","","","","","","","",""
"null","","null","html-keyboard-response","42","184655","0.0-6.0-1.0-4.0-0.4","3","3","3","3","2","3","3","3","3","3","4","3","4","4","4","4","4","4","4","4","2","2","3","2","2","2","2","2","1","1","0","0","1","0","0","1","1","0","1","1","0","1","0","1","4","4","3","2","4","3","3","4","4","2","2","781892112919826433","张","105","","","","","","","","","","","","","","","","","","","","","","","","","","","","","","","","","","","","","","","","","",""
"721","<p style=""color:white; font-size: 35px;"">缺德</p>","e","categorize-html","43","185380","0.0-6.0-1.0-4.0-1.4","3","3","3","3","2","3","3","3","3","3","4","3","4","4","4","4","4","4","4","4","2","2","3","2","2","2","2","2","1","1","0","0","1","0","0","1","1","0","1","1","0","1","0","1","4","4","3","2","4","3","3","4","4","2","2","781892112919826433","张","105","","","","","","","","","","","","","","","","","","","true","12","2","moral","721","negative","缺德","","","","","","","","","","","","","","","","",""
"null","","null","html-keyboard-response","44","185631","0.0-6.0-1.0-4.0-0.5","3","3","3","3","2","3","3","3","3","3","4","3","4","4","4","4","4","4","4","4","2","2","3","2","2","2","2","2","1","1","0","0","1","0","0","1","1","0","1","1","0","1","0","1","4","4","3","2","4","3","3","4","4","2","2","781892112919826433","张","105","","","","","","","","","","","","","","","","","","","","","","","","","","","","","","","","","","","","","","","","","",""
"692","<p style=""color:white; font-size: 35px;"">黑心</p>","e","categorize-html","45","186324","0.0-6.0-1.0-4.0-1.5","3","3","3","3","2","3","3","3","3","3","4","3","4","4","4","4","4","4","4","4","2","2","3","2","2","2","2","2","1","1","0","0","1","0","0","1","1","0","1","1","0","1","0","1","4","4","3","2","4","3","3","4","4","2","2","781892112919826433","张","105","","","","","","","","","","","","","","","","","","","true","12","2","moral","692","negative","黑心","","","","","","","","","","","","","","","","",""
"null","","null","html-keyboard-response","46","186575","0.0-6.0-1.0-4.0-0.6","3","3","3","3","2","3","3","3","3","3","4","3","4","4","4","4","4","4","4","4","2","2","3","2","2","2","2","2","1","1","0","0","1","0","0","1","1","0","1","1","0","1","0","1","4","4","3","2","4","3","3","4","4","2","2","781892112919826433","张","105","","","","","","","","","","","","","","","","","","","","","","","","","","","","","","","","","","","","","","","","","",""
"652","<p style=""color:white; font-size: 35px;"">高尚</p>","i","categorize-html","47","187228","0.0-6.0-1.0-4.0-1.6","3","3","3","3","2","3","3","3","3","3","4","3","4","4","4","4","4","4","4","4","2","2","3","2","2","2","2","2","1","1","0","0","1","0","0","1","1","0","1","1","0","1","0","1","4","4","3","2","4","3","3","4","4","2","2","781892112919826433","张","105","","","","","","","","","","","","","","","","","","","true","12","2","moral","652","positive","高尚","","","","","","","","","","","","","","","","",""
"null","","null","html-keyboard-response","48","187479","0.0-6.0-1.0-4.0-0.7","3","3","3","3","2","3","3","3","3","3","4","3","4","4","4","4","4","4","4","4","2","2","3","2","2","2","2","2","1","1","0","0","1","0","0","1","1","0","1","1","0","1","0","1","4","4","3","2","4","3","3","4","4","2","2","781892112919826433","张","105","","","","","","","","","","","","","","","","","","","","","","","","","","","","","","","","","","","","","","","","","",""
"1007","<p style=""color:white; font-size: 35px;"">不仁</p>","e","categorize-html","49","188486","0.0-6.0-1.0-4.0-1.7","3","3","3","3","2","3","3","3","3","3","4","3","4","4","4","4","4","4","4","4","2","2","3","2","2","2","2","2","1","1","0","0","1","0","0","1","1","0","1","1","0","1","0","1","4","4","3","2","4","3","3","4","4","2","2","781892112919826433","张","105","","","","","","","","","","","","","","","","","","","true","12","2","moral","1007","negative","不仁","","","","","","","","","","","","","","","","",""
"null","","null","html-keyboard-response","50","188738","0.0-6.0-1.0-4.0-0.8","3","3","3","3","2","3","3","3","3","3","4","3","4","4","4","4","4","4","4","4","2","2","3","2","2","2","2","2","1","1","0","0","1","0","0","1","1","0","1","1","0","1","0","1","4","4","3","2","4","3","3","4","4","2","2","781892112919826433","张","105","","","","","","","","","","","","","","","","","","","","","","","","","","","","","","","","","","","","","","","","","",""
"1055","<p style=""color:white; font-size: 35px;"">小人</p>","e","categorize-html","51","189796","0.0-6.0-1.0-4.0-1.8","3","3","3","3","2","3","3","3","3","3","4","3","4","4","4","4","4","4","4","4","2","2","3","2","2","2","2","2","1","1","0","0","1","0","0","1","1","0","1","1","0","1","0","1","4","4","3","2","4","3","3","4","4","2","2","781892112919826433","张","105","","","","","","","","","","","","","","","","","","","true","12","2","moral","1055","negative","小人","","","","","","","","","","","","","","","","",""
"null","","null","html-keyboard-response","52","190047","0.0-6.0-1.0-4.0-0.9","3","3","3","3","2","3","3","3","3","3","4","3","4","4","4","4","4","4","4","4","2","2","3","2","2","2","2","2","1","1","0","0","1","0","0","1","1","0","1","1","0","1","0","1","4","4","3","2","4","3","3","4","4","2","2","781892112919826433","张","105","","","","","","","","","","","","","","","","","","","","","","","","","","","","","","","","","","","","","","","","","",""
"1117","<p style=""color:white; font-size: 35px;"">善良</p>","i","categorize-html","53","191166","0.0-6.0-1.0-4.0-1.9","3","3","3","3","2","3","3","3","3","3","4","3","4","4","4","4","4","4","4","4","2","2","3","2","2","2","2","2","1","1","0","0","1","0","0","1","1","0","1","1","0","1","0","1","4","4","3","2","4","3","3","4","4","2","2","781892112919826433","张","105","","","","","","","","","","","","","","","","","","","true","12","2","moral","1117","positive","善良","","","","","","","","","","","","","","","","",""
"null","","null","html-keyboard-response","54","191417","0.0-6.0-1.0-4.0-0.10","3","3","3","3","2","3","3","3","3","3","4","3","4","4","4","4","4","4","4","4","2","2","3","2","2","2","2","2","1","1","0","0","1","0","0","1","1","0","1","1","0","1","0","1","4","4","3","2","4","3","3","4","4","2","2","781892112919826433","张","105","","","","","","","","","","","","","","","","","","","","","","","","","","","","","","","","","","","","","","","","","",""
"896","<p style=""color:white; font-size: 35px;"">卑鄙</p>","e","categorize-html","55","192315","0.0-6.0-1.0-4.0-1.10","3","3","3","3","2","3","3","3","3","3","4","3","4","4","4","4","4","4","4","4","2","2","3","2","2","2","2","2","1","1","0","0","1","0","0","1","1","0","1","1","0","1","0","1","4","4","3","2","4","3","3","4","4","2","2","781892112919826433","张","105","","","","","","","","","","","","","","","","","","","true","12","2","moral","896","negative","卑鄙","","","","","","","","","","","","","","","","",""
"null","","null","html-keyboard-response","56","192566","0.0-6.0-1.0-4.0-0.11","3","3","3","3","2","3","3","3","3","3","4","3","4","4","4","4","4","4","4","4","2","2","3","2","2","2","2","2","1","1","0","0","1","0","0","1","1","0","1","1","0","1","0","1","4","4","3","2","4","3","3","4","4","2","2","781892112919826433","张","105","","","","","","","","","","","","","","","","","","","","","","","","","","","","","","","","","","","","","","","","","",""
"1059","<p style=""color:white; font-size: 35px;"">君子</p>","i","categorize-html","57","193626","0.0-6.0-1.0-4.0-1.11","3","3","3","3","2","3","3","3","3","3","4","3","4","4","4","4","4","4","4","4","2","2","3","2","2","2","2","2","1","1","0","0","1","0","0","1","1","0","1","1","0","1","0","1","4","4","3","2","4","3","3","4","4","2","2","781892112919826433","张","105","","","","","","","","","","","","","","","","","","","true","12","2","moral","1059","positive","君子","","","","","","","","","","","","","","","","",""
"6247","
    <div class=""tag-bottom""><p>
    —— 任务3：对“自我/消极”词和“他人/积极”词分类 ——<p/>
    <span style=""color:#78DCE8""><b>注意上方，之前的四类词语将混合在一起交替呈现</b></span><p/>
    <span style=""color:#FFD866""><b>请根据上方标签的提示，尽可能正确并且快速地做出按键反应</b></span><p/>
    当按键错误时屏幕中会出现<span style=""color:red""> X </span>，需要按另一个键纠正才能继续<br/><p/>
    请把双手食指分别放在键盘的“E”键和“I”键上<p/>
    按<空格键>开始
    </p></div>"," ","html-keyboard-response","58","199873","0.0-6.0-1.0-5.0","3","3","3","3","2","3","3","3","3","3","4","3","4","4","4","4","4","4","4","4","2","2","3","2","2","2","2","2","1","1","0","0","1","0","0","1","1","0","1","1","0","1","0","1","4","4","3","2","4","3","3","4","4","2","2","781892112919826433","张","105","","","","","","","","","","","","","","","","","","","","","","","","","","","","","","","","","","","","","","","","","",""
"null","","null","html-keyboard-response","59","200125","0.0-6.0-1.0-6.0-0.0","3","3","3","3","2","3","3","3","3","3","4","3","4","4","4","4","4","4","4","4","2","2","3","2","2","2","2","2","1","1","0","0","1","0","0","1","1","0","1","1","0","1","0","1","4","4","3","2","4","3","3","4","4","2","2","781892112919826433","张","105","","","","","","","","","","","","","","","","","","","","","","","","","","","","","","","","","","","","","","","","","",""
"1899","<p style=""color:rgb(150, 250, 100); font-size: 35px;"">他的</p>","i","categorize-html","60","202028","0.0-6.0-1.0-6.0-1.0","3","3","3","3","2","3","3","3","3","3","4","3","4","4","4","4","4","4","4","4","2","2","3","2","2","2","2","2","1","1","0","0","1","0","0","1","1","0","1","1","0","1","0","1","4","4","3","2","4","3","3","4","4","2","2","781892112919826433","张","105","","","","","","","","","","","","","","","","","","","true","13","3","moral","1899","other","他的","","","","","","","","","","","","","","","","",""
"null","","null","html-keyboard-response","61","202279","0.0-6.0-1.0-6.0-0.1","3","3","3","3","2","3","3","3","3","3","4","3","4","4","4","4","4","4","4","4","2","2","3","2","2","2","2","2","1","1","0","0","1","0","0","1","1","0","1","1","0","1","0","1","4","4","3","2","4","3","3","4","4","2","2","781892112919826433","张","105","","","","","","","","","","","","","","","","","","","","","","","","","","","","","","","","","","","","","","","","","",""
"1246","<p style=""color:white; font-size: 35px;"">卑鄙</p>","e","categorize-html","62","203530","0.0-6.0-1.0-6.0-1.1","3","3","3","3","2","3","3","3","3","3","4","3","4","4","4","4","4","4","4","4","2","2","3","2","2","2","2","2","1","1","0","0","1","0","0","1","1","0","1","1","0","1","0","1","4","4","3","2","4","3","3","4","4","2","2","781892112919826433","张","105","","","","","","","","","","","","","","","","","","","true","13","3","moral","1246","negative","卑鄙","","","","","","","","","","","","","","","","",""
"null","","null","html-keyboard-response","63","203781","0.0-6.0-1.0-6.0-0.2","3","3","3","3","2","3","3","3","3","3","4","3","4","4","4","4","4","4","4","4","2","2","3","2","2","2","2","2","1","1","0","0","1","0","0","1","1","0","1","1","0","1","0","1","4","4","3","2","4","3","3","4","4","2","2","781892112919826433","张","105","","","","","","","","","","","","","","","","","","","","","","","","","","","","","","","","","","","","","","","","","",""
"1480","<p style=""color:rgb(150, 250, 100); font-size: 35px;"">我</p>","e","categorize-html","64","205266","0.0-6.0-1.0-6.0-1.2","3","3","3","3","2","3","3","3","3","3","4","3","4","4","4","4","4","4","4","4","2","2","3","2","2","2","2","2","1","1","0","0","1","0","0","1","1","0","1","1","0","1","0","1","4","4","3","2","4","3","3","4","4","2","2","781892112919826433","张","105","","","","","","","","","","","","","","","","","","","true","13","3","moral","1480","self","我","","","","","","","","","","","","","","","","",""
"null","","null","html-keyboard-response","65","205518","0.0-6.0-1.0-6.0-0.3","3","3","3","3","2","3","3","3","3","3","4","3","4","4","4","4","4","4","4","4","2","2","3","2","2","2","2","2","1","1","0","0","1","0","0","1","1","0","1","1","0","1","0","1","4","4","3","2","4","3","3","4","4","2","2","781892112919826433","张","105","","","","","","","","","","","","","","","","","","","","","","","","","","","","","","","","","","","","","","","","","",""
"1024","<p style=""color:white; font-size: 35px;"">善良</p>","i","categorize-html","66","206546","0.0-6.0-1.0-6.0-1.3","3","3","3","3","2","3","3","3","3","3","4","3","4","4","4","4","4","4","4","4","2","2","3","2","2","2","2","2","1","1","0","0","1","0","0","1","1","0","1","1","0","1","0","1","4","4","3","2","4","3","3","4","4","2","2","781892112919826433","张","105","","","","","","","","","","","","","","","","","","","true","13","3","moral","1024","positive","善良","","","","","","","","","","","","","","","","",""
"null","","null","html-keyboard-response","67","206797","0.0-6.0-1.0-6.0-0.4","3","3","3","3","2","3","3","3","3","3","4","3","4","4","4","4","4","4","4","4","2","2","3","2","2","2","2","2","1","1","0","0","1","0","0","1","1","0","1","1","0","1","0","1","4","4","3","2","4","3","3","4","4","2","2","781892112919826433","张","105","","","","","","","","","","","","","","","","","","","","","","","","","","","","","","","","","","","","","","","","","",""
"1172","<p style=""color:rgb(150, 250, 100); font-size: 35px;"">自己的</p>","e","categorize-html","68","207974","0.0-6.0-1.0-6.0-1.4","3","3","3","3","2","3","3","3","3","3","4","3","4","4","4","4","4","4","4","4","2","2","3","2","2","2","2","2","1","1","0","0","1","0","0","1","1","0","1","1","0","1","0","1","4","4","3","2","4","3","3","4","4","2","2","781892112919826433","张","105","","","","","","","","","","","","","","","","","","","true","13","3","moral","1172","self","自己的","","","","","","","","","","","","","","","","",""
"null","","null","html-keyboard-response","69","208226","0.0-6.0-1.0-6.0-0.5","3","3","3","3","2","3","3","3","3","3","4","3","4","4","4","4","4","4","4","4","2","2","3","2","2","2","2","2","1","1","0","0","1","0","0","1","1","0","1","1","0","1","0","1","4","4","3","2","4","3","3","4","4","2","2","781892112919826433","张","105","","","","","","","","","","","","","","","","","","","","","","","","","","","","","","","","","","","","","","","","","",""
"2175","<p style=""color:white; font-size: 35px;"">不仁</p>","e","categorize-html","70","210402","0.0-6.0-1.0-6.0-1.5","3","3","3","3","2","3","3","3","3","3","4","3","4","4","4","4","4","4","4","4","2","2","3","2","2","2","2","2","1","1","0","0","1","0","0","1","1","0","1","1","0","1","0","1","4","4","3","2","4","3","3","4","4","2","2","781892112919826433","张","105","","","","","","","","","","","","","","","","","","","true","13","3","moral","2175","negative","不仁","","","","","","","","","","","","","","","","",""
"null","","null","html-keyboard-response","71","210655","0.0-6.0-1.0-6.0-0.6","3","3","3","3","2","3","3","3","3","3","4","3","4","4","4","4","4","4","4","4","2","2","3","2","2","2","2","2","1","1","0","0","1","0","0","1","1","0","1","1","0","1","0","1","4","4","3","2","4","3","3","4","4","2","2","781892112919826433","张","105","","","","","","","","","","","","","","","","","","","","","","","","","","","","","","","","","","","","","","","","","",""
"823","<p style=""color:rgb(150, 250, 100); font-size: 35px;"">他人的</p>","i","categorize-html","72","211482","0.0-6.0-1.0-6.0-1.6","3","3","3","3","2","3","3","3","3","3","4","3","4","4","4","4","4","4","4","4","2","2","3","2","2","2","2","2","1","1","0","0","1","0","0","1","1","0","1","1","0","1","0","1","4","4","3","2","4","3","3","4","4","2","2","781892112919826433","张","105","","","","","","","","","","","","","","","","","","","true","13","3","moral","823","other","他人的","","","","","","","","","","","","","","","","",""
"null","","null","html-keyboard-response","73","211734","0.0-6.0-1.0-6.0-0.7","3","3","3","3","2","3","3","3","3","3","4","3","4","4","4","4","4","4","4","4","2","2","3","2","2","2","2","2","1","1","0","0","1","0","0","1","1","0","1","1","0","1","0","1","4","4","3","2","4","3","3","4","4","2","2","781892112919826433","张","105","","","","","","","","","","","","","","","","","","","","","","","","","","","","","","","","","","","","","","","","","",""
"887","<p style=""color:white; font-size: 35px;"">正直</p>","i","categorize-html","74","212626","0.0-6.0-1.0-6.0-1.7","3","3","3","3","2","3","3","3","3","3","4","3","4","4","4","4","4","4","4","4","2","2","3","2","2","2","2","2","1","1","0","0","1","0","0","1","1","0","1","1","0","1","0","1","4","4","3","2","4","3","3","4","4","2","2","781892112919826433","张","105","","","","","","","","","","","","","","","","","","","true","13","3","moral","887","positive","正直","","","","","","","","","","","","","","","","",""
"null","","null","html-keyboard-response","75","212877","0.0-6.0-1.0-6.0-0.8","3","3","3","3","2","3","3","3","3","3","4","3","4","4","4","4","4","4","4","4","2","2","3","2","2","2","2","2","1","1","0","0","1","0","0","1","1","0","1","1","0","1","0","1","4","4","3","2","4","3","3","4","4","2","2","781892112919826433","张","105","","","","","","","","","","","","","","","","","","","","","","","","","","","","","","","","","","","","","","","","","",""
"1062","<p style=""color:rgb(150, 250, 100); font-size: 35px;"">别人的</p>","i","categorize-html","76","213945","0.0-6.0-1.0-6.0-1.8","3","3","3","3","2","3","3","3","3","3","4","3","4","4","4","4","4","4","4","4","2","2","3","2","2","2","2","2","1","1","0","0","1","0","0","1","1","0","1","1","0","1","0","1","4","4","3","2","4","3","3","4","4","2","2","781892112919826433","张","105","","","","","","","","","","","","","","","","","","","true","13","3","moral","1062","other","别人的","","","","","","","","","","","","","","","","",""
"null","","null","html-keyboard-response","77","214197","0.0-6.0-1.0-6.0-0.9","3","3","3","3","2","3","3","3","3","3","4","3","4","4","4","4","4","4","4","4","2","2","3","2","2","2","2","2","1","1","0","0","1","0","0","1","1","0","1","1","0","1","0","1","4","4","3","2","4","3","3","4","4","2","2","781892112919826433","张","105","","","","","","","","","","","","","","","","","","","","","","","","","","","","","","","","","","","","","","","","","",""
"1174","<p style=""color:white; font-size: 35px;"">高尚</p>","i","categorize-html","78","215372","0.0-6.0-1.0-6.0-1.9","3","3","3","3","2","3","3","3","3","3","4","3","4","4","4","4","4","4","4","4","2","2","3","2","2","2","2","2","1","1","0","0","1","0","0","1","1","0","1","1","0","1","0","1","4","4","3","2","4","3","3","4","4","2","2","781892112919826433","张","105","","","","","","","","","","","","","","","","","","","true","13","3","moral","1174","positive","高尚","","","","","","","","","","","","","","","","",""
"null","","null","html-keyboard-response","79","215624","0.0-6.0-1.0-6.0-0.10","3","3","3","3","2","3","3","3","3","3","4","3","4","4","4","4","4","4","4","4","2","2","3","2","2","2","2","2","1","1","0","0","1","0","0","1","1","0","1","1","0","1","0","1","4","4","3","2","4","3","3","4","4","2","2","781892112919826433","张","105","","","","","","","","","","","","","","","","","","","","","","","","","","","","","","","","","","","","","","","","","",""
"777","<p style=""color:rgb(150, 250, 100); font-size: 35px;"">我的</p>","e","categorize-html","80","216405","0.0-6.0-1.0-6.0-1.10","3","3","3","3","2","3","3","3","3","3","4","3","4","4","4","4","4","4","4","4","2","2","3","2","2","2","2","2","1","1","0","0","1","0","0","1","1","0","1","1","0","1","0","1","4","4","3","2","4","3","3","4","4","2","2","781892112919826433","张","105","","","","","","","","","","","","","","","","","","","true","13","3","moral","777","self","我的","","","","","","","","","","","","","","","","",""
"null","","null","html-keyboard-response","81","216657","0.0-6.0-1.0-6.0-0.11","3","3","3","3","2","3","3","3","3","3","4","3","4","4","4","4","4","4","4","4","2","2","3","2","2","2","2","2","1","1","0","0","1","0","0","1","1","0","1","1","0","1","0","1","4","4","3","2","4","3","3","4","4","2","2","781892112919826433","张","105","","","","","","","","","","","","","","","","","","","","","","","","","","","","","","","","","","","","","","","","","",""
"812","<p style=""color:white; font-size: 35px;"">不孝</p>","e","categorize-html","82","217477","0.0-6.0-1.0-6.0-1.11","3","3","3","3","2","3","3","3","3","3","4","3","4","4","4","4","4","4","4","4","2","2","3","2","2","2","2","2","1","1","0","0","1","0","0","1","1","0","1","1","0","1","0","1","4","4","3","2","4","3","3","4","4","2","2","781892112919826433","张","105","","","","","","","","","","","","","","","","","","","true","13","3","moral","812","negative","不孝","","","","","","","","","","","","","","","","",""
"null","","null","html-keyboard-response","83","217728","0.0-6.0-1.0-6.0-0.12","3","3","3","3","2","3","3","3","3","3","4","3","4","4","4","4","4","4","4","4","2","2","3","2","2","2","2","2","1","1","0","0","1","0","0","1","1","0","1","1","0","1","0","1","4","4","3","2","4","3","3","4","4","2","2","781892112919826433","张","105","","","","","","","","","","","","","","","","","","","","","","","","","","","","","","","","","","","","","","","","","",""
"1263","<p style=""color:rgb(150, 250, 100); font-size: 35px;"">本人</p>","e","categorize-html","84","218993","0.0-6.0-1.0-6.0-1.12","3","3","3","3","2","3","3","3","3","3","4","3","4","4","4","4","4","4","4","4","2","2","3","2","2","2","2","2","1","1","0","0","1","0","0","1","1","0","1","1","0","1","0","1","4","4","3","2","4","3","3","4","4","2","2","781892112919826433","张","105","","","","","","","","","","","","","","","","","","","true","13","3","moral","1263","self","本人","","","","","","","","","","","","","","","","",""
"null","","null","html-keyboard-response","85","219244","0.0-6.0-1.0-6.0-0.13","3","3","3","3","2","3","3","3","3","3","4","3","4","4","4","4","4","4","4","4","2","2","3","2","2","2","2","2","1","1","0","0","1","0","0","1","1","0","1","1","0","1","0","1","4","4","3","2","4","3","3","4","4","2","2","781892112919826433","张","105","","","","","","","","","","","","","","","","","","","","","","","","","","","","","","","","","","","","","","","","","",""
"1001","<p style=""color:white; font-size: 35px;"">小人</p>","e","categorize-html","86","220250","0.0-6.0-1.0-6.0-1.13","3","3","3","3","2","3","3","3","3","3","4","3","4","4","4","4","4","4","4","4","2","2","3","2","2","2","2","2","1","1","0","0","1","0","0","1","1","0","1","1","0","1","0","1","4","4","3","2","4","3","3","4","4","2","2","781892112919826433","张","105","","","","","","","","","","","","","","","","","","","true","13","3","moral","1001","negative","小人","","","","","","","","","","","","","","","","",""
"null","","null","html-keyboard-response","87","220502","0.0-6.0-1.0-6.0-0.14","3","3","3","3","2","3","3","3","3","3","4","3","4","4","4","4","4","4","4","4","2","2","3","2","2","2","2","2","1","1","0","0","1","0","0","1","1","0","1","1","0","1","0","1","4","4","3","2","4","3","3","4","4","2","2","781892112919826433","张","105","","","","","","","","","","","","","","","","","","","","","","","","","","","","","","","","","","","","","","","","","",""
"703","<p style=""color:rgb(150, 250, 100); font-size: 35px;"">别人</p>","i","categorize-html","88","221211","0.0-6.0-1.0-6.0-1.14","3","3","3","3","2","3","3","3","3","3","4","3","4","4","4","4","4","4","4","4","2","2","3","2","2","2","2","2","1","1","0","0","1","0","0","1","1","0","1","1","0","1","0","1","4","4","3","2","4","3","3","4","4","2","2","781892112919826433","张","105","","","","","","","","","","","","","","","","","","","true","13","3","moral","703","other","别人","","","","","","","","","","","","","","","","",""
"null","","null","html-keyboard-response","89","221463","0.0-6.0-1.0-6.0-0.15","3","3","3","3","2","3","3","3","3","3","4","3","4","4","4","4","4","4","4","4","2","2","3","2","2","2","2","2","1","1","0","0","1","0","0","1","1","0","1","1","0","1","0","1","4","4","3","2","4","3","3","4","4","2","2","781892112919826433","张","105","","","","","","","","","","","","","","","","","","","","","","","","","","","","","","","","","","","","","","","","","",""
"1823","<p style=""color:white; font-size: 35px;"">君子</p>","i","categorize-html","90","223287","0.0-6.0-1.0-6.0-1.15","3","3","3","3","2","3","3","3","3","3","4","3","4","4","4","4","4","4","4","4","2","2","3","2","2","2","2","2","1","1","0","0","1","0","0","1","1","0","1","1","0","1","0","1","4","4","3","2","4","3","3","4","4","2","2","781892112919826433","张","105","","","","","","","","","","","","","","","","","","","true","13","3","moral","1823","positive","君子","","","","","","","","","","","","","","","","",""
"null","","null","html-keyboard-response","91","223539","0.0-6.0-1.0-6.0-0.16","3","3","3","3","2","3","3","3","3","3","4","3","4","4","4","4","4","4","4","4","2","2","3","2","2","2","2","2","1","1","0","0","1","0","0","1","1","0","1","1","0","1","0","1","4","4","3","2","4","3","3","4","4","2","2","781892112919826433","张","105","","","","","","","","","","","","","","","","","","","","","","","","","","","","","","","","","","","","","","","","","",""
"802","<p style=""color:rgb(150, 250, 100); font-size: 35px;"">他人</p>","i","categorize-html","92","224345","0.0-6.0-1.0-6.0-1.16","3","3","3","3","2","3","3","3","3","3","4","3","4","4","4","4","4","4","4","4","2","2","3","2","2","2","2","2","1","1","0","0","1","0","0","1","1","0","1","1","0","1","0","1","4","4","3","2","4","3","3","4","4","2","2","781892112919826433","张","105","","","","","","","","","","","","","","","","","","","true","13","3","moral","802","other","他人","","","","","","","","","","","","","","","","",""
"null","","null","html-keyboard-response","93","224596","0.0-6.0-1.0-6.0-0.17","3","3","3","3","2","3","3","3","3","3","4","3","4","4","4","4","4","4","4","4","2","2","3","2","2","2","2","2","1","1","0","0","1","0","0","1","1","0","1","1","0","1","0","1","4","4","3","2","4","3","3","4","4","2","2","781892112919826433","张","105","","","","","","","","","","","","","","","","","","","","","","","","","","","","","","","","","","","","","","","","","",""
"872","<p style=""color:white; font-size: 35px;"">诚信</p>","i","categorize-html","94","225471","0.0-6.0-1.0-6.0-1.17","3","3","3","3","2","3","3","3","3","3","4","3","4","4","4","4","4","4","4","4","2","2","3","2","2","2","2","2","1","1","0","0","1","0","0","1","1","0","1","1","0","1","0","1","4","4","3","2","4","3","3","4","4","2","2","781892112919826433","张","105","","","","","","","","","","","","","","","","","","","true","13","3","moral","872","positive","诚信","","","","","","","","","","","","","","","","",""
"null","","null","html-keyboard-response","95","225724","0.0-6.0-1.0-6.0-0.18","3","3","3","3","2","3","3","3","3","3","4","3","4","4","4","4","4","4","4","4","2","2","3","2","2","2","2","2","1","1","0","0","1","0","0","1","1","0","1","1","0","1","0","1","4","4","3","2","4","3","3","4","4","2","2","781892112919826433","张","105","","","","","","","","","","","","","","","","","","","","","","","","","","","","","","","","","","","","","","","","","",""
"945","<p style=""color:rgb(150, 250, 100); font-size: 35px;"">自己</p>","e","categorize-html","96","226674","0.0-6.0-1.0-6.0-1.18","3","3","3","3","2","3","3","3","3","3","4","3","4","4","4","4","4","4","4","4","2","2","3","2","2","2","2","2","1","1","0","0","1","0","0","1","1","0","1","1","0","1","0","1","4","4","3","2","4","3","3","4","4","2","2","781892112919826433","张","105","","","","","","","","","","","","","","","","","","","true","13","3","moral","945","self","自己","","","","","","","","","","","","","","","","",""
"null","","null","html-keyboard-response","97","226926","0.0-6.0-1.0-6.0-0.19","3","3","3","3","2","3","3","3","3","3","4","3","4","4","4","4","4","4","4","4","2","2","3","2","2","2","2","2","1","1","0","0","1","0","0","1","1","0","1","1","0","1","0","1","4","4","3","2","4","3","3","4","4","2","2","781892112919826433","张","105","","","","","","","","","","","","","","","","","","","","","","","","","","","","","","","","","","","","","","","","","",""
"757","<p style=""color:white; font-size: 35px;"">缺德</p>","e","categorize-html","98","227687","0.0-6.0-1.0-6.0-1.19","3","3","3","3","2","3","3","3","3","3","4","3","4","4","4","4","4","4","4","4","2","2","3","2","2","2","2","2","1","1","0","0","1","0","0","1","1","0","1","1","0","1","0","1","4","4","3","2","4","3","3","4","4","2","2","781892112919826433","张","105","","","","","","","","","","","","","","","","","","","true","13","3","moral","757","negative","缺德","","","","","","","","","","","","","","","","",""
"null","","null","html-keyboard-response","99","227938","0.0-6.0-1.0-6.0-0.20","3","3","3","3","2","3","3","3","3","3","4","3","4","4","4","4","4","4","4","4","2","2","3","2","2","2","2","2","1","1","0","0","1","0","0","1","1","0","1","1","0","1","0","1","4","4","3","2","4","3","3","4","4","2","2","781892112919826433","张","105","","","","","","","","","","","","","","","","","","","","","","","","","","","","","","","","","","","","","","","","","",""
"1751","<p style=""color:rgb(150, 250, 100); font-size: 35px;"">本人的</p>","e","categorize-html","100","229695","0.0-6.0-1.0-6.0-1.20","3","3","3","3","2","3","3","3","3","3","4","3","4","4","4","4","4","4","4","4","2","2","3","2","2","2","2","2","1","1","0","0","1","0","0","1","1","0","1","1","0","1","0","1","4","4","3","2","4","3","3","4","4","2","2","781892112919826433","张","105","","","","","","","","","","","","","","","","","","","true","13","3","moral","1751","self","本人的","","","","","","","","","","","","","","","","",""
"null","","null","html-keyboard-response","101","229947","0.0-6.0-1.0-6.0-0.21","3","3","3","3","2","3","3","3","3","3","4","3","4","4","4","4","4","4","4","4","2","2","3","2","2","2","2","2","1","1","0","0","1","0","0","1","1","0","1","1","0","1","0","1","4","4","3","2","4","3","3","4","4","2","2","781892112919826433","张","105","","","","","","","","","","","","","","","","","","","","","","","","","","","","","","","","","","","","","","","","","",""
"878","<p style=""color:white; font-size: 35px;"">黑心</p>","e","categorize-html","102","230831","0.0-6.0-1.0-6.0-1.21","3","3","3","3","2","3","3","3","3","3","4","3","4","4","4","4","4","4","4","4","2","2","3","2","2","2","2","2","1","1","0","0","1","0","0","1","1","0","1","1","0","1","0","1","4","4","3","2","4","3","3","4","4","2","2","781892112919826433","张","105","","","","","","","","","","","","","","","","","","","true","13","3","moral","878","negative","黑心","","","","","","","","","","","","","","","","",""
"null","","null","html-keyboard-response","103","231082","0.0-6.0-1.0-6.0-0.22","3","3","3","3","2","3","3","3","3","3","4","3","4","4","4","4","4","4","4","4","2","2","3","2","2","2","2","2","1","1","0","0","1","0","0","1","1","0","1","1","0","1","0","1","4","4","3","2","4","3","3","4","4","2","2","781892112919826433","张","105","","","","","","","","","","","","","","","","","","","","","","","","","","","","","","","","","","","","","","","","","",""
"2275","<p style=""color:rgb(150, 250, 100); font-size: 35px;"">他</p>","i","categorize-html","104","233362","0.0-6.0-1.0-6.0-1.22","3","3","3","3","2","3","3","3","3","3","4","3","4","4","4","4","4","4","4","4","2","2","3","2","2","2","2","2","1","1","0","0","1","0","0","1","1","0","1","1","0","1","0","1","4","4","3","2","4","3","3","4","4","2","2","781892112919826433","张","105","","","","","","","","","","","","","","","","","","","true","13","3","moral","2275","other","他","","","","","","","","","","","","","","","","",""
"null","","null","html-keyboard-response","105","233613","0.0-6.0-1.0-6.0-0.23","3","3","3","3","2","3","3","3","3","3","4","3","4","4","4","4","4","4","4","4","2","2","3","2","2","2","2","2","1","1","0","0","1","0","0","1","1","0","1","1","0","1","0","1","4","4","3","2","4","3","3","4","4","2","2","781892112919826433","张","105","","","","","","","","","","","","","","","","","","","","","","","","","","","","","","","","","","","","","","","","","",""
"824","<p style=""color:white; font-size: 35px;"">廉正</p>","i","categorize-html","106","234442","0.0-6.0-1.0-6.0-1.23","3","3","3","3","2","3","3","3","3","3","4","3","4","4","4","4","4","4","4","4","2","2","3","2","2","2","2","2","1","1","0","0","1","0","0","1","1","0","1","1","0","1","0","1","4","4","3","2","4","3","3","4","4","2","2","781892112919826433","张","105","","","","","","","","","","","","","","","","","","","true","13","3","moral","824","positive","廉正","","","","","","","","","","","","","","","","",""
"5412","
    <div class=""tag-bottom""><p>
    —— 任务4：对“自我/消极”词和“他人/积极”词分类 ——<p/>
    <span style=""color:#78DCE8""><b>与刚才的任务完全相同，请再次对这四类词语分类</b></span><p/>
    <span style=""color:#FFD866""><b>请根据上方标签的提示，尽可能正确并且快速地做出按键反应</b></span><p/>
    当按键错误时屏幕中会出现<span style=""color:red""> X </span>，需要按另一个键纠正才能继续<br/><p/>
    请把双手食指分别放在键盘的“E”键和“I”键上<p/>
    按<空格键>开始
    </p></div>"," ","html-keyboard-response","107","239855","0.0-6.0-1.0-7.0","3","3","3","3","2","3","3","3","3","3","4","3","4","4","4","4","4","4","4","4","2","2","3","2","2","2","2","2","1","1","0","0","1","0","0","1","1","0","1","1","0","1","0","1","4","4","3","2","4","3","3","4","4","2","2","781892112919826433","张","105","","","","","","","","","","","","","","","","","","","","","","","","","","","","","","","","","","","","","","","","","",""
"null","","null","html-keyboard-response","108","240106","0.0-6.0-1.0-8.0-0.0","3","3","3","3","2","3","3","3","3","3","4","3","4","4","4","4","4","4","4","4","2","2","3","2","2","2","2","2","1","1","0","0","1","0","0","1","1","0","1","1","0","1","0","1","4","4","3","2","4","3","3","4","4","2","2","781892112919826433","张","105","","","","","","","","","","","","","","","","","","","","","","","","","","","","","","","","","","","","","","","","","",""
"1042","<p style=""color:rgb(150, 250, 100); font-size: 35px;"">他</p>","i","categorize-html","109","241150","0.0-6.0-1.0-8.0-1.0","3","3","3","3","2","3","3","3","3","3","4","3","4","4","4","4","4","4","4","4","2","2","3","2","2","2","2","2","1","1","0","0","1","0","0","1","1","0","1","1","0","1","0","1","4","4","3","2","4","3","3","4","4","2","2","781892112919826433","张","105","","","","","","","","","","","","","","","","","","","true","14","4","moral","1042","other","他","","","","","","","","","","","","","","","","",""
"null","","null","html-keyboard-response","110","241402","0.0-6.0-1.0-8.0-0.1","3","3","3","3","2","3","3","3","3","3","4","3","4","4","4","4","4","4","4","4","2","2","3","2","2","2","2","2","1","1","0","0","1","0","0","1","1","0","1","1","0","1","0","1","4","4","3","2","4","3","3","4","4","2","2","781892112919826433","张","105","","","","","","","","","","","","","","","","","","","","","","","","","","","","","","","","","","","","","","","","","",""
"1295","<p style=""color:white; font-size: 35px;"">不孝</p>","e","categorize-html","111","242703","0.0-6.0-1.0-8.0-1.1","3","3","3","3","2","3","3","3","3","3","4","3","4","4","4","4","4","4","4","4","2","2","3","2","2","2","2","2","1","1","0","0","1","0","0","1","1","0","1","1","0","1","0","1","4","4","3","2","4","3","3","4","4","2","2","781892112919826433","张","105","","","","","","","","","","","","","","","","","","","true","14","4","moral","1295","negative","不孝","","","","","","","","","","","","","","","","",""
"null","","null","html-keyboard-response","112","242955","0.0-6.0-1.0-8.0-0.2","3","3","3","3","2","3","3","3","3","3","4","3","4","4","4","4","4","4","4","4","2","2","3","2","2","2","2","2","1","1","0","0","1","0","0","1","1","0","1","1","0","1","0","1","4","4","3","2","4","3","3","4","4","2","2","781892112919826433","张","105","","","","","","","","","","","","","","","","","","","","","","","","","","","","","","","","","","","","","","","","","",""
"1365","<p style=""color:rgb(150, 250, 100); font-size: 35px;"">我的</p>","e","categorize-html","113","244321","0.0-6.0-1.0-8.0-1.2","3","3","3","3","2","3","3","3","3","3","4","3","4","4","4","4","4","4","4","4","2","2","3","2","2","2","2","2","1","1","0","0","1","0","0","1","1","0","1","1","0","1","0","1","4","4","3","2","4","3","3","4","4","2","2","781892112919826433","张","105","","","","","","","","","","","","","","","","","","","true","14","4","moral","1365","self","我的","","","","","","","","","","","","","","","","",""
"null","","null","html-keyboard-response","114","244573","0.0-6.0-1.0-8.0-0.3","3","3","3","3","2","3","3","3","3","3","4","3","4","4","4","4","4","4","4","4","2","2","3","2","2","2","2","2","1","1","0","0","1","0","0","1","1","0","1","1","0","1","0","1","4","4","3","2","4","3","3","4","4","2","2","781892112919826433","张","105","","","","","","","","","","","","","","","","","","","","","","","","","","","","","","","","","","","","","","","","","",""
"936","<p style=""color:white; font-size: 35px;"">高尚</p>","i","categorize-html","115","245511","0.0-6.0-1.0-8.0-1.3","3","3","3","3","2","3","3","3","3","3","4","3","4","4","4","4","4","4","4","4","2","2","3","2","2","2","2","2","1","1","0","0","1","0","0","1","1","0","1","1","0","1","0","1","4","4","3","2","4","3","3","4","4","2","2","781892112919826433","张","105","","","","","","","","","","","","","","","","","","","true","14","4","moral","936","positive","高尚","","","","","","","","","","","","","","","","",""
"null","","null","html-keyboard-response","116","245763","0.0-6.0-1.0-8.0-0.4","3","3","3","3","2","3","3","3","3","3","4","3","4","4","4","4","4","4","4","4","2","2","3","2","2","2","2","2","1","1","0","0","1","0","0","1","1","0","1","1","0","1","0","1","4","4","3","2","4","3","3","4","4","2","2","781892112919826433","张","105","","","","","","","","","","","","","","","","","","","","","","","","","","","","","","","","","","","","","","","","","",""
"727","<p style=""color:rgb(150, 250, 100); font-size: 35px;"">本人</p>","e","categorize-html","117","246492","0.0-6.0-1.0-8.0-1.4","3","3","3","3","2","3","3","3","3","3","4","3","4","4","4","4","4","4","4","4","2","2","3","2","2","2","2","2","1","1","0","0","1","0","0","1","1","0","1","1","0","1","0","1","4","4","3","2","4","3","3","4","4","2","2","781892112919826433","张","105","","","","","","","","","","","","","","","","","","","true","14","4","moral","727","self","本人","","","","","","","","","","","","","","","","",""
"null","","null","html-keyboard-response","118","246742","0.0-6.0-1.0-8.0-0.5","3","3","3","3","2","3","3","3","3","3","4","3","4","4","4","4","4","4","4","4","2","2","3","2","2","2","2","2","1","1","0","0","1","0","0","1","1","0","1","1","0","1","0","1","4","4","3","2","4","3","3","4","4","2","2","781892112919826433","张","105","","","","","","","","","","","","","","","","","","","","","","","","","","","","","","","","","","","","","","","","","",""
"835","<p style=""color:white; font-size: 35px;"">正直</p>","i","categorize-html","119","247578","0.0-6.0-1.0-8.0-1.5","3","3","3","3","2","3","3","3","3","3","4","3","4","4","4","4","4","4","4","4","2","2","3","2","2","2","2","2","1","1","0","0","1","0","0","1","1","0","1","1","0","1","0","1","4","4","3","2","4","3","3","4","4","2","2","781892112919826433","张","105","","","","","","","","","","","","","","","","","","","true","14","4","moral","835","positive","正直","","","","","","","","","","","","","","","","",""
"null","","null","html-keyboard-response","120","247830","0.0-6.0-1.0-8.0-0.6","3","3","3","3","2","3","3","3","3","3","4","3","4","4","4","4","4","4","4","4","2","2","3","2","2","2","2","2","1","1","0","0","1","0","0","1","1","0","1","1","0","1","0","1","4","4","3","2","4","3","3","4","4","2","2","781892112919826433","张","105","","","","","","","","","","","","","","","","","","","","","","","","","","","","","","","","","","","","","","","","","",""
"821","<p style=""color:rgb(150, 250, 100); font-size: 35px;"">别人</p>","i","categorize-html","121","248652","0.0-6.0-1.0-8.0-1.6","3","3","3","3","2","3","3","3","3","3","4","3","4","4","4","4","4","4","4","4","2","2","3","2","2","2","2","2","1","1","0","0","1","0","0","1","1","0","1","1","0","1","0","1","4","4","3","2","4","3","3","4","4","2","2","781892112919826433","张","105","","","","","","","","","","","","","","","","","","","true","14","4","moral","821","other","别人","","","","","","","","","","","","","","","","",""
"null","","null","html-keyboard-response","122","248903","0.0-6.0-1.0-8.0-0.7","3","3","3","3","2","3","3","3","3","3","4","3","4","4","4","4","4","4","4","4","2","2","3","2","2","2","2","2","1","1","0","0","1","0","0","1","1","0","1","1","0","1","0","1","4","4","3","2","4","3","3","4","4","2","2","781892112919826433","张","105","","","","","","","","","","","","","","","","","","","","","","","","","","","","","","","","","","","","","","","","","",""
"1138","<p style=""color:white; font-size: 35px;"">不仁</p>","e","categorize-html","123","250047","0.0-6.0-1.0-8.0-1.7","3","3","3","3","2","3","3","3","3","3","4","3","4","4","4","4","4","4","4","4","2","2","3","2","2","2","2","2","1","1","0","0","1","0","0","1","1","0","1","1","0","1","0","1","4","4","3","2","4","3","3","4","4","2","2","781892112919826433","张","105","","","","","","","","","","","","","","","","","","","true","14","4","moral","1138","negative","不仁","","","","","","","","","","","","","","","","",""
"null","","null","html-keyboard-response","124","250299","0.0-6.0-1.0-8.0-0.8","3","3","3","3","2","3","3","3","3","3","4","3","4","4","4","4","4","4","4","4","2","2","3","2","2","2","2","2","1","1","0","0","1","0","0","1","1","0","1","1","0","1","0","1","4","4","3","2","4","3","3","4","4","2","2","781892112919826433","张","105","","","","","","","","","","","","","","","","","","","","","","","","","","","","","","","","","","","","","","","","","",""
"936","<p style=""color:rgb(150, 250, 100); font-size: 35px;"">自己的</p>","e","categorize-html","125","251241","0.0-6.0-1.0-8.0-1.8","3","3","3","3","2","3","3","3","3","3","4","3","4","4","4","4","4","4","4","4","2","2","3","2","2","2","2","2","1","1","0","0","1","0","0","1","1","0","1","1","0","1","0","1","4","4","3","2","4","3","3","4","4","2","2","781892112919826433","张","105","","","","","","","","","","","","","","","","","","","true","14","4","moral","936","self","自己的","","","","","","","","","","","","","","","","",""
"null","","null","html-keyboard-response","126","251493","0.0-6.0-1.0-8.0-0.9","3","3","3","3","2","3","3","3","3","3","4","3","4","4","4","4","4","4","4","4","2","2","3","2","2","2","2","2","1","1","0","0","1","0","0","1","1","0","1","1","0","1","0","1","4","4","3","2","4","3","3","4","4","2","2","781892112919826433","张","105","","","","","","","","","","","","","","","","","","","","","","","","","","","","","","","","","","","","","","","","","",""
"873","<p style=""color:white; font-size: 35px;"">廉正</p>","i","categorize-html","127","252367","0.0-6.0-1.0-8.0-1.9","3","3","3","3","2","3","3","3","3","3","4","3","4","4","4","4","4","4","4","4","2","2","3","2","2","2","2","2","1","1","0","0","1","0","0","1","1","0","1","1","0","1","0","1","4","4","3","2","4","3","3","4","4","2","2","781892112919826433","张","105","","","","","","","","","","","","","","","","","","","true","14","4","moral","873","positive","廉正","","","","","","","","","","","","","","","","",""
"null","","null","html-keyboard-response","128","252619","0.0-6.0-1.0-8.0-0.10","3","3","3","3","2","3","3","3","3","3","4","3","4","4","4","4","4","4","4","4","2","2","3","2","2","2","2","2","1","1","0","0","1","0","0","1","1","0","1","1","0","1","0","1","4","4","3","2","4","3","3","4","4","2","2","781892112919826433","张","105","","","","","","","","","","","","","","","","","","","","","","","","","","","","","","","","","","","","","","","","","",""
"722","<p style=""color:rgb(150, 250, 100); font-size: 35px;"">别人的</p>","i","categorize-html","129","253344","0.0-6.0-1.0-8.0-1.10","3","3","3","3","2","3","3","3","3","3","4","3","4","4","4","4","4","4","4","4","2","2","3","2","2","2","2","2","1","1","0","0","1","0","0","1","1","0","1","1","0","1","0","1","4","4","3","2","4","3","3","4","4","2","2","781892112919826433","张","105","","","","","","","","","","","","","","","","","","","true","14","4","moral","722","other","别人的","","","","","","","","","","","","","","","","",""
"null","","null","html-keyboard-response","130","253596","0.0-6.0-1.0-8.0-0.11","3","3","3","3","2","3","3","3","3","3","4","3","4","4","4","4","4","4","4","4","2","2","3","2","2","2","2","2","1","1","0","0","1","0","0","1","1","0","1","1","0","1","0","1","4","4","3","2","4","3","3","4","4","2","2","781892112919826433","张","105","","","","","","","","","","","","","","","","","","","","","","","","","","","","","","","","","","","","","","","","","",""
"701","<p style=""color:white; font-size: 35px;"">缺德</p>","e","categorize-html","131","254301","0.0-6.0-1.0-8.0-1.11","3","3","3","3","2","3","3","3","3","3","4","3","4","4","4","4","4","4","4","4","2","2","3","2","2","2","2","2","1","1","0","0","1","0","0","1","1","0","1","1","0","1","0","1","4","4","3","2","4","3","3","4","4","2","2","781892112919826433","张","105","","","","","","","","","","","","","","","","","","","true","14","4","moral","701","negative","缺德","","","","","","","","","","","","","","","","",""
"null","","null","html-keyboard-response","132","254553","0.0-6.0-1.0-8.0-0.12","3","3","3","3","2","3","3","3","3","3","4","3","4","4","4","4","4","4","4","4","2","2","3","2","2","2","2","2","1","1","0","0","1","0","0","1","1","0","1","1","0","1","0","1","4","4","3","2","4","3","3","4","4","2","2","781892112919826433","张","105","","","","","","","","","","","","","","","","","","","","","","","","","","","","","","","","","","","","","","","","","",""
"659","<p style=""color:rgb(150, 250, 100); font-size: 35px;"">他人</p>","i","categorize-html","133","255214","0.0-6.0-1.0-8.0-1.12","3","3","3","3","2","3","3","3","3","3","4","3","4","4","4","4","4","4","4","4","2","2","3","2","2","2","2","2","1","1","0","0","1","0","0","1","1","0","1","1","0","1","0","1","4","4","3","2","4","3","3","4","4","2","2","781892112919826433","张","105","","","","","","","","","","","","","","","","","","","true","14","4","moral","659","other","他人","","","","","","","","","","","","","","","","",""
"null","","null","html-keyboard-response","134","255465","0.0-6.0-1.0-8.0-0.13","3","3","3","3","2","3","3","3","3","3","4","3","4","4","4","4","4","4","4","4","2","2","3","2","2","2","2","2","1","1","0","0","1","0","0","1","1","0","1","1","0","1","0","1","4","4","3","2","4","3","3","4","4","2","2","781892112919826433","张","105","","","","","","","","","","","","","","","","","","","","","","","","","","","","","","","","","","","","","","","","","",""
"1313","<p style=""color:white; font-size: 35px;"">高尚</p>","i","categorize-html","135","256783","0.0-6.0-1.0-8.0-1.13","3","3","3","3","2","3","3","3","3","3","4","3","4","4","4","4","4","4","4","4","2","2","3","2","2","2","2","2","1","1","0","0","1","0","0","1","1","0","1","1","0","1","0","1","4","4","3","2","4","3","3","4","4","2","2","781892112919826433","张","105","","","","","","","","","","","","","","","","","","","true","14","4","moral","1313","positive","高尚","","","","","","","","","","","","","","","","",""
"null","","null","html-keyboard-response","136","257035","0.0-6.0-1.0-8.0-0.14","3","3","3","3","2","3","3","3","3","3","4","3","4","4","4","4","4","4","4","4","2","2","3","2","2","2","2","2","1","1","0","0","1","0","0","1","1","0","1","1","0","1","0","1","4","4","3","2","4","3","3","4","4","2","2","781892112919826433","张","105","","","","","","","","","","","","","","","","","","","","","","","","","","","","","","","","","","","","","","","","","",""
"738","<p style=""color:rgb(150, 250, 100); font-size: 35px;"">我</p>","e","categorize-html","137","257776","0.0-6.0-1.0-8.0-1.14","3","3","3","3","2","3","3","3","3","3","4","3","4","4","4","4","4","4","4","4","2","2","3","2","2","2","2","2","1","1","0","0","1","0","0","1","1","0","1","1","0","1","0","1","4","4","3","2","4","3","3","4","4","2","2","781892112919826433","张","105","","","","","","","","","","","","","","","","","","","true","14","4","moral","738","self","我","","","","","","","","","","","","","","","","",""
"null","","null","html-keyboard-response","138","258027","0.0-6.0-1.0-8.0-0.15","3","3","3","3","2","3","3","3","3","3","4","3","4","4","4","4","4","4","4","4","2","2","3","2","2","2","2","2","1","1","0","0","1","0","0","1","1","0","1","1","0","1","0","1","4","4","3","2","4","3","3","4","4","2","2","781892112919826433","张","105","","","","","","","","","","","","","","","","","","","","","","","","","","","","","","","","","","","","","","","","","",""
"902","<p style=""color:white; font-size: 35px;"">黑心</p>","e","categorize-html","139","258931","0.0-6.0-1.0-8.0-1.15","3","3","3","3","2","3","3","3","3","3","4","3","4","4","4","4","4","4","4","4","2","2","3","2","2","2","2","2","1","1","0","0","1","0","0","1","1","0","1","1","0","1","0","1","4","4","3","2","4","3","3","4","4","2","2","781892112919826433","张","105","","","","","","","","","","","","","","","","","","","true","14","4","moral","902","negative","黑心","","","","","","","","","","","","","","","","",""
"null","","null","html-keyboard-response","140","259182","0.0-6.0-1.0-8.0-0.16","3","3","3","3","2","3","3","3","3","3","4","3","4","4","4","4","4","4","4","4","2","2","3","2","2","2","2","2","1","1","0","0","1","0","0","1","1","0","1","1","0","1","0","1","4","4","3","2","4","3","3","4","4","2","2","781892112919826433","张","105","","","","","","","","","","","","","","","","","","","","","","","","","","","","","","","","","","","","","","","","","",""
"611","<p style=""color:rgb(150, 250, 100); font-size: 35px;"">他的</p>","i","categorize-html","141","259795","0.0-6.0-1.0-8.0-1.16","3","3","3","3","2","3","3","3","3","3","4","3","4","4","4","4","4","4","4","4","2","2","3","2","2","2","2","2","1","1","0","0","1","0","0","1","1","0","1","1","0","1","0","1","4","4","3","2","4","3","3","4","4","2","2","781892112919826433","张","105","","","","","","","","","","","","","","","","","","","true","14","4","moral","611","other","他的","","","","","","","","","","","","","","","","",""
"null","","null","html-keyboard-response","142","260046","0.0-6.0-1.0-8.0-0.17","3","3","3","3","2","3","3","3","3","3","4","3","4","4","4","4","4","4","4","4","2","2","3","2","2","2","2","2","1","1","0","0","1","0","0","1","1","0","1","1","0","1","0","1","4","4","3","2","4","3","3","4","4","2","2","781892112919826433","张","105","","","","","","","","","","","","","","","","","","","","","","","","","","","","","","","","","","","","","","","","","",""
"1899","<p style=""color:white; font-size: 35px;"">不仁</p>","e","categorize-html","143","261948","0.0-6.0-1.0-8.0-1.17","3","3","3","3","2","3","3","3","3","3","4","3","4","4","4","4","4","4","4","4","2","2","3","2","2","2","2","2","1","1","0","0","1","0","0","1","1","0","1","1","0","1","0","1","4","4","3","2","4","3","3","4","4","2","2","781892112919826433","张","105","","","","","","","","","","","","","","","","","","","true","14","4","moral","1899","negative","不仁","","","","","","","","","","","","","","","","",""
"null","","null","html-keyboard-response","144","262198","0.0-6.0-1.0-8.0-0.18","3","3","3","3","2","3","3","3","3","3","4","3","4","4","4","4","4","4","4","4","2","2","3","2","2","2","2","2","1","1","0","0","1","0","0","1","1","0","1","1","0","1","0","1","4","4","3","2","4","3","3","4","4","2","2","781892112919826433","张","105","","","","","","","","","","","","","","","","","","","","","","","","","","","","","","","","","","","","","","","","","",""
"982","<p style=""color:rgb(150, 250, 100); font-size: 35px;"">自己</p>","e","categorize-html","145","263185","0.0-6.0-1.0-8.0-1.18","3","3","3","3","2","3","3","3","3","3","4","3","4","4","4","4","4","4","4","4","2","2","3","2","2","2","2","2","1","1","0","0","1","0","0","1","1","0","1","1","0","1","0","1","4","4","3","2","4","3","3","4","4","2","2","781892112919826433","张","105","","","","","","","","","","","","","","","","","","","true","14","4","moral","982","self","自己","","","","","","","","","","","","","","","","",""
"null","","null","html-keyboard-response","146","263437","0.0-6.0-1.0-8.0-0.19","3","3","3","3","2","3","3","3","3","3","4","3","4","4","4","4","4","4","4","4","2","2","3","2","2","2","2","2","1","1","0","0","1","0","0","1","1","0","1","1","0","1","0","1","4","4","3","2","4","3","3","4","4","2","2","781892112919826433","张","105","","","","","","","","","","","","","","","","","","","","","","","","","","","","","","","","","","","","","","","","","",""
"920","<p style=""color:white; font-size: 35px;"">善良</p>","i","categorize-html","147","264363","0.0-6.0-1.0-8.0-1.19","3","3","3","3","2","3","3","3","3","3","4","3","4","4","4","4","4","4","4","4","2","2","3","2","2","2","2","2","1","1","0","0","1","0","0","1","1","0","1","1","0","1","0","1","4","4","3","2","4","3","3","4","4","2","2","781892112919826433","张","105","","","","","","","","","","","","","","","","","","","true","14","4","moral","920","positive","善良","","","","","","","","","","","","","","","","",""
"null","","null","html-keyboard-response","148","264613","0.0-6.0-1.0-8.0-0.20","3","3","3","3","2","3","3","3","3","3","4","3","4","4","4","4","4","4","4","4","2","2","3","2","2","2","2","2","1","1","0","0","1","0","0","1","1","0","1","1","0","1","0","1","4","4","3","2","4","3","3","4","4","2","2","781892112919826433","张","105","","","","","","","","","","","","","","","","","","","","","","","","","","","","","","","","","","","","","","","","","",""
"1496","<p style=""color:rgb(150, 250, 100); font-size: 35px;"">他人的</p>","i","categorize-html","149","266114","0.0-6.0-1.0-8.0-1.20","3","3","3","3","2","3","3","3","3","3","4","3","4","4","4","4","4","4","4","4","2","2","3","2","2","2","2","2","1","1","0","0","1","0","0","1","1","0","1","1","0","1","0","1","4","4","3","2","4","3","3","4","4","2","2","781892112919826433","张","105","","","","","","","","","","","","","","","","","","","true","14","4","moral","1496","other","他人的","","","","","","","","","","","","","","","","",""
"null","","null","html-keyboard-response","150","266366","0.0-6.0-1.0-8.0-0.21","3","3","3","3","2","3","3","3","3","3","4","3","4","4","4","4","4","4","4","4","2","2","3","2","2","2","2","2","1","1","0","0","1","0","0","1","1","0","1","1","0","1","0","1","4","4","3","2","4","3","3","4","4","2","2","781892112919826433","张","105","","","","","","","","","","","","","","","","","","","","","","","","","","","","","","","","","","","","","","","","","",""
"1565","<p style=""color:white; font-size: 35px;"">黑心</p>","e","categorize-html","151","267935","0.0-6.0-1.0-8.0-1.21","3","3","3","3","2","3","3","3","3","3","4","3","4","4","4","4","4","4","4","4","2","2","3","2","2","2","2","2","1","1","0","0","1","0","0","1","1","0","1","1","0","1","0","1","4","4","3","2","4","3","3","4","4","2","2","781892112919826433","张","105","","","","","","","","","","","","","","","","","","","true","14","4","moral","1565","negative","黑心","","","","","","","","","","","","","","","","",""
"null","","null","html-keyboard-response","152","268186","0.0-6.0-1.0-8.0-0.22","3","3","3","3","2","3","3","3","3","3","4","3","4","4","4","4","4","4","4","4","2","2","3","2","2","2","2","2","1","1","0","0","1","0","0","1","1","0","1","1","0","1","0","1","4","4","3","2","4","3","3","4","4","2","2","781892112919826433","张","105","","","","","","","","","","","","","","","","","","","","","","","","","","","","","","","","","","","","","","","","","",""
"1285","<p style=""color:rgb(150, 250, 100); font-size: 35px;"">自己的</p>","e","categorize-html","153","269473","0.0-6.0-1.0-8.0-1.22","3","3","3","3","2","3","3","3","3","3","4","3","4","4","4","4","4","4","4","4","2","2","3","2","2","2","2","2","1","1","0","0","1","0","0","1","1","0","1","1","0","1","0","1","4","4","3","2","4","3","3","4","4","2","2","781892112919826433","张","105","","","","","","","","","","","","","","","","","","","true","14","4","moral","1285","self","自己的","","","","","","","","","","","","","","","","",""
"null","","null","html-keyboard-response","154","269725","0.0-6.0-1.0-8.0-0.23","3","3","3","3","2","3","3","3","3","3","4","3","4","4","4","4","4","4","4","4","2","2","3","2","2","2","2","2","1","1","0","0","1","0","0","1","1","0","1","1","0","1","0","1","4","4","3","2","4","3","3","4","4","2","2","781892112919826433","张","105","","","","","","","","","","","","","","","","","","","","","","","","","","","","","","","","","","","","","","","","","",""
"2484","<p style=""color:white; font-size: 35px;"">君子</p>","i","categorize-html","155","272213","0.0-6.0-1.0-8.0-1.23","3","3","3","3","2","3","3","3","3","3","4","3","4","4","4","4","4","4","4","4","2","2","3","2","2","2","2","2","1","1","0","0","1","0","0","1","1","0","1","1","0","1","0","1","4","4","3","2","4","3","3","4","4","2","2","781892112919826433","张","105","","","","","","","","","","","","","","","","","","","true","14","4","moral","2484","positive","君子","","","","","","","","","","","","","","","","",""
"null","","null","html-keyboard-response","156","272464","0.0-6.0-1.0-8.0-0.24","3","3","3","3","2","3","3","3","3","3","4","3","4","4","4","4","4","4","4","4","2","2","3","2","2","2","2","2","1","1","0","0","1","0","0","1","1","0","1","1","0","1","0","1","4","4","3","2","4","3","3","4","4","2","2","781892112919826433","张","105","","","","","","","","","","","","","","","","","","","","","","","","","","","","","","","","","","","","","","","","","",""
"720","<p style=""color:rgb(150, 250, 100); font-size: 35px;"">本人的</p>","e","categorize-html","157","273190","0.0-6.0-1.0-8.0-1.24","3","3","3","3","2","3","3","3","3","3","4","3","4","4","4","4","4","4","4","4","2","2","3","2","2","2","2","2","1","1","0","0","1","0","0","1","1","0","1","1","0","1","0","1","4","4","3","2","4","3","3","4","4","2","2","781892112919826433","张","105","","","","","","","","","","","","","","","","","","","true","14","4","moral","720","self","本人的","","","","","","","","","","","","","","","","",""
"null","","null","html-keyboard-response","158","273441","0.0-6.0-1.0-8.0-0.25","3","3","3","3","2","3","3","3","3","3","4","3","4","4","4","4","4","4","4","4","2","2","3","2","2","2","2","2","1","1","0","0","1","0","0","1","1","0","1","1","0","1","0","1","4","4","3","2","4","3","3","4","4","2","2","781892112919826433","张","105","","","","","","","","","","","","","","","","","","","","","","","","","","","","","","","","","","","","","","","","","",""
"2011","<p style=""color:white; font-size: 35px;"">缺德</p>","e","categorize-html","159","275455","0.0-6.0-1.0-8.0-1.25","3","3","3","3","2","3","3","3","3","3","4","3","4","4","4","4","4","4","4","4","2","2","3","2","2","2","2","2","1","1","0","0","1","0","0","1","1","0","1","1","0","1","0","1","4","4","3","2","4","3","3","4","4","2","2","781892112919826433","张","105","","","","","","","","","","","","","","","","","","","true","14","4","moral","2011","negative","缺德","","","","","","","","","","","","","","","","",""
"null","","null","html-keyboard-response","160","275706","0.0-6.0-1.0-8.0-0.26","3","3","3","3","2","3","3","3","3","3","4","3","4","4","4","4","4","4","4","4","2","2","3","2","2","2","2","2","1","1","0","0","1","0","0","1","1","0","1","1","0","1","0","1","4","4","3","2","4","3","3","4","4","2","2","781892112919826433","张","105","","","","","","","","","","","","","","","","","","","","","","","","","","","","","","","","","","","","","","","","","",""
"655","<p style=""color:rgb(150, 250, 100); font-size: 35px;"">他的</p>","i","categorize-html","161","276363","0.0-6.0-1.0-8.0-1.26","3","3","3","3","2","3","3","3","3","3","4","3","4","4","4","4","4","4","4","4","2","2","3","2","2","2","2","2","1","1","0","0","1","0","0","1","1","0","1","1","0","1","0","1","4","4","3","2","4","3","3","4","4","2","2","781892112919826433","张","105","","","","","","","","","","","","","","","","","","","true","14","4","moral","655","other","他的","","","","","","","","","","","","","","","","",""
"null","","null","html-keyboard-response","162","276614","0.0-6.0-1.0-8.0-0.27","3","3","3","3","2","3","3","3","3","3","4","3","4","4","4","4","4","4","4","4","2","2","3","2","2","2","2","2","1","1","0","0","1","0","0","1","1","0","1","1","0","1","0","1","4","4","3","2","4","3","3","4","4","2","2","781892112919826433","张","105","","","","","","","","","","","","","","","","","","","","","","","","","","","","","","","","","","","","","","","","","",""
"850","<p style=""color:white; font-size: 35px;"">善良</p>","i","categorize-html","163","277466","0.0-6.0-1.0-8.0-1.27","3","3","3","3","2","3","3","3","3","3","4","3","4","4","4","4","4","4","4","4","2","2","3","2","2","2","2","2","1","1","0","0","1","0","0","1","1","0","1","1","0","1","0","1","4","4","3","2","4","3","3","4","4","2","2","781892112919826433","张","105","","","","","","","","","","","","","","","","","","","true","14","4","moral","850","positive","善良","","","","","","","","","","","","","","","","",""
"null","","null","html-keyboard-response","164","277717","0.0-6.0-1.0-8.0-0.28","3","3","3","3","2","3","3","3","3","3","4","3","4","4","4","4","4","4","4","4","2","2","3","2","2","2","2","2","1","1","0","0","1","0","0","1","1","0","1","1","0","1","0","1","4","4","3","2","4","3","3","4","4","2","2","781892112919826433","张","105","","","","","","","","","","","","","","","","","","","","","","","","","","","","","","","","","","","","","","","","","",""
"1081","<p style=""color:rgb(150, 250, 100); font-size: 35px;"">他人的</p>","i","categorize-html","165","278801","0.0-6.0-1.0-8.0-1.28","3","3","3","3","2","3","3","3","3","3","4","3","4","4","4","4","4","4","4","4","2","2","3","2","2","2","2","2","1","1","0","0","1","0","0","1","1","0","1","1","0","1","0","1","4","4","3","2","4","3","3","4","4","2","2","781892112919826433","张","105","","","","","","","","","","","","","","","","","","","true","14","4","moral","1081","other","他人的","","","","","","","","","","","","","","","","",""
"null","","null","html-keyboard-response","166","279052","0.0-6.0-1.0-8.0-0.29","3","3","3","3","2","3","3","3","3","3","4","3","4","4","4","4","4","4","4","4","2","2","3","2","2","2","2","2","1","1","0","0","1","0","0","1","1","0","1","1","0","1","0","1","4","4","3","2","4","3","3","4","4","2","2","781892112919826433","张","105","","","","","","","","","","","","","","","","","","","","","","","","","","","","","","","","","","","","","","","","","",""
"752","<p style=""color:white; font-size: 35px;"">卑鄙</p>","e","categorize-html","167","279806","0.0-6.0-1.0-8.0-1.29","3","3","3","3","2","3","3","3","3","3","4","3","4","4","4","4","4","4","4","4","2","2","3","2","2","2","2","2","1","1","0","0","1","0","0","1","1","0","1","1","0","1","0","1","4","4","3","2","4","3","3","4","4","2","2","781892112919826433","张","105","","","","","","","","","","","","","","","","","","","true","14","4","moral","752","negative","卑鄙","","","","","","","","","","","","","","","","",""
"null","","null","html-keyboard-response","168","280057","0.0-6.0-1.0-8.0-0.30","3","3","3","3","2","3","3","3","3","3","4","3","4","4","4","4","4","4","4","4","2","2","3","2","2","2","2","2","1","1","0","0","1","0","0","1","1","0","1","1","0","1","0","1","4","4","3","2","4","3","3","4","4","2","2","781892112919826433","张","105","","","","","","","","","","","","","","","","","","","","","","","","","","","","","","","","","","","","","","","","","",""
"913","<p style=""color:rgb(150, 250, 100); font-size: 35px;"">自己</p>","e","categorize-html","169","280971","0.0-6.0-1.0-8.0-1.30","3","3","3","3","2","3","3","3","3","3","4","3","4","4","4","4","4","4","4","4","2","2","3","2","2","2","2","2","1","1","0","0","1","0","0","1","1","0","1","1","0","1","0","1","4","4","3","2","4","3","3","4","4","2","2","781892112919826433","张","105","","","","","","","","","","","","","","","","","","","true","14","4","moral","913","self","自己","","","","","","","","","","","","","","","","",""
"null","","null","html-keyboard-response","170","281222","0.0-6.0-1.0-8.0-0.31","3","3","3","3","2","3","3","3","3","3","4","3","4","4","4","4","4","4","4","4","2","2","3","2","2","2","2","2","1","1","0","0","1","0","0","1","1","0","1","1","0","1","0","1","4","4","3","2","4","3","3","4","4","2","2","781892112919826433","张","105","","","","","","","","","","","","","","","","","","","","","","","","","","","","","","","","","","","","","","","","","",""
"1653","<p style=""color:white; font-size: 35px;"">廉正</p>","i","categorize-html","171","282876","0.0-6.0-1.0-8.0-1.31","3","3","3","3","2","3","3","3","3","3","4","3","4","4","4","4","4","4","4","4","2","2","3","2","2","2","2","2","1","1","0","0","1","0","0","1","1","0","1","1","0","1","0","1","4","4","3","2","4","3","3","4","4","2","2","781892112919826433","张","105","","","","","","","","","","","","","","","","","","","true","14","4","moral","1653","positive","廉正","","","","","","","","","","","","","","","","",""
"null","","null","html-keyboard-response","172","283127","0.0-6.0-1.0-8.0-0.32","3","3","3","3","2","3","3","3","3","3","4","3","4","4","4","4","4","4","4","4","2","2","3","2","2","2","2","2","1","1","0","0","1","0","0","1","1","0","1","1","0","1","0","1","4","4","3","2","4","3","3","4","4","2","2","781892112919826433","张","105","","","","","","","","","","","","","","","","","","","","","","","","","","","","","","","","","","","","","","","","","",""
"697","<p style=""color:rgb(150, 250, 100); font-size: 35px;"">他</p>","i","categorize-html","173","283826","0.0-6.0-1.0-8.0-1.32","3","3","3","3","2","3","3","3","3","3","4","3","4","4","4","4","4","4","4","4","2","2","3","2","2","2","2","2","1","1","0","0","1","0","0","1","1","0","1","1","0","1","0","1","4","4","3","2","4","3","3","4","4","2","2","781892112919826433","张","105","","","","","","","","","","","","","","","","","","","true","14","4","moral","697","other","他","","","","","","","","","","","","","","","","",""
"null","","null","html-keyboard-response","174","284077","0.0-6.0-1.0-8.0-0.33","3","3","3","3","2","3","3","3","3","3","4","3","4","4","4","4","4","4","4","4","2","2","3","2","2","2","2","2","1","1","0","0","1","0","0","1","1","0","1","1","0","1","0","1","4","4","3","2","4","3","3","4","4","2","2","781892112919826433","张","105","","","","","","","","","","","","","","","","","","","","","","","","","","","","","","","","","","","","","","","","","",""
"579","<p style=""color:white; font-size: 35px;"">诚信</p>","i","categorize-html","175","284662","0.0-6.0-1.0-8.0-1.33","3","3","3","3","2","3","3","3","3","3","4","3","4","4","4","4","4","4","4","4","2","2","3","2","2","2","2","2","1","1","0","0","1","0","0","1","1","0","1","1","0","1","0","1","4","4","3","2","4","3","3","4","4","2","2","781892112919826433","张","105","","","","","","","","","","","","","","","","","","","true","14","4","moral","579","positive","诚信","","","","","","","","","","","","","","","","",""
"null","","null","html-keyboard-response","176","284915","0.0-6.0-1.0-8.0-0.34","3","3","3","3","2","3","3","3","3","3","4","3","4","4","4","4","4","4","4","4","2","2","3","2","2","2","2","2","1","1","0","0","1","0","0","1","1","0","1","1","0","1","0","1","4","4","3","2","4","3","3","4","4","2","2","781892112919826433","张","105","","","","","","","","","","","","","","","","","","","","","","","","","","","","","","","","","","","","","","","","","",""
"644","<p style=""color:rgb(150, 250, 100); font-size: 35px;"">我的</p>","e","categorize-html","177","285561","0.0-6.0-1.0-8.0-1.34","3","3","3","3","2","3","3","3","3","3","4","3","4","4","4","4","4","4","4","4","2","2","3","2","2","2","2","2","1","1","0","0","1","0","0","1","1","0","1","1","0","1","0","1","4","4","3","2","4","3","3","4","4","2","2","781892112919826433","张","105","","","","","","","","","","","","","","","","","","","true","14","4","moral","644","self","我的","","","","","","","","","","","","","","","","",""
"null","","null","html-keyboard-response","178","285813","0.0-6.0-1.0-8.0-0.35","3","3","3","3","2","3","3","3","3","3","4","3","4","4","4","4","4","4","4","4","2","2","3","2","2","2","2","2","1","1","0","0","1","0","0","1","1","0","1","1","0","1","0","1","4","4","3","2","4","3","3","4","4","2","2","781892112919826433","张","105","","","","","","","","","","","","","","","","","","","","","","","","","","","","","","","","","","","","","","","","","",""
"871","<p style=""color:white; font-size: 35px;"">小人</p>","e","categorize-html","179","286689","0.0-6.0-1.0-8.0-1.35","3","3","3","3","2","3","3","3","3","3","4","3","4","4","4","4","4","4","4","4","2","2","3","2","2","2","2","2","1","1","0","0","1","0","0","1","1","0","1","1","0","1","0","1","4","4","3","2","4","3","3","4","4","2","2","781892112919826433","张","105","","","","","","","","","","","","","","","","","","","true","14","4","moral","871","negative","小人","","","","","","","","","","","","","","","","",""
"null","","null","html-keyboard-response","180","286940","0.0-6.0-1.0-8.0-0.36","3","3","3","3","2","3","3","3","3","3","4","3","4","4","4","4","4","4","4","4","2","2","3","2","2","2","2","2","1","1","0","0","1","0","0","1","1","0","1","1","0","1","0","1","4","4","3","2","4","3","3","4","4","2","2","781892112919826433","张","105","","","","","","","","","","","","","","","","","","","","","","","","","","","","","","","","","","","","","","","","","",""
"1838","<p style=""color:rgb(150, 250, 100); font-size: 35px;"">别人的</p>","i","categorize-html","181","288783","0.0-6.0-1.0-8.0-1.36","3","3","3","3","2","3","3","3","3","3","4","3","4","4","4","4","4","4","4","4","2","2","3","2","2","2","2","2","1","1","0","0","1","0","0","1","1","0","1","1","0","1","0","1","4","4","3","2","4","3","3","4","4","2","2","781892112919826433","张","105","","","","","","","","","","","","","","","","","","","true","14","4","moral","1838","other","别人的","","","","","","","","","","","","","","","","",""
"null","","null","html-keyboard-response","182","289036","0.0-6.0-1.0-8.0-0.37","3","3","3","3","2","3","3","3","3","3","4","3","4","4","4","4","4","4","4","4","2","2","3","2","2","2","2","2","1","1","0","0","1","0","0","1","1","0","1","1","0","1","0","1","4","4","3","2","4","3","3","4","4","2","2","781892112919826433","张","105","","","","","","","","","","","","","","","","","","","","","","","","","","","","","","","","","","","","","","","","","",""
"959","<p style=""color:white; font-size: 35px;"">诚信</p>","i","categorize-html","183","289996","0.0-6.0-1.0-8.0-1.37","3","3","3","3","2","3","3","3","3","3","4","3","4","4","4","4","4","4","4","4","2","2","3","2","2","2","2","2","1","1","0","0","1","0","0","1","1","0","1","1","0","1","0","1","4","4","3","2","4","3","3","4","4","2","2","781892112919826433","张","105","","","","","","","","","","","","","","","","","","","true","14","4","moral","959","positive","诚信","","","","","","","","","","","","","","","","",""
"null","","null","html-keyboard-response","184","290247","0.0-6.0-1.0-8.0-0.38","3","3","3","3","2","3","3","3","3","3","4","3","4","4","4","4","4","4","4","4","2","2","3","2","2","2","2","2","1","1","0","0","1","0","0","1","1","0","1","1","0","1","0","1","4","4","3","2","4","3","3","4","4","2","2","781892112919826433","张","105","","","","","","","","","","","","","","","","","","","","","","","","","","","","","","","","","","","","","","","","","",""
"626","<p style=""color:rgb(150, 250, 100); font-size: 35px;"">我</p>","e","categorize-html","185","290877","0.0-6.0-1.0-8.0-1.38","3","3","3","3","2","3","3","3","3","3","4","3","4","4","4","4","4","4","4","4","2","2","3","2","2","2","2","2","1","1","0","0","1","0","0","1","1","0","1","1","0","1","0","1","4","4","3","2","4","3","3","4","4","2","2","781892112919826433","张","105","","","","","","","","","","","","","","","","","","","true","14","4","moral","626","self","我","","","","","","","","","","","","","","","","",""
"null","","null","html-keyboard-response","186","291129","0.0-6.0-1.0-8.0-0.39","3","3","3","3","2","3","3","3","3","3","4","3","4","4","4","4","4","4","4","4","2","2","3","2","2","2","2","2","1","1","0","0","1","0","0","1","1","0","1","1","0","1","0","1","4","4","3","2","4","3","3","4","4","2","2","781892112919826433","张","105","","","","","","","","","","","","","","","","","","","","","","","","","","","","","","","","","","","","","","","","","",""
"684","<p style=""color:white; font-size: 35px;"">卑鄙</p>","e","categorize-html","187","291818","0.0-6.0-1.0-8.0-1.39","3","3","3","3","2","3","3","3","3","3","4","3","4","4","4","4","4","4","4","4","2","2","3","2","2","2","2","2","1","1","0","0","1","0","0","1","1","0","1","1","0","1","0","1","4","4","3","2","4","3","3","4","4","2","2","781892112919826433","张","105","","","","","","","","","","","","","","","","","","","true","14","4","moral","684","negative","卑鄙","","","","","","","","","","","","","","","","",""
"null","","null","html-keyboard-response","188","292069","0.0-6.0-1.0-8.0-0.40","3","3","3","3","2","3","3","3","3","3","4","3","4","4","4","4","4","4","4","4","2","2","3","2","2","2","2","2","1","1","0","0","1","0","0","1","1","0","1","1","0","1","0","1","4","4","3","2","4","3","3","4","4","2","2","781892112919826433","张","105","","","","","","","","","","","","","","","","","","","","","","","","","","","","","","","","","","","","","","","","","",""
"920","<p style=""color:rgb(150, 250, 100); font-size: 35px;"">本人</p>","e","categorize-html","189","292990","0.0-6.0-1.0-8.0-1.40","3","3","3","3","2","3","3","3","3","3","4","3","4","4","4","4","4","4","4","4","2","2","3","2","2","2","2","2","1","1","0","0","1","0","0","1","1","0","1","1","0","1","0","1","4","4","3","2","4","3","3","4","4","2","2","781892112919826433","张","105","","","","","","","","","","","","","","","","","","","true","14","4","moral","920","self","本人","","","","","","","","","","","","","","","","",""
"null","","null","html-keyboard-response","190","293242","0.0-6.0-1.0-8.0-0.41","3","3","3","3","2","3","3","3","3","3","4","3","4","4","4","4","4","4","4","4","2","2","3","2","2","2","2","2","1","1","0","0","1","0","0","1","1","0","1","1","0","1","0","1","4","4","3","2","4","3","3","4","4","2","2","781892112919826433","张","105","","","","","","","","","","","","","","","","","","","","","","","","","","","","","","","","","","","","","","","","","",""
"1049","<p style=""color:white; font-size: 35px;"">小人</p>","e","categorize-html","191","294296","0.0-6.0-1.0-8.0-1.41","3","3","3","3","2","3","3","3","3","3","4","3","4","4","4","4","4","4","4","4","2","2","3","2","2","2","2","2","1","1","0","0","1","0","0","1","1","0","1","1","0","1","0","1","4","4","3","2","4","3","3","4","4","2","2","781892112919826433","张","105","","","","","","","","","","","","","","","","","","","true","14","4","moral","1049","negative","小人","","","","","","","","","","","","","","","","",""
"null","","null","html-keyboard-response","192","294547","0.0-6.0-1.0-8.0-0.42","3","3","3","3","2","3","3","3","3","3","4","3","4","4","4","4","4","4","4","4","2","2","3","2","2","2","2","2","1","1","0","0","1","0","0","1","1","0","1","1","0","1","0","1","4","4","3","2","4","3","3","4","4","2","2","781892112919826433","张","105","","","","","","","","","","","","","","","","","","","","","","","","","","","","","","","","","","","","","","","","","",""
"654","<p style=""color:rgb(150, 250, 100); font-size: 35px;"">他人</p>","i","categorize-html","193","295206","0.0-6.0-1.0-8.0-1.42","3","3","3","3","2","3","3","3","3","3","4","3","4","4","4","4","4","4","4","4","2","2","3","2","2","2","2","2","1","1","0","0","1","0","0","1","1","0","1","1","0","1","0","1","4","4","3","2","4","3","3","4","4","2","2","781892112919826433","张","105","","","","","","","","","","","","","","","","","","","true","14","4","moral","654","other","他人","","","","","","","","","","","","","","","","",""
