"rt","stimulus","response","trial_type","trial_index","time_elapsed","internal_node_id","ses_1","ses_2","ses_3","ses_4","ses_5","ses_6","ses_7","ses_8","ses_9","ses_10","coreself_1","coreself_2","coreself_3","coreself_4","coreself_5","coreself_6","coreself_7","coreself_8","coreself_9","coreself_10","SGPS_1","SGPS_2","SGPS_3","SGPS_4","SGPS_5","SGPS_6","SGPS_7","SGPS_8","SGPS_9","NPI1","NPI2","NPI3","NPI4","NPI5","NPI6","NPI7","NPI8","NPI9","NPI10","NPI11","NPI12","NPI13","NPI14","NPI15","hsns_1","hsns_2","hsns_3","hsns_4","hsns_5","trap1","hsns_6","hsns_7","hsns_8","hsns_9","hsns_10","subj_idx","friend_name","ParticipantID","value","success","user_agent","responses","item_order","radio_event_ids","radio_event_times","key_event_times","mouse_event_times","straightlining","zigzagging","honeypot","timeout","failed_images","failed_audio","failed_video","version_attrib2","version_target2","correct","IAT","screen_id","task_id","RT","condition","word","varname","summary","version_attrib","version_target","time_stamp","view_history","response_type","key_press","avg_frame_time","center_x","center_y","correct_response","identity","Image","question_order","correct_answer","trap1_item"
"2333","
   <p><div style = ""color: white;font-size:25px;"">您好，欢迎参加本次实验。</div> </p>
   <p><div style = ""color: white;font-size:25px;"">为充分保障您的权利，请确保您已经知晓并同意《参与实验同意书》以及《数据公开知情同意书》。</div></p>
   <p><div style = ""color: white;font-size:25px;"">如果您未见过上述内容，请咨询实验员。</div></p>
   <p><div style = ""color: white;font-size:25px;"">如果您选择继续实验，则表示您已经清楚两份知情同意书的内容并同意。</div></p>
   <p><div style = ""color: pink;font-size:30px;"">请确保您记得day0的实验编号，您将在本次实验输入该编号，若您忘记，请咨询实验员后作答。</div></p>
   <p><div style = ""color: lightblue;font-size:25px;"">请您尽可能认真地作答，我们将依据您在各问卷和按键任务中的作答质量发放报酬。</div></p>
   <p> <div style = ""color: green;font-size:25px;""><按空格键至下页></div> </p>
   "," ","html-keyboard-response","0","2336","0.0-0.0","3","3","3","3","4","3","3","1","3","4","4","3","2","3","4","4","4","5","4","4","4","4","4","4","4","5","4","3","4","1","1","0","0","1","1","1","1","0","0","1","0","1","0","1","4","4","5","3","5","1","4","4","5","4","2","798930525371899905","李","439","","","","","","","","","","","","","","","","","","","","","","","","","","","","","","","","","","","","","","","","","",""
"","","","call-function","1","2336","0.0-1.0-0.0","3","3","3","3","4","3","3","1","3","4","4","3","2","3","4","4","4","5","4","4","4","4","4","4","4","5","4","3","4","1","1","0","0","1","1","1","1","0","0","1","0","1","0","1","4","4","5","3","5","1","4","4","5","4","2","798930525371899905","李","439","","","","","","","","","","","","","","","","","","","","","","","","","","","","","","","","","","","","","","","","","",""
"31766","","{""friend_name"":""李"",""ParticipantID"":""439""}","survey-html-form","2","34103","0.0-1.0-1.0","3","3","3","3","4","3","3","1","3","4","4","3","2","3","4","4","4","5","4","4","4","4","4","4","4","5","4","3","4","1","1","0","0","1","1","1","1","0","0","1","0","1","0","1","4","4","5","3","5","1","4","4","5","4","2","798930525371899905","李","439","","","","","","","","","","","","","","","","","","","","","","","","","","","","","","","","","","","","","","","","","",""
"","","","fullscreen","3","35707","0.0-2.0","3","3","3","3","4","3","3","1","3","4","4","3","2","3","4","4","4","5","4","4","4","4","4","4","4","5","4","3","4","1","1","0","0","1","1","1","1","0","0","1","0","1","0","1","4","4","5","3","5","1","4","4","5","4","2","798930525371899905","李","439","","true","","","","","","","","","","","","","","","","","","","","","","","","","","","","","","","","","","","","","","","",""
"21976.759999990463","","{""Q01"":""3"",""Q02"":""3"",""Q03"":""3"",""Q04"":""3"",""Q05"":""4"",""Q06"":""3"",""Q07"":""3"",""Q08"":""1"",""Q09"":""3"",""Q10"":""4""}","survey-template","4","57689","0.0-3.0","3","3","3","3","4","3","3","1","3","4","4","3","2","3","4","4","4","5","4","4","4","4","4","4","4","5","4","3","4","1","1","0","0","1","1","1","1","0","0","1","0","1","0","1","4","4","5","3","5","1","4","4","5","4","2","798930525371899905","李","439","","","","{""Q01"":""3"",""Q02"":""3"",""Q03"":""3"",""Q04"":""3"",""Q05"":""4"",""Q06"":""3"",""Q07"":""3"",""Q08"":""1"",""Q09"":""3"",""Q10"":""4""}","[0,1,2,3,4,5,6,7,8,9]","[""Q01"",""Q02"",""Q03"",""Q04"",""Q05"",""Q06"",""Q07"",""Q08"",""Q09"",""Q10""]","[3374.2300000740215,4568.625000072643,7557.4450000422075,10173.605000018142,12117.915000068024,14109.629999962635,15949.660000042059,18096.684999996796,20113.310000044294,21160.909999976866]","[]","[3374.2300000740215,4568.625000072643,7557.4450000422075,10173.605000018142,12117.915000068024,14109.629999962635,15949.660000042059,18096.684999996796,20113.310000044294,21160.909999976866,21974.18000001926]","0.5","0.4444444444444444","0","","","","","","","","","","","","","","","","","","","","","","","","","","","","","",""
"18517.929999972694","","{""Q01"":""4"",""Q02"":""3"",""Q03"":""2"",""Q04"":""3"",""Q05"":""4"",""Q06"":""4"",""Q07"":""4"",""Q08"":""5"",""Q09"":""4"",""Q10"":""4""}","survey-template","5","76214","0.0-4.0","3","3","3","3","4","3","3","1","3","4","4","3","2","3","4","4","4","5","4","4","4","4","4","4","4","5","4","3","4","1","1","0","0","1","1","1","1","0","0","1","0","1","0","1","4","4","5","3","5","1","4","4","5","4","2","798930525371899905","李","439","","","","{""Q01"":""4"",""Q02"":""3"",""Q03"":""2"",""Q04"":""3"",""Q05"":""4"",""Q06"":""4"",""Q07"":""4"",""Q08"":""5"",""Q09"":""4"",""Q10"":""4""}","[0,1,2,3,4,5,6,7,8,9]","[""Q01"",""Q02"",""Q03"",""Q04"",""Q05"",""Q06"",""Q07"",""Q08"",""Q09"",""Q10""]","[2652.8699999907985,3980.4049999220297,5452.4999998975545,6662.619999959134,8182.034999947064,9549.949999898672,10636.139999958687,12997.845000005327,15829.274999909103,17710.64499998465]","[]","[2652.8699999907985,3980.4049999220297,5452.4999998975545,6662.619999959134,8182.034999947064,9549.949999898672,10636.139999958687,12997.845000005327,15829.274999909103,17710.64499998465,18516.519999946468]","0.4","0.5555555555555556","0","","","","","","","","","","","","","","","","","","","","","","","","","","","","","",""
"","","","preload","6","76320","0.0-5.0","3","3","3","3","4","3","3","1","3","4","4","3","2","3","4","4","4","5","4","4","4","4","4","4","4","5","4","3","4","1","1","0","0","1","1","1","1","0","0","1","0","1","0","1","4","4","5","3","5","1","4","4","5","4","2","798930525371899905","李","439","","true","","","","","","","","","","","false","[]","[]","[]","","","","","","","","","","","","","","","","","","","","","","","","","",""
"10611","
    <h3>词语分类任务</h3>
    <p>在接下来的任务中，你需要对一系列词语进行分类。<p/>
    请先熟悉这些词语，这有利于你完成接下来的任务。</p>
    <table align=""center"" border=1 cellpadding=3 cellspacing=0>
    <tr> <th>类别</th> <th>词语</th> </tr>
    <tr> <td>&emsp;积极&emsp;</td> <td>&emsp;高尚、诚信、善良、君子、廉正、正直&emsp;</td> </tr>
    <tr> <td>&emsp;消极&emsp;</td> <td>&emsp;缺德、卑鄙、不孝、不仁、小人、黑心&emsp;</td> </tr>
    <tr> <td>&emsp;自我&emsp;</td> <td>&emsp;我、我的、自己、自己的、本人、本人的&emsp;</td> </tr>
    <tr> <td>&emsp;他人&emsp;</td> <td>&emsp;他、他的、别人、别人的、他人、他人的&emsp;</td> </tr>
    </table><br/>","0","html-button-response","7","86932","0.0-6.0-1.0-0.0","3","3","3","3","4","3","3","1","3","4","4","3","2","3","4","4","4","5","4","4","4","4","4","4","4","5","4","3","4","1","1","0","0","1","1","1","1","0","0","1","0","1","0","1","4","4","5","3","5","1","4","4","5","4","2","798930525371899905","李","439","","","","","","","","","","","","","","","","","1","1","","","","","","","","","","","","","","","","","","","","","","","",""
"2416","
    <div class=""tag-bottom""><p>
    —— 任务1：对“自我”词和“他人”词分类 ——<p/>
    不同词语会出现在屏幕中央，类别标签将始终显示在屏幕上方<p/>   
    <span style=""color:#FFD866""><b>请根据上方标签的提示，尽可能正确并且快速地做出按键反应</b></span><p/>
    当按键错误时屏幕中会出现<span style=""color:red""> X </span>，需要按另一个键纠正才能继续<br/><p/>
    请把双手食指分别放在键盘的“E”键和“I”键上<p/>
    按<空格键>开始
    </p></div>"," ","html-keyboard-response","8","89352","0.0-6.0-1.0-1.0","3","3","3","3","4","3","3","1","3","4","4","3","2","3","4","4","4","5","4","4","4","4","4","4","4","5","4","3","4","1","1","0","0","1","1","1","1","0","0","1","0","1","0","1","4","4","5","3","5","1","4","4","5","4","2","798930525371899905","李","439","","","","","","","","","","","","","","","","","","","","","","","","","","","","","","","","","","","","","","","","","",""
"null","","null","html-keyboard-response","9","89605","0.0-6.0-1.0-2.0-0.0","3","3","3","3","4","3","3","1","3","4","4","3","2","3","4","4","4","5","4","4","4","4","4","4","4","5","4","3","4","1","1","0","0","1","1","1","1","0","0","1","0","1","0","1","4","4","5","3","5","1","4","4","5","4","2","798930525371899905","李","439","","","","","","","","","","","","","","","","","","","","","","","","","","","","","","","","","","","","","","","","","",""
"760","<p style=""color:rgb(150, 250, 100); font-size: 35px;"">我的</p>","e","categorize-html","10","90368","0.0-6.0-1.0-2.0-1.0","3","3","3","3","4","3","3","1","3","4","4","3","2","3","4","4","4","5","4","4","4","4","4","4","4","5","4","3","4","1","1","0","0","1","1","1","1","0","0","1","0","1","0","1","4","4","5","3","5","1","4","4","5","4","2","798930525371899905","李","439","","","","","","","","","","","","","","","","","","","true","11","1","moral","760","self","我的","","","","","","","","","","","","","","","","",""
"null","","null","html-keyboard-response","11","90620","0.0-6.0-1.0-2.0-0.1","3","3","3","3","4","3","3","1","3","4","4","3","2","3","4","4","4","5","4","4","4","4","4","4","4","5","4","3","4","1","1","0","0","1","1","1","1","0","0","1","0","1","0","1","4","4","5","3","5","1","4","4","5","4","2","798930525371899905","李","439","","","","","","","","","","","","","","","","","","","","","","","","","","","","","","","","","","","","","","","","","",""
"521","<p style=""color:rgb(150, 250, 100); font-size: 35px;"">他的</p>","i","categorize-html","12","91143","0.0-6.0-1.0-2.0-1.1","3","3","3","3","4","3","3","1","3","4","4","3","2","3","4","4","4","5","4","4","4","4","4","4","4","5","4","3","4","1","1","0","0","1","1","1","1","0","0","1","0","1","0","1","4","4","5","3","5","1","4","4","5","4","2","798930525371899905","李","439","","","","","","","","","","","","","","","","","","","true","11","1","moral","521","other","他的","","","","","","","","","","","","","","","","",""
"null","","null","html-keyboard-response","13","91395","0.0-6.0-1.0-2.0-0.2","3","3","3","3","4","3","3","1","3","4","4","3","2","3","4","4","4","5","4","4","4","4","4","4","4","5","4","3","4","1","1","0","0","1","1","1","1","0","0","1","0","1","0","1","4","4","5","3","5","1","4","4","5","4","2","798930525371899905","李","439","","","","","","","","","","","","","","","","","","","","","","","","","","","","","","","","","","","","","","","","","",""
"424","<p style=""color:rgb(150, 250, 100); font-size: 35px;"">他人</p>","i","categorize-html","14","91825","0.0-6.0-1.0-2.0-1.2","3","3","3","3","4","3","3","1","3","4","4","3","2","3","4","4","4","5","4","4","4","4","4","4","4","5","4","3","4","1","1","0","0","1","1","1","1","0","0","1","0","1","0","1","4","4","5","3","5","1","4","4","5","4","2","798930525371899905","李","439","","","","","","","","","","","","","","","","","","","true","11","1","moral","424","other","他人","","","","","","","","","","","","","","","","",""
"null","","null","html-keyboard-response","15","92078","0.0-6.0-1.0-2.0-0.3","3","3","3","3","4","3","3","1","3","4","4","3","2","3","4","4","4","5","4","4","4","4","4","4","4","5","4","3","4","1","1","0","0","1","1","1","1","0","0","1","0","1","0","1","4","4","5","3","5","1","4","4","5","4","2","798930525371899905","李","439","","","","","","","","","","","","","","","","","","","","","","","","","","","","","","","","","","","","","","","","","",""
"443","<p style=""color:rgb(150, 250, 100); font-size: 35px;"">自己的</p>","e","categorize-html","16","92523","0.0-6.0-1.0-2.0-1.3","3","3","3","3","4","3","3","1","3","4","4","3","2","3","4","4","4","5","4","4","4","4","4","4","4","5","4","3","4","1","1","0","0","1","1","1","1","0","0","1","0","1","0","1","4","4","5","3","5","1","4","4","5","4","2","798930525371899905","李","439","","","","","","","","","","","","","","","","","","","true","11","1","moral","443","self","自己的","","","","","","","","","","","","","","","","",""
"null","","null","html-keyboard-response","17","92775","0.0-6.0-1.0-2.0-0.4","3","3","3","3","4","3","3","1","3","4","4","3","2","3","4","4","4","5","4","4","4","4","4","4","4","5","4","3","4","1","1","0","0","1","1","1","1","0","0","1","0","1","0","1","4","4","5","3","5","1","4","4","5","4","2","798930525371899905","李","439","","","","","","","","","","","","","","","","","","","","","","","","","","","","","","","","","","","","","","","","","",""
"512","<p style=""color:rgb(150, 250, 100); font-size: 35px;"">别人的</p>","i","categorize-html","18","93290","0.0-6.0-1.0-2.0-1.4","3","3","3","3","4","3","3","1","3","4","4","3","2","3","4","4","4","5","4","4","4","4","4","4","4","5","4","3","4","1","1","0","0","1","1","1","1","0","0","1","0","1","0","1","4","4","5","3","5","1","4","4","5","4","2","798930525371899905","李","439","","","","","","","","","","","","","","","","","","","true","11","1","moral","512","other","别人的","","","","","","","","","","","","","","","","",""
"null","","null","html-keyboard-response","19","93542","0.0-6.0-1.0-2.0-0.5","3","3","3","3","4","3","3","1","3","4","4","3","2","3","4","4","4","5","4","4","4","4","4","4","4","5","4","3","4","1","1","0","0","1","1","1","1","0","0","1","0","1","0","1","4","4","5","3","5","1","4","4","5","4","2","798930525371899905","李","439","","","","","","","","","","","","","","","","","","","","","","","","","","","","","","","","","","","","","","","","","",""
"605","<p style=""color:rgb(150, 250, 100); font-size: 35px;"">本人的</p>","e","categorize-html","20","94150","0.0-6.0-1.0-2.0-1.5","3","3","3","3","4","3","3","1","3","4","4","3","2","3","4","4","4","5","4","4","4","4","4","4","4","5","4","3","4","1","1","0","0","1","1","1","1","0","0","1","0","1","0","1","4","4","5","3","5","1","4","4","5","4","2","798930525371899905","李","439","","","","","","","","","","","","","","","","","","","true","11","1","moral","605","self","本人的","","","","","","","","","","","","","","","","",""
"null","","null","html-keyboard-response","21","94401","0.0-6.0-1.0-2.0-0.6","3","3","3","3","4","3","3","1","3","4","4","3","2","3","4","4","4","5","4","4","4","4","4","4","4","5","4","3","4","1","1","0","0","1","1","1","1","0","0","1","0","1","0","1","4","4","5","3","5","1","4","4","5","4","2","798930525371899905","李","439","","","","","","","","","","","","","","","","","","","","","","","","","","","","","","","","","","","","","","","","","",""
"504","<p style=""color:rgb(150, 250, 100); font-size: 35px;"">他</p>","i","categorize-html","22","94908","0.0-6.0-1.0-2.0-1.6","3","3","3","3","4","3","3","1","3","4","4","3","2","3","4","4","4","5","4","4","4","4","4","4","4","5","4","3","4","1","1","0","0","1","1","1","1","0","0","1","0","1","0","1","4","4","5","3","5","1","4","4","5","4","2","798930525371899905","李","439","","","","","","","","","","","","","","","","","","","true","11","1","moral","504","other","他","","","","","","","","","","","","","","","","",""
"null","","null","html-keyboard-response","23","95159","0.0-6.0-1.0-2.0-0.7","3","3","3","3","4","3","3","1","3","4","4","3","2","3","4","4","4","5","4","4","4","4","4","4","4","5","4","3","4","1","1","0","0","1","1","1","1","0","0","1","0","1","0","1","4","4","5","3","5","1","4","4","5","4","2","798930525371899905","李","439","","","","","","","","","","","","","","","","","","","","","","","","","","","","","","","","","","","","","","","","","",""
"473","<p style=""color:rgb(150, 250, 100); font-size: 35px;"">别人</p>","i","categorize-html","24","95635","0.0-6.0-1.0-2.0-1.7","3","3","3","3","4","3","3","1","3","4","4","3","2","3","4","4","4","5","4","4","4","4","4","4","4","5","4","3","4","1","1","0","0","1","1","1","1","0","0","1","0","1","0","1","4","4","5","3","5","1","4","4","5","4","2","798930525371899905","李","439","","","","","","","","","","","","","","","","","","","true","11","1","moral","473","other","别人","","","","","","","","","","","","","","","","",""
"null","","null","html-keyboard-response","25","95886","0.0-6.0-1.0-2.0-0.8","3","3","3","3","4","3","3","1","3","4","4","3","2","3","4","4","4","5","4","4","4","4","4","4","4","5","4","3","4","1","1","0","0","1","1","1","1","0","0","1","0","1","0","1","4","4","5","3","5","1","4","4","5","4","2","798930525371899905","李","439","","","","","","","","","","","","","","","","","","","","","","","","","","","","","","","","","","","","","","","","","",""
"538","<p style=""color:rgb(150, 250, 100); font-size: 35px;"">本人</p>","e","categorize-html","26","96425","0.0-6.0-1.0-2.0-1.8","3","3","3","3","4","3","3","1","3","4","4","3","2","3","4","4","4","5","4","4","4","4","4","4","4","5","4","3","4","1","1","0","0","1","1","1","1","0","0","1","0","1","0","1","4","4","5","3","5","1","4","4","5","4","2","798930525371899905","李","439","","","","","","","","","","","","","","","","","","","true","11","1","moral","538","self","本人","","","","","","","","","","","","","","","","",""
"null","","null","html-keyboard-response","27","96676","0.0-6.0-1.0-2.0-0.9","3","3","3","3","4","3","3","1","3","4","4","3","2","3","4","4","4","5","4","4","4","4","4","4","4","5","4","3","4","1","1","0","0","1","1","1","1","0","0","1","0","1","0","1","4","4","5","3","5","1","4","4","5","4","2","798930525371899905","李","439","","","","","","","","","","","","","","","","","","","","","","","","","","","","","","","","","","","","","","","","","",""
"700","<p style=""color:rgb(150, 250, 100); font-size: 35px;"">他人的</p>","i","categorize-html","28","97379","0.0-6.0-1.0-2.0-1.9","3","3","3","3","4","3","3","1","3","4","4","3","2","3","4","4","4","5","4","4","4","4","4","4","4","5","4","3","4","1","1","0","0","1","1","1","1","0","0","1","0","1","0","1","4","4","5","3","5","1","4","4","5","4","2","798930525371899905","李","439","","","","","","","","","","","","","","","","","","","true","11","1","moral","700","other","他人的","","","","","","","","","","","","","","","","",""
"null","","null","html-keyboard-response","29","97630","0.0-6.0-1.0-2.0-0.10","3","3","3","3","4","3","3","1","3","4","4","3","2","3","4","4","4","5","4","4","4","4","4","4","4","5","4","3","4","1","1","0","0","1","1","1","1","0","0","1","0","1","0","1","4","4","5","3","5","1","4","4","5","4","2","798930525371899905","李","439","","","","","","","","","","","","","","","","","","","","","","","","","","","","","","","","","","","","","","","","","",""
"547","<p style=""color:rgb(150, 250, 100); font-size: 35px;"">自己</p>","e","categorize-html","30","98180","0.0-6.0-1.0-2.0-1.10","3","3","3","3","4","3","3","1","3","4","4","3","2","3","4","4","4","5","4","4","4","4","4","4","4","5","4","3","4","1","1","0","0","1","1","1","1","0","0","1","0","1","0","1","4","4","5","3","5","1","4","4","5","4","2","798930525371899905","李","439","","","","","","","","","","","","","","","","","","","true","11","1","moral","547","self","自己","","","","","","","","","","","","","","","","",""
"null","","null","html-keyboard-response","31","98431","0.0-6.0-1.0-2.0-0.11","3","3","3","3","4","3","3","1","3","4","4","3","2","3","4","4","4","5","4","4","4","4","4","4","4","5","4","3","4","1","1","0","0","1","1","1","1","0","0","1","0","1","0","1","4","4","5","3","5","1","4","4","5","4","2","798930525371899905","李","439","","","","","","","","","","","","","","","","","","","","","","","","","","","","","","","","","","","","","","","","","",""
"460","<p style=""color:rgb(150, 250, 100); font-size: 35px;"">我</p>","e","categorize-html","32","98893","0.0-6.0-1.0-2.0-1.11","3","3","3","3","4","3","3","1","3","4","4","3","2","3","4","4","4","5","4","4","4","4","4","4","4","5","4","3","4","1","1","0","0","1","1","1","1","0","0","1","0","1","0","1","4","4","5","3","5","1","4","4","5","4","2","798930525371899905","李","439","","","","","","","","","","","","","","","","","","","true","11","1","moral","460","self","我","","","","","","","","","","","","","","","","",""
"1155","
    <div class=""tag-bottom""><p>
    —— 任务2：对“积极”词和“消极”词分类 ——<p/>   
    <span style=""color:#78DCE8""><b>注意上方，类别标签和需要分类的词语都已经改变</b></span><p/>
    <span style=""color:#FFD866""><b>请根据上方标签的提示，尽可能正确并且快速地做出按键反应</b></span><p/>
    当按键错误时屏幕中会出现<span style=""color:red""> X </span>，需要按另一个键纠正才能继续<br/><p/>
    请把双手食指分别放在键盘的“E”键和“I”键上<p/>
    按<空格键>开始
    </p></div>"," ","html-keyboard-response","33","100048","0.0-6.0-1.0-3.0","3","3","3","3","4","3","3","1","3","4","4","3","2","3","4","4","4","5","4","4","4","4","4","4","4","5","4","3","4","1","1","0","0","1","1","1","1","0","0","1","0","1","0","1","4","4","5","3","5","1","4","4","5","4","2","798930525371899905","李","439","","","","","","","","","","","","","","","","","","","","","","","","","","","","","","","","","","","","","","","","","",""
"null","","null","html-keyboard-response","34","100300","0.0-6.0-1.0-4.0-0.0","3","3","3","3","4","3","3","1","3","4","4","3","2","3","4","4","4","5","4","4","4","4","4","4","4","5","4","3","4","1","1","0","0","1","1","1","1","0","0","1","0","1","0","1","4","4","5","3","5","1","4","4","5","4","2","798930525371899905","李","439","","","","","","","","","","","","","","","","","","","","","","","","","","","","","","","","","","","","","","","","","",""
"873","<p style=""color:white; font-size: 35px;"">不孝</p>","i","categorize-html","35","101177","0.0-6.0-1.0-4.0-1.0","3","3","3","3","4","3","3","1","3","4","4","3","2","3","4","4","4","5","4","4","4","4","4","4","4","5","4","3","4","1","1","0","0","1","1","1","1","0","0","1","0","1","0","1","4","4","5","3","5","1","4","4","5","4","2","798930525371899905","李","439","","","","","","","","","","","","","","","","","","","true","12","2","moral","873","negative","不孝","","","","","","","","","","","","","","","","",""
"null","","null","html-keyboard-response","36","101427","0.0-6.0-1.0-4.0-0.1","3","3","3","3","4","3","3","1","3","4","4","3","2","3","4","4","4","5","4","4","4","4","4","4","4","5","4","3","4","1","1","0","0","1","1","1","1","0","0","1","0","1","0","1","4","4","5","3","5","1","4","4","5","4","2","798930525371899905","李","439","","","","","","","","","","","","","","","","","","","","","","","","","","","","","","","","","","","","","","","","","",""
"2956","<p style=""color:white; font-size: 35px;"">正直</p>","e","categorize-html","37","104385","0.0-6.0-1.0-4.0-1.1","3","3","3","3","4","3","3","1","3","4","4","3","2","3","4","4","4","5","4","4","4","4","4","4","4","5","4","3","4","1","1","0","0","1","1","1","1","0","0","1","0","1","0","1","4","4","5","3","5","1","4","4","5","4","2","798930525371899905","李","439","","","","","","","","","","","","","","","","","","","true","12","2","moral","2956","positive","正直","","","","","","","","","","","","","","","","",""
"null","","null","html-keyboard-response","38","104636","0.0-6.0-1.0-4.0-0.2","3","3","3","3","4","3","3","1","3","4","4","3","2","3","4","4","4","5","4","4","4","4","4","4","4","5","4","3","4","1","1","0","0","1","1","1","1","0","0","1","0","1","0","1","4","4","5","3","5","1","4","4","5","4","2","798930525371899905","李","439","","","","","","","","","","","","","","","","","","","","","","","","","","","","","","","","","","","","","","","","","",""
"540","<p style=""color:white; font-size: 35px;"">卑鄙</p>","i","categorize-html","39","105178","0.0-6.0-1.0-4.0-1.2","3","3","3","3","4","3","3","1","3","4","4","3","2","3","4","4","4","5","4","4","4","4","4","4","4","5","4","3","4","1","1","0","0","1","1","1","1","0","0","1","0","1","0","1","4","4","5","3","5","1","4","4","5","4","2","798930525371899905","李","439","","","","","","","","","","","","","","","","","","","true","12","2","moral","540","negative","卑鄙","","","","","","","","","","","","","","","","",""
"null","","null","html-keyboard-response","40","105430","0.0-6.0-1.0-4.0-0.3","3","3","3","3","4","3","3","1","3","4","4","3","2","3","4","4","4","5","4","4","4","4","4","4","4","5","4","3","4","1","1","0","0","1","1","1","1","0","0","1","0","1","0","1","4","4","5","3","5","1","4","4","5","4","2","798930525371899905","李","439","","","","","","","","","","","","","","","","","","","","","","","","","","","","","","","","","","","","","","","","","",""
"527","<p style=""color:white; font-size: 35px;"">缺德</p>","i","categorize-html","41","105960","0.0-6.0-1.0-4.0-1.3","3","3","3","3","4","3","3","1","3","4","4","3","2","3","4","4","4","5","4","4","4","4","4","4","4","5","4","3","4","1","1","0","0","1","1","1","1","0","0","1","0","1","0","1","4","4","5","3","5","1","4","4","5","4","2","798930525371899905","李","439","","","","","","","","","","","","","","","","","","","true","12","2","moral","527","negative","缺德","","","","","","","","","","","","","","","","",""
"null","","null","html-keyboard-response","42","106212","0.0-6.0-1.0-4.0-0.4","3","3","3","3","4","3","3","1","3","4","4","3","2","3","4","4","4","5","4","4","4","4","4","4","4","5","4","3","4","1","1","0","0","1","1","1","1","0","0","1","0","1","0","1","4","4","5","3","5","1","4","4","5","4","2","798930525371899905","李","439","","","","","","","","","","","","","","","","","","","","","","","","","","","","","","","","","","","","","","","","","",""
"581","<p style=""color:white; font-size: 35px;"">君子</p>","e","categorize-html","43","106795","0.0-6.0-1.0-4.0-1.4","3","3","3","3","4","3","3","1","3","4","4","3","2","3","4","4","4","5","4","4","4","4","4","4","4","5","4","3","4","1","1","0","0","1","1","1","1","0","0","1","0","1","0","1","4","4","5","3","5","1","4","4","5","4","2","798930525371899905","李","439","","","","","","","","","","","","","","","","","","","true","12","2","moral","581","positive","君子","","","","","","","","","","","","","","","","",""
"null","","null","html-keyboard-response","44","107047","0.0-6.0-1.0-4.0-0.5","3","3","3","3","4","3","3","1","3","4","4","3","2","3","4","4","4","5","4","4","4","4","4","4","4","5","4","3","4","1","1","0","0","1","1","1","1","0","0","1","0","1","0","1","4","4","5","3","5","1","4","4","5","4","2","798930525371899905","李","439","","","","","","","","","","","","","","","","","","","","","","","","","","","","","","","","","","","","","","","","","",""
"1386","<p style=""color:white; font-size: 35px;"">小人</p>","i","categorize-html","45","108436","0.0-6.0-1.0-4.0-1.5","3","3","3","3","4","3","3","1","3","4","4","3","2","3","4","4","4","5","4","4","4","4","4","4","4","5","4","3","4","1","1","0","0","1","1","1","1","0","0","1","0","1","0","1","4","4","5","3","5","1","4","4","5","4","2","798930525371899905","李","439","","","","","","","","","","","","","","","","","","","true","12","2","moral","1386","negative","小人","","","","","","","","","","","","","","","","",""
"null","","null","html-keyboard-response","46","108687","0.0-6.0-1.0-4.0-0.6","3","3","3","3","4","3","3","1","3","4","4","3","2","3","4","4","4","5","4","4","4","4","4","4","4","5","4","3","4","1","1","0","0","1","1","1","1","0","0","1","0","1","0","1","4","4","5","3","5","1","4","4","5","4","2","798930525371899905","李","439","","","","","","","","","","","","","","","","","","","","","","","","","","","","","","","","","","","","","","","","","",""
"700","<p style=""color:white; font-size: 35px;"">廉正</p>","e","categorize-html","47","109390","0.0-6.0-1.0-4.0-1.6","3","3","3","3","4","3","3","1","3","4","4","3","2","3","4","4","4","5","4","4","4","4","4","4","4","5","4","3","4","1","1","0","0","1","1","1","1","0","0","1","0","1","0","1","4","4","5","3","5","1","4","4","5","4","2","798930525371899905","李","439","","","","","","","","","","","","","","","","","","","true","12","2","moral","700","positive","廉正","","","","","","","","","","","","","","","","",""
"null","","null","html-keyboard-response","48","109641","0.0-6.0-1.0-4.0-0.7","3","3","3","3","4","3","3","1","3","4","4","3","2","3","4","4","4","5","4","4","4","4","4","4","4","5","4","3","4","1","1","0","0","1","1","1","1","0","0","1","0","1","0","1","4","4","5","3","5","1","4","4","5","4","2","798930525371899905","李","439","","","","","","","","","","","","","","","","","","","","","","","","","","","","","","","","","","","","","","","","","",""
"1069","<p style=""color:white; font-size: 35px;"">善良</p>","e","categorize-html","49","110712","0.0-6.0-1.0-4.0-1.7","3","3","3","3","4","3","3","1","3","4","4","3","2","3","4","4","4","5","4","4","4","4","4","4","4","5","4","3","4","1","1","0","0","1","1","1","1","0","0","1","0","1","0","1","4","4","5","3","5","1","4","4","5","4","2","798930525371899905","李","439","","","","","","","","","","","","","","","","","","","true","12","2","moral","1069","positive","善良","","","","","","","","","","","","","","","","",""
"null","","null","html-keyboard-response","50","110963","0.0-6.0-1.0-4.0-0.8","3","3","3","3","4","3","3","1","3","4","4","3","2","3","4","4","4","5","4","4","4","4","4","4","4","5","4","3","4","1","1","0","0","1","1","1","1","0","0","1","0","1","0","1","4","4","5","3","5","1","4","4","5","4","2","798930525371899905","李","439","","","","","","","","","","","","","","","","","","","","","","","","","","","","","","","","","","","","","","","","","",""
"647","<p style=""color:white; font-size: 35px;"">诚信</p>","e","categorize-html","51","111612","0.0-6.0-1.0-4.0-1.8","3","3","3","3","4","3","3","1","3","4","4","3","2","3","4","4","4","5","4","4","4","4","4","4","4","5","4","3","4","1","1","0","0","1","1","1","1","0","0","1","0","1","0","1","4","4","5","3","5","1","4","4","5","4","2","798930525371899905","李","439","","","","","","","","","","","","","","","","","","","true","12","2","moral","647","positive","诚信","","","","","","","","","","","","","","","","",""
"null","","null","html-keyboard-response","52","111863","0.0-6.0-1.0-4.0-0.9","3","3","3","3","4","3","3","1","3","4","4","3","2","3","4","4","4","5","4","4","4","4","4","4","4","5","4","3","4","1","1","0","0","1","1","1","1","0","0","1","0","1","0","1","4","4","5","3","5","1","4","4","5","4","2","798930525371899905","李","439","","","","","","","","","","","","","","","","","","","","","","","","","","","","","","","","","","","","","","","","","",""
"624","<p style=""color:white; font-size: 35px;"">不仁</p>","i","categorize-html","53","112489","0.0-6.0-1.0-4.0-1.9","3","3","3","3","4","3","3","1","3","4","4","3","2","3","4","4","4","5","4","4","4","4","4","4","4","5","4","3","4","1","1","0","0","1","1","1","1","0","0","1","0","1","0","1","4","4","5","3","5","1","4","4","5","4","2","798930525371899905","李","439","","","","","","","","","","","","","","","","","","","true","12","2","moral","624","negative","不仁","","","","","","","","","","","","","","","","",""
"null","","null","html-keyboard-response","54","112740","0.0-6.0-1.0-4.0-0.10","3","3","3","3","4","3","3","1","3","4","4","3","2","3","4","4","4","5","4","4","4","4","4","4","4","5","4","3","4","1","1","0","0","1","1","1","1","0","0","1","0","1","0","1","4","4","5","3","5","1","4","4","5","4","2","798930525371899905","李","439","","","","","","","","","","","","","","","","","","","","","","","","","","","","","","","","","","","","","","","","","",""
"768","<p style=""color:white; font-size: 35px;"">黑心</p>","i","categorize-html","55","113510","0.0-6.0-1.0-4.0-1.10","3","3","3","3","4","3","3","1","3","4","4","3","2","3","4","4","4","5","4","4","4","4","4","4","4","5","4","3","4","1","1","0","0","1","1","1","1","0","0","1","0","1","0","1","4","4","5","3","5","1","4","4","5","4","2","798930525371899905","李","439","","","","","","","","","","","","","","","","","","","true","12","2","moral","768","negative","黑心","","","","","","","","","","","","","","","","",""
"null","","null","html-keyboard-response","56","113761","0.0-6.0-1.0-4.0-0.11","3","3","3","3","4","3","3","1","3","4","4","3","2","3","4","4","4","5","4","4","4","4","4","4","4","5","4","3","4","1","1","0","0","1","1","1","1","0","0","1","0","1","0","1","4","4","5","3","5","1","4","4","5","4","2","798930525371899905","李","439","","","","","","","","","","","","","","","","","","","","","","","","","","","","","","","","","","","","","","","","","",""
"538","<p style=""color:white; font-size: 35px;"">高尚</p>","e","categorize-html","57","114301","0.0-6.0-1.0-4.0-1.11","3","3","3","3","4","3","3","1","3","4","4","3","2","3","4","4","4","5","4","4","4","4","4","4","4","5","4","3","4","1","1","0","0","1","1","1","1","0","0","1","0","1","0","1","4","4","5","3","5","1","4","4","5","4","2","798930525371899905","李","439","","","","","","","","","","","","","","","","","","","true","12","2","moral","538","positive","高尚","","","","","","","","","","","","","","","","",""
"1747","
    <div class=""tag-bottom""><p>
    —— 任务3：对“自我/积极”词和“他人/消极”词分类 ——<p/>
    <span style=""color:#78DCE8""><b>注意上方，之前的四类词语将混合在一起交替呈现</b></span><p/>
    <span style=""color:#FFD866""><b>请根据上方标签的提示，尽可能正确并且快速地做出按键反应</b></span><p/>
    当按键错误时屏幕中会出现<span style=""color:red""> X </span>，需要按另一个键纠正才能继续<br/><p/>
    请把双手食指分别放在键盘的“E”键和“I”键上<p/>
    按<空格键>开始
    </p></div>"," ","html-keyboard-response","58","116048","0.0-6.0-1.0-5.0","3","3","3","3","4","3","3","1","3","4","4","3","2","3","4","4","4","5","4","4","4","4","4","4","4","5","4","3","4","1","1","0","0","1","1","1","1","0","0","1","0","1","0","1","4","4","5","3","5","1","4","4","5","4","2","798930525371899905","李","439","","","","","","","","","","","","","","","","","","","","","","","","","","","","","","","","","","","","","","","","","",""
"null","","null","html-keyboard-response","59","116301","0.0-6.0-1.0-6.0-0.0","3","3","3","3","4","3","3","1","3","4","4","3","2","3","4","4","4","5","4","4","4","4","4","4","4","5","4","3","4","1","1","0","0","1","1","1","1","0","0","1","0","1","0","1","4","4","5","3","5","1","4","4","5","4","2","798930525371899905","李","439","","","","","","","","","","","","","","","","","","","","","","","","","","","","","","","","","","","","","","","","","",""
"608","<p style=""color:rgb(150, 250, 100); font-size: 35px;"">自己</p>","e","categorize-html","60","116913","0.0-6.0-1.0-6.0-1.0","3","3","3","3","4","3","3","1","3","4","4","3","2","3","4","4","4","5","4","4","4","4","4","4","4","5","4","3","4","1","1","0","0","1","1","1","1","0","0","1","0","1","0","1","4","4","5","3","5","1","4","4","5","4","2","798930525371899905","李","439","","","","","","","","","","","","","","","","","","","true","13","3","moral","608","self","自己","","","","","","","","","","","","","","","","",""
"null","","null","html-keyboard-response","61","117164","0.0-6.0-1.0-6.0-0.1","3","3","3","3","4","3","3","1","3","4","4","3","2","3","4","4","4","5","4","4","4","4","4","4","4","5","4","3","4","1","1","0","0","1","1","1","1","0","0","1","0","1","0","1","4","4","5","3","5","1","4","4","5","4","2","798930525371899905","李","439","","","","","","","","","","","","","","","","","","","","","","","","","","","","","","","","","","","","","","","","","",""
"523","<p style=""color:white; font-size: 35px;"">卑鄙</p>","i","categorize-html","62","117689","0.0-6.0-1.0-6.0-1.1","3","3","3","3","4","3","3","1","3","4","4","3","2","3","4","4","4","5","4","4","4","4","4","4","4","5","4","3","4","1","1","0","0","1","1","1","1","0","0","1","0","1","0","1","4","4","5","3","5","1","4","4","5","4","2","798930525371899905","李","439","","","","","","","","","","","","","","","","","","","true","13","3","moral","523","negative","卑鄙","","","","","","","","","","","","","","","","",""
"null","","null","html-keyboard-response","63","117940","0.0-6.0-1.0-6.0-0.2","3","3","3","3","4","3","3","1","3","4","4","3","2","3","4","4","4","5","4","4","4","4","4","4","4","5","4","3","4","1","1","0","0","1","1","1","1","0","0","1","0","1","0","1","4","4","5","3","5","1","4","4","5","4","2","798930525371899905","李","439","","","","","","","","","","","","","","","","","","","","","","","","","","","","","","","","","","","","","","","","","",""
"519","<p style=""color:rgb(150, 250, 100); font-size: 35px;"">别人的</p>","i","categorize-html","64","118462","0.0-6.0-1.0-6.0-1.2","3","3","3","3","4","3","3","1","3","4","4","3","2","3","4","4","4","5","4","4","4","4","4","4","4","5","4","3","4","1","1","0","0","1","1","1","1","0","0","1","0","1","0","1","4","4","5","3","5","1","4","4","5","4","2","798930525371899905","李","439","","","","","","","","","","","","","","","","","","","true","13","3","moral","519","other","别人的","","","","","","","","","","","","","","","","",""
"null","","null","html-keyboard-response","65","118714","0.0-6.0-1.0-6.0-0.3","3","3","3","3","4","3","3","1","3","4","4","3","2","3","4","4","4","5","4","4","4","4","4","4","4","5","4","3","4","1","1","0","0","1","1","1","1","0","0","1","0","1","0","1","4","4","5","3","5","1","4","4","5","4","2","798930525371899905","李","439","","","","","","","","","","","","","","","","","","","","","","","","","","","","","","","","","","","","","","","","","",""
"521","<p style=""color:white; font-size: 35px;"">高尚</p>","e","categorize-html","66","119237","0.0-6.0-1.0-6.0-1.3","3","3","3","3","4","3","3","1","3","4","4","3","2","3","4","4","4","5","4","4","4","4","4","4","4","5","4","3","4","1","1","0","0","1","1","1","1","0","0","1","0","1","0","1","4","4","5","3","5","1","4","4","5","4","2","798930525371899905","李","439","","","","","","","","","","","","","","","","","","","true","13","3","moral","521","positive","高尚","","","","","","","","","","","","","","","","",""
"null","","null","html-keyboard-response","67","119488","0.0-6.0-1.0-6.0-0.4","3","3","3","3","4","3","3","1","3","4","4","3","2","3","4","4","4","5","4","4","4","4","4","4","4","5","4","3","4","1","1","0","0","1","1","1","1","0","0","1","0","1","0","1","4","4","5","3","5","1","4","4","5","4","2","798930525371899905","李","439","","","","","","","","","","","","","","","","","","","","","","","","","","","","","","","","","","","","","","","","","",""
"580","<p style=""color:rgb(150, 250, 100); font-size: 35px;"">本人</p>","e","categorize-html","68","120070","0.0-6.0-1.0-6.0-1.4","3","3","3","3","4","3","3","1","3","4","4","3","2","3","4","4","4","5","4","4","4","4","4","4","4","5","4","3","4","1","1","0","0","1","1","1","1","0","0","1","0","1","0","1","4","4","5","3","5","1","4","4","5","4","2","798930525371899905","李","439","","","","","","","","","","","","","","","","","","","true","13","3","moral","580","self","本人","","","","","","","","","","","","","","","","",""
"null","","null","html-keyboard-response","69","120321","0.0-6.0-1.0-6.0-0.5","3","3","3","3","4","3","3","1","3","4","4","3","2","3","4","4","4","5","4","4","4","4","4","4","4","5","4","3","4","1","1","0","0","1","1","1","1","0","0","1","0","1","0","1","4","4","5","3","5","1","4","4","5","4","2","798930525371899905","李","439","","","","","","","","","","","","","","","","","","","","","","","","","","","","","","","","","","","","","","","","","",""
"562","<p style=""color:white; font-size: 35px;"">诚信</p>","e","categorize-html","70","120886","0.0-6.0-1.0-6.0-1.5","3","3","3","3","4","3","3","1","3","4","4","3","2","3","4","4","4","5","4","4","4","4","4","4","4","5","4","3","4","1","1","0","0","1","1","1","1","0","0","1","0","1","0","1","4","4","5","3","5","1","4","4","5","4","2","798930525371899905","李","439","","","","","","","","","","","","","","","","","","","true","13","3","moral","562","positive","诚信","","","","","","","","","","","","","","","","",""
"null","","null","html-keyboard-response","71","121137","0.0-6.0-1.0-6.0-0.6","3","3","3","3","4","3","3","1","3","4","4","3","2","3","4","4","4","5","4","4","4","4","4","4","4","5","4","3","4","1","1","0","0","1","1","1","1","0","0","1","0","1","0","1","4","4","5","3","5","1","4","4","5","4","2","798930525371899905","李","439","","","","","","","","","","","","","","","","","","","","","","","","","","","","","","","","","","","","","","","","","",""
"505","<p style=""color:rgb(150, 250, 100); font-size: 35px;"">他人</p>","i","categorize-html","72","121644","0.0-6.0-1.0-6.0-1.6","3","3","3","3","4","3","3","1","3","4","4","3","2","3","4","4","4","5","4","4","4","4","4","4","4","5","4","3","4","1","1","0","0","1","1","1","1","0","0","1","0","1","0","1","4","4","5","3","5","1","4","4","5","4","2","798930525371899905","李","439","","","","","","","","","","","","","","","","","","","true","13","3","moral","505","other","他人","","","","","","","","","","","","","","","","",""
"null","","null","html-keyboard-response","73","121896","0.0-6.0-1.0-6.0-0.7","3","3","3","3","4","3","3","1","3","4","4","3","2","3","4","4","4","5","4","4","4","4","4","4","4","5","4","3","4","1","1","0","0","1","1","1","1","0","0","1","0","1","0","1","4","4","5","3","5","1","4","4","5","4","2","798930525371899905","李","439","","","","","","","","","","","","","","","","","","","","","","","","","","","","","","","","","","","","","","","","","",""
"543","<p style=""color:white; font-size: 35px;"">缺德</p>","i","categorize-html","74","122441","0.0-6.0-1.0-6.0-1.7","3","3","3","3","4","3","3","1","3","4","4","3","2","3","4","4","4","5","4","4","4","4","4","4","4","5","4","3","4","1","1","0","0","1","1","1","1","0","0","1","0","1","0","1","4","4","5","3","5","1","4","4","5","4","2","798930525371899905","李","439","","","","","","","","","","","","","","","","","","","true","13","3","moral","543","negative","缺德","","","","","","","","","","","","","","","","",""
"null","","null","html-keyboard-response","75","122693","0.0-6.0-1.0-6.0-0.8","3","3","3","3","4","3","3","1","3","4","4","3","2","3","4","4","4","5","4","4","4","4","4","4","4","5","4","3","4","1","1","0","0","1","1","1","1","0","0","1","0","1","0","1","4","4","5","3","5","1","4","4","5","4","2","798930525371899905","李","439","","","","","","","","","","","","","","","","","","","","","","","","","","","","","","","","","","","","","","","","","",""
"510","<p style=""color:rgb(150, 250, 100); font-size: 35px;"">他的</p>","i","categorize-html","76","123205","0.0-6.0-1.0-6.0-1.8","3","3","3","3","4","3","3","1","3","4","4","3","2","3","4","4","4","5","4","4","4","4","4","4","4","5","4","3","4","1","1","0","0","1","1","1","1","0","0","1","0","1","0","1","4","4","5","3","5","1","4","4","5","4","2","798930525371899905","李","439","","","","","","","","","","","","","","","","","","","true","13","3","moral","510","other","他的","","","","","","","","","","","","","","","","",""
"null","","null","html-keyboard-response","77","123456","0.0-6.0-1.0-6.0-0.9","3","3","3","3","4","3","3","1","3","4","4","3","2","3","4","4","4","5","4","4","4","4","4","4","4","5","4","3","4","1","1","0","0","1","1","1","1","0","0","1","0","1","0","1","4","4","5","3","5","1","4","4","5","4","2","798930525371899905","李","439","","","","","","","","","","","","","","","","","","","","","","","","","","","","","","","","","","","","","","","","","",""
"1880","<p style=""color:white; font-size: 35px;"">不孝</p>","i","categorize-html","78","125344","0.0-6.0-1.0-6.0-1.9","3","3","3","3","4","3","3","1","3","4","4","3","2","3","4","4","4","5","4","4","4","4","4","4","4","5","4","3","4","1","1","0","0","1","1","1","1","0","0","1","0","1","0","1","4","4","5","3","5","1","4","4","5","4","2","798930525371899905","李","439","","","","","","","","","","","","","","","","","","","true","13","3","moral","1880","negative","不孝","","","","","","","","","","","","","","","","",""
"null","","null","html-keyboard-response","79","125596","0.0-6.0-1.0-6.0-0.10","3","3","3","3","4","3","3","1","3","4","4","3","2","3","4","4","4","5","4","4","4","4","4","4","4","5","4","3","4","1","1","0","0","1","1","1","1","0","0","1","0","1","0","1","4","4","5","3","5","1","4","4","5","4","2","798930525371899905","李","439","","","","","","","","","","","","","","","","","","","","","","","","","","","","","","","","","","","","","","","","","",""
"952","<p style=""color:rgb(150, 250, 100); font-size: 35px;"">我的</p>","i","categorize-html","80","127249","0.0-6.0-1.0-6.0-1.10","3","3","3","3","4","3","3","1","3","4","4","3","2","3","4","4","4","5","4","4","4","4","4","4","4","5","4","3","4","1","1","0","0","1","1","1","1","0","0","1","0","1","0","1","4","4","5","3","5","1","4","4","5","4","2","798930525371899905","李","439","","","","","","","","","","","","","","","","","","","false","13","3","moral","1221.391304347826","self","我的","","","","","","","","","","","","","","","","",""
"null","","null","html-keyboard-response","81","127500","0.0-6.0-1.0-6.0-0.11","3","3","3","3","4","3","3","1","3","4","4","3","2","3","4","4","4","5","4","4","4","4","4","4","4","5","4","3","4","1","1","0","0","1","1","1","1","0","0","1","0","1","0","1","4","4","5","3","5","1","4","4","5","4","2","798930525371899905","李","439","","","","","","","","","","","","","","","","","","","","","","","","","","","","","","","","","","","","","","","","","",""
"698","<p style=""color:white; font-size: 35px;"">正直</p>","e","categorize-html","82","128201","0.0-6.0-1.0-6.0-1.11","3","3","3","3","4","3","3","1","3","4","4","3","2","3","4","4","4","5","4","4","4","4","4","4","4","5","4","3","4","1","1","0","0","1","1","1","1","0","0","1","0","1","0","1","4","4","5","3","5","1","4","4","5","4","2","798930525371899905","李","439","","","","","","","","","","","","","","","","","","","true","13","3","moral","698","positive","正直","","","","","","","","","","","","","","","","",""
"null","","null","html-keyboard-response","83","128452","0.0-6.0-1.0-6.0-0.12","3","3","3","3","4","3","3","1","3","4","4","3","2","3","4","4","4","5","4","4","4","4","4","4","4","5","4","3","4","1","1","0","0","1","1","1","1","0","0","1","0","1","0","1","4","4","5","3","5","1","4","4","5","4","2","798930525371899905","李","439","","","","","","","","","","","","","","","","","","","","","","","","","","","","","","","","","","","","","","","","","",""
"419","<p style=""color:rgb(150, 250, 100); font-size: 35px;"">我</p>","e","categorize-html","84","128873","0.0-6.0-1.0-6.0-1.12","3","3","3","3","4","3","3","1","3","4","4","3","2","3","4","4","4","5","4","4","4","4","4","4","4","5","4","3","4","1","1","0","0","1","1","1","1","0","0","1","0","1","0","1","4","4","5","3","5","1","4","4","5","4","2","798930525371899905","李","439","","","","","","","","","","","","","","","","","","","true","13","3","moral","419","self","我","","","","","","","","","","","","","","","","",""
"null","","null","html-keyboard-response","85","129124","0.0-6.0-1.0-6.0-0.13","3","3","3","3","4","3","3","1","3","4","4","3","2","3","4","4","4","5","4","4","4","4","4","4","4","5","4","3","4","1","1","0","0","1","1","1","1","0","0","1","0","1","0","1","4","4","5","3","5","1","4","4","5","4","2","798930525371899905","李","439","","","","","","","","","","","","","","","","","","","","","","","","","","","","","","","","","","","","","","","","","",""
"570","<p style=""color:white; font-size: 35px;"">小人</p>","i","categorize-html","86","129696","0.0-6.0-1.0-6.0-1.13","3","3","3","3","4","3","3","1","3","4","4","3","2","3","4","4","4","5","4","4","4","4","4","4","4","5","4","3","4","1","1","0","0","1","1","1","1","0","0","1","0","1","0","1","4","4","5","3","5","1","4","4","5","4","2","798930525371899905","李","439","","","","","","","","","","","","","","","","","","","true","13","3","moral","570","negative","小人","","","","","","","","","","","","","","","","",""
"null","","null","html-keyboard-response","87","129949","0.0-6.0-1.0-6.0-0.14","3","3","3","3","4","3","3","1","3","4","4","3","2","3","4","4","4","5","4","4","4","4","4","4","4","5","4","3","4","1","1","0","0","1","1","1","1","0","0","1","0","1","0","1","4","4","5","3","5","1","4","4","5","4","2","798930525371899905","李","439","","","","","","","","","","","","","","","","","","","","","","","","","","","","","","","","","","","","","","","","","",""
"552","<p style=""color:rgb(150, 250, 100); font-size: 35px;"">他</p>","i","categorize-html","88","130503","0.0-6.0-1.0-6.0-1.14","3","3","3","3","4","3","3","1","3","4","4","3","2","3","4","4","4","5","4","4","4","4","4","4","4","5","4","3","4","1","1","0","0","1","1","1","1","0","0","1","0","1","0","1","4","4","5","3","5","1","4","4","5","4","2","798930525371899905","李","439","","","","","","","","","","","","","","","","","","","true","13","3","moral","552","other","他","","","","","","","","","","","","","","","","",""
"null","","null","html-keyboard-response","89","130754","0.0-6.0-1.0-6.0-0.15","3","3","3","3","4","3","3","1","3","4","4","3","2","3","4","4","4","5","4","4","4","4","4","4","4","5","4","3","4","1","1","0","0","1","1","1","1","0","0","1","0","1","0","1","4","4","5","3","5","1","4","4","5","4","2","798930525371899905","李","439","","","","","","","","","","","","","","","","","","","","","","","","","","","","","","","","","","","","","","","","","",""
"965","<p style=""color:white; font-size: 35px;"">善良</p>","e","categorize-html","90","131722","0.0-6.0-1.0-6.0-1.15","3","3","3","3","4","3","3","1","3","4","4","3","2","3","4","4","4","5","4","4","4","4","4","4","4","5","4","3","4","1","1","0","0","1","1","1","1","0","0","1","0","1","0","1","4","4","5","3","5","1","4","4","5","4","2","798930525371899905","李","439","","","","","","","","","","","","","","","","","","","true","13","3","moral","965","positive","善良","","","","","","","","","","","","","","","","",""
"null","","null","html-keyboard-response","91","131974","0.0-6.0-1.0-6.0-0.16","3","3","3","3","4","3","3","1","3","4","4","3","2","3","4","4","4","5","4","4","4","4","4","4","4","5","4","3","4","1","1","0","0","1","1","1","1","0","0","1","0","1","0","1","4","4","5","3","5","1","4","4","5","4","2","798930525371899905","李","439","","","","","","","","","","","","","","","","","","","","","","","","","","","","","","","","","","","","","","","","","",""
"504","<p style=""color:rgb(150, 250, 100); font-size: 35px;"">别人</p>","i","categorize-html","92","132483","0.0-6.0-1.0-6.0-1.16","3","3","3","3","4","3","3","1","3","4","4","3","2","3","4","4","4","5","4","4","4","4","4","4","4","5","4","3","4","1","1","0","0","1","1","1","1","0","0","1","0","1","0","1","4","4","5","3","5","1","4","4","5","4","2","798930525371899905","李","439","","","","","","","","","","","","","","","","","","","true","13","3","moral","504","other","别人","","","","","","","","","","","","","","","","",""
"null","","null","html-keyboard-response","93","132735","0.0-6.0-1.0-6.0-0.17","3","3","3","3","4","3","3","1","3","4","4","3","2","3","4","4","4","5","4","4","4","4","4","4","4","5","4","3","4","1","1","0","0","1","1","1","1","0","0","1","0","1","0","1","4","4","5","3","5","1","4","4","5","4","2","798930525371899905","李","439","","","","","","","","","","","","","","","","","","","","","","","","","","","","","","","","","","","","","","","","","",""
"500","<p style=""color:white; font-size: 35px;"">不仁</p>","i","categorize-html","94","133238","0.0-6.0-1.0-6.0-1.17","3","3","3","3","4","3","3","1","3","4","4","3","2","3","4","4","4","5","4","4","4","4","4","4","4","5","4","3","4","1","1","0","0","1","1","1","1","0","0","1","0","1","0","1","4","4","5","3","5","1","4","4","5","4","2","798930525371899905","李","439","","","","","","","","","","","","","","","","","","","true","13","3","moral","500","negative","不仁","","","","","","","","","","","","","","","","",""
"null","","null","html-keyboard-response","95","133489","0.0-6.0-1.0-6.0-0.18","3","3","3","3","4","3","3","1","3","4","4","3","2","3","4","4","4","5","4","4","4","4","4","4","4","5","4","3","4","1","1","0","0","1","1","1","1","0","0","1","0","1","0","1","4","4","5","3","5","1","4","4","5","4","2","798930525371899905","李","439","","","","","","","","","","","","","","","","","","","","","","","","","","","","","","","","","","","","","","","","","",""
"538","<p style=""color:rgb(150, 250, 100); font-size: 35px;"">自己的</p>","e","categorize-html","96","134030","0.0-6.0-1.0-6.0-1.18","3","3","3","3","4","3","3","1","3","4","4","3","2","3","4","4","4","5","4","4","4","4","4","4","4","5","4","3","4","1","1","0","0","1","1","1","1","0","0","1","0","1","0","1","4","4","5","3","5","1","4","4","5","4","2","798930525371899905","李","439","","","","","","","","","","","","","","","","","","","true","13","3","moral","538","self","自己的","","","","","","","","","","","","","","","","",""
"null","","null","html-keyboard-response","97","134281","0.0-6.0-1.0-6.0-0.19","3","3","3","3","4","3","3","1","3","4","4","3","2","3","4","4","4","5","4","4","4","4","4","4","4","5","4","3","4","1","1","0","0","1","1","1","1","0","0","1","0","1","0","1","4","4","5","3","5","1","4","4","5","4","2","798930525371899905","李","439","","","","","","","","","","","","","","","","","","","","","","","","","","","","","","","","","","","","","","","","","",""
"569","<p style=""color:white; font-size: 35px;"">君子</p>","e","categorize-html","98","134852","0.0-6.0-1.0-6.0-1.19","3","3","3","3","4","3","3","1","3","4","4","3","2","3","4","4","4","5","4","4","4","4","4","4","4","5","4","3","4","1","1","0","0","1","1","1","1","0","0","1","0","1","0","1","4","4","5","3","5","1","4","4","5","4","2","798930525371899905","李","439","","","","","","","","","","","","","","","","","","","true","13","3","moral","569","positive","君子","","","","","","","","","","","","","","","","",""
"null","","null","html-keyboard-response","99","135103","0.0-6.0-1.0-6.0-0.20","3","3","3","3","4","3","3","1","3","4","4","3","2","3","4","4","4","5","4","4","4","4","4","4","4","5","4","3","4","1","1","0","0","1","1","1","1","0","0","1","0","1","0","1","4","4","5","3","5","1","4","4","5","4","2","798930525371899905","李","439","","","","","","","","","","","","","","","","","","","","","","","","","","","","","","","","","","","","","","","","","",""
"521","<p style=""color:rgb(150, 250, 100); font-size: 35px;"">他人的</p>","i","categorize-html","100","135627","0.0-6.0-1.0-6.0-1.20","3","3","3","3","4","3","3","1","3","4","4","3","2","3","4","4","4","5","4","4","4","4","4","4","4","5","4","3","4","1","1","0","0","1","1","1","1","0","0","1","0","1","0","1","4","4","5","3","5","1","4","4","5","4","2","798930525371899905","李","439","","","","","","","","","","","","","","","","","","","true","13","3","moral","521","other","他人的","","","","","","","","","","","","","","","","",""
"null","","null","html-keyboard-response","101","135879","0.0-6.0-1.0-6.0-0.21","3","3","3","3","4","3","3","1","3","4","4","3","2","3","4","4","4","5","4","4","4","4","4","4","4","5","4","3","4","1","1","0","0","1","1","1","1","0","0","1","0","1","0","1","4","4","5","3","5","1","4","4","5","4","2","798930525371899905","李","439","","","","","","","","","","","","","","","","","","","","","","","","","","","","","","","","","","","","","","","","","",""
"548","<p style=""color:white; font-size: 35px;"">黑心</p>","i","categorize-html","102","136430","0.0-6.0-1.0-6.0-1.21","3","3","3","3","4","3","3","1","3","4","4","3","2","3","4","4","4","5","4","4","4","4","4","4","4","5","4","3","4","1","1","0","0","1","1","1","1","0","0","1","0","1","0","1","4","4","5","3","5","1","4","4","5","4","2","798930525371899905","李","439","","","","","","","","","","","","","","","","","","","true","13","3","moral","548","negative","黑心","","","","","","","","","","","","","","","","",""
"null","","null","html-keyboard-response","103","136682","0.0-6.0-1.0-6.0-0.22","3","3","3","3","4","3","3","1","3","4","4","3","2","3","4","4","4","5","4","4","4","4","4","4","4","5","4","3","4","1","1","0","0","1","1","1","1","0","0","1","0","1","0","1","4","4","5","3","5","1","4","4","5","4","2","798930525371899905","李","439","","","","","","","","","","","","","","","","","","","","","","","","","","","","","","","","","","","","","","","","","",""
"587","<p style=""color:rgb(150, 250, 100); font-size: 35px;"">本人的</p>","e","categorize-html","104","137271","0.0-6.0-1.0-6.0-1.22","3","3","3","3","4","3","3","1","3","4","4","3","2","3","4","4","4","5","4","4","4","4","4","4","4","5","4","3","4","1","1","0","0","1","1","1","1","0","0","1","0","1","0","1","4","4","5","3","5","1","4","4","5","4","2","798930525371899905","李","439","","","","","","","","","","","","","","","","","","","true","13","3","moral","587","self","本人的","","","","","","","","","","","","","","","","",""
"null","","null","html-keyboard-response","105","137522","0.0-6.0-1.0-6.0-0.23","3","3","3","3","4","3","3","1","3","4","4","3","2","3","4","4","4","5","4","4","4","4","4","4","4","5","4","3","4","1","1","0","0","1","1","1","1","0","0","1","0","1","0","1","4","4","5","3","5","1","4","4","5","4","2","798930525371899905","李","439","","","","","","","","","","","","","","","","","","","","","","","","","","","","","","","","","","","","","","","","","",""
"570","<p style=""color:white; font-size: 35px;"">廉正</p>","e","categorize-html","106","138095","0.0-6.0-1.0-6.0-1.23","3","3","3","3","4","3","3","1","3","4","4","3","2","3","4","4","4","5","4","4","4","4","4","4","4","5","4","3","4","1","1","0","0","1","1","1","1","0","0","1","0","1","0","1","4","4","5","3","5","1","4","4","5","4","2","798930525371899905","李","439","","","","","","","","","","","","","","","","","","","true","13","3","moral","570","positive","廉正","","","","","","","","","","","","","","","","",""
"1233","
    <div class=""tag-bottom""><p>
    —— 任务4：对“自我/积极”词和“他人/消极”词分类 ——<p/>
    <span style=""color:#78DCE8""><b>与刚才的任务完全相同，请再次对这四类词语分类</b></span><p/>
    <span style=""color:#FFD866""><b>请根据上方标签的提示，尽可能正确并且快速地做出按键反应</b></span><p/>
    当按键错误时屏幕中会出现<span style=""color:red""> X </span>，需要按另一个键纠正才能继续<br/><p/>
    请把双手食指分别放在键盘的“E”键和“I”键上<p/>
    按<空格键>开始
    </p></div>"," ","html-keyboard-response","107","139329","0.0-6.0-1.0-7.0","3","3","3","3","4","3","3","1","3","4","4","3","2","3","4","4","4","5","4","4","4","4","4","4","4","5","4","3","4","1","1","0","0","1","1","1","1","0","0","1","0","1","0","1","4","4","5","3","5","1","4","4","5","4","2","798930525371899905","李","439","","","","","","","","","","","","","","","","","","","","","","","","","","","","","","","","","","","","","","","","","",""
"null","","null","html-keyboard-response","108","139581","0.0-6.0-1.0-8.0-0.0","3","3","3","3","4","3","3","1","3","4","4","3","2","3","4","4","4","5","4","4","4","4","4","4","4","5","4","3","4","1","1","0","0","1","1","1","1","0","0","1","0","1","0","1","4","4","5","3","5","1","4","4","5","4","2","798930525371899905","李","439","","","","","","","","","","","","","","","","","","","","","","","","","","","","","","","","","","","","","","","","","",""
"769","<p style=""color:rgb(150, 250, 100); font-size: 35px;"">本人的</p>","e","categorize-html","109","140355","0.0-6.0-1.0-8.0-1.0","3","3","3","3","4","3","3","1","3","4","4","3","2","3","4","4","4","5","4","4","4","4","4","4","4","5","4","3","4","1","1","0","0","1","1","1","1","0","0","1","0","1","0","1","4","4","5","3","5","1","4","4","5","4","2","798930525371899905","李","439","","","","","","","","","","","","","","","","","","","true","14","4","moral","769","self","本人的","","","","","","","","","","","","","","","","",""
"null","","null","html-keyboard-response","110","140607","0.0-6.0-1.0-8.0-0.1","3","3","3","3","4","3","3","1","3","4","4","3","2","3","4","4","4","5","4","4","4","4","4","4","4","5","4","3","4","1","1","0","0","1","1","1","1","0","0","1","0","1","0","1","4","4","5","3","5","1","4","4","5","4","2","798930525371899905","李","439","","","","","","","","","","","","","","","","","","","","","","","","","","","","","","","","","","","","","","","","","",""
"503","<p style=""color:white; font-size: 35px;"">黑心</p>","i","categorize-html","111","141113","0.0-6.0-1.0-8.0-1.1","3","3","3","3","4","3","3","1","3","4","4","3","2","3","4","4","4","5","4","4","4","4","4","4","4","5","4","3","4","1","1","0","0","1","1","1","1","0","0","1","0","1","0","1","4","4","5","3","5","1","4","4","5","4","2","798930525371899905","李","439","","","","","","","","","","","","","","","","","","","true","14","4","moral","503","negative","黑心","","","","","","","","","","","","","","","","",""
"null","","null","html-keyboard-response","112","141364","0.0-6.0-1.0-8.0-0.2","3","3","3","3","4","3","3","1","3","4","4","3","2","3","4","4","4","5","4","4","4","4","4","4","4","5","4","3","4","1","1","0","0","1","1","1","1","0","0","1","0","1","0","1","4","4","5","3","5","1","4","4","5","4","2","798930525371899905","李","439","","","","","","","","","","","","","","","","","","","","","","","","","","","","","","","","","","","","","","","","","",""
"550","<p style=""color:rgb(150, 250, 100); font-size: 35px;"">他的</p>","i","categorize-html","113","141917","0.0-6.0-1.0-8.0-1.2","3","3","3","3","4","3","3","1","3","4","4","3","2","3","4","4","4","5","4","4","4","4","4","4","4","5","4","3","4","1","1","0","0","1","1","1","1","0","0","1","0","1","0","1","4","4","5","3","5","1","4","4","5","4","2","798930525371899905","李","439","","","","","","","","","","","","","","","","","","","true","14","4","moral","550","other","他的","","","","","","","","","","","","","","","","",""
"null","","null","html-keyboard-response","114","142168","0.0-6.0-1.0-8.0-0.3","3","3","3","3","4","3","3","1","3","4","4","3","2","3","4","4","4","5","4","4","4","4","4","4","4","5","4","3","4","1","1","0","0","1","1","1","1","0","0","1","0","1","0","1","4","4","5","3","5","1","4","4","5","4","2","798930525371899905","李","439","","","","","","","","","","","","","","","","","","","","","","","","","","","","","","","","","","","","","","","","","",""
"595","<p style=""color:white; font-size: 35px;"">君子</p>","e","categorize-html","115","142766","0.0-6.0-1.0-8.0-1.3","3","3","3","3","4","3","3","1","3","4","4","3","2","3","4","4","4","5","4","4","4","4","4","4","4","5","4","3","4","1","1","0","0","1","1","1","1","0","0","1","0","1","0","1","4","4","5","3","5","1","4","4","5","4","2","798930525371899905","李","439","","","","","","","","","","","","","","","","","","","true","14","4","moral","595","positive","君子","","","","","","","","","","","","","","","","",""
"null","","null","html-keyboard-response","116","143018","0.0-6.0-1.0-8.0-0.4","3","3","3","3","4","3","3","1","3","4","4","3","2","3","4","4","4","5","4","4","4","4","4","4","4","5","4","3","4","1","1","0","0","1","1","1","1","0","0","1","0","1","0","1","4","4","5","3","5","1","4","4","5","4","2","798930525371899905","李","439","","","","","","","","","","","","","","","","","","","","","","","","","","","","","","","","","","","","","","","","","",""
"628","<p style=""color:rgb(150, 250, 100); font-size: 35px;"">他人的</p>","i","categorize-html","117","143649","0.0-6.0-1.0-8.0-1.4","3","3","3","3","4","3","3","1","3","4","4","3","2","3","4","4","4","5","4","4","4","4","4","4","4","5","4","3","4","1","1","0","0","1","1","1","1","0","0","1","0","1","0","1","4","4","5","3","5","1","4","4","5","4","2","798930525371899905","李","439","","","","","","","","","","","","","","","","","","","true","14","4","moral","628","other","他人的","","","","","","","","","","","","","","","","",""
"null","","null","html-keyboard-response","118","143901","0.0-6.0-1.0-8.0-0.5","3","3","3","3","4","3","3","1","3","4","4","3","2","3","4","4","4","5","4","4","4","4","4","4","4","5","4","3","4","1","1","0","0","1","1","1","1","0","0","1","0","1","0","1","4","4","5","3","5","1","4","4","5","4","2","798930525371899905","李","439","","","","","","","","","","","","","","","","","","","","","","","","","","","","","","","","","","","","","","","","","",""
"534","<p style=""color:white; font-size: 35px;"">黑心</p>","i","categorize-html","119","144437","0.0-6.0-1.0-8.0-1.5","3","3","3","3","4","3","3","1","3","4","4","3","2","3","4","4","4","5","4","4","4","4","4","4","4","5","4","3","4","1","1","0","0","1","1","1","1","0","0","1","0","1","0","1","4","4","5","3","5","1","4","4","5","4","2","798930525371899905","李","439","","","","","","","","","","","","","","","","","","","true","14","4","moral","534","negative","黑心","","","","","","","","","","","","","","","","",""
"null","","null","html-keyboard-response","120","144689","0.0-6.0-1.0-8.0-0.6","3","3","3","3","4","3","3","1","3","4","4","3","2","3","4","4","4","5","4","4","4","4","4","4","4","5","4","3","4","1","1","0","0","1","1","1","1","0","0","1","0","1","0","1","4","4","5","3","5","1","4","4","5","4","2","798930525371899905","李","439","","","","","","","","","","","","","","","","","","","","","","","","","","","","","","","","","","","","","","","","","",""
"475","<p style=""color:rgb(150, 250, 100); font-size: 35px;"">我</p>","e","categorize-html","121","145166","0.0-6.0-1.0-8.0-1.6","3","3","3","3","4","3","3","1","3","4","4","3","2","3","4","4","4","5","4","4","4","4","4","4","4","5","4","3","4","1","1","0","0","1","1","1","1","0","0","1","0","1","0","1","4","4","5","3","5","1","4","4","5","4","2","798930525371899905","李","439","","","","","","","","","","","","","","","","","","","true","14","4","moral","475","self","我","","","","","","","","","","","","","","","","",""
"null","","null","html-keyboard-response","122","145417","0.0-6.0-1.0-8.0-0.7","3","3","3","3","4","3","3","1","3","4","4","3","2","3","4","4","4","5","4","4","4","4","4","4","4","5","4","3","4","1","1","0","0","1","1","1","1","0","0","1","0","1","0","1","4","4","5","3","5","1","4","4","5","4","2","798930525371899905","李","439","","","","","","","","","","","","","","","","","","","","","","","","","","","","","","","","","","","","","","","","","",""
"456","<p style=""color:white; font-size: 35px;"">正直</p>","e","categorize-html","123","145876","0.0-6.0-1.0-8.0-1.7","3","3","3","3","4","3","3","1","3","4","4","3","2","3","4","4","4","5","4","4","4","4","4","4","4","5","4","3","4","1","1","0","0","1","1","1","1","0","0","1","0","1","0","1","4","4","5","3","5","1","4","4","5","4","2","798930525371899905","李","439","","","","","","","","","","","","","","","","","","","true","14","4","moral","456","positive","正直","","","","","","","","","","","","","","","","",""
"null","","null","html-keyboard-response","124","146128","0.0-6.0-1.0-8.0-0.8","3","3","3","3","4","3","3","1","3","4","4","3","2","3","4","4","4","5","4","4","4","4","4","4","4","5","4","3","4","1","1","0","0","1","1","1","1","0","0","1","0","1","0","1","4","4","5","3","5","1","4","4","5","4","2","798930525371899905","李","439","","","","","","","","","","","","","","","","","","","","","","","","","","","","","","","","","","","","","","","","","",""
"489","<p style=""color:rgb(150, 250, 100); font-size: 35px;"">本人</p>","e","categorize-html","125","146624","0.0-6.0-1.0-8.0-1.8","3","3","3","3","4","3","3","1","3","4","4","3","2","3","4","4","4","5","4","4","4","4","4","4","4","5","4","3","4","1","1","0","0","1","1","1","1","0","0","1","0","1","0","1","4","4","5","3","5","1","4","4","5","4","2","798930525371899905","李","439","","","","","","","","","","","","","","","","","","","true","14","4","moral","489","self","本人","","","","","","","","","","","","","","","","",""
"null","","null","html-keyboard-response","126","146876","0.0-6.0-1.0-8.0-0.9","3","3","3","3","4","3","3","1","3","4","4","3","2","3","4","4","4","5","4","4","4","4","4","4","4","5","4","3","4","1","1","0","0","1","1","1","1","0","0","1","0","1","0","1","4","4","5","3","5","1","4","4","5","4","2","798930525371899905","李","439","","","","","","","","","","","","","","","","","","","","","","","","","","","","","","","","","","","","","","","","","",""
"501","<p style=""color:white; font-size: 35px;"">君子</p>","e","categorize-html","127","147378","0.0-6.0-1.0-8.0-1.9","3","3","3","3","4","3","3","1","3","4","4","3","2","3","4","4","4","5","4","4","4","4","4","4","4","5","4","3","4","1","1","0","0","1","1","1","1","0","0","1","0","1","0","1","4","4","5","3","5","1","4","4","5","4","2","798930525371899905","李","439","","","","","","","","","","","","","","","","","","","true","14","4","moral","501","positive","君子","","","","","","","","","","","","","","","","",""
"null","","null","html-keyboard-response","128","147630","0.0-6.0-1.0-8.0-0.10","3","3","3","3","4","3","3","1","3","4","4","3","2","3","4","4","4","5","4","4","4","4","4","4","4","5","4","3","4","1","1","0","0","1","1","1","1","0","0","1","0","1","0","1","4","4","5","3","5","1","4","4","5","4","2","798930525371899905","李","439","","","","","","","","","","","","","","","","","","","","","","","","","","","","","","","","","","","","","","","","","",""
"482","<p style=""color:rgb(150, 250, 100); font-size: 35px;"">他</p>","i","categorize-html","129","148114","0.0-6.0-1.0-8.0-1.10","3","3","3","3","4","3","3","1","3","4","4","3","2","3","4","4","4","5","4","4","4","4","4","4","4","5","4","3","4","1","1","0","0","1","1","1","1","0","0","1","0","1","0","1","4","4","5","3","5","1","4","4","5","4","2","798930525371899905","李","439","","","","","","","","","","","","","","","","","","","true","14","4","moral","482","other","他","","","","","","","","","","","","","","","","",""
"null","","null","html-keyboard-response","130","148365","0.0-6.0-1.0-8.0-0.11","3","3","3","3","4","3","3","1","3","4","4","3","2","3","4","4","4","5","4","4","4","4","4","4","4","5","4","3","4","1","1","0","0","1","1","1","1","0","0","1","0","1","0","1","4","4","5","3","5","1","4","4","5","4","2","798930525371899905","李","439","","","","","","","","","","","","","","","","","","","","","","","","","","","","","","","","","","","","","","","","","",""
"526","<p style=""color:white; font-size: 35px;"">卑鄙</p>","i","categorize-html","131","148894","0.0-6.0-1.0-8.0-1.11","3","3","3","3","4","3","3","1","3","4","4","3","2","3","4","4","4","5","4","4","4","4","4","4","4","5","4","3","4","1","1","0","0","1","1","1","1","0","0","1","0","1","0","1","4","4","5","3","5","1","4","4","5","4","2","798930525371899905","李","439","","","","","","","","","","","","","","","","","","","true","14","4","moral","526","negative","卑鄙","","","","","","","","","","","","","","","","",""
"null","","null","html-keyboard-response","132","149145","0.0-6.0-1.0-8.0-0.12","3","3","3","3","4","3","3","1","3","4","4","3","2","3","4","4","4","5","4","4","4","4","4","4","4","5","4","3","4","1","1","0","0","1","1","1","1","0","0","1","0","1","0","1","4","4","5","3","5","1","4","4","5","4","2","798930525371899905","李","439","","","","","","","","","","","","","","","","","","","","","","","","","","","","","","","","","","","","","","","","","",""
"614","<p style=""color:rgb(150, 250, 100); font-size: 35px;"">自己</p>","e","categorize-html","133","149761","0.0-6.0-1.0-8.0-1.12","3","3","3","3","4","3","3","1","3","4","4","3","2","3","4","4","4","5","4","4","4","4","4","4","4","5","4","3","4","1","1","0","0","1","1","1","1","0","0","1","0","1","0","1","4","4","5","3","5","1","4","4","5","4","2","798930525371899905","李","439","","","","","","","","","","","","","","","","","","","true","14","4","moral","614","self","自己","","","","","","","","","","","","","","","","",""
"null","","null","html-keyboard-response","134","150013","0.0-6.0-1.0-8.0-0.13","3","3","3","3","4","3","3","1","3","4","4","3","2","3","4","4","4","5","4","4","4","4","4","4","4","5","4","3","4","1","1","0","0","1","1","1","1","0","0","1","0","1","0","1","4","4","5","3","5","1","4","4","5","4","2","798930525371899905","李","439","","","","","","","","","","","","","","","","","","","","","","","","","","","","","","","","","","","","","","","","","",""
"521","<p style=""color:white; font-size: 35px;"">善良</p>","e","categorize-html","135","150539","0.0-6.0-1.0-8.0-1.13","3","3","3","3","4","3","3","1","3","4","4","3","2","3","4","4","4","5","4","4","4","4","4","4","4","5","4","3","4","1","1","0","0","1","1","1","1","0","0","1","0","1","0","1","4","4","5","3","5","1","4","4","5","4","2","798930525371899905","李","439","","","","","","","","","","","","","","","","","","","true","14","4","moral","521","positive","善良","","","","","","","","","","","","","","","","",""
"null","","null","html-keyboard-response","136","150790","0.0-6.0-1.0-8.0-0.14","3","3","3","3","4","3","3","1","3","4","4","3","2","3","4","4","4","5","4","4","4","4","4","4","4","5","4","3","4","1","1","0","0","1","1","1","1","0","0","1","0","1","0","1","4","4","5","3","5","1","4","4","5","4","2","798930525371899905","李","439","","","","","","","","","","","","","","","","","","","","","","","","","","","","","","","","","","","","","","","","","",""
"496","<p style=""color:rgb(150, 250, 100); font-size: 35px;"">他人的</p>","i","categorize-html","137","151289","0.0-6.0-1.0-8.0-1.14","3","3","3","3","4","3","3","1","3","4","4","3","2","3","4","4","4","5","4","4","4","4","4","4","4","5","4","3","4","1","1","0","0","1","1","1","1","0","0","1","0","1","0","1","4","4","5","3","5","1","4","4","5","4","2","798930525371899905","李","439","","","","","","","","","","","","","","","","","","","true","14","4","moral","496","other","他人的","","","","","","","","","","","","","","","","",""
"null","","null","html-keyboard-response","138","151540","0.0-6.0-1.0-8.0-0.15","3","3","3","3","4","3","3","1","3","4","4","3","2","3","4","4","4","5","4","4","4","4","4","4","4","5","4","3","4","1","1","0","0","1","1","1","1","0","0","1","0","1","0","1","4","4","5","3","5","1","4","4","5","4","2","798930525371899905","李","439","","","","","","","","","","","","","","","","","","","","","","","","","","","","","","","","","","","","","","","","","",""
"666","<p style=""color:white; font-size: 35px;"">不仁</p>","i","categorize-html","139","152212","0.0-6.0-1.0-8.0-1.15","3","3","3","3","4","3","3","1","3","4","4","3","2","3","4","4","4","5","4","4","4","4","4","4","4","5","4","3","4","1","1","0","0","1","1","1","1","0","0","1","0","1","0","1","4","4","5","3","5","1","4","4","5","4","2","798930525371899905","李","439","","","","","","","","","","","","","","","","","","","true","14","4","moral","666","negative","不仁","","","","","","","","","","","","","","","","",""
"null","","null","html-keyboard-response","140","152464","0.0-6.0-1.0-8.0-0.16","3","3","3","3","4","3","3","1","3","4","4","3","2","3","4","4","4","5","4","4","4","4","4","4","4","5","4","3","4","1","1","0","0","1","1","1","1","0","0","1","0","1","0","1","4","4","5","3","5","1","4","4","5","4","2","798930525371899905","李","439","","","","","","","","","","","","","","","","","","","","","","","","","","","","","","","","","","","","","","","","","",""
"532","<p style=""color:rgb(150, 250, 100); font-size: 35px;"">他的</p>","i","categorize-html","141","152999","0.0-6.0-1.0-8.0-1.16","3","3","3","3","4","3","3","1","3","4","4","3","2","3","4","4","4","5","4","4","4","4","4","4","4","5","4","3","4","1","1","0","0","1","1","1","1","0","0","1","0","1","0","1","4","4","5","3","5","1","4","4","5","4","2","798930525371899905","李","439","","","","","","","","","","","","","","","","","","","true","14","4","moral","532","other","他的","","","","","","","","","","","","","","","","",""
"null","","null","html-keyboard-response","142","153251","0.0-6.0-1.0-8.0-0.17","3","3","3","3","4","3","3","1","3","4","4","3","2","3","4","4","4","5","4","4","4","4","4","4","4","5","4","3","4","1","1","0","0","1","1","1","1","0","0","1","0","1","0","1","4","4","5","3","5","1","4","4","5","4","2","798930525371899905","李","439","","","","","","","","","","","","","","","","","","","","","","","","","","","","","","","","","","","","","","","","","",""
"567","<p style=""color:white; font-size: 35px;"">小人</p>","i","categorize-html","143","153826","0.0-6.0-1.0-8.0-1.17","3","3","3","3","4","3","3","1","3","4","4","3","2","3","4","4","4","5","4","4","4","4","4","4","4","5","4","3","4","1","1","0","0","1","1","1","1","0","0","1","0","1","0","1","4","4","5","3","5","1","4","4","5","4","2","798930525371899905","李","439","","","","","","","","","","","","","","","","","","","true","14","4","moral","567","negative","小人","","","","","","","","","","","","","","","","",""
"null","","null","html-keyboard-response","144","154078","0.0-6.0-1.0-8.0-0.18","3","3","3","3","4","3","3","1","3","4","4","3","2","3","4","4","4","5","4","4","4","4","4","4","4","5","4","3","4","1","1","0","0","1","1","1","1","0","0","1","0","1","0","1","4","4","5","3","5","1","4","4","5","4","2","798930525371899905","李","439","","","","","","","","","","","","","","","","","","","","","","","","","","","","","","","","","","","","","","","","","",""
"619","<p style=""color:rgb(150, 250, 100); font-size: 35px;"">本人的</p>","e","categorize-html","145","154702","0.0-6.0-1.0-8.0-1.18","3","3","3","3","4","3","3","1","3","4","4","3","2","3","4","4","4","5","4","4","4","4","4","4","4","5","4","3","4","1","1","0","0","1","1","1","1","0","0","1","0","1","0","1","4","4","5","3","5","1","4","4","5","4","2","798930525371899905","李","439","","","","","","","","","","","","","","","","","","","true","14","4","moral","619","self","本人的","","","","","","","","","","","","","","","","",""
"null","","null","html-keyboard-response","146","154968","0.0-6.0-1.0-8.0-0.19","3","3","3","3","4","3","3","1","3","4","4","3","2","3","4","4","4","5","4","4","4","4","4","4","4","5","4","3","4","1","1","0","0","1","1","1","1","0","0","1","0","1","0","1","4","4","5","3","5","1","4","4","5","4","2","798930525371899905","李","439","","","","","","","","","","","","","","","","","","","","","","","","","","","","","","","","","","","","","","","","","",""
"580","<p style=""color:white; font-size: 35px;"">诚信</p>","e","categorize-html","147","155550","0.0-6.0-1.0-8.0-1.19","3","3","3","3","4","3","3","1","3","4","4","3","2","3","4","4","4","5","4","4","4","4","4","4","4","5","4","3","4","1","1","0","0","1","1","1","1","0","0","1","0","1","0","1","4","4","5","3","5","1","4","4","5","4","2","798930525371899905","李","439","","","","","","","","","","","","","","","","","","","true","14","4","moral","580","positive","诚信","","","","","","","","","","","","","","","","",""
"null","","null","html-keyboard-response","148","155802","0.0-6.0-1.0-8.0-0.20","3","3","3","3","4","3","3","1","3","4","4","3","2","3","4","4","4","5","4","4","4","4","4","4","4","5","4","3","4","1","1","0","0","1","1","1","1","0","0","1","0","1","0","1","4","4","5","3","5","1","4","4","5","4","2","798930525371899905","李","439","","","","","","","","","","","","","","","","","","","","","","","","","","","","","","","","","","","","","","","","","",""
"558","<p style=""color:rgb(150, 250, 100); font-size: 35px;"">他</p>","i","categorize-html","149","156363","0.0-6.0-1.0-8.0-1.20","3","3","3","3","4","3","3","1","3","4","4","3","2","3","4","4","4","5","4","4","4","4","4","4","4","5","4","3","4","1","1","0","0","1","1","1","1","0","0","1","0","1","0","1","4","4","5","3","5","1","4","4","5","4","2","798930525371899905","李","439","","","","","","","","","","","","","","","","","","","true","14","4","moral","558","other","他","","","","","","","","","","","","","","","","",""
"null","","null","html-keyboard-response","150","156615","0.0-6.0-1.0-8.0-0.21","3","3","3","3","4","3","3","1","3","4","4","3","2","3","4","4","4","5","4","4","4","4","4","4","4","5","4","3","4","1","1","0","0","1","1","1","1","0","0","1","0","1","0","1","4","4","5","3","5","1","4","4","5","4","2","798930525371899905","李","439","","","","","","","","","","","","","","","","","","","","","","","","","","","","","","","","","","","","","","","","","",""
"820","<p style=""color:white; font-size: 35px;"">高尚</p>","e","categorize-html","151","157437","0.0-6.0-1.0-8.0-1.21","3","3","3","3","4","3","3","1","3","4","4","3","2","3","4","4","4","5","4","4","4","4","4","4","4","5","4","3","4","1","1","0","0","1","1","1","1","0","0","1","0","1","0","1","4","4","5","3","5","1","4","4","5","4","2","798930525371899905","李","439","","","","","","","","","","","","","","","","","","","true","14","4","moral","820","positive","高尚","","","","","","","","","","","","","","","","",""
"null","","null","html-keyboard-response","152","157689","0.0-6.0-1.0-8.0-0.22","3","3","3","3","4","3","3","1","3","4","4","3","2","3","4","4","4","5","4","4","4","4","4","4","4","5","4","3","4","1","1","0","0","1","1","1","1","0","0","1","0","1","0","1","4","4","5","3","5","1","4","4","5","4","2","798930525371899905","李","439","","","","","","","","","","","","","","","","","","","","","","","","","","","","","","","","","","","","","","","","","",""
"480","<p style=""color:rgb(150, 250, 100); font-size: 35px;"">本人</p>","e","categorize-html","153","158171","0.0-6.0-1.0-8.0-1.22","3","3","3","3","4","3","3","1","3","4","4","3","2","3","4","4","4","5","4","4","4","4","4","4","4","5","4","3","4","1","1","0","0","1","1","1","1","0","0","1","0","1","0","1","4","4","5","3","5","1","4","4","5","4","2","798930525371899905","李","439","","","","","","","","","","","","","","","","","","","true","14","4","moral","480","self","本人","","","","","","","","","","","","","","","","",""
"null","","null","html-keyboard-response","154","158423","0.0-6.0-1.0-8.0-0.23","3","3","3","3","4","3","3","1","3","4","4","3","2","3","4","4","4","5","4","4","4","4","4","4","4","5","4","3","4","1","1","0","0","1","1","1","1","0","0","1","0","1","0","1","4","4","5","3","5","1","4","4","5","4","2","798930525371899905","李","439","","","","","","","","","","","","","","","","","","","","","","","","","","","","","","","","","","","","","","","","","",""
"622","<p style=""color:white; font-size: 35px;"">不仁</p>","i","categorize-html","155","159052","0.0-6.0-1.0-8.0-1.23","3","3","3","3","4","3","3","1","3","4","4","3","2","3","4","4","4","5","4","4","4","4","4","4","4","5","4","3","4","1","1","0","0","1","1","1","1","0","0","1","0","1","0","1","4","4","5","3","5","1","4","4","5","4","2","798930525371899905","李","439","","","","","","","","","","","","","","","","","","","true","14","4","moral","622","negative","不仁","","","","","","","","","","","","","","","","",""
"null","","null","html-keyboard-response","156","159304","0.0-6.0-1.0-8.0-0.24","3","3","3","3","4","3","3","1","3","4","4","3","2","3","4","4","4","5","4","4","4","4","4","4","4","5","4","3","4","1","1","0","0","1","1","1","1","0","0","1","0","1","0","1","4","4","5","3","5","1","4","4","5","4","2","798930525371899905","李","439","","","","","","","","","","","","","","","","","","","","","","","","","","","","","","","","","","","","","","","","","",""
"763","<p style=""color:rgb(150, 250, 100); font-size: 35px;"">自己的</p>","e","categorize-html","157","160069","0.0-6.0-1.0-8.0-1.24","3","3","3","3","4","3","3","1","3","4","4","3","2","3","4","4","4","5","4","4","4","4","4","4","4","5","4","3","4","1","1","0","0","1","1","1","1","0","0","1","0","1","0","1","4","4","5","3","5","1","4","4","5","4","2","798930525371899905","李","439","","","","","","","","","","","","","","","","","","","true","14","4","moral","763","self","自己的","","","","","","","","","","","","","","","","",""
"null","","null","html-keyboard-response","158","160320","0.0-6.0-1.0-8.0-0.25","3","3","3","3","4","3","3","1","3","4","4","3","2","3","4","4","4","5","4","4","4","4","4","4","4","5","4","3","4","1","1","0","0","1","1","1","1","0","0","1","0","1","0","1","4","4","5","3","5","1","4","4","5","4","2","798930525371899905","李","439","","","","","","","","","","","","","","","","","","","","","","","","","","","","","","","","","","","","","","","","","",""
"478","<p style=""color:white; font-size: 35px;"">善良</p>","e","categorize-html","159","160800","0.0-6.0-1.0-8.0-1.25","3","3","3","3","4","3","3","1","3","4","4","3","2","3","4","4","4","5","4","4","4","4","4","4","4","5","4","3","4","1","1","0","0","1","1","1","1","0","0","1","0","1","0","1","4","4","5","3","5","1","4","4","5","4","2","798930525371899905","李","439","","","","","","","","","","","","","","","","","","","true","14","4","moral","478","positive","善良","","","","","","","","","","","","","","","","",""
"null","","null","html-keyboard-response","160","161051","0.0-6.0-1.0-8.0-0.26","3","3","3","3","4","3","3","1","3","4","4","3","2","3","4","4","4","5","4","4","4","4","4","4","4","5","4","3","4","1","1","0","0","1","1","1","1","0","0","1","0","1","0","1","4","4","5","3","5","1","4","4","5","4","2","798930525371899905","李","439","","","","","","","","","","","","","","","","","","","","","","","","","","","","","","","","","","","","","","","","","",""
"481","<p style=""color:rgb(150, 250, 100); font-size: 35px;"">他人</p>","i","categorize-html","161","161534","0.0-6.0-1.0-8.0-1.26","3","3","3","3","4","3","3","1","3","4","4","3","2","3","4","4","4","5","4","4","4","4","4","4","4","5","4","3","4","1","1","0","0","1","1","1","1","0","0","1","0","1","0","1","4","4","5","3","5","1","4","4","5","4","2","798930525371899905","李","439","","","","","","","","","","","","","","","","","","","true","14","4","moral","481","other","他人","","","","","","","","","","","","","","","","",""
"null","","null","html-keyboard-response","162","161785","0.0-6.0-1.0-8.0-0.27","3","3","3","3","4","3","3","1","3","4","4","3","2","3","4","4","4","5","4","4","4","4","4","4","4","5","4","3","4","1","1","0","0","1","1","1","1","0","0","1","0","1","0","1","4","4","5","3","5","1","4","4","5","4","2","798930525371899905","李","439","","","","","","","","","","","","","","","","","","","","","","","","","","","","","","","","","","","","","","","","","",""
"509","<p style=""color:white; font-size: 35px;"">不孝</p>","i","categorize-html","163","162300","0.0-6.0-1.0-8.0-1.27","3","3","3","3","4","3","3","1","3","4","4","3","2","3","4","4","4","5","4","4","4","4","4","4","4","5","4","3","4","1","1","0","0","1","1","1","1","0","0","1","0","1","0","1","4","4","5","3","5","1","4","4","5","4","2","798930525371899905","李","439","","","","","","","","","","","","","","","","","","","true","14","4","moral","509","negative","不孝","","","","","","","","","","","","","","","","",""
"null","","null","html-keyboard-response","164","162552","0.0-6.0-1.0-8.0-0.28","3","3","3","3","4","3","3","1","3","4","4","3","2","3","4","4","4","5","4","4","4","4","4","4","4","5","4","3","4","1","1","0","0","1","1","1","1","0","0","1","0","1","0","1","4","4","5","3","5","1","4","4","5","4","2","798930525371899905","李","439","","","","","","","","","","","","","","","","","","","","","","","","","","","","","","","","","","","","","","","","","",""
"431","<p style=""color:rgb(150, 250, 100); font-size: 35px;"">我的</p>","e","categorize-html","165","162985","0.0-6.0-1.0-8.0-1.28","3","3","3","3","4","3","3","1","3","4","4","3","2","3","4","4","4","5","4","4","4","4","4","4","4","5","4","3","4","1","1","0","0","1","1","1","1","0","0","1","0","1","0","1","4","4","5","3","5","1","4","4","5","4","2","798930525371899905","李","439","","","","","","","","","","","","","","","","","","","true","14","4","moral","431","self","我的","","","","","","","","","","","","","","","","",""
"null","","null","html-keyboard-response","166","163237","0.0-6.0-1.0-8.0-0.29","3","3","3","3","4","3","3","1","3","4","4","3","2","3","4","4","4","5","4","4","4","4","4","4","4","5","4","3","4","1","1","0","0","1","1","1","1","0","0","1","0","1","0","1","4","4","5","3","5","1","4","4","5","4","2","798930525371899905","李","439","","","","","","","","","","","","","","","","","","","","","","","","","","","","","","","","","","","","","","","","","",""
"528","<p style=""color:white; font-size: 35px;"">缺德</p>","i","categorize-html","167","163768","0.0-6.0-1.0-8.0-1.29","3","3","3","3","4","3","3","1","3","4","4","3","2","3","4","4","4","5","4","4","4","4","4","4","4","5","4","3","4","1","1","0","0","1","1","1","1","0","0","1","0","1","0","1","4","4","5","3","5","1","4","4","5","4","2","798930525371899905","李","439","","","","","","","","","","","","","","","","","","","true","14","4","moral","528","negative","缺德","","","","","","","","","","","","","","","","",""
"null","","null","html-keyboard-response","168","164019","0.0-6.0-1.0-8.0-0.30","3","3","3","3","4","3","3","1","3","4","4","3","2","3","4","4","4","5","4","4","4","4","4","4","4","5","4","3","4","1","1","0","0","1","1","1","1","0","0","1","0","1","0","1","4","4","5","3","5","1","4","4","5","4","2","798930525371899905","李","439","","","","","","","","","","","","","","","","","","","","","","","","","","","","","","","","","","","","","","","","","",""
"535","<p style=""color:rgb(150, 250, 100); font-size: 35px;"">他人</p>","i","categorize-html","169","164558","0.0-6.0-1.0-8.0-1.30","3","3","3","3","4","3","3","1","3","4","4","3","2","3","4","4","4","5","4","4","4","4","4","4","4","5","4","3","4","1","1","0","0","1","1","1","1","0","0","1","0","1","0","1","4","4","5","3","5","1","4","4","5","4","2","798930525371899905","李","439","","","","","","","","","","","","","","","","","","","true","14","4","moral","535","other","他人","","","","","","","","","","","","","","","","",""
"null","","null","html-keyboard-response","170","164809","0.0-6.0-1.0-8.0-0.31","3","3","3","3","4","3","3","1","3","4","4","3","2","3","4","4","4","5","4","4","4","4","4","4","4","5","4","3","4","1","1","0","0","1","1","1","1","0","0","1","0","1","0","1","4","4","5","3","5","1","4","4","5","4","2","798930525371899905","李","439","","","","","","","","","","","","","","","","","","","","","","","","","","","","","","","","","","","","","","","","","",""
"621","<p style=""color:white; font-size: 35px;"">廉正</p>","e","categorize-html","171","165433","0.0-6.0-1.0-8.0-1.31","3","3","3","3","4","3","3","1","3","4","4","3","2","3","4","4","4","5","4","4","4","4","4","4","4","5","4","3","4","1","1","0","0","1","1","1","1","0","0","1","0","1","0","1","4","4","5","3","5","1","4","4","5","4","2","798930525371899905","李","439","","","","","","","","","","","","","","","","","","","true","14","4","moral","621","positive","廉正","","","","","","","","","","","","","","","","",""
"null","","null","html-keyboard-response","172","165685","0.0-6.0-1.0-8.0-0.32","3","3","3","3","4","3","3","1","3","4","4","3","2","3","4","4","4","5","4","4","4","4","4","4","4","5","4","3","4","1","1","0","0","1","1","1","1","0","0","1","0","1","0","1","4","4","5","3","5","1","4","4","5","4","2","798930525371899905","李","439","","","","","","","","","","","","","","","","","","","","","","","","","","","","","","","","","","","","","","","","","",""
"557","<p style=""color:rgb(150, 250, 100); font-size: 35px;"">别人的</p>","i","categorize-html","173","166245","0.0-6.0-1.0-8.0-1.32","3","3","3","3","4","3","3","1","3","4","4","3","2","3","4","4","4","5","4","4","4","4","4","4","4","5","4","3","4","1","1","0","0","1","1","1","1","0","0","1","0","1","0","1","4","4","5","3","5","1","4","4","5","4","2","798930525371899905","李","439","","","","","","","","","","","","","","","","","","","true","14","4","moral","557","other","别人的","","","","","","","","","","","","","","","","",""
"null","","null","html-keyboard-response","174","166497","0.0-6.0-1.0-8.0-0.33","3","3","3","3","4","3","3","1","3","4","4","3","2","3","4","4","4","5","4","4","4","4","4","4","4","5","4","3","4","1","1","0","0","1","1","1","1","0","0","1","0","1","0","1","4","4","5","3","5","1","4","4","5","4","2","798930525371899905","李","439","","","","","","","","","","","","","","","","","","","","","","","","","","","","","","","","","","","","","","","","","",""
"555","<p style=""color:white; font-size: 35px;"">缺德</p>","i","categorize-html","175","167055","0.0-6.0-1.0-8.0-1.33","3","3","3","3","4","3","3","1","3","4","4","3","2","3","4","4","4","5","4","4","4","4","4","4","4","5","4","3","4","1","1","0","0","1","1","1","1","0","0","1","0","1","0","1","4","4","5","3","5","1","4","4","5","4","2","798930525371899905","李","439","","","","","","","","","","","","","","","","","","","true","14","4","moral","555","negative","缺德","","","","","","","","","","","","","","","","",""
"null","","null","html-keyboard-response","176","167308","0.0-6.0-1.0-8.0-0.34","3","3","3","3","4","3","3","1","3","4","4","3","2","3","4","4","4","5","4","4","4","4","4","4","4","5","4","3","4","1","1","0","0","1","1","1","1","0","0","1","0","1","0","1","4","4","5","3","5","1","4","4","5","4","2","798930525371899905","李","439","","","","","","","","","","","","","","","","","","","","","","","","","","","","","","","","","","","","","","","","","",""
"494","<p style=""color:rgb(150, 250, 100); font-size: 35px;"">自己</p>","e","categorize-html","177","167804","0.0-6.0-1.0-8.0-1.34","3","3","3","3","4","3","3","1","3","4","4","3","2","3","4","4","4","5","4","4","4","4","4","4","4","5","4","3","4","1","1","0","0","1","1","1","1","0","0","1","0","1","0","1","4","4","5","3","5","1","4","4","5","4","2","798930525371899905","李","439","","","","","","","","","","","","","","","","","","","true","14","4","moral","494","self","自己","","","","","","","","","","","","","","","","",""
"null","","null","html-keyboard-response","178","168055","0.0-6.0-1.0-8.0-0.35","3","3","3","3","4","3","3","1","3","4","4","3","2","3","4","4","4","5","4","4","4","4","4","4","4","5","4","3","4","1","1","0","0","1","1","1","1","0","0","1","0","1","0","1","4","4","5","3","5","1","4","4","5","4","2","798930525371899905","李","439","","","","","","","","","","","","","","","","","","","","","","","","","","","","","","","","","","","","","","","","","",""
"479","<p style=""color:white; font-size: 35px;"">诚信</p>","e","categorize-html","179","168536","0.0-6.0-1.0-8.0-1.35","3","3","3","3","4","3","3","1","3","4","4","3","2","3","4","4","4","5","4","4","4","4","4","4","4","5","4","3","4","1","1","0","0","1","1","1","1","0","0","1","0","1","0","1","4","4","5","3","5","1","4","4","5","4","2","798930525371899905","李","439","","","","","","","","","","","","","","","","","","","true","14","4","moral","479","positive","诚信","","","","","","","","","","","","","","","","",""
"null","","null","html-keyboard-response","180","168787","0.0-6.0-1.0-8.0-0.36","3","3","3","3","4","3","3","1","3","4","4","3","2","3","4","4","4","5","4","4","4","4","4","4","4","5","4","3","4","1","1","0","0","1","1","1","1","0","0","1","0","1","0","1","4","4","5","3","5","1","4","4","5","4","2","798930525371899905","李","439","","","","","","","","","","","","","","","","","","","","","","","","","","","","","","","","","","","","","","","","","",""
"571","<p style=""color:rgb(150, 250, 100); font-size: 35px;"">我的</p>","e","categorize-html","181","169361","0.0-6.0-1.0-8.0-1.36","3","3","3","3","4","3","3","1","3","4","4","3","2","3","4","4","4","5","4","4","4","4","4","4","4","5","4","3","4","1","1","0","0","1","1","1","1","0","0","1","0","1","0","1","4","4","5","3","5","1","4","4","5","4","2","798930525371899905","李","439","","","","","","","","","","","","","","","","","","","true","14","4","moral","571","self","我的","","","","","","","","","","","","","","","","",""
"null","","null","html-keyboard-response","182","169613","0.0-6.0-1.0-8.0-0.37","3","3","3","3","4","3","3","1","3","4","4","3","2","3","4","4","4","5","4","4","4","4","4","4","4","5","4","3","4","1","1","0","0","1","1","1","1","0","0","1","0","1","0","1","4","4","5","3","5","1","4","4","5","4","2","798930525371899905","李","439","","","","","","","","","","","","","","","","","","","","","","","","","","","","","","","","","","","","","","","","","",""
"582","<p style=""color:white; font-size: 35px;"">小人</p>","i","categorize-html","183","170197","0.0-6.0-1.0-8.0-1.37","3","3","3","3","4","3","3","1","3","4","4","3","2","3","4","4","4","5","4","4","4","4","4","4","4","5","4","3","4","1","1","0","0","1","1","1","1","0","0","1","0","1","0","1","4","4","5","3","5","1","4","4","5","4","2","798930525371899905","李","439","","","","","","","","","","","","","","","","","","","true","14","4","moral","582","negative","小人","","","","","","","","","","","","","","","","",""
"null","","null","html-keyboard-response","184","170449","0.0-6.0-1.0-8.0-0.38","3","3","3","3","4","3","3","1","3","4","4","3","2","3","4","4","4","5","4","4","4","4","4","4","4","5","4","3","4","1","1","0","0","1","1","1","1","0","0","1","0","1","0","1","4","4","5","3","5","1","4","4","5","4","2","798930525371899905","李","439","","","","","","","","","","","","","","","","","","","","","","","","","","","","","","","","","","","","","","","","","",""
"522","<p style=""color:rgb(150, 250, 100); font-size: 35px;"">别人</p>","i","categorize-html","185","170978","0.0-6.0-1.0-8.0-1.38","3","3","3","3","4","3","3","1","3","4","4","3","2","3","4","4","4","5","4","4","4","4","4","4","4","5","4","3","4","1","1","0","0","1","1","1","1","0","0","1","0","1","0","1","4","4","5","3","5","1","4","4","5","4","2","798930525371899905","李","439","","","","","","","","","","","","","","","","","","","true","14","4","moral","522","other","别人","","","","","","","","","","","","","","","","",""
"null","","null","html-keyboard-response","186","171230","0.0-6.0-1.0-8.0-0.39","3","3","3","3","4","3","3","1","3","4","4","3","2","3","4","4","4","5","4","4","4","4","4","4","4","5","4","3","4","1","1","0","0","1","1","1","1","0","0","1","0","1","0","1","4","4","5","3","5","1","4","4","5","4","2","798930525371899905","李","439","","","","","","","","","","","","","","","","","","","","","","","","","","","","","","","","","","","","","","","","","",""
"589","<p style=""color:white; font-size: 35px;"">高尚</p>","e","categorize-html","187","171821","0.0-6.0-1.0-8.0-1.39","3","3","3","3","4","3","3","1","3","4","4","3","2","3","4","4","4","5","4","4","4","4","4","4","4","5","4","3","4","1","1","0","0","1","1","1","1","0","0","1","0","1","0","1","4","4","5","3","5","1","4","4","5","4","2","798930525371899905","李","439","","","","","","","","","","","","","","","","","","","true","14","4","moral","589","positive","高尚","","","","","","","","","","","","","","","","",""
"null","","null","html-keyboard-response","188","172073","0.0-6.0-1.0-8.0-0.40","3","3","3","3","4","3","3","1","3","4","4","3","2","3","4","4","4","5","4","4","4","4","4","4","4","5","4","3","4","1","1","0","0","1","1","1","1","0","0","1","0","1","0","1","4","4","5","3","5","1","4","4","5","4","2","798930525371899905","李","439","","","","","","","","","","","","","","","","","","","","","","","","","","","","","","","","","","","","","","","","","",""
"450","<p style=""color:rgb(150, 250, 100); font-size: 35px;"">我</p>","e","categorize-html","189","172526","0.0-6.0-1.0-8.0-1.40","3","3","3","3","4","3","3","1","3","4","4","3","2","3","4","4","4","5","4","4","4","4","4","4","4","5","4","3","4","1","1","0","0","1","1","1","1","0","0","1","0","1","0","1","4","4","5","3","5","1","4","4","5","4","2","798930525371899905","李","439","","","","","","","","","","","","","","","","","","","true","14","4","moral","450","self","我","","","","","","","","","","","","","","","","",""
"null","","null","html-keyboard-response","190","172779","0.0-6.0-1.0-8.0-0.41","3","3","3","3","4","3","3","1","3","4","4","3","2","3","4","4","4","5","4","4","4","4","4","4","4","5","4","3","4","1","1","0","0","1","1","1","1","0","0","1","0","1","0","1","4","4","5","3","5","1","4","4","5","4","2","798930525371899905","李","439","","","","","","","","","","","","","","","","","","","","","","","","","","","","","","","","","","","","","","","","","",""
"603","<p style=""color:white; font-size: 35px;"">廉正</p>","e","categorize-html","191","173384","0.0-6.0-1.0-8.0-1.41","3","3","3","3","4","3","3","1","3","4","4","3","2","3","4","4","4","5","4","4","4","4","4","4","4","5","4","3","4","1","1","0","0","1","1","1","1","0","0","1","0","1","0","1","4","4","5","3","5","1","4","4","5","4","2","798930525371899905","李","439","","","","","","","","","","","","","","","","","","","true","14","4","moral","603","positive","廉正","","","","","","","","","","","","","","","","",""
"null","","null","html-keyboard-response","192","173635","0.0-6.0-1.0-8.0-0.42","3","3","3","3","4","3","3","1","3","4","4","3","2","3","4","4","4","5","4","4","4","4","4","4","4","5","4","3","4","1","1","0","0","1","1","1","1","0","0","1","0","1","0","1","4","4","5","3","5","1","4","4","5","4","2","798930525371899905","李","439","","","","","","","","","","","","","","","","","","","","","","","","","","","","","","","","","","","","","","","","","",""
"459","<p style=""color:rgb(150, 250, 100); font-size: 35px;"">别人</p>","i","categorize-html","193","174097","0.0-6.0-1.0-8.0-1.42","3","3","3","3","4","3","3","1","3","4","4","3","2","3","4","4","4","5","4","4","4","4","4","4","4","5","4","3","4","1","1","0","0","1","1","1","1","0","0","1","0","1","0","1","4","4","5","3","5","1","4","4","5","4","2","798930525371899905","李","439","","","","","","","","","","","","","","","","","","","true","14","4","moral","459","other","别人","","","","","","","","","","","","","","","","",""
