"rt","stimulus","response","trial_type","trial_index","time_elapsed","internal_node_id","ses_1","ses_2","ses_3","ses_4","ses_5","ses_6","ses_7","ses_8","ses_9","ses_10","coreself_1","coreself_2","coreself_3","coreself_4","coreself_5","coreself_6","coreself_7","coreself_8","coreself_9","coreself_10","SGPS_1","SGPS_2","SGPS_3","SGPS_4","SGPS_5","SGPS_6","SGPS_7","SGPS_8","SGPS_9","NPI1","NPI2","NPI3","NPI4","NPI5","NPI6","NPI7","NPI8","NPI9","NPI10","NPI11","NPI12","NPI13","NPI14","NPI15","hsns_1","hsns_2","hsns_3","hsns_4","hsns_5","trap1","hsns_6","hsns_7","hsns_8","hsns_9","hsns_10","subj_idx","friend_name","ParticipantID","value","success","user_agent","responses","item_order","radio_event_ids","radio_event_times","key_event_times","mouse_event_times","straightlining","zigzagging","honeypot","timeout","failed_images","failed_audio","failed_video","view_history","response_type","key_press","avg_frame_time","center_x","center_y","correct_response","correct","identity","Image","word","condition","task_id","screen_id","time_stamp","version_attrib","version_target","IAT","RT","varname","summary","version_attrib2","version_target2","question_order","correct_answer","trap1_item"
"3788","
   <p><div style = ""color: white;font-size:25px;"">您好，欢迎参加本次实验。</div> </p>
   <p><div style = ""color: white;font-size:25px;"">为充分保障您的权利，请确保您已经知晓并同意《参与实验同意书》以及《数据公开知情同意书》。</div></p>
   <p><div style = ""color: white;font-size:25px;"">如果您未见过上述内容，请咨询实验员。</div></p>
   <p><div style = ""color: white;font-size:25px;"">如果您选择继续实验，则表示您已经清楚两份知情同意书的内容并同意。</div></p>
   <p><div style = ""color: pink;font-size:30px;"">请确保您记得day0的实验编号，您将在本次实验输入该编号，若您忘记，请咨询实验员后作答。</div></p>
   <p><div style = ""color: lightblue;font-size:25px;"">请您尽可能认真地作答，我们将依据您在各问卷和按键任务中的作答质量发放报酬。</div></p>
   <p> <div style = ""color: green;font-size:25px;""><按空格键至下页></div> </p>
   "," ","html-keyboard-response","0","3794","0.0-0.0","3","3","4","3","3","4","3","4","4","3","4","2","1","4","3","4","3","2","4","4","2","2","2","1","2","2","2","2","1","1","0","1","1","0","0","1","1","0","1","1","0","1","0","1","4","3","3","1","4","","3","4","4","5","1","797763687048945665","杨","673","","","","","","","","","","","","","","","","","","","","","","","","","","","","","","","","","","","","","","","","","",""
"","","","call-function","1","3799","0.0-1.0-0.0","3","3","4","3","3","4","3","4","4","3","4","2","1","4","3","4","3","2","4","4","2","2","2","1","2","2","2","2","1","1","0","1","1","0","0","1","1","0","1","1","0","1","0","1","4","3","3","1","4","","3","4","4","5","1","797763687048945665","杨","673","","","","","","","","","","","","","","","","","","","","","","","","","","","","","","","","","","","","","","","","","",""
"37535","","{""friend_name"":""杨"",""ParticipantID"":""673""}","survey-html-form","2","41336","0.0-1.0-1.0","3","3","4","3","3","4","3","4","4","3","4","2","1","4","3","4","3","2","4","4","2","2","2","1","2","2","2","2","1","1","0","1","1","0","0","1","1","0","1","1","0","1","0","1","4","3","3","1","4","","3","4","4","5","1","797763687048945665","杨","673","","","","","","","","","","","","","","","","","","","","","","","","","","","","","","","","","","","","","","","","","",""
"","","","fullscreen","3","81230","0.0-2.0","3","3","4","3","3","4","3","4","4","3","4","2","1","4","3","4","3","2","4","4","2","2","2","1","2","2","2","2","1","1","0","1","1","0","0","1","1","0","1","1","0","1","0","1","4","3","3","1","4","","3","4","4","5","1","797763687048945665","杨","673","","true","{}","","","","","","","","","","","","","","","","","","","","","","","","","","","","","","","","","","","","","","",""
"70804.60000000149","","{""Q01"":""3"",""Q02"":""3"",""Q03"":""4"",""Q04"":""3"",""Q05"":""3"",""Q06"":""4"",""Q07"":""3"",""Q08"":""4"",""Q09"":""4"",""Q10"":""3""}","survey-template","4","152045","0.0-3.0","3","3","4","3","3","4","3","4","4","3","4","2","1","4","3","4","3","2","4","4","2","2","2","1","2","2","2","2","1","1","0","1","1","0","0","1","1","0","1","1","0","1","0","1","4","3","3","1","4","","3","4","4","5","1","797763687048945665","杨","673","","","","{""Q01"":""3"",""Q02"":""3"",""Q03"":""4"",""Q04"":""3"",""Q05"":""3"",""Q06"":""4"",""Q07"":""3"",""Q08"":""4"",""Q09"":""4"",""Q10"":""3""}","[0,1,2,3,4,5,6,7,8,9]","[""Q01"",""Q02"",""Q03"",""Q04"",""Q05"",""Q06"",""Q07"",""Q08"",""Q09"",""Q10""]","[39914.10000000149,44089.19999999553,45297.69999999553,47761.5,49313.5,50857.5,51745.39999999851,54201.39999999851,60393.19999999553,62593.10000000149]","[]","[39914.10000000149,44089.19999999553,45297.69999999553,47761.5,49313.5,50233.60000000149,50857.5,51745.39999999851,52785.5,53121.39999999851,53513.19999999553,54201.39999999851,60393.19999999553,62233.19999999553,62593.10000000149,70801.19999999553]","0.4","0.3333333333333333","0","","","","","","","","","","","","","","","","","","","","","","","","","","","","","",""
"36743.29999999702","","{""Q01"":""4"",""Q02"":""2"",""Q03"":""1"",""Q04"":""4"",""Q05"":""3"",""Q06"":""4"",""Q07"":""3"",""Q08"":""2"",""Q09"":""4"",""Q10"":""4""}","survey-template","5","188806","0.0-4.0","3","3","4","3","3","4","3","4","4","3","4","2","1","4","3","4","3","2","4","4","2","2","2","1","2","2","2","2","1","1","0","1","1","0","0","1","1","0","1","1","0","1","0","1","4","3","3","1","4","","3","4","4","5","1","797763687048945665","杨","673","","","","{""Q01"":""4"",""Q02"":""2"",""Q03"":""1"",""Q04"":""4"",""Q05"":""3"",""Q06"":""4"",""Q07"":""3"",""Q08"":""2"",""Q09"":""4"",""Q10"":""4""}","[0,1,2,3,4,5,6,7,8,9]","[""Q01"",""Q02"",""Q03"",""Q04"",""Q05"",""Q06"",""Q07"",""Q08"",""Q09"",""Q10""]","[5689.89999999851,12218.20000000298,14585.89999999851,15665.89999999851,20697.60000000149,22841.70000000298,26297.5,27793.5,28953.60000000149,32481.5]","[]","[5689.89999999851,12218.20000000298,12922,13233.79999999702,14057.70000000298,14585.89999999851,15665.89999999851,20697.60000000149,22545.5,22841.70000000298,26297.5,27793.5,28953.60000000149,30481.70000000298,30865.39999999851,31129.39999999851,32481.5,36738.20000000298]","0.6","0.6666666666666666","0","","","","","","","","","","","","","","","","","","","","","","","","","","","","","",""
"","","","preload","6","189780","0.0-5.0","3","3","4","3","3","4","3","4","4","3","4","2","1","4","3","4","3","2","4","4","2","2","2","1","2","2","2","2","1","1","0","1","1","0","0","1","1","0","1","1","0","1","0","1","4","3","3","1","4","","3","4","4","5","1","797763687048945665","杨","673","","true","","","","","","","","","","","false","[]","[]","[]","","","","","","","","","","","","","","","","","","","","","","","","","",""
"45648","","","instructions","7","235432","0.0-6.0","3","3","4","3","3","4","3","4","4","3","4","2","1","4","3","4","3","2","4","4","2","2","2","1","2","2","2","2","1","1","0","1","1","0","0","1","1","0","1","1","0","1","0","1","4","3","3","1","4","","3","4","4","5","1","797763687048945665","杨","673","","","","","","","","","","","","","","","","","[{""page_index"":0,""viewing_time"":45647}]","","","","","","","","","","","","","","","","","","","","","","","","",""
"14082","","","instructions","8","249518","0.0-7.0-0.0-0.0","3","3","4","3","3","4","3","4","4","3","4","2","1","4","3","4","3","2","4","4","2","2","2","1","2","2","2","2","1","1","0","1","1","0","0","1","1","0","1","1","0","1","0","1","4","3","3","1","4","","3","4","4","5","1","797763687048945665","杨","673","","","","","","","","","","","","","","","","","[{""page_index"":0,""viewing_time"":12290},{""page_index"":1,""viewing_time"":960},{""page_index"":2,""viewing_time"":832}]","","","","","","","","","","","","","","","","","","","","","","","","",""
"1094","","j","psychophysics","9","251627","0.0-7.0-0.0-1.0-0.0-0.0","3","3","4","3","3","4","3","4","4","3","4","2","1","4","3","4","3","2","4","4","2","2","2","1","2","2","2","2","1","1","0","1","1","0","0","1","1","0","1","1","0","1","0","1","4","3","3","1","4","","3","4","4","5","1","797763687048945665","杨","673","","","","match","","","","","","","","","","","","","","key","j","17.22613445378154","683","380","j","true","match","img/trapezoid.png","梯形","梯形","ALT1_1","prac_ALT1_1","","","","","","","","","","","",""
"null","<span style='color:GreenYellow; font-size: 70px;'>正确! </span>","null","html-keyboard-response","10","252136","0.0-7.0-0.0-1.0-0.0-1.0","3","3","4","3","3","4","3","4","4","3","4","2","1","4","3","4","3","2","4","4","2","2","2","1","2","2","2","2","1","1","0","1","1","0","0","1","1","0","1","1","0","1","0","1","4","3","3","1","4","","3","4","4","5","1","797763687048945665","杨","673","","","","","","","","","","","","","","","","","","","","","","","","","","","","","","feedback_test","","","","","","","","","","","",""
"1001","","f","psychophysics","11","254144","0.0-7.0-0.0-1.0-0.0-0.1","3","3","4","3","3","4","3","4","4","3","4","2","1","4","3","4","3","2","4","4","2","2","2","1","2","2","2","2","1","1","0","1","1","0","0","1","1","0","1","1","0","1","0","1","4","3","3","1","4","","3","4","4","5","1","797763687048945665","杨","673","","","","nonmatch","","","","","","","","","","","","","","key","f","16.660550000000026","683","380","f","true","nonmatch","img/hexagon.png","梯形","六边","ALT1_1","prac_ALT1_1","","","","","","","","","","","",""
"null","<span style='color:GreenYellow; font-size: 70px;'>正确! </span>","null","html-keyboard-response","12","254648","0.0-7.0-0.0-1.0-0.0-1.1","3","3","4","3","3","4","3","4","4","3","4","2","1","4","3","4","3","2","4","4","2","2","2","1","2","2","2","2","1","1","0","1","1","0","0","1","1","0","1","1","0","1","0","1","4","3","3","1","4","","3","4","4","5","1","797763687048945665","杨","673","","","","","","","","","","","","","","","","","","","","","","","","","","","","","","feedback_test","","","","","","","","","","","",""
"626","","j","psychophysics","13","256286","0.0-7.0-0.0-1.0-0.0-0.2","3","3","4","3","3","4","3","4","4","3","4","2","1","4","3","4","3","2","4","4","2","2","2","1","2","2","2","2","1","1","0","1","1","0","0","1","1","0","1","1","0","1","0","1","4","3","3","1","4","","3","4","4","5","1","797763687048945665","杨","673","","","","match","","","","","","","","","","","","","","key","j","16.840333333333245","683","380","j","true","match","img/circle.png","圆形","圆形","ALT1_1","prac_ALT1_1","","","","","","","","","","","",""
"null","<span style='color:GreenYellow; font-size: 70px;'>正确! </span>","null","html-keyboard-response","14","256792","0.0-7.0-0.0-1.0-0.0-1.2","3","3","4","3","3","4","3","4","4","3","4","2","1","4","3","4","3","2","4","4","2","2","2","1","2","2","2","2","1","1","0","1","1","0","0","1","1","0","1","1","0","1","0","1","4","3","3","1","4","","3","4","4","5","1","797763687048945665","杨","673","","","","","","","","","","","","","","","","","","","","","","","","","","","","","","feedback_test","","","","","","","","","","","",""
"550","","j","psychophysics","15","258350","0.0-7.0-0.0-1.0-0.0-0.3","3","3","4","3","3","4","3","4","4","3","4","2","1","4","3","4","3","2","4","4","2","2","2","1","2","2","2","2","1","1","0","1","1","0","0","1","1","0","1","1","0","1","0","1","4","3","3","1","4","","3","4","4","5","1","797763687048945665","杨","673","","","","match","","","","","","","","","","","","","","key","j","16.860890109890274","683","380","j","true","match","img/circle.png","圆形","圆形","ALT1_1","prac_ALT1_1","","","","","","","","","","","",""
"null","<span style='color:GreenYellow; font-size: 70px;'>正确! </span>","null","html-keyboard-response","16","258856","0.0-7.0-0.0-1.0-0.0-1.3","3","3","4","3","3","4","3","4","4","3","4","2","1","4","3","4","3","2","4","4","2","2","2","1","2","2","2","2","1","1","0","1","1","0","0","1","1","0","1","1","0","1","0","1","4","3","3","1","4","","3","4","4","5","1","797763687048945665","杨","673","","","","","","","","","","","","","","","","","","","","","","","","","","","","","","feedback_test","","","","","","","","","","","",""
"769","","j","psychophysics","17","260629","0.0-7.0-0.0-1.0-0.0-0.4","3","3","4","3","3","4","3","4","4","3","4","2","1","4","3","4","3","2","4","4","2","2","2","1","2","2","2","2","1","1","0","1","1","0","0","1","1","0","1","1","0","1","0","1","4","3","3","1","4","","3","4","4","5","1","797763687048945665","杨","673","","","","match","","","","","","","","","","","","","","key","j","16.658288461538458","683","380","j","true","match","img/trapezoid.png","梯形","梯形","ALT1_1","prac_ALT1_1","","","","","","","","","","","",""
"null","<span style='color:GreenYellow; font-size: 70px;'>正确! </span>","null","html-keyboard-response","18","261136","0.0-7.0-0.0-1.0-0.0-1.4","3","3","4","3","3","4","3","4","4","3","4","2","1","4","3","4","3","2","4","4","2","2","2","1","2","2","2","2","1","1","0","1","1","0","0","1","1","0","1","1","0","1","0","1","4","3","3","1","4","","3","4","4","5","1","797763687048945665","杨","673","","","","","","","","","","","","","","","","","","","","","","","","","","","","","","feedback_test","","","","","","","","","","","",""
"693","","f","psychophysics","19","262838","0.0-7.0-0.0-1.0-0.0-0.5","3","3","4","3","3","4","3","4","4","3","4","2","1","4","3","4","3","2","4","4","2","2","2","1","2","2","2","2","1","1","0","1","1","0","0","1","1","0","1","1","0","1","0","1","4","3","3","1","4","","3","4","4","5","1","797763687048945665","杨","673","","","","nonmatch","","","","","","","","","","","","","","key","f","16.66940594059421","683","380","f","true","nonmatch","img/hexagon.png","圆形","六边","ALT1_1","prac_ALT1_1","","","","","","","","","","","",""
"null","<span style='color:GreenYellow; font-size: 70px;'>正确! </span>","null","html-keyboard-response","20","263344","0.0-7.0-0.0-1.0-0.0-1.5","3","3","4","3","3","4","3","4","4","3","4","2","1","4","3","4","3","2","4","4","2","2","2","1","2","2","2","2","1","1","0","1","1","0","0","1","1","0","1","1","0","1","0","1","4","3","3","1","4","","3","4","4","5","1","797763687048945665","杨","673","","","","","","","","","","","","","","","","","","","","","","","","","","","","","","feedback_test","","","","","","","","","","","",""
"823","","f","psychophysics","21","265176","0.0-7.0-0.0-1.0-0.0-0.6","3","3","4","3","3","4","3","4","4","3","4","2","1","4","3","4","3","2","4","4","2","2","2","1","2","2","2","2","1","1","0","1","1","0","0","1","1","0","1","1","0","1","0","1","4","3","3","1","4","","3","4","4","5","1","797763687048945665","杨","673","","","","nonmatch","","","","","","","","","","","","","","key","f","16.662422018348337","683","380","f","true","nonmatch","img/circle.png","菱形","圆形","ALT1_1","prac_ALT1_1","","","","","","","","","","","",""
"null","<span style='color:GreenYellow; font-size: 70px;'>正确! </span>","null","html-keyboard-response","22","265681","0.0-7.0-0.0-1.0-0.0-1.6","3","3","4","3","3","4","3","4","4","3","4","2","1","4","3","4","3","2","4","4","2","2","2","1","2","2","2","2","1","1","0","1","1","0","0","1","1","0","1","1","0","1","0","1","4","3","3","1","4","","3","4","4","5","1","797763687048945665","杨","673","","","","","","","","","","","","","","","","","","","","","","","","","","","","","","feedback_test","","","","","","","","","","","",""
"740","","f","psychophysics","23","267429","0.0-7.0-0.0-1.0-0.0-0.7","3","3","4","3","3","4","3","4","4","3","4","2","1","4","3","4","3","2","4","4","2","2","2","1","2","2","2","2","1","1","0","1","1","0","0","1","1","0","1","1","0","1","0","1","4","3","3","1","4","","3","4","4","5","1","797763687048945665","杨","673","","","","nonmatch","","","","","","","","","","","","","","key","f","16.6654423076918","683","380","f","true","nonmatch","img/trapezoid.png","圆形","梯形","ALT1_1","prac_ALT1_1","","","","","","","","","","","",""
"null","<span style='color:GreenYellow; font-size: 70px;'>正确! </span>","null","html-keyboard-response","24","267937","0.0-7.0-0.0-1.0-0.0-1.7","3","3","4","3","3","4","3","4","4","3","4","2","1","4","3","4","3","2","4","4","2","2","2","1","2","2","2","2","1","1","0","1","1","0","0","1","1","0","1","1","0","1","0","1","4","3","3","1","4","","3","4","4","5","1","797763687048945665","杨","673","","","","","","","","","","","","","","","","","","","","","","","","","","","","","","feedback_test","","","","","","","","","","","",""
"676","","j","psychophysics","25","269623","0.0-7.0-0.0-1.0-0.0-0.8","3","3","4","3","3","4","3","4","4","3","4","2","1","4","3","4","3","2","4","4","2","2","2","1","2","2","2","2","1","1","0","1","1","0","0","1","1","0","1","1","0","1","0","1","4","3","3","1","4","","3","4","4","5","1","797763687048945665","杨","673","","","","match","","","","","","","","","","","","","","key","j","16.83682828282848","683","380","j","true","match","img/hexagon.png","六边","六边","ALT1_1","prac_ALT1_1","","","","","","","","","","","",""
"null","<span style='color:GreenYellow; font-size: 70px;'>正确! </span>","null","html-keyboard-response","26","270129","0.0-7.0-0.0-1.0-0.0-1.8","3","3","4","3","3","4","3","4","4","3","4","2","1","4","3","4","3","2","4","4","2","2","2","1","2","2","2","2","1","1","0","1","1","0","0","1","1","0","1","1","0","1","0","1","4","3","3","1","4","","3","4","4","5","1","797763687048945665","杨","673","","","","","","","","","","","","","","","","","","","","","","","","","","","","","","feedback_test","","","","","","","","","","","",""
"740","","j","psychophysics","27","271877","0.0-7.0-0.0-1.0-0.0-0.9","3","3","4","3","3","4","3","4","4","3","4","2","1","4","3","4","3","2","4","4","2","2","2","1","2","2","2","2","1","1","0","1","1","0","0","1","1","0","1","1","0","1","0","1","4","3","3","1","4","","3","4","4","5","1","797763687048945665","杨","673","","","","match","","","","","","","","","","","","","","key","j","16.66822115384611","683","380","j","true","match","img/diamond.png","菱形","菱形","ALT1_1","prac_ALT1_1","","","","","","","","","","","",""
"null","<span style='color:GreenYellow; font-size: 70px;'>正确! </span>","null","html-keyboard-response","28","272385","0.0-7.0-0.0-1.0-0.0-1.9","3","3","4","3","3","4","3","4","4","3","4","2","1","4","3","4","3","2","4","4","2","2","2","1","2","2","2","2","1","1","0","1","1","0","0","1","1","0","1","1","0","1","0","1","4","3","3","1","4","","3","4","4","5","1","797763687048945665","杨","673","","","","","","","","","","","","","","","","","","","","","","","","","","","","","","feedback_test","","","","","","","","","","","",""
"630","","j","psychophysics","29","274023","0.0-7.0-0.0-1.0-0.0-0.10","3","3","4","3","3","4","3","4","4","3","4","2","1","4","3","4","3","2","4","4","2","2","2","1","2","2","2","2","1","1","0","1","1","0","0","1","1","0","1","1","0","1","0","1","4","3","3","1","4","","3","4","4","5","1","797763687048945665","杨","673","","","","match","","","","","","","","","","","","","","key","j","16.665597938144575","683","380","j","true","match","img/circle.png","圆形","圆形","ALT1_1","prac_ALT1_1","","","","","","","","","","","",""
"null","<span style='color:GreenYellow; font-size: 70px;'>正确! </span>","null","html-keyboard-response","30","274529","0.0-7.0-0.0-1.0-0.0-1.10","3","3","4","3","3","4","3","4","4","3","4","2","1","4","3","4","3","2","4","4","2","2","2","1","2","2","2","2","1","1","0","1","1","0","0","1","1","0","1","1","0","1","0","1","4","3","3","1","4","","3","4","4","5","1","797763687048945665","杨","673","","","","","","","","","","","","","","","","","","","","","","","","","","","","","","feedback_test","","","","","","","","","","","",""
"789","","f","psychophysics","31","276326","0.0-7.0-0.0-1.0-0.0-0.11","3","3","4","3","3","4","3","4","4","3","4","2","1","4","3","4","3","2","4","4","2","2","2","1","2","2","2","2","1","1","0","1","1","0","0","1","1","0","1","1","0","1","0","1","4","3","3","1","4","","3","4","4","5","1","797763687048945665","杨","673","","","","nonmatch","","","","","","","","","","","","","","key","f","16.81585849056631","683","380","f","true","nonmatch","img/diamond.png","六边","菱形","ALT1_1","prac_ALT1_1","","","","","","","","","","","",""
"null","<span style='color:GreenYellow; font-size: 70px;'>正确! </span>","null","html-keyboard-response","32","276832","0.0-7.0-0.0-1.0-0.0-1.11","3","3","4","3","3","4","3","4","4","3","4","2","1","4","3","4","3","2","4","4","2","2","2","1","2","2","2","2","1","1","0","1","1","0","0","1","1","0","1","1","0","1","0","1","4","3","3","1","4","","3","4","4","5","1","797763687048945665","杨","673","","","","","","","","","","","","","","","","","","","","","","","","","","","","","","feedback_test","","","","","","","","","","","",""
"811","","f","psychophysics","33","278653","0.0-7.0-0.0-1.0-0.0-0.12","3","3","4","3","3","4","3","4","4","3","4","2","1","4","3","4","3","2","4","4","2","2","2","1","2","2","2","2","1","1","0","1","1","0","0","1","1","0","1","1","0","1","0","1","4","3","3","1","4","","3","4","4","5","1","797763687048945665","杨","673","","","","nonmatch","","","","","","","","","","","","","","key","f","16.66691588785088","683","380","f","true","nonmatch","img/circle.png","六边","圆形","ALT1_1","prac_ALT1_1","","","","","","","","","","","",""
"null","<span style='color:GreenYellow; font-size: 70px;'>正确! </span>","null","html-keyboard-response","34","279161","0.0-7.0-0.0-1.0-0.0-1.12","3","3","4","3","3","4","3","4","4","3","4","2","1","4","3","4","3","2","4","4","2","2","2","1","2","2","2","2","1","1","0","1","1","0","0","1","1","0","1","1","0","1","0","1","4","3","3","1","4","","3","4","4","5","1","797763687048945665","杨","673","","","","","","","","","","","","","","","","","","","","","","","","","","","","","","feedback_test","","","","","","","","","","","",""
"693","","f","psychophysics","35","280862","0.0-7.0-0.0-1.0-0.0-0.13","3","3","4","3","3","4","3","4","4","3","4","2","1","4","3","4","3","2","4","4","2","2","2","1","2","2","2","2","1","1","0","1","1","0","0","1","1","0","1","1","0","1","0","1","4","3","3","1","4","","3","4","4","5","1","797763687048945665","杨","673","","","","nonmatch","","","","","","","","","","","","","","key","f","16.65447524752431","683","380","f","true","nonmatch","img/diamond.png","梯形","菱形","ALT1_1","prac_ALT1_1","","","","","","","","","","","",""
"null","<span style='color:GreenYellow; font-size: 70px;'>正确! </span>","null","html-keyboard-response","36","281368","0.0-7.0-0.0-1.0-0.0-1.13","3","3","4","3","3","4","3","4","4","3","4","2","1","4","3","4","3","2","4","4","2","2","2","1","2","2","2","2","1","1","0","1","1","0","0","1","1","0","1","1","0","1","0","1","4","3","3","1","4","","3","4","4","5","1","797763687048945665","杨","673","","","","","","","","","","","","","","","","","","","","","","","","","","","","","","feedback_test","","","","","","","","","","","",""
"670","","j","psychophysics","37","283045","0.0-7.0-0.0-1.0-0.0-0.14","3","3","4","3","3","4","3","4","4","3","4","2","1","4","3","4","3","2","4","4","2","2","2","1","2","2","2","2","1","1","0","1","1","0","0","1","1","0","1","1","0","1","0","1","4","3","3","1","4","","3","4","4","5","1","797763687048945665","杨","673","","","","match","","","","","","","","","","","","","","key","j","16.829878787878744","683","380","j","true","match","img/hexagon.png","六边","六边","ALT1_1","prac_ALT1_1","","","","","","","","","","","",""
"null","<span style='color:GreenYellow; font-size: 70px;'>正确! </span>","null","html-keyboard-response","38","283552","0.0-7.0-0.0-1.0-0.0-1.14","3","3","4","3","3","4","3","4","4","3","4","2","1","4","3","4","3","2","4","4","2","2","2","1","2","2","2","2","1","1","0","1","1","0","0","1","1","0","1","1","0","1","0","1","4","3","3","1","4","","3","4","4","5","1","797763687048945665","杨","673","","","","","","","","","","","","","","","","","","","","","","","","","","","","","","feedback_test","","","","","","","","","","","",""
"704","","f","psychophysics","39","285261","0.0-7.0-0.0-1.0-0.0-0.15","3","3","4","3","3","4","3","4","4","3","4","2","1","4","3","4","3","2","4","4","2","2","2","1","2","2","2","2","1","1","0","1","1","0","0","1","1","0","1","1","0","1","0","1","4","3","3","1","4","","3","4","4","5","1","797763687048945665","杨","673","","","","nonmatch","","","","","","","","","","","","","","key","f","16.670732673267388","683","380","f","true","nonmatch","img/circle.png","梯形","圆形","ALT1_1","prac_ALT1_1","","","","","","","","","","","",""
"null","<span style='color:GreenYellow; font-size: 70px;'>正确! </span>","null","html-keyboard-response","40","285768","0.0-7.0-0.0-1.0-0.0-1.15","3","3","4","3","3","4","3","4","4","3","4","2","1","4","3","4","3","2","4","4","2","2","2","1","2","2","2","2","1","1","0","1","1","0","0","1","1","0","1","1","0","1","0","1","4","3","3","1","4","","3","4","4","5","1","797763687048945665","杨","673","","","","","","","","","","","","","","","","","","","","","","","","","","","","","","feedback_test","","","","","","","","","","","",""
"855","","f","psychophysics","41","287629","0.0-7.0-0.0-1.0-0.0-0.16","3","3","4","3","3","4","3","4","4","3","4","2","1","4","3","4","3","2","4","4","2","2","2","1","2","2","2","2","1","1","0","1","1","0","0","1","1","0","1","1","0","1","0","1","4","3","3","1","4","","3","4","4","5","1","797763687048945665","杨","673","","","","nonmatch","","","","","","","","","","","","","","key","f","16.668440366972884","683","380","f","true","nonmatch","img/trapezoid.png","菱形","梯形","ALT1_1","prac_ALT1_1","","","","","","","","","","","",""
"null","<span style='color:GreenYellow; font-size: 70px;'>正确! </span>","null","html-keyboard-response","42","288136","0.0-7.0-0.0-1.0-0.0-1.16","3","3","4","3","3","4","3","4","4","3","4","2","1","4","3","4","3","2","4","4","2","2","2","1","2","2","2","2","1","1","0","1","1","0","0","1","1","0","1","1","0","1","0","1","4","3","3","1","4","","3","4","4","5","1","797763687048945665","杨","673","","","","","","","","","","","","","","","","","","","","","","","","","","","","","","feedback_test","","","","","","","","","","","",""
"922","","f","psychophysics","43","290061","0.0-7.0-0.0-1.0-0.0-0.17","3","3","4","3","3","4","3","4","4","3","4","2","1","4","3","4","3","2","4","4","2","2","2","1","2","2","2","2","1","1","0","1","1","0","0","1","1","0","1","1","0","1","0","1","4","3","3","1","4","","3","4","4","5","1","797763687048945665","杨","673","","","","nonmatch","","","","","","","","","","","","","","key","f","16.67179824561422","683","380","f","true","nonmatch","img/trapezoid.png","六边","梯形","ALT1_1","prac_ALT1_1","","","","","","","","","","","",""
"null","<span style='color:GreenYellow; font-size: 70px;'>正确! </span>","null","html-keyboard-response","44","290569","0.0-7.0-0.0-1.0-0.0-1.17","3","3","4","3","3","4","3","4","4","3","4","2","1","4","3","4","3","2","4","4","2","2","2","1","2","2","2","2","1","1","0","1","1","0","0","1","1","0","1","1","0","1","0","1","4","3","3","1","4","","3","4","4","5","1","797763687048945665","杨","673","","","","","","","","","","","","","","","","","","","","","","","","","","","","","","feedback_test","","","","","","","","","","","",""
"734","","j","psychophysics","45","292309","0.0-7.0-0.0-1.0-0.0-0.18","3","3","4","3","3","4","3","4","4","3","4","2","1","4","3","4","3","2","4","4","2","2","2","1","2","2","2","2","1","1","0","1","1","0","0","1","1","0","1","1","0","1","0","1","4","3","3","1","4","","3","4","4","5","1","797763687048945665","杨","673","","","","match","","","","","","","","","","","","","","key","j","16.668451923077207","683","380","j","true","match","img/diamond.png","菱形","菱形","ALT1_1","prac_ALT1_1","","","","","","","","","","","",""
"null","<span style='color:GreenYellow; font-size: 70px;'>正确! </span>","null","html-keyboard-response","46","292817","0.0-7.0-0.0-1.0-0.0-1.18","3","3","4","3","3","4","3","4","4","3","4","2","1","4","3","4","3","2","4","4","2","2","2","1","2","2","2","2","1","1","0","1","1","0","0","1","1","0","1","1","0","1","0","1","4","3","3","1","4","","3","4","4","5","1","797763687048945665","杨","673","","","","","","","","","","","","","","","","","","","","","","","","","","","","","","feedback_test","","","","","","","","","","","",""
"721","","f","psychophysics","47","294543","0.0-7.0-0.0-1.0-0.0-0.19","3","3","4","3","3","4","3","4","4","3","4","2","1","4","3","4","3","2","4","4","2","2","2","1","2","2","2","2","1","1","0","1","1","0","0","1","1","0","1","1","0","1","0","1","4","3","3","1","4","","3","4","4","5","1","797763687048945665","杨","673","","","","nonmatch","","","","","","","","","","","","","","key","f","16.83424509803915","683","380","f","true","nonmatch","img/hexagon.png","菱形","六边","ALT1_1","prac_ALT1_1","","","","","","","","","","","",""
"null","<span style='color:GreenYellow; font-size: 70px;'>正确! </span>","null","html-keyboard-response","48","295049","0.0-7.0-0.0-1.0-0.0-1.19","3","3","4","3","3","4","3","4","4","3","4","2","1","4","3","4","3","2","4","4","2","2","2","1","2","2","2","2","1","1","0","1","1","0","0","1","1","0","1","1","0","1","0","1","4","3","3","1","4","","3","4","4","5","1","797763687048945665","杨","673","","","","","","","","","","","","","","","","","","","","","","","","","","","","","","feedback_test","","","","","","","","","","","",""
"800","","j","psychophysics","49","296855","0.0-7.0-0.0-1.0-0.0-0.20","3","3","4","3","3","4","3","4","4","3","4","2","1","4","3","4","3","2","4","4","2","2","2","1","2","2","2","2","1","1","0","1","1","0","0","1","1","0","1","1","0","1","0","1","4","3","3","1","4","","3","4","4","5","1","797763687048945665","杨","673","","","","match","","","","","","","","","","","","","","key","j","16.67268224299078","683","380","j","true","match","img/trapezoid.png","梯形","梯形","ALT1_1","prac_ALT1_1","","","","","","","","","","","",""
"null","<span style='color:GreenYellow; font-size: 70px;'>正确! </span>","null","html-keyboard-response","50","297361","0.0-7.0-0.0-1.0-0.0-1.20","3","3","4","3","3","4","3","4","4","3","4","2","1","4","3","4","3","2","4","4","2","2","2","1","2","2","2","2","1","1","0","1","1","0","0","1","1","0","1","1","0","1","0","1","4","3","3","1","4","","3","4","4","5","1","797763687048945665","杨","673","","","","","","","","","","","","","","","","","","","","","","","","","","","","","","feedback_test","","","","","","","","","","","",""
"708","","f","psychophysics","51","299077","0.0-7.0-0.0-1.0-0.0-0.21","3","3","4","3","3","4","3","4","4","3","4","2","1","4","3","4","3","2","4","4","2","2","2","1","2","2","2","2","1","1","0","1","1","0","0","1","1","0","1","1","0","1","0","1","4","3","3","1","4","","3","4","4","5","1","797763687048945665","杨","673","","","","nonmatch","","","","","","","","","","","","","","key","f","16.65140196078402","683","380","f","true","nonmatch","img/diamond.png","圆形","菱形","ALT1_1","prac_ALT1_1","","","","","","","","","","","",""
"null","<span style='color:GreenYellow; font-size: 70px;'>正确! </span>","null","html-keyboard-response","52","299585","0.0-7.0-0.0-1.0-0.0-1.21","3","3","4","3","3","4","3","4","4","3","4","2","1","4","3","4","3","2","4","4","2","2","2","1","2","2","2","2","1","1","0","1","1","0","0","1","1","0","1","1","0","1","0","1","4","3","3","1","4","","3","4","4","5","1","797763687048945665","杨","673","","","","","","","","","","","","","","","","","","","","","","","","","","","","","","feedback_test","","","","","","","","","","","",""
"833","","j","psychophysics","53","301424","0.0-7.0-0.0-1.0-0.0-0.22","3","3","4","3","3","4","3","4","4","3","4","2","1","4","3","4","3","2","4","4","2","2","2","1","2","2","2","2","1","1","0","1","1","0","0","1","1","0","1","1","0","1","0","1","4","3","3","1","4","","3","4","4","5","1","797763687048945665","杨","673","","","","match","","","","","","","","","","","","","","key","j","16.672798165137806","683","380","j","true","match","img/diamond.png","菱形","菱形","ALT1_1","prac_ALT1_1","","","","","","","","","","","",""
"null","<span style='color:GreenYellow; font-size: 70px;'>正确! </span>","null","html-keyboard-response","54","301930","0.0-7.0-0.0-1.0-0.0-1.22","3","3","4","3","3","4","3","4","4","3","4","2","1","4","3","4","3","2","4","4","2","2","2","1","2","2","2","2","1","1","0","1","1","0","0","1","1","0","1","1","0","1","0","1","4","3","3","1","4","","3","4","4","5","1","797763687048945665","杨","673","","","","","","","","","","","","","","","","","","","","","","","","","","","","","","feedback_test","","","","","","","","","","","",""
"705","","j","psychophysics","55","303642","0.0-7.0-0.0-1.0-0.0-0.23","3","3","4","3","3","4","3","4","4","3","4","2","1","4","3","4","3","2","4","4","2","2","2","1","2","2","2","2","1","1","0","1","1","0","0","1","1","0","1","1","0","1","0","1","4","3","3","1","4","","3","4","4","5","1","797763687048945665","杨","673","","","","match","","","","","","","","","","","","","","key","j","16.66714705882352","683","380","j","true","match","img/hexagon.png","六边","六边","ALT1_1","prac_ALT1_1","","","","","","","","","","","",""
"null","<span style='color:GreenYellow; font-size: 70px;'>正确! </span>","null","html-keyboard-response","56","304145","0.0-7.0-0.0-1.0-0.0-1.23","3","3","4","3","3","4","3","4","4","3","4","2","1","4","3","4","3","2","4","4","2","2","2","1","2","2","2","2","1","1","0","1","1","0","0","1","1","0","1","1","0","1","0","1","4","3","3","1","4","","3","4","4","5","1","797763687048945665","杨","673","","","","","","","","","","","","","","","","","","","","","","","","","","","","","","feedback_test","","","","","","","","","","","",""
"757","","f","psychophysics","57","305910","0.0-7.0-0.0-1.0-0.0-0.24","3","3","4","3","3","4","3","4","4","3","4","2","1","4","3","4","3","2","4","4","2","2","2","1","2","2","2","2","1","1","0","1","1","0","0","1","1","0","1","1","0","1","0","1","4","3","3","1","4","","3","4","4","5","1","797763687048945665","杨","673","","","","nonmatch","","","","","","","","","","","","","","key","f","16.829163461538535","683","380","f","true","nonmatch","img/hexagon.png","菱形","六边","ALT1_1","prac_ALT1_1","","","","","","","","","","","",""
"null","<span style='color:GreenYellow; font-size: 70px;'>正确! </span>","null","html-keyboard-response","58","306417","0.0-7.0-0.0-1.0-0.0-1.24","3","3","4","3","3","4","3","4","4","3","4","2","1","4","3","4","3","2","4","4","2","2","2","1","2","2","2","2","1","1","0","1","1","0","0","1","1","0","1","1","0","1","0","1","4","3","3","1","4","","3","4","4","5","1","797763687048945665","杨","673","","","","","","","","","","","","","","","","","","","","","","","","","","","","","","feedback_test","","","","","","","","","","","",""
"799","","j","psychophysics","59","308224","0.0-7.0-0.0-1.0-0.0-0.25","3","3","4","3","3","4","3","4","4","3","4","2","1","4","3","4","3","2","4","4","2","2","2","1","2","2","2","2","1","1","0","1","1","0","0","1","1","0","1","1","0","1","0","1","4","3","3","1","4","","3","4","4","5","1","797763687048945665","杨","673","","","","match","","","","","","","","","","","","","","key","j","16.672185185185366","683","380","j","true","match","img/hexagon.png","六边","六边","ALT1_1","prac_ALT1_1","","","","","","","","","","","",""
"null","<span style='color:GreenYellow; font-size: 70px;'>正确! </span>","null","html-keyboard-response","60","308729","0.0-7.0-0.0-1.0-0.0-1.25","3","3","4","3","3","4","3","4","4","3","4","2","1","4","3","4","3","2","4","4","2","2","2","1","2","2","2","2","1","1","0","1","1","0","0","1","1","0","1","1","0","1","0","1","4","3","3","1","4","","3","4","4","5","1","797763687048945665","杨","673","","","","","","","","","","","","","","","","","","","","","","","","","","","","","","feedback_test","","","","","","","","","","","",""
"588","","f","psychophysics","61","310326","0.0-7.0-0.0-1.0-0.0-0.26","3","3","4","3","3","4","3","4","4","3","4","2","1","4","3","4","3","2","4","4","2","2","2","1","2","2","2","2","1","1","0","1","1","0","0","1","1","0","1","1","0","1","0","1","4","3","3","1","4","","3","4","4","5","1","797763687048945665","杨","673","","","","nonmatch","","","","","","","","","","","","","","key","f","16.670115789473915","683","380","f","true","nonmatch","img/circle.png","梯形","圆形","ALT1_1","prac_ALT1_1","","","","","","","","","","","",""
"null","<span style='color:GreenYellow; font-size: 70px;'>正确! </span>","null","html-keyboard-response","62","310833","0.0-7.0-0.0-1.0-0.0-1.26","3","3","4","3","3","4","3","4","4","3","4","2","1","4","3","4","3","2","4","4","2","2","2","1","2","2","2","2","1","1","0","1","1","0","0","1","1","0","1","1","0","1","0","1","4","3","3","1","4","","3","4","4","5","1","797763687048945665","杨","673","","","","","","","","","","","","","","","","","","","","","","","","","","","","","","feedback_test","","","","","","","","","","","",""
"680","","j","psychophysics","63","312517","0.0-7.0-0.0-1.0-0.0-0.27","3","3","4","3","3","4","3","4","4","3","4","2","1","4","3","4","3","2","4","4","2","2","2","1","2","2","2","2","1","1","0","1","1","0","0","1","1","0","1","1","0","1","0","1","4","3","3","1","4","","3","4","4","5","1","797763687048945665","杨","673","","","","match","","","","","","","","","","","","","","key","j","16.832323232323468","683","380","j","true","match","img/circle.png","圆形","圆形","ALT1_1","prac_ALT1_1","","","","","","","","","","","",""
"null","<span style='color:GreenYellow; font-size: 70px;'>正确! </span>","null","html-keyboard-response","64","313025","0.0-7.0-0.0-1.0-0.0-1.27","3","3","4","3","3","4","3","4","4","3","4","2","1","4","3","4","3","2","4","4","2","2","2","1","2","2","2","2","1","1","0","1","1","0","0","1","1","0","1","1","0","1","0","1","4","3","3","1","4","","3","4","4","5","1","797763687048945665","杨","673","","","","","","","","","","","","","","","","","","","","","","","","","","","","","","feedback_test","","","","","","","","","","","",""
"725","","j","psychophysics","65","314758","0.0-7.0-0.0-1.0-0.0-0.28","3","3","4","3","3","4","3","4","4","3","4","2","1","4","3","4","3","2","4","4","2","2","2","1","2","2","2","2","1","1","0","1","1","0","0","1","1","0","1","1","0","1","0","1","4","3","3","1","4","","3","4","4","5","1","797763687048945665","杨","673","","","","match","","","","","","","","","","","","","","key","j","16.667495145631424","683","380","j","true","match","img/diamond.png","菱形","菱形","ALT1_1","prac_ALT1_1","","","","","","","","","","","",""
"null","<span style='color:GreenYellow; font-size: 70px;'>正确! </span>","null","html-keyboard-response","66","315265","0.0-7.0-0.0-1.0-0.0-1.28","3","3","4","3","3","4","3","4","4","3","4","2","1","4","3","4","3","2","4","4","2","2","2","1","2","2","2","2","1","1","0","1","1","0","0","1","1","0","1","1","0","1","0","1","4","3","3","1","4","","3","4","4","5","1","797763687048945665","杨","673","","","","","","","","","","","","","","","","","","","","","","","","","","","","","","feedback_test","","","","","","","","","","","",""
"727","","f","psychophysics","67","316997","0.0-7.0-0.0-1.0-0.0-0.29","3","3","4","3","3","4","3","4","4","3","4","2","1","4","3","4","3","2","4","4","2","2","2","1","2","2","2","2","1","1","0","1","1","0","0","1","1","0","1","1","0","1","0","1","4","3","3","1","4","","3","4","4","5","1","797763687048945665","杨","673","","","","nonmatch","","","","","","","","","","","","","","key","f","16.668650485437308","683","380","f","true","nonmatch","img/trapezoid.png","菱形","梯形","ALT1_1","prac_ALT1_1","","","","","","","","","","","",""
"null","<span style='color:GreenYellow; font-size: 70px;'>正确! </span>","null","html-keyboard-response","68","317505","0.0-7.0-0.0-1.0-0.0-1.29","3","3","4","3","3","4","3","4","4","3","4","2","1","4","3","4","3","2","4","4","2","2","2","1","2","2","2","2","1","1","0","1","1","0","0","1","1","0","1","1","0","1","0","1","4","3","3","1","4","","3","4","4","5","1","797763687048945665","杨","673","","","","","","","","","","","","","","","","","","","","","","","","","","","","","","feedback_test","","","","","","","","","","","",""
"715","","j","psychophysics","69","319222","0.0-7.0-0.0-1.0-0.0-0.30","3","3","4","3","3","4","3","4","4","3","4","2","1","4","3","4","3","2","4","4","2","2","2","1","2","2","2","2","1","1","0","1","1","0","0","1","1","0","1","1","0","1","0","1","4","3","3","1","4","","3","4","4","5","1","797763687048945665","杨","673","","","","match","","","","","","","","","","","","","","key","j","16.660108910890823","683","380","j","true","match","img/hexagon.png","六边","六边","ALT1_1","prac_ALT1_1","","","","","","","","","","","",""
"null","<span style='color:GreenYellow; font-size: 70px;'>正确! </span>","null","html-keyboard-response","70","319729","0.0-7.0-0.0-1.0-0.0-1.30","3","3","4","3","3","4","3","4","4","3","4","2","1","4","3","4","3","2","4","4","2","2","2","1","2","2","2","2","1","1","0","1","1","0","0","1","1","0","1","1","0","1","0","1","4","3","3","1","4","","3","4","4","5","1","797763687048945665","杨","673","","","","","","","","","","","","","","","","","","","","","","","","","","","","","","feedback_test","","","","","","","","","","","",""
"714","","j","psychophysics","71","321455","0.0-7.0-0.0-1.0-0.0-0.31","3","3","4","3","3","4","3","4","4","3","4","2","1","4","3","4","3","2","4","4","2","2","2","1","2","2","2","2","1","1","0","1","1","0","0","1","1","0","1","1","0","1","0","1","4","3","3","1","4","","3","4","4","5","1","797763687048945665","杨","673","","","","match","","","","","","","","","","","","","","key","j","16.833722772277284","683","380","j","true","match","img/circle.png","圆形","圆形","ALT1_1","prac_ALT1_1","","","","","","","","","","","",""
"null","<span style='color:GreenYellow; font-size: 70px;'>正确! </span>","null","html-keyboard-response","72","321961","0.0-7.0-0.0-1.0-0.0-1.31","3","3","4","3","3","4","3","4","4","3","4","2","1","4","3","4","3","2","4","4","2","2","2","1","2","2","2","2","1","1","0","1","1","0","0","1","1","0","1","1","0","1","0","1","4","3","3","1","4","","3","4","4","5","1","797763687048945665","杨","673","","","","","","","","","","","","","","","","","","","","","","","","","","","","","","feedback_test","","","","","","","","","","","",""
"739","","f","psychophysics","73","323709","0.0-7.0-0.0-1.0-0.0-0.32","3","3","4","3","3","4","3","4","4","3","4","2","1","4","3","4","3","2","4","4","2","2","2","1","2","2","2","2","1","1","0","1","1","0","0","1","1","0","1","1","0","1","0","1","4","3","3","1","4","","3","4","4","5","1","797763687048945665","杨","673","","","","nonmatch","","","","","","","","","","","","","","key","f","16.67885576923044","683","380","f","true","nonmatch","img/trapezoid.png","六边","梯形","ALT1_1","prac_ALT1_1","","","","","","","","","","","",""
"null","<span style='color:GreenYellow; font-size: 70px;'>正确! </span>","null","html-keyboard-response","74","324217","0.0-7.0-0.0-1.0-0.0-1.32","3","3","4","3","3","4","3","4","4","3","4","2","1","4","3","4","3","2","4","4","2","2","2","1","2","2","2","2","1","1","0","1","1","0","0","1","1","0","1","1","0","1","0","1","4","3","3","1","4","","3","4","4","5","1","797763687048945665","杨","673","","","","","","","","","","","","","","","","","","","","","","","","","","","","","","feedback_test","","","","","","","","","","","",""
"712","","f","psychophysics","75","325933","0.0-7.0-0.0-1.0-0.0-0.33","3","3","4","3","3","4","3","4","4","3","4","2","1","4","3","4","3","2","4","4","2","2","2","1","2","2","2","2","1","1","0","1","1","0","0","1","1","0","1","1","0","1","0","1","4","3","3","1","4","","3","4","4","5","1","797763687048945665","杨","673","","","","nonmatch","","","","","","","","","","","","","","key","f","16.827495049504854","683","380","f","true","nonmatch","img/circle.png","六边","圆形","ALT1_1","prac_ALT1_1","","","","","","","","","","","",""
"null","<span style='color:GreenYellow; font-size: 70px;'>正确! </span>","null","html-keyboard-response","76","326441","0.0-7.0-0.0-1.0-0.0-1.33","3","3","4","3","3","4","3","4","4","3","4","2","1","4","3","4","3","2","4","4","2","2","2","1","2","2","2","2","1","1","0","1","1","0","0","1","1","0","1","1","0","1","0","1","4","3","3","1","4","","3","4","4","5","1","797763687048945665","杨","673","","","","","","","","","","","","","","","","","","","","","","","","","","","","","","feedback_test","","","","","","","","","","","",""
"827","","f","psychophysics","77","328277","0.0-7.0-0.0-1.0-0.0-0.34","3","3","4","3","3","4","3","4","4","3","4","2","1","4","3","4","3","2","4","4","2","2","2","1","2","2","2","2","1","1","0","1","1","0","0","1","1","0","1","1","0","1","0","1","4","3","3","1","4","","3","4","4","5","1","797763687048945665","杨","673","","","","nonmatch","","","","","","","","","","","","","","key","f","16.66583486238533","683","380","f","true","nonmatch","img/diamond.png","六边","菱形","ALT1_1","prac_ALT1_1","","","","","","","","","","","",""
"null","<span style='color:GreenYellow; font-size: 70px;'>正确! </span>","null","html-keyboard-response","78","328778","0.0-7.0-0.0-1.0-0.0-1.34","3","3","4","3","3","4","3","4","4","3","4","2","1","4","3","4","3","2","4","4","2","2","2","1","2","2","2","2","1","1","0","1","1","0","0","1","1","0","1","1","0","1","0","1","4","3","3","1","4","","3","4","4","5","1","797763687048945665","杨","673","","","","","","","","","","","","","","","","","","","","","","","","","","","","","","feedback_test","","","","","","","","","","","",""
"742","","j","psychophysics","79","330533","0.0-7.0-0.0-1.0-0.0-0.35","3","3","4","3","3","4","3","4","4","3","4","2","1","4","3","4","3","2","4","4","2","2","2","1","2","2","2","2","1","1","0","1","1","0","0","1","1","0","1","1","0","1","0","1","4","3","3","1","4","","3","4","4","5","1","797763687048945665","杨","673","","","","match","","","","","","","","","","","","","","key","j","16.674144230768995","683","380","f","false","nonmatch","img/hexagon.png","梯形","六边","ALT1_1","prac_ALT1_1","","","","","","","","","","","",""
"null","<span style='color:red; font-size: 70px;'>错误! </span>","null","html-keyboard-response","80","331041","0.0-7.0-0.0-1.0-0.0-1.35","3","3","4","3","3","4","3","4","4","3","4","2","1","4","3","4","3","2","4","4","2","2","2","1","2","2","2","2","1","1","0","1","1","0","0","1","1","0","1","1","0","1","0","1","4","3","3","1","4","","3","4","4","5","1","797763687048945665","杨","673","","","","","","","","","","","","","","","","","","","","","","","","","","","","","","feedback_test","","","","","","","","","","","",""
"740","","f","psychophysics","81","332790","0.0-7.0-0.0-1.0-0.0-0.36","3","3","4","3","3","4","3","4","4","3","4","2","1","4","3","4","3","2","4","4","2","2","2","1","2","2","2","2","1","1","0","1","1","0","0","1","1","0","1","1","0","1","0","1","4","3","3","1","4","","3","4","4","5","1","797763687048945665","杨","673","","","","nonmatch","","","","","","","","","","","","","","key","f","16.677336538461812","683","380","f","true","nonmatch","img/trapezoid.png","圆形","梯形","ALT1_1","prac_ALT1_1","","","","","","","","","","","",""
"null","<span style='color:GreenYellow; font-size: 70px;'>正确! </span>","null","html-keyboard-response","82","333297","0.0-7.0-0.0-1.0-0.0-1.36","3","3","4","3","3","4","3","4","4","3","4","2","1","4","3","4","3","2","4","4","2","2","2","1","2","2","2","2","1","1","0","1","1","0","0","1","1","0","1","1","0","1","0","1","4","3","3","1","4","","3","4","4","5","1","797763687048945665","杨","673","","","","","","","","","","","","","","","","","","","","","","","","","","","","","","feedback_test","","","","","","","","","","","",""
"688","","f","psychophysics","83","334990","0.0-7.0-0.0-1.0-0.0-0.37","3","3","4","3","3","4","3","4","4","3","4","2","1","4","3","4","3","2","4","4","2","2","2","1","2","2","2","2","1","1","0","1","1","0","0","1","1","0","1","1","0","1","0","1","4","3","3","1","4","","3","4","4","5","1","797763687048945665","杨","673","","","","nonmatch","","","","","","","","","","","","","","key","f","16.66304950495043","683","380","f","true","nonmatch","img/diamond.png","梯形","菱形","ALT1_1","prac_ALT1_1","","","","","","","","","","","",""
"null","<span style='color:GreenYellow; font-size: 70px;'>正确! </span>","null","html-keyboard-response","84","335497","0.0-7.0-0.0-1.0-0.0-1.37","3","3","4","3","3","4","3","4","4","3","4","2","1","4","3","4","3","2","4","4","2","2","2","1","2","2","2","2","1","1","0","1","1","0","0","1","1","0","1","1","0","1","0","1","4","3","3","1","4","","3","4","4","5","1","797763687048945665","杨","673","","","","","","","","","","","","","","","","","","","","","","","","","","","","","","feedback_test","","","","","","","","","","","",""
"936","","j","psychophysics","85","337439","0.0-7.0-0.0-1.0-0.0-0.38","3","3","4","3","3","4","3","4","4","3","4","2","1","4","3","4","3","2","4","4","2","2","2","1","2","2","2","2","1","1","0","1","1","0","0","1","1","0","1","1","0","1","0","1","4","3","3","1","4","","3","4","4","5","1","797763687048945665","杨","673","","","","match","","","","","","","","","","","","","","key","j","16.663577586206696","683","380","j","true","match","img/diamond.png","菱形","菱形","ALT1_1","prac_ALT1_1","","","","","","","","","","","",""
"null","<span style='color:GreenYellow; font-size: 70px;'>正确! </span>","null","html-keyboard-response","86","337945","0.0-7.0-0.0-1.0-0.0-1.38","3","3","4","3","3","4","3","4","4","3","4","2","1","4","3","4","3","2","4","4","2","2","2","1","2","2","2","2","1","1","0","1","1","0","0","1","1","0","1","1","0","1","0","1","4","3","3","1","4","","3","4","4","5","1","797763687048945665","杨","673","","","","","","","","","","","","","","","","","","","","","","","","","","","","","","feedback_test","","","","","","","","","","","",""
"693","","j","psychophysics","87","339645","0.0-7.0-0.0-1.0-0.0-0.39","3","3","4","3","3","4","3","4","4","3","4","2","1","4","3","4","3","2","4","4","2","2","2","1","2","2","2","2","1","1","0","1","1","0","0","1","1","0","1","1","0","1","0","1","4","3","3","1","4","","3","4","4","5","1","797763687048945665","杨","673","","","","match","","","","","","","","","","","","","","key","j","16.66204950495019","683","380","j","true","match","img/trapezoid.png","梯形","梯形","ALT1_1","prac_ALT1_1","","","","","","","","","","","",""
"null","<span style='color:GreenYellow; font-size: 70px;'>正确! </span>","null","html-keyboard-response","88","340153","0.0-7.0-0.0-1.0-0.0-1.39","3","3","4","3","3","4","3","4","4","3","4","2","1","4","3","4","3","2","4","4","2","2","2","1","2","2","2","2","1","1","0","1","1","0","0","1","1","0","1","1","0","1","0","1","4","3","3","1","4","","3","4","4","5","1","797763687048945665","杨","673","","","","","","","","","","","","","","","","","","","","","","","","","","","","","","feedback_test","","","","","","","","","","","",""
"726","","f","psychophysics","89","341887","0.0-7.0-0.0-1.0-0.0-0.40","3","3","4","3","3","4","3","4","4","3","4","2","1","4","3","4","3","2","4","4","2","2","2","1","2","2","2","2","1","1","0","1","1","0","0","1","1","0","1","1","0","1","0","1","4","3","3","1","4","","3","4","4","5","1","797763687048945665","杨","673","","","","nonmatch","","","","","","","","","","","","","","key","f","16.66936274509827","683","380","f","true","nonmatch","img/diamond.png","圆形","菱形","ALT1_1","prac_ALT1_1","","","","","","","","","","","",""
"null","<span style='color:GreenYellow; font-size: 70px;'>正确! </span>","null","html-keyboard-response","90","342393","0.0-7.0-0.0-1.0-0.0-1.40","3","3","4","3","3","4","3","4","4","3","4","2","1","4","3","4","3","2","4","4","2","2","2","1","2","2","2","2","1","1","0","1","1","0","0","1","1","0","1","1","0","1","0","1","4","3","3","1","4","","3","4","4","5","1","797763687048945665","杨","673","","","","","","","","","","","","","","","","","","","","","","","","","","","","","","feedback_test","","","","","","","","","","","",""
"735","","j","psychophysics","91","344141","0.0-7.0-0.0-1.0-0.0-0.41","3","3","4","3","3","4","3","4","4","3","4","2","1","4","3","4","3","2","4","4","2","2","2","1","2","2","2","2","1","1","0","1","1","0","0","1","1","0","1","1","0","1","0","1","4","3","3","1","4","","3","4","4","5","1","797763687048945665","杨","673","","","","match","","","","","","","","","","","","","","key","j","16.831359223301018","683","380","j","true","match","img/diamond.png","菱形","菱形","ALT1_1","prac_ALT1_1","","","","","","","","","","","",""
"null","<span style='color:GreenYellow; font-size: 70px;'>正确! </span>","null","html-keyboard-response","92","344649","0.0-7.0-0.0-1.0-0.0-1.41","3","3","4","3","3","4","3","4","4","3","4","2","1","4","3","4","3","2","4","4","2","2","2","1","2","2","2","2","1","1","0","1","1","0","0","1","1","0","1","1","0","1","0","1","4","3","3","1","4","","3","4","4","5","1","797763687048945665","杨","673","","","","","","","","","","","","","","","","","","","","","","","","","","","","","","feedback_test","","","","","","","","","","","",""
"686","","f","psychophysics","93","346340","0.0-7.0-0.0-1.0-0.0-0.42","3","3","4","3","3","4","3","4","4","3","4","2","1","4","3","4","3","2","4","4","2","2","2","1","2","2","2","2","1","1","0","1","1","0","0","1","1","0","1","1","0","1","0","1","4","3","3","1","4","","3","4","4","5","1","797763687048945665","杨","673","","","","nonmatch","","","","","","","","","","","","","","key","f","16.824409999999915","683","380","f","true","nonmatch","img/circle.png","菱形","圆形","ALT1_1","prac_ALT1_1","","","","","","","","","","","",""
"null","<span style='color:GreenYellow; font-size: 70px;'>正确! </span>","null","html-keyboard-response","94","346841","0.0-7.0-0.0-1.0-0.0-1.42","3","3","4","3","3","4","3","4","4","3","4","2","1","4","3","4","3","2","4","4","2","2","2","1","2","2","2","2","1","1","0","1","1","0","0","1","1","0","1","1","0","1","0","1","4","3","3","1","4","","3","4","4","5","1","797763687048945665","杨","673","","","","","","","","","","","","","","","","","","","","","","","","","","","","","","feedback_test","","","","","","","","","","","",""
"691","","f","psychophysics","95","348540","0.0-7.0-0.0-1.0-0.0-0.43","3","3","4","3","3","4","3","4","4","3","4","2","1","4","3","4","3","2","4","4","2","2","2","1","2","2","2","2","1","1","0","1","1","0","0","1","1","0","1","1","0","1","0","1","4","3","3","1","4","","3","4","4","5","1","797763687048945665","杨","673","","","","nonmatch","","","","","","","","","","","","","","key","f","16.668099009901017","683","380","f","true","nonmatch","img/hexagon.png","圆形","六边","ALT1_1","prac_ALT1_1","","","","","","","","","","","",""
"null","<span style='color:GreenYellow; font-size: 70px;'>正确! </span>","null","html-keyboard-response","96","349042","0.0-7.0-0.0-1.0-0.0-1.43","3","3","4","3","3","4","3","4","4","3","4","2","1","4","3","4","3","2","4","4","2","2","2","1","2","2","2","2","1","1","0","1","1","0","0","1","1","0","1","1","0","1","0","1","4","3","3","1","4","","3","4","4","5","1","797763687048945665","杨","673","","","","","","","","","","","","","","","","","","","","","","","","","","","","","","feedback_test","","","","","","","","","","","",""
"659","","j","psychophysics","97","350708","0.0-7.0-0.0-1.0-0.0-0.44","3","3","4","3","3","4","3","4","4","3","4","2","1","4","3","4","3","2","4","4","2","2","2","1","2","2","2","2","1","1","0","1","1","0","0","1","1","0","1","1","0","1","0","1","4","3","3","1","4","","3","4","4","5","1","797763687048945665","杨","673","","","","match","","","","","","","","","","","","","","key","j","16.665747474747324","683","380","j","true","match","img/circle.png","圆形","圆形","ALT1_1","prac_ALT1_1","","","","","","","","","","","",""
"null","<span style='color:GreenYellow; font-size: 70px;'>正确! </span>","null","html-keyboard-response","98","351209","0.0-7.0-0.0-1.0-0.0-1.44","3","3","4","3","3","4","3","4","4","3","4","2","1","4","3","4","3","2","4","4","2","2","2","1","2","2","2","2","1","1","0","1","1","0","0","1","1","0","1","1","0","1","0","1","4","3","3","1","4","","3","4","4","5","1","797763687048945665","杨","673","","","","","","","","","","","","","","","","","","","","","","","","","","","","","","feedback_test","","","","","","","","","","","",""
"757","","j","psychophysics","99","352980","0.0-7.0-0.0-1.0-0.0-0.45","3","3","4","3","3","4","3","4","4","3","4","2","1","4","3","4","3","2","4","4","2","2","2","1","2","2","2","2","1","1","0","1","1","0","0","1","1","0","1","1","0","1","0","1","4","3","3","1","4","","3","4","4","5","1","797763687048945665","杨","673","","","","match","","","","","","","","","","","","","","key","j","16.671476190476234","683","380","j","true","match","img/trapezoid.png","梯形","梯形","ALT1_1","prac_ALT1_1","","","","","","","","","","","",""
"null","<span style='color:GreenYellow; font-size: 70px;'>正确! </span>","null","html-keyboard-response","100","353483","0.0-7.0-0.0-1.0-0.0-1.45","3","3","4","3","3","4","3","4","4","3","4","2","1","4","3","4","3","2","4","4","2","2","2","1","2","2","2","2","1","1","0","1","1","0","0","1","1","0","1","1","0","1","0","1","4","3","3","1","4","","3","4","4","5","1","797763687048945665","杨","673","","","","","","","","","","","","","","","","","","","","","","","","","","","","","","feedback_test","","","","","","","","","","","",""
"952","","j","psychophysics","101","355440","0.0-7.0-0.0-1.0-0.0-0.46","3","3","4","3","3","4","3","4","4","3","4","2","1","4","3","4","3","2","4","4","2","2","2","1","2","2","2","2","1","1","0","1","1","0","0","1","1","0","1","1","0","1","0","1","4","3","3","1","4","","3","4","4","5","1","797763687048945665","杨","673","","","","match","","","","","","","","","","","","","","key","j","16.810853448275935","683","380","j","true","match","img/trapezoid.png","梯形","梯形","ALT1_1","prac_ALT1_1","","","","","","","","","","","",""
"null","<span style='color:GreenYellow; font-size: 70px;'>正确! </span>","null","html-keyboard-response","102","355947","0.0-7.0-0.0-1.0-0.0-1.46","3","3","4","3","3","4","3","4","4","3","4","2","1","4","3","4","3","2","4","4","2","2","2","1","2","2","2","2","1","1","0","1","1","0","0","1","1","0","1","1","0","1","0","1","4","3","3","1","4","","3","4","4","5","1","797763687048945665","杨","673","","","","","","","","","","","","","","","","","","","","","","","","","","","","","","feedback_test","","","","","","","","","","","",""
"683","","j","psychophysics","103","357640","0.0-7.0-0.0-1.0-0.0-0.47","3","3","4","3","3","4","3","4","4","3","4","2","1","4","3","4","3","2","4","4","2","2","2","1","2","2","2","2","1","1","0","1","1","0","0","1","1","0","1","1","0","1","0","1","4","3","3","1","4","","3","4","4","5","1","797763687048945665","杨","673","","","","match","","","","","","","","","","","","","","key","j","16.66754455445565","683","380","j","true","match","img/hexagon.png","六边","六边","ALT1_1","prac_ALT1_1","","","","","","","","","","","",""
"null","<span style='color:GreenYellow; font-size: 70px;'>正确! </span>","null","html-keyboard-response","104","358146","0.0-7.0-0.0-1.0-0.0-1.47","3","3","4","3","3","4","3","4","4","3","4","2","1","4","3","4","3","2","4","4","2","2","2","1","2","2","2","2","1","1","0","1","1","0","0","1","1","0","1","1","0","1","0","1","4","3","3","1","4","","3","4","4","5","1","797763687048945665","杨","673","","","","","","","","","","","","","","","","","","","","","","","","","","","","","","feedback_test","","","","","","","","","","","",""
"949","<style>.context{color:white; font-size: 35px; line-height:40px}</style>                            <div><p class='context'>您正确回答了98% 的试次。</p><p class='context'>您的平均反应时为749毫秒。</p><p class='context'>恭喜您完成练习。按空格键进入正式实验。</p><p class='footer' style='font-size: 35px; line-height:40px;'>请在进入正式实验之前将您的<span style='color: lightgreen;'>食指</span>放在电脑键盘的相应键位上进行按键。</p>"," ","html-keyboard-response","105","359103","0.0-7.0-0.0-2.0","3","3","4","3","3","4","3","4","4","3","4","2","1","4","3","4","3","2","4","4","2","2","2","1","2","2","2","2","1","1","0","1","1","0","0","1","1","0","1","1","0","1","0","1","4","3","3","1","4","","3","4","4","5","1","797763687048945665","杨","673","","","","","","","","","","","","","","","","","","","","","","","","","","","","","","","","","","","","","","","","","",""
"559","
    <p style='color: white; font-size: 22px'>请您将手指放在按键上，准备进入正式的匹配任务。</p>
    <p> <div style = ""color: green""><按空格键进入下一阶段的匹配任务></div></p>
    "," ","html-keyboard-response","106","359670","0.0-7.0-0.0-3.0","3","3","4","3","3","4","3","4","4","3","4","2","1","4","3","4","3","2","4","4","2","2","2","1","2","2","2","2","1","1","0","1","1","0","0","1","1","0","1","1","0","1","0","1","4","3","3","1","4","","3","4","4","5","1","797763687048945665","杨","673","","","","","","","","","","","","","","","","","","","","","","","","","","","","","","","","","","","","","","","","","",""
"739","","j","psychophysics","107","361414","0.0-7.0-0.0-4.0-0.0-0.0","3","3","4","3","3","4","3","4","4","3","4","2","1","4","3","4","3","2","4","4","2","2","2","1","2","2","2","2","1","1","0","1","1","0","0","1","1","0","1","1","0","1","0","1","4","3","3","1","4","","3","4","4","5","1","797763687048945665","杨","673","","","","match","","","","","","","","","","","","","","key","j","16.66829126213623","683","380","j","true","match","img/trapezoid.png","梯形","梯形","ALT1","formal_ALT1_1","","","","","","","","","","","",""
"null","<span style='color:GreenYellow; font-size: 70px;'>正确! </span>","null","html-keyboard-response","108","361915","0.0-7.0-0.0-4.0-0.0-1.0","3","3","4","3","3","4","3","4","4","3","4","2","1","4","3","4","3","2","4","4","2","2","2","1","2","2","2","2","1","1","0","1","1","0","0","1","1","0","1","1","0","1","0","1","4","3","3","1","4","","3","4","4","5","1","797763687048945665","杨","673","","","","","","","","","","","","","","","","","","","","","","","","","","","","","","feedback_test","","","","","","","","","","","",""
"619","","j","psychophysics","109","363542","0.0-7.0-0.0-4.0-0.0-0.1","3","3","4","3","3","4","3","4","4","3","4","2","1","4","3","4","3","2","4","4","2","2","2","1","2","2","2","2","1","1","0","1","1","0","0","1","1","0","1","1","0","1","0","1","4","3","3","1","4","","3","4","4","5","1","797763687048945665","杨","673","","","","match","","","","","","","","","","","","","","key","j","16.672030927834808","683","380","j","true","match","img/circle.png","圆形","圆形","ALT1","formal_ALT1_1","","","","","","","","","","","",""
"null","<span style='color:GreenYellow; font-size: 70px;'>正确! </span>","null","html-keyboard-response","110","364043","0.0-7.0-0.0-4.0-0.0-1.1","3","3","4","3","3","4","3","4","4","3","4","2","1","4","3","4","3","2","4","4","2","2","2","1","2","2","2","2","1","1","0","1","1","0","0","1","1","0","1","1","0","1","0","1","4","3","3","1","4","","3","4","4","5","1","797763687048945665","杨","673","","","","","","","","","","","","","","","","","","","","","","","","","","","","","","feedback_test","","","","","","","","","","","",""
"746","","f","psychophysics","111","365798","0.0-7.0-0.0-4.0-0.0-0.2","3","3","4","3","3","4","3","4","4","3","4","2","1","4","3","4","3","2","4","4","2","2","2","1","2","2","2","2","1","1","0","1","1","0","0","1","1","0","1","1","0","1","0","1","4","3","3","1","4","","3","4","4","5","1","797763687048945665","杨","673","","","","nonmatch","","","","","","","","","","","","","","key","f","16.663355769230783","683","380","f","true","nonmatch","img/trapezoid.png","菱形","梯形","ALT1","formal_ALT1_1","","","","","","","","","","","",""
"null","<span style='color:GreenYellow; font-size: 70px;'>正确! </span>","null","html-keyboard-response","112","366307","0.0-7.0-0.0-4.0-0.0-1.2","3","3","4","3","3","4","3","4","4","3","4","2","1","4","3","4","3","2","4","4","2","2","2","1","2","2","2","2","1","1","0","1","1","0","0","1","1","0","1","1","0","1","0","1","4","3","3","1","4","","3","4","4","5","1","797763687048945665","杨","673","","","","","","","","","","","","","","","","","","","","","","","","","","","","","","feedback_test","","","","","","","","","","","",""
"665","","j","psychophysics","113","367979","0.0-7.0-0.0-4.0-0.0-0.3","3","3","4","3","3","4","3","4","4","3","4","2","1","4","3","4","3","2","4","4","2","2","2","1","2","2","2","2","1","1","0","1","1","0","0","1","1","0","1","1","0","1","0","1","4","3","3","1","4","","3","4","4","5","1","797763687048945665","杨","673","","","","match","","","","","","","","","","","","","","key","j","16.659581632653314","683","380","j","true","match","img/trapezoid.png","梯形","梯形","ALT1","formal_ALT1_1","","","","","","","","","","","",""
"null","<span style='color:GreenYellow; font-size: 70px;'>正确! </span>","null","html-keyboard-response","114","368483","0.0-7.0-0.0-4.0-0.0-1.3","3","3","4","3","3","4","3","4","4","3","4","2","1","4","3","4","3","2","4","4","2","2","2","1","2","2","2","2","1","1","0","1","1","0","0","1","1","0","1","1","0","1","0","1","4","3","3","1","4","","3","4","4","5","1","797763687048945665","杨","673","","","","","","","","","","","","","","","","","","","","","","","","","","","","","","feedback_test","","","","","","","","","","","",""
"670","","j","psychophysics","115","370158","0.0-7.0-0.0-4.0-0.0-0.4","3","3","4","3","3","4","3","4","4","3","4","2","1","4","3","4","3","2","4","4","2","2","2","1","2","2","2","2","1","1","0","1","1","0","0","1","1","0","1","1","0","1","0","1","4","3","3","1","4","","3","4","4","5","1","797763687048945665","杨","673","","","","match","","","","","","","","","","","","","","key","j","17.00061224489853","683","380","j","true","match","img/hexagon.png","六边","六边","ALT1","formal_ALT1_1","","","","","","","","","","","",""
"null","<span style='color:GreenYellow; font-size: 70px;'>正确! </span>","null","html-keyboard-response","116","370667","0.0-7.0-0.0-4.0-0.0-1.4","3","3","4","3","3","4","3","4","4","3","4","2","1","4","3","4","3","2","4","4","2","2","2","1","2","2","2","2","1","1","0","1","1","0","0","1","1","0","1","1","0","1","0","1","4","3","3","1","4","","3","4","4","5","1","797763687048945665","杨","673","","","","","","","","","","","","","","","","","","","","","","","","","","","","","","feedback_test","","","","","","","","","","","",""
"711","","f","psychophysics","117","372382","0.0-7.0-0.0-4.0-0.0-0.5","3","3","4","3","3","4","3","4","4","3","4","2","1","4","3","4","3","2","4","4","2","2","2","1","2","2","2","2","1","1","0","1","1","0","0","1","1","0","1","1","0","1","0","1","4","3","3","1","4","","3","4","4","5","1","797763687048945665","杨","673","","","","nonmatch","","","","","","","","","","","","","","key","f","16.674009900990214","683","380","f","true","nonmatch","img/trapezoid.png","六边","梯形","ALT1","formal_ALT1_1","","","","","","","","","","","",""
"null","<span style='color:GreenYellow; font-size: 70px;'>正确! </span>","null","html-keyboard-response","118","372891","0.0-7.0-0.0-4.0-0.0-1.5","3","3","4","3","3","4","3","4","4","3","4","2","1","4","3","4","3","2","4","4","2","2","2","1","2","2","2","2","1","1","0","1","1","0","0","1","1","0","1","1","0","1","0","1","4","3","3","1","4","","3","4","4","5","1","797763687048945665","杨","673","","","","","","","","","","","","","","","","","","","","","","","","","","","","","","feedback_test","","","","","","","","","","","",""
"723","","f","psychophysics","119","374622","0.0-7.0-0.0-4.0-0.0-0.6","3","3","4","3","3","4","3","4","4","3","4","2","1","4","3","4","3","2","4","4","2","2","2","1","2","2","2","2","1","1","0","1","1","0","0","1","1","0","1","1","0","1","0","1","4","3","3","1","4","","3","4","4","5","1","797763687048945665","杨","673","","","","nonmatch","","","","","","","","","","","","","","key","f","16.833049019608033","683","380","f","true","nonmatch","img/trapezoid.png","圆形","梯形","ALT1","formal_ALT1_1","","","","","","","","","","","",""
"null","<span style='color:GreenYellow; font-size: 70px;'>正确! </span>","null","html-keyboard-response","120","375123","0.0-7.0-0.0-4.0-0.0-1.6","3","3","4","3","3","4","3","4","4","3","4","2","1","4","3","4","3","2","4","4","2","2","2","1","2","2","2","2","1","1","0","1","1","0","0","1","1","0","1","1","0","1","0","1","4","3","3","1","4","","3","4","4","5","1","797763687048945665","杨","673","","","","","","","","","","","","","","","","","","","","","","","","","","","","","","feedback_test","","","","","","","","","","","",""
"675","","j","psychophysics","121","376807","0.0-7.0-0.0-4.0-0.0-0.7","3","3","4","3","3","4","3","4","4","3","4","2","1","4","3","4","3","2","4","4","2","2","2","1","2","2","2","2","1","1","0","1","1","0","0","1","1","0","1","1","0","1","0","1","4","3","3","1","4","","3","4","4","5","1","797763687048945665","杨","673","","","","match","","","","","","","","","","","","","","key","j","16.831777777777386","683","380","j","true","match","img/hexagon.png","六边","六边","ALT1","formal_ALT1_1","","","","","","","","","","","",""
"null","<span style='color:GreenYellow; font-size: 70px;'>正确! </span>","null","html-keyboard-response","122","377316","0.0-7.0-0.0-4.0-0.0-1.7","3","3","4","3","3","4","3","4","4","3","4","2","1","4","3","4","3","2","4","4","2","2","2","1","2","2","2","2","1","1","0","1","1","0","0","1","1","0","1","1","0","1","0","1","4","3","3","1","4","","3","4","4","5","1","797763687048945665","杨","673","","","","","","","","","","","","","","","","","","","","","","","","","","","","","","feedback_test","","","","","","","","","","","",""
"933","","j","psychophysics","123","379255","0.0-7.0-0.0-4.0-0.0-0.8","3","3","4","3","3","4","3","4","4","3","4","2","1","4","3","4","3","2","4","4","2","2","2","1","2","2","2","2","1","1","0","1","1","0","0","1","1","0","1","1","0","1","0","1","4","3","3","1","4","","3","4","4","5","1","797763687048945665","杨","673","","","","match","","","","","","","","","","","","","","key","j","16.813808695652583","683","380","j","true","match","img/diamond.png","菱形","菱形","ALT1","formal_ALT1_1","","","","","","","","","","","",""
"null","<span style='color:GreenYellow; font-size: 70px;'>正确! </span>","null","html-keyboard-response","124","379763","0.0-7.0-0.0-4.0-0.0-1.8","3","3","4","3","3","4","3","4","4","3","4","2","1","4","3","4","3","2","4","4","2","2","2","1","2","2","2","2","1","1","0","1","1","0","0","1","1","0","1","1","0","1","0","1","4","3","3","1","4","","3","4","4","5","1","797763687048945665","杨","673","","","","","","","","","","","","","","","","","","","","","","","","","","","","","","feedback_test","","","","","","","","","","","",""
"750","","f","psychophysics","125","381521","0.0-7.0-0.0-4.0-0.0-0.9","3","3","4","3","3","4","3","4","4","3","4","2","1","4","3","4","3","2","4","4","2","2","2","1","2","2","2","2","1","1","0","1","1","0","0","1","1","0","1","1","0","1","0","1","4","3","3","1","4","","3","4","4","5","1","797763687048945665","杨","673","","","","nonmatch","","","","","","","","","","","","","","key","f","16.65905714285715","683","380","f","true","nonmatch","img/circle.png","梯形","圆形","ALT1","formal_ALT1_1","","","","","","","","","","","",""
"null","<span style='color:GreenYellow; font-size: 70px;'>正确! </span>","null","html-keyboard-response","126","382027","0.0-7.0-0.0-4.0-0.0-1.9","3","3","4","3","3","4","3","4","4","3","4","2","1","4","3","4","3","2","4","4","2","2","2","1","2","2","2","2","1","1","0","1","1","0","0","1","1","0","1","1","0","1","0","1","4","3","3","1","4","","3","4","4","5","1","797763687048945665","杨","673","","","","","","","","","","","","","","","","","","","","","","","","","","","","","","feedback_test","","","","","","","","","","","",""
"659","","f","psychophysics","127","383694","0.0-7.0-0.0-4.0-0.0-0.10","3","3","4","3","3","4","3","4","4","3","4","2","1","4","3","4","3","2","4","4","2","2","2","1","2","2","2","2","1","1","0","1","1","0","0","1","1","0","1","1","0","1","0","1","4","3","3","1","4","","3","4","4","5","1","797763687048945665","杨","673","","","","nonmatch","","","","","","","","","","","","","","key","f","16.667454545454927","683","380","f","true","nonmatch","img/diamond.png","六边","菱形","ALT1","formal_ALT1_1","","","","","","","","","","","",""
"null","<span style='color:GreenYellow; font-size: 70px;'>正确! </span>","null","html-keyboard-response","128","384202","0.0-7.0-0.0-4.0-0.0-1.10","3","3","4","3","3","4","3","4","4","3","4","2","1","4","3","4","3","2","4","4","2","2","2","1","2","2","2","2","1","1","0","1","1","0","0","1","1","0","1","1","0","1","0","1","4","3","3","1","4","","3","4","4","5","1","797763687048945665","杨","673","","","","","","","","","","","","","","","","","","","","","","","","","","","","","","feedback_test","","","","","","","","","","","",""
"731","","f","psychophysics","129","385942","0.0-7.0-0.0-4.0-0.0-0.11","3","3","4","3","3","4","3","4","4","3","4","2","1","4","3","4","3","2","4","4","2","2","2","1","2","2","2","2","1","1","0","1","1","0","0","1","1","0","1","1","0","1","0","1","4","3","3","1","4","","3","4","4","5","1","797763687048945665","杨","673","","","","nonmatch","","","","","","","","","","","","","","key","f","16.66286407767013","683","380","f","true","nonmatch","img/circle.png","菱形","圆形","ALT1","formal_ALT1_1","","","","","","","","","","","",""
"null","<span style='color:GreenYellow; font-size: 70px;'>正确! </span>","null","html-keyboard-response","130","386451","0.0-7.0-0.0-4.0-0.0-1.11","3","3","4","3","3","4","3","4","4","3","4","2","1","4","3","4","3","2","4","4","2","2","2","1","2","2","2","2","1","1","0","1","1","0","0","1","1","0","1","1","0","1","0","1","4","3","3","1","4","","3","4","4","5","1","797763687048945665","杨","673","","","","","","","","","","","","","","","","","","","","","","","","","","","","","","feedback_test","","","","","","","","","","","",""
"703","","f","psychophysics","131","388158","0.0-7.0-0.0-4.0-0.0-0.12","3","3","4","3","3","4","3","4","4","3","4","2","1","4","3","4","3","2","4","4","2","2","2","1","2","2","2","2","1","1","0","1","1","0","0","1","1","0","1","1","0","1","0","1","4","3","3","1","4","","3","4","4","5","1","797763687048945665","杨","673","","","","nonmatch","","","","","","","","","","","","","","key","f","16.832619999999878","683","380","f","true","nonmatch","img/diamond.png","圆形","菱形","ALT1","formal_ALT1_1","","","","","","","","","","","",""
"null","<span style='color:GreenYellow; font-size: 70px;'>正确! </span>","null","html-keyboard-response","132","388667","0.0-7.0-0.0-4.0-0.0-1.12","3","3","4","3","3","4","3","4","4","3","4","2","1","4","3","4","3","2","4","4","2","2","2","1","2","2","2","2","1","1","0","1","1","0","0","1","1","0","1","1","0","1","0","1","4","3","3","1","4","","3","4","4","5","1","797763687048945665","杨","673","","","","","","","","","","","","","","","","","","","","","","","","","","","","","","feedback_test","","","","","","","","","","","",""
"748","","j","psychophysics","133","390422","0.0-7.0-0.0-4.0-0.0-0.13","3","3","4","3","3","4","3","4","4","3","4","2","1","4","3","4","3","2","4","4","2","2","2","1","2","2","2","2","1","1","0","1","1","0","0","1","1","0","1","1","0","1","0","1","4","3","3","1","4","","3","4","4","5","1","797763687048945665","杨","673","","","","match","","","","","","","","","","","","","","key","j","16.82343689320401","683","380","j","true","match","img/diamond.png","菱形","菱形","ALT1","formal_ALT1_1","","","","","","","","","","","",""
"null","<span style='color:GreenYellow; font-size: 70px;'>正确! </span>","null","html-keyboard-response","134","390931","0.0-7.0-0.0-4.0-0.0-1.13","3","3","4","3","3","4","3","4","4","3","4","2","1","4","3","4","3","2","4","4","2","2","2","1","2","2","2","2","1","1","0","1","1","0","0","1","1","0","1","1","0","1","0","1","4","3","3","1","4","","3","4","4","5","1","797763687048945665","杨","673","","","","","","","","","","","","","","","","","","","","","","","","","","","","","","feedback_test","","","","","","","","","","","",""
"769","","f","psychophysics","135","392703","0.0-7.0-0.0-4.0-0.0-0.14","3","3","4","3","3","4","3","4","4","3","4","2","1","4","3","4","3","2","4","4","2","2","2","1","2","2","2","2","1","1","0","1","1","0","0","1","1","0","1","1","0","1","0","1","4","3","3","1","4","","3","4","4","5","1","797763687048945665","杨","673","","","","nonmatch","","","","","","","","","","","","","","key","f","16.66563207547143","683","380","f","true","nonmatch","img/diamond.png","梯形","菱形","ALT1","formal_ALT1_1","","","","","","","","","","","",""
"null","<span style='color:GreenYellow; font-size: 70px;'>正确! </span>","null","html-keyboard-response","136","393211","0.0-7.0-0.0-4.0-0.0-1.14","3","3","4","3","3","4","3","4","4","3","4","2","1","4","3","4","3","2","4","4","2","2","2","1","2","2","2","2","1","1","0","1","1","0","0","1","1","0","1","1","0","1","0","1","4","3","3","1","4","","3","4","4","5","1","797763687048945665","杨","673","","","","","","","","","","","","","","","","","","","","","","","","","","","","","","feedback_test","","","","","","","","","","","",""
"818","","f","psychophysics","137","395038","0.0-7.0-0.0-4.0-0.0-0.15","3","3","4","3","3","4","3","4","4","3","4","2","1","4","3","4","3","2","4","4","2","2","2","1","2","2","2","2","1","1","0","1","1","0","0","1","1","0","1","1","0","1","0","1","4","3","3","1","4","","3","4","4","5","1","797763687048945665","杨","673","","","","nonmatch","","","","","","","","","","","","","","key","f","16.81127777777793","683","380","f","true","nonmatch","img/hexagon.png","圆形","六边","ALT1","formal_ALT1_1","","","","","","","","","","","",""
"null","<span style='color:GreenYellow; font-size: 70px;'>正确! </span>","null","html-keyboard-response","138","395547","0.0-7.0-0.0-4.0-0.0-1.15","3","3","4","3","3","4","3","4","4","3","4","2","1","4","3","4","3","2","4","4","2","2","2","1","2","2","2","2","1","1","0","1","1","0","0","1","1","0","1","1","0","1","0","1","4","3","3","1","4","","3","4","4","5","1","797763687048945665","杨","673","","","","","","","","","","","","","","","","","","","","","","","","","","","","","","feedback_test","","","","","","","","","","","",""
"692","","j","psychophysics","139","397245","0.0-7.0-0.0-4.0-0.0-0.16","3","3","4","3","3","4","3","4","4","3","4","2","1","4","3","4","3","2","4","4","2","2","2","1","2","2","2","2","1","1","0","1","1","0","0","1","1","0","1","1","0","1","0","1","4","3","3","1","4","","3","4","4","5","1","797763687048945665","杨","673","","","","match","","","","","","","","","","","","","","key","j","16.821620000000113","683","380","j","true","match","img/hexagon.png","六边","六边","ALT1","formal_ALT1_1","","","","","","","","","","","",""
"null","<span style='color:GreenYellow; font-size: 70px;'>正确! </span>","null","html-keyboard-response","140","397747","0.0-7.0-0.0-4.0-0.0-1.16","3","3","4","3","3","4","3","4","4","3","4","2","1","4","3","4","3","2","4","4","2","2","2","1","2","2","2","2","1","1","0","1","1","0","0","1","1","0","1","1","0","1","0","1","4","3","3","1","4","","3","4","4","5","1","797763687048945665","杨","673","","","","","","","","","","","","","","","","","","","","","","","","","","","","","","feedback_test","","","","","","","","","","","",""
"647","","j","psychophysics","141","399397","0.0-7.0-0.0-4.0-0.0-0.17","3","3","4","3","3","4","3","4","4","3","4","2","1","4","3","4","3","2","4","4","2","2","2","1","2","2","2","2","1","1","0","1","1","0","0","1","1","0","1","1","0","1","0","1","4","3","3","1","4","","3","4","4","5","1","797763687048945665","杨","673","","","","match","","","","","","","","","","","","","","key","j","16.666010204081932","683","380","j","true","match","img/circle.png","圆形","圆形","ALT1","formal_ALT1_1","","","","","","","","","","","",""
"null","<span style='color:GreenYellow; font-size: 70px;'>正确! </span>","null","html-keyboard-response","142","399899","0.0-7.0-0.0-4.0-0.0-1.17","3","3","4","3","3","4","3","4","4","3","4","2","1","4","3","4","3","2","4","4","2","2","2","1","2","2","2","2","1","1","0","1","1","0","0","1","1","0","1","1","0","1","0","1","4","3","3","1","4","","3","4","4","5","1","797763687048945665","杨","673","","","","","","","","","","","","","","","","","","","","","","","","","","","","","","feedback_test","","","","","","","","","","","",""
"822","","j","psychophysics","143","401725","0.0-7.0-0.0-4.0-0.0-0.18","3","3","4","3","3","4","3","4","4","3","4","2","1","4","3","4","3","2","4","4","2","2","2","1","2","2","2","2","1","1","0","1","1","0","0","1","1","0","1","1","0","1","0","1","4","3","3","1","4","","3","4","4","5","1","797763687048945665","杨","673","","","","match","","","","","","","","","","","","","","key","j","16.668518518518628","683","380","j","true","match","img/diamond.png","菱形","菱形","ALT1","formal_ALT1_1","","","","","","","","","","","",""
"null","<span style='color:GreenYellow; font-size: 70px;'>正确! </span>","null","html-keyboard-response","144","402227","0.0-7.0-0.0-4.0-0.0-1.18","3","3","4","3","3","4","3","4","4","3","4","2","1","4","3","4","3","2","4","4","2","2","2","1","2","2","2","2","1","1","0","1","1","0","0","1","1","0","1","1","0","1","0","1","4","3","3","1","4","","3","4","4","5","1","797763687048945665","杨","673","","","","","","","","","","","","","","","","","","","","","","","","","","","","","","feedback_test","","","","","","","","","","","",""
"759","","f","psychophysics","145","403997","0.0-7.0-0.0-4.0-0.0-0.19","3","3","4","3","3","4","3","4","4","3","4","2","1","4","3","4","3","2","4","4","2","2","2","1","2","2","2","2","1","1","0","1","1","0","0","1","1","0","1","1","0","1","0","1","4","3","3","1","4","","3","4","4","5","1","797763687048945665","杨","673","","","","nonmatch","","","","","","","","","","","","","","key","f","16.671000000000156","683","380","f","true","nonmatch","img/hexagon.png","菱形","六边","ALT1","formal_ALT1_1","","","","","","","","","","","",""
"null","<span style='color:GreenYellow; font-size: 70px;'>正确! </span>","null","html-keyboard-response","146","404507","0.0-7.0-0.0-4.0-0.0-1.19","3","3","4","3","3","4","3","4","4","3","4","2","1","4","3","4","3","2","4","4","2","2","2","1","2","2","2","2","1","1","0","1","1","0","0","1","1","0","1","1","0","1","0","1","4","3","3","1","4","","3","4","4","5","1","797763687048945665","杨","673","","","","","","","","","","","","","","","","","","","","","","","","","","","","","","feedback_test","","","","","","","","","","","",""
"635","","j","psychophysics","147","406151","0.0-7.0-0.0-4.0-0.0-0.20","3","3","4","3","3","4","3","4","4","3","4","2","1","4","3","4","3","2","4","4","2","2","2","1","2","2","2","2","1","1","0","1","1","0","0","1","1","0","1","1","0","1","0","1","4","3","3","1","4","","3","4","4","5","1","797763687048945665","杨","673","","","","match","","","","","","","","","","","","","","key","j","16.668216494845165","683","380","j","true","match","img/circle.png","圆形","圆形","ALT1","formal_ALT1_1","","","","","","","","","","","",""
"null","<span style='color:GreenYellow; font-size: 70px;'>正确! </span>","null","html-keyboard-response","148","406659","0.0-7.0-0.0-4.0-0.0-1.20","3","3","4","3","3","4","3","4","4","3","4","2","1","4","3","4","3","2","4","4","2","2","2","1","2","2","2","2","1","1","0","1","1","0","0","1","1","0","1","1","0","1","0","1","4","3","3","1","4","","3","4","4","5","1","797763687048945665","杨","673","","","","","","","","","","","","","","","","","","","","","","","","","","","","","","feedback_test","","","","","","","","","","","",""
"760","","f","psychophysics","149","408429","0.0-7.0-0.0-4.0-0.0-0.21","3","3","4","3","3","4","3","4","4","3","4","2","1","4","3","4","3","2","4","4","2","2","2","1","2","2","2","2","1","1","0","1","1","0","0","1","1","0","1","1","0","1","0","1","4","3","3","1","4","","3","4","4","5","1","797763687048945665","杨","673","","","","nonmatch","","","","","","","","","","","","","","key","f","16.82824999999978","683","380","f","true","nonmatch","img/circle.png","六边","圆形","ALT1","formal_ALT1_1","","","","","","","","","","","",""
"null","<span style='color:GreenYellow; font-size: 70px;'>正确! </span>","null","html-keyboard-response","150","408931","0.0-7.0-0.0-4.0-0.0-1.21","3","3","4","3","3","4","3","4","4","3","4","2","1","4","3","4","3","2","4","4","2","2","2","1","2","2","2","2","1","1","0","1","1","0","0","1","1","0","1","1","0","1","0","1","4","3","3","1","4","","3","4","4","5","1","797763687048945665","杨","673","","","","","","","","","","","","","","","","","","","","","","","","","","","","","","feedback_test","","","","","","","","","","","",""
"854","","j","psychophysics","151","410789","0.0-7.0-0.0-4.0-0.0-0.22","3","3","4","3","3","4","3","4","4","3","4","2","1","4","3","4","3","2","4","4","2","2","2","1","2","2","2","2","1","1","0","1","1","0","0","1","1","0","1","1","0","1","0","1","4","3","3","1","4","","3","4","4","5","1","797763687048945665","杨","673","","","","match","","","","","","","","","","","","","","key","j","16.671063636363993","683","380","j","true","match","img/trapezoid.png","梯形","梯形","ALT1","formal_ALT1_1","","","","","","","","","","","",""
"null","<span style='color:GreenYellow; font-size: 70px;'>正确! </span>","null","html-keyboard-response","152","411290","0.0-7.0-0.0-4.0-0.0-1.22","3","3","4","3","3","4","3","4","4","3","4","2","1","4","3","4","3","2","4","4","2","2","2","1","2","2","2","2","1","1","0","1","1","0","0","1","1","0","1","1","0","1","0","1","4","3","3","1","4","","3","4","4","5","1","797763687048945665","杨","673","","","","","","","","","","","","","","","","","","","","","","","","","","","","","","feedback_test","","","","","","","","","","","",""
"766","","f","psychophysics","153","413071","0.0-7.0-0.0-4.0-0.0-0.23","3","3","4","3","3","4","3","4","4","3","4","2","1","4","3","4","3","2","4","4","2","2","2","1","2","2","2","2","1","1","0","1","1","0","0","1","1","0","1","1","0","1","0","1","4","3","3","1","4","","3","4","4","5","1","797763687048945665","杨","673","","","","nonmatch","","","","","","","","","","","","","","key","f","16.67065094339602","683","380","f","true","nonmatch","img/hexagon.png","梯形","六边","ALT1","formal_ALT1_1","","","","","","","","","","","",""
"null","<span style='color:GreenYellow; font-size: 70px;'>正确! </span>","null","html-keyboard-response","154","413580","0.0-7.0-0.0-4.0-0.0-1.23","3","3","4","3","3","4","3","4","4","3","4","2","1","4","3","4","3","2","4","4","2","2","2","1","2","2","2","2","1","1","0","1","1","0","0","1","1","0","1","1","0","1","0","1","4","3","3","1","4","","3","4","4","5","1","797763687048945665","杨","673","","","","","","","","","","","","","","","","","","","","","","","","","","","","","","feedback_test","","","","","","","","","","","",""
"811","","j","psychophysics","155","415398","0.0-7.0-0.0-4.0-0.0-0.24","3","3","4","3","3","4","3","4","4","3","4","2","1","4","3","4","3","2","4","4","2","2","2","1","2","2","2","2","1","1","0","1","1","0","0","1","1","0","1","1","0","1","0","1","4","3","3","1","4","","3","4","4","5","1","797763687048945665","杨","673","","","","match","","","","","","","","","","","","","","key","j","16.822280373831745","683","380","j","true","match","img/diamond.png","菱形","菱形","ALT1","formal_ALT1_1","","","","","","","","","","","",""
"null","<span style='color:GreenYellow; font-size: 70px;'>正确! </span>","null","html-keyboard-response","156","415908","0.0-7.0-0.0-4.0-0.0-1.24","3","3","4","3","3","4","3","4","4","3","4","2","1","4","3","4","3","2","4","4","2","2","2","1","2","2","2","2","1","1","0","1","1","0","0","1","1","0","1","1","0","1","0","1","4","3","3","1","4","","3","4","4","5","1","797763687048945665","杨","673","","","","","","","","","","","","","","","","","","","","","","","","","","","","","","feedback_test","","","","","","","","","","","",""
"910","","f","psychophysics","157","417830","0.0-7.0-0.0-4.0-0.0-0.25","3","3","4","3","3","4","3","4","4","3","4","2","1","4","3","4","3","2","4","4","2","2","2","1","2","2","2","2","1","1","0","1","1","0","0","1","1","0","1","1","0","1","0","1","4","3","3","1","4","","3","4","4","5","1","797763687048945665","杨","673","","","","nonmatch","","","","","","","","","","","","","","key","f","16.8167168141592","683","380","f","true","nonmatch","img/hexagon.png","菱形","六边","ALT1","formal_ALT1_1","","","","","","","","","","","",""
"null","<span style='color:GreenYellow; font-size: 70px;'>正确! </span>","null","html-keyboard-response","158","418332","0.0-7.0-0.0-4.0-0.0-1.25","3","3","4","3","3","4","3","4","4","3","4","2","1","4","3","4","3","2","4","4","2","2","2","1","2","2","2","2","1","1","0","1","1","0","0","1","1","0","1","1","0","1","0","1","4","3","3","1","4","","3","4","4","5","1","797763687048945665","杨","673","","","","","","","","","","","","","","","","","","","","","","","","","","","","","","feedback_test","","","","","","","","","","","",""
"784","","f","psychophysics","159","420119","0.0-7.0-0.0-4.0-0.0-0.26","3","3","4","3","3","4","3","4","4","3","4","2","1","4","3","4","3","2","4","4","2","2","2","1","2","2","2","2","1","1","0","1","1","0","0","1","1","0","1","1","0","1","0","1","4","3","3","1","4","","3","4","4","5","1","797763687048945665","杨","673","","","","nonmatch","","","","","","","","","","","","","","key","f","16.662707547170115","683","380","f","true","nonmatch","img/trapezoid.png","菱形","梯形","ALT1","formal_ALT1_1","","","","","","","","","","","",""
"null","<span style='color:GreenYellow; font-size: 70px;'>正确! </span>","null","html-keyboard-response","160","420628","0.0-7.0-0.0-4.0-0.0-1.26","3","3","4","3","3","4","3","4","4","3","4","2","1","4","3","4","3","2","4","4","2","2","2","1","2","2","2","2","1","1","0","1","1","0","0","1","1","0","1","1","0","1","0","1","4","3","3","1","4","","3","4","4","5","1","797763687048945665","杨","673","","","","","","","","","","","","","","","","","","","","","","","","","","","","","","feedback_test","","","","","","","","","","","",""
"786","","f","psychophysics","161","422421","0.0-7.0-0.0-4.0-0.0-0.27","3","3","4","3","3","4","3","4","4","3","4","2","1","4","3","4","3","2","4","4","2","2","2","1","2","2","2","2","1","1","0","1","1","0","0","1","1","0","1","1","0","1","0","1","4","3","3","1","4","","3","4","4","5","1","797763687048945665","杨","673","","","","nonmatch","","","","","","","","","","","","","","key","f","16.66650467289712","683","380","f","true","nonmatch","img/hexagon.png","梯形","六边","ALT1","formal_ALT1_1","","","","","","","","","","","",""
"null","<span style='color:GreenYellow; font-size: 70px;'>正确! </span>","null","html-keyboard-response","162","422924","0.0-7.0-0.0-4.0-0.0-1.27","3","3","4","3","3","4","3","4","4","3","4","2","1","4","3","4","3","2","4","4","2","2","2","1","2","2","2","2","1","1","0","1","1","0","0","1","1","0","1","1","0","1","0","1","4","3","3","1","4","","3","4","4","5","1","797763687048945665","杨","673","","","","","","","","","","","","","","","","","","","","","","","","","","","","","","feedback_test","","","","","","","","","","","",""
"734","","j","psychophysics","163","424671","0.0-7.0-0.0-4.0-0.0-0.28","3","3","4","3","3","4","3","4","4","3","4","2","1","4","3","4","3","2","4","4","2","2","2","1","2","2","2","2","1","1","0","1","1","0","0","1","1","0","1","1","0","1","0","1","4","3","3","1","4","","3","4","4","5","1","797763687048945665","杨","673","","","","match","","","","","","","","","","","","","","key","j","16.826300970873756","683","380","j","true","match","img/circle.png","圆形","圆形","ALT1","formal_ALT1_1","","","","","","","","","","","",""
"null","<span style='color:GreenYellow; font-size: 70px;'>正确! </span>","null","html-keyboard-response","164","425180","0.0-7.0-0.0-4.0-0.0-1.28","3","3","4","3","3","4","3","4","4","3","4","2","1","4","3","4","3","2","4","4","2","2","2","1","2","2","2","2","1","1","0","1","1","0","0","1","1","0","1","1","0","1","0","1","4","3","3","1","4","","3","4","4","5","1","797763687048945665","杨","673","","","","","","","","","","","","","","","","","","","","","","","","","","","","","","feedback_test","","","","","","","","","","","",""
"647","","f","psychophysics","165","426830","0.0-7.0-0.0-4.0-0.0-0.29","3","3","4","3","3","4","3","4","4","3","4","2","1","4","3","4","3","2","4","4","2","2","2","1","2","2","2","2","1","1","0","1","1","0","0","1","1","0","1","1","0","1","0","1","4","3","3","1","4","","3","4","4","5","1","797763687048945665","杨","673","","","","nonmatch","","","","","","","","","","","","","","key","f","16.673865979381347","683","380","f","true","nonmatch","img/diamond.png","六边","菱形","ALT1","formal_ALT1_1","","","","","","","","","","","",""
"null","<span style='color:GreenYellow; font-size: 70px;'>正确! </span>","null","html-keyboard-response","166","427332","0.0-7.0-0.0-4.0-0.0-1.29","3","3","4","3","3","4","3","4","4","3","4","2","1","4","3","4","3","2","4","4","2","2","2","1","2","2","2","2","1","1","0","1","1","0","0","1","1","0","1","1","0","1","0","1","4","3","3","1","4","","3","4","4","5","1","797763687048945665","杨","673","","","","","","","","","","","","","","","","","","","","","","","","","","","","","","feedback_test","","","","","","","","","","","",""
"800","","j","psychophysics","167","429136","0.0-7.0-0.0-4.0-0.0-0.30","3","3","4","3","3","4","3","4","4","3","4","2","1","4","3","4","3","2","4","4","2","2","2","1","2","2","2","2","1","1","0","1","1","0","0","1","1","0","1","1","0","1","0","1","4","3","3","1","4","","3","4","4","5","1","797763687048945665","杨","673","","","","match","","","","","","","","","","","","","","key","j","16.660233644859986","683","380","j","true","match","img/trapezoid.png","梯形","梯形","ALT1","formal_ALT1_1","","","","","","","","","","","",""
"null","<span style='color:GreenYellow; font-size: 70px;'>正确! </span>","null","html-keyboard-response","168","429644","0.0-7.0-0.0-4.0-0.0-1.30","3","3","4","3","3","4","3","4","4","3","4","2","1","4","3","4","3","2","4","4","2","2","2","1","2","2","2","2","1","1","0","1","1","0","0","1","1","0","1","1","0","1","0","1","4","3","3","1","4","","3","4","4","5","1","797763687048945665","杨","673","","","","","","","","","","","","","","","","","","","","","","","","","","","","","","feedback_test","","","","","","","","","","","",""
"662","","j","psychophysics","169","431310","0.0-7.0-0.0-4.0-0.0-0.31","3","3","4","3","3","4","3","4","4","3","4","2","1","4","3","4","3","2","4","4","2","2","2","1","2","2","2","2","1","1","0","1","1","0","0","1","1","0","1","1","0","1","0","1","4","3","3","1","4","","3","4","4","5","1","797763687048945665","杨","673","","","","match","","","","","","","","","","","","","","key","j","16.658333333333214","683","380","j","true","match","img/hexagon.png","六边","六边","ALT1","formal_ALT1_1","","","","","","","","","","","",""
"null","<span style='color:GreenYellow; font-size: 70px;'>正确! </span>","null","html-keyboard-response","170","431812","0.0-7.0-0.0-4.0-0.0-1.31","3","3","4","3","3","4","3","4","4","3","4","2","1","4","3","4","3","2","4","4","2","2","2","1","2","2","2","2","1","1","0","1","1","0","0","1","1","0","1","1","0","1","0","1","4","3","3","1","4","","3","4","4","5","1","797763687048945665","杨","673","","","","","","","","","","","","","","","","","","","","","","","","","","","","","","feedback_test","","","","","","","","","","","",""
"646","","j","psychophysics","171","433462","0.0-7.0-0.0-4.0-0.0-0.32","3","3","4","3","3","4","3","4","4","3","4","2","1","4","3","4","3","2","4","4","2","2","2","1","2","2","2","2","1","1","0","1","1","0","0","1","1","0","1","1","0","1","0","1","4","3","3","1","4","","3","4","4","5","1","797763687048945665","杨","673","","","","match","","","","","","","","","","","","","","key","j","16.82062886597903","683","380","j","true","match","img/trapezoid.png","梯形","梯形","ALT1","formal_ALT1_1","","","","","","","","","","","",""
"null","<span style='color:GreenYellow; font-size: 70px;'>正确! </span>","null","html-keyboard-response","172","433965","0.0-7.0-0.0-4.0-0.0-1.32","3","3","4","3","3","4","3","4","4","3","4","2","1","4","3","4","3","2","4","4","2","2","2","1","2","2","2","2","1","1","0","1","1","0","0","1","1","0","1","1","0","1","0","1","4","3","3","1","4","","3","4","4","5","1","797763687048945665","杨","673","","","","","","","","","","","","","","","","","","","","","","","","","","","","","","feedback_test","","","","","","","","","","","",""
"687","","f","psychophysics","173","435654","0.0-7.0-0.0-4.0-0.0-0.33","3","3","4","3","3","4","3","4","4","3","4","2","1","4","3","4","3","2","4","4","2","2","2","1","2","2","2","2","1","1","0","1","1","0","0","1","1","0","1","1","0","1","0","1","4","3","3","1","4","","3","4","4","5","1","797763687048945665","杨","673","","","","nonmatch","","","","","","","","","","","","","","key","f","16.67390000000014","683","380","f","true","nonmatch","img/diamond.png","梯形","菱形","ALT1","formal_ALT1_1","","","","","","","","","","","",""
"null","<span style='color:GreenYellow; font-size: 70px;'>正确! </span>","null","html-keyboard-response","174","436156","0.0-7.0-0.0-4.0-0.0-1.33","3","3","4","3","3","4","3","4","4","3","4","2","1","4","3","4","3","2","4","4","2","2","2","1","2","2","2","2","1","1","0","1","1","0","0","1","1","0","1","1","0","1","0","1","4","3","3","1","4","","3","4","4","5","1","797763687048945665","杨","673","","","","","","","","","","","","","","","","","","","","","","","","","","","","","","feedback_test","","","","","","","","","","","",""
"653","","j","psychophysics","175","437822","0.0-7.0-0.0-4.0-0.0-0.34","3","3","4","3","3","4","3","4","4","3","4","2","1","4","3","4","3","2","4","4","2","2","2","1","2","2","2","2","1","1","0","1","1","0","0","1","1","0","1","1","0","1","0","1","4","3","3","1","4","","3","4","4","5","1","797763687048945665","杨","673","","","","match","","","","","","","","","","","","","","key","j","16.66575757575732","683","380","j","true","match","img/circle.png","圆形","圆形","ALT1","formal_ALT1_1","","","","","","","","","","","",""
"null","<span style='color:GreenYellow; font-size: 70px;'>正确! </span>","null","html-keyboard-response","176","438324","0.0-7.0-0.0-4.0-0.0-1.34","3","3","4","3","3","4","3","4","4","3","4","2","1","4","3","4","3","2","4","4","2","2","2","1","2","2","2","2","1","1","0","1","1","0","0","1","1","0","1","1","0","1","0","1","4","3","3","1","4","","3","4","4","5","1","797763687048945665","杨","673","","","","","","","","","","","","","","","","","","","","","","","","","","","","","","feedback_test","","","","","","","","","","","",""
"667","","f","psychophysics","177","440002","0.0-7.0-0.0-4.0-0.0-0.35","3","3","4","3","3","4","3","4","4","3","4","2","1","4","3","4","3","2","4","4","2","2","2","1","2","2","2","2","1","1","0","1","1","0","0","1","1","0","1","1","0","1","0","1","4","3","3","1","4","","3","4","4","5","1","797763687048945665","杨","673","","","","nonmatch","","","","","","","","","","","","","","key","f","16.65072727272748","683","380","f","true","nonmatch","img/diamond.png","圆形","菱形","ALT1","formal_ALT1_1","","","","","","","","","","","",""
"null","<span style='color:GreenYellow; font-size: 70px;'>正确! </span>","null","html-keyboard-response","178","440508","0.0-7.0-0.0-4.0-0.0-1.35","3","3","4","3","3","4","3","4","4","3","4","2","1","4","3","4","3","2","4","4","2","2","2","1","2","2","2","2","1","1","0","1","1","0","0","1","1","0","1","1","0","1","0","1","4","3","3","1","4","","3","4","4","5","1","797763687048945665","杨","673","","","","","","","","","","","","","","","","","","","","","","","","","","","","","","feedback_test","","","","","","","","","","","",""
"800","","j","psychophysics","179","442319","0.0-7.0-0.0-4.0-0.0-0.36","3","3","4","3","3","4","3","4","4","3","4","2","1","4","3","4","3","2","4","4","2","2","2","1","2","2","2","2","1","1","0","1","1","0","0","1","1","0","1","1","0","1","0","1","4","3","3","1","4","","3","4","4","5","1","797763687048945665","杨","673","","","","match","","","","","","","","","","","","","","key","j","16.816990654205654","683","380","j","true","match","img/hexagon.png","六边","六边","ALT1","formal_ALT1_1","","","","","","","","","","","",""
"null","<span style='color:GreenYellow; font-size: 70px;'>正确! </span>","null","html-keyboard-response","180","442828","0.0-7.0-0.0-4.0-0.0-1.36","3","3","4","3","3","4","3","4","4","3","4","2","1","4","3","4","3","2","4","4","2","2","2","1","2","2","2","2","1","1","0","1","1","0","0","1","1","0","1","1","0","1","0","1","4","3","3","1","4","","3","4","4","5","1","797763687048945665","杨","673","","","","","","","","","","","","","","","","","","","","","","","","","","","","","","feedback_test","","","","","","","","","","","",""
"668","","f","psychophysics","181","444503","0.0-7.0-0.0-4.0-0.0-0.37","3","3","4","3","3","4","3","4","4","3","4","2","1","4","3","4","3","2","4","4","2","2","2","1","2","2","2","2","1","1","0","1","1","0","0","1","1","0","1","1","0","1","0","1","4","3","3","1","4","","3","4","4","5","1","797763687048945665","杨","673","","","","nonmatch","","","","","","","","","","","","","","key","f","17.016163265305853","683","380","f","true","nonmatch","img/hexagon.png","圆形","六边","ALT1","formal_ALT1_1","","","","","","","","","","","",""
