"rt","stimulus","response","trial_type","trial_index","time_elapsed","internal_node_id","ses_1","ses_2","ses_3","ses_4","ses_5","ses_6","ses_7","ses_8","ses_9","ses_10","coreself_1","coreself_2","coreself_3","coreself_4","coreself_5","coreself_6","coreself_7","coreself_8","coreself_9","coreself_10","SGPS_1","SGPS_2","SGPS_3","SGPS_4","SGPS_5","SGPS_6","SGPS_7","SGPS_8","SGPS_9","NPI1","NPI2","NPI3","NPI4","NPI5","NPI6","NPI7","NPI8","NPI9","NPI10","NPI11","NPI12","NPI13","NPI14","NPI15","hsns_1","hsns_2","hsns_3","hsns_4","hsns_5","trap1","hsns_6","hsns_7","hsns_8","hsns_9","hsns_10","subj_idx","friend_name","ParticipantID","value","success","user_agent","responses","item_order","radio_event_ids","radio_event_times","key_event_times","mouse_event_times","straightlining","zigzagging","honeypot","timeout","failed_images","failed_audio","failed_video","view_history","response_type","key_press","avg_frame_time","center_x","center_y","correct_response","correct","identity","Image","word","condition","task_id","screen_id","time_stamp","version_attrib2","version_target2","IAT","RT","varname","summary","version_attrib","version_target","question_order","correct_answer","trap1_item"
"33883","
   <p><div style = ""color: white;font-size:25px;"">您好，欢迎参加本次实验。</div> </p>
   <p><div style = ""color: white;font-size:25px;"">为充分保障您的权利，请确保您已经知晓并同意《参与实验同意书》以及《数据公开知情同意书》。</div></p>
   <p><div style = ""color: white;font-size:25px;"">如果您未见过上述内容，请咨询实验员。</div></p>
   <p><div style = ""color: white;font-size:25px;"">如果您选择继续实验，则表示您已经清楚两份知情同意书的内容并同意。</div></p>
   <p><div style = ""color: pink;font-size:30px;"">请确保您记得day0的实验编号，您将在本次实验输入该编号，若您忘记，请咨询实验员后作答。</div></p>
   <p><div style = ""color: lightblue;font-size:25px;"">请您尽可能认真地作答，我们将依据您在各问卷和按键任务中的作答质量发放报酬。</div></p>
   <p> <div style = ""color: green;font-size:25px;""><按空格键至下页></div> </p>
   "," ","html-keyboard-response","0","33886","0.0-0.0","3","3","3","3","2","3","3","2","3","3","4","4","2","2","2","4","3","2","4","4","4","4","2","2","2","2","2","2","2","1","1","1","1","1","1","1","0","0","0","1","0","0","0","1","3","2","4","1","4","5","4","4","4","4","3","798934746745937922","许","433","","","","","","","","","","","","","","","","","","","","","","","","","","","","","","","","","","","","","","","","","",""
"","","","call-function","1","33888","0.0-1.0-0.0","3","3","3","3","2","3","3","2","3","3","4","4","2","2","2","4","3","2","4","4","4","4","2","2","2","2","2","2","2","1","1","1","1","1","1","1","0","0","0","1","0","0","0","1","3","2","4","1","4","5","4","4","4","4","3","798934746745937922","许","433","","","","","","","","","","","","","","","","","","","","","","","","","","","","","","","","","","","","","","","","","",""
"44388","","{""friend_name"":""许"",""ParticipantID"":""433""}","survey-html-form","2","78277","0.0-1.0-1.0","3","3","3","3","2","3","3","2","3","3","4","4","2","2","2","4","3","2","4","4","4","4","2","2","2","2","2","2","2","1","1","1","1","1","1","1","0","0","0","1","0","0","0","1","3","2","4","1","4","5","4","4","4","4","3","798934746745937922","许","433","","","","","","","","","","","","","","","","","","","","","","","","","","","","","","","","","","","","","","","","","",""
"","","","fullscreen","3","82931","0.0-2.0","3","3","3","3","2","3","3","2","3","3","4","4","2","2","2","4","3","2","4","4","4","4","2","2","2","2","2","2","2","1","1","1","1","1","1","1","0","0","0","1","0","0","0","1","3","2","4","1","4","5","4","4","4","4","3","798934746745937922","许","433","","true","{}","","","","","","","","","","","","","","","","","","","","","","","","","","","","","","","","","","","","","","",""
"90048.29999999999","","{""Q01"":""3"",""Q02"":""3"",""Q03"":""3"",""Q04"":""3"",""Q05"":""2"",""Q06"":""3"",""Q07"":""3"",""Q08"":""2"",""Q09"":""3"",""Q10"":""3""}","survey-template","4","172983","0.0-3.0","3","3","3","3","2","3","3","2","3","3","4","4","2","2","2","4","3","2","4","4","4","4","2","2","2","2","2","2","2","1","1","1","1","1","1","1","0","0","0","1","0","0","0","1","3","2","4","1","4","5","4","4","4","4","3","798934746745937922","许","433","","","","{""Q01"":""3"",""Q02"":""3"",""Q03"":""3"",""Q04"":""3"",""Q05"":""2"",""Q06"":""3"",""Q07"":""3"",""Q08"":""2"",""Q09"":""3"",""Q10"":""3""}","[0,1,2,3,4,5,6,7,8,9]","[""Q01"",""Q02"",""Q03"",""Q04"",""Q05"",""Q06"",""Q07"",""Q07"",""Q08"",""Q09"",""Q10""]","[14694.899999999965,19510.5,26734.5,30774.699999999953,43190.59999999998,48566.899999999965,55598.5,58974.5,76446.39999999997,83494.39999999997,89006.5]","[]","[14694.899999999965,19510.5,26734.5,30774.699999999953,43190.59999999998,48566.899999999965,55598.5,58974.5,76446.39999999997,83494.39999999997,89006.5,90046.5]","0.7","0.3333333333333333","0","","","","","","","","","","","","","","","","","","","","","","","","","","","","","",""
"87646.50000000006","","{""Q01"":""4"",""Q02"":""4"",""Q03"":""2"",""Q04"":""2"",""Q05"":""2"",""Q06"":""4"",""Q07"":""3"",""Q08"":""2"",""Q09"":""4"",""Q10"":""4""}","survey-template","5","260639","0.0-4.0","3","3","3","3","2","3","3","2","3","3","4","4","2","2","2","4","3","2","4","4","4","4","2","2","2","2","2","2","2","1","1","1","1","1","1","1","0","0","0","1","0","0","0","1","3","2","4","1","4","5","4","4","4","4","3","798934746745937922","许","433","","","","{""Q01"":""4"",""Q02"":""4"",""Q03"":""2"",""Q04"":""2"",""Q05"":""2"",""Q06"":""4"",""Q07"":""3"",""Q08"":""2"",""Q09"":""4"",""Q10"":""4""}","[0,1,2,3,4,5,6,7,8,9]","[""Q01"",""Q02"",""Q03"",""Q04"",""Q05"",""Q06"",""Q07"",""Q08"",""Q09"",""Q10""]","[15156.600000000035,38765.600000000035,50940.5,57684.5,64100.40000000002,67548.5,70740.40000000002,77404.40000000002,80572.39999999997,86012.29999999999]","[]","[15156.600000000035,38765.600000000035,50940.5,57684.5,64100.40000000002,67548.5,70740.40000000002,77404.40000000002,80572.39999999997,86012.29999999999,87644.50000000006]","0.6","0.2222222222222222","0","","","","","","","","","","","","","","","","","","","","","","","","","","","","","",""
"","","","preload","6","261148","0.0-5.0","3","3","3","3","2","3","3","2","3","3","4","4","2","2","2","4","3","2","4","4","4","4","2","2","2","2","2","2","2","1","1","1","1","1","1","1","0","0","0","1","0","0","0","1","3","2","4","1","4","5","4","4","4","4","3","798934746745937922","许","433","","true","","","","","","","","","","","false","[]","[]","[]","","","","","","","","","","","","","","","","","","","","","","","","","",""
"62958","","","instructions","7","324108","0.0-6.0","3","3","3","3","2","3","3","2","3","3","4","4","2","2","2","4","3","2","4","4","4","4","2","2","2","2","2","2","2","1","1","1","1","1","1","1","0","0","0","1","0","0","0","1","3","2","4","1","4","5","4","4","4","4","3","798934746745937922","许","433","","","","","","","","","","","","","","","","","[{""page_index"":0,""viewing_time"":62957}]","","","","","","","","","","","","","","","","","","","","","","","","",""
"123286","","","instructions","8","447396","0.0-7.0-1.0-0.0","3","3","3","3","2","3","3","2","3","3","4","4","2","2","2","4","3","2","4","4","4","4","2","2","2","2","2","2","2","1","1","1","1","1","1","1","0","0","0","1","0","0","0","1","3","2","4","1","4","5","4","4","4","4","3","798934746745937922","许","433","","","","","","","","","","","","","","","","","[{""page_index"":0,""viewing_time"":72573},{""page_index"":1,""viewing_time"":44096},{""page_index"":2,""viewing_time"":6616}]","","","","","","","","","","","","","","","","","","","","","","","","",""
"null","","null","psychophysics","9","449611","0.0-7.0-1.0-1.0-0.0-0.0","3","3","3","3","2","3","3","2","3","3","4","4","2","2","2","4","3","2","4","4","4","4","2","2","2","2","2","2","2","1","1","1","1","1","1","1","0","0","0","1","0","0","0","1","3","2","4","1","4","5","4","4","4","4","3","798934746745937922","许","433","","","","null","","","","","","","","","","","","","","key","null","16.66364122137431","768","428","f","false","nonmatch","img/triangle.png","梯形","三角","ALT1_2","prac_ALT1_2","","","","","","","","","","","",""
"null","<span class='add_' style='color:yellow; font-size: 70px;'> 太慢! </span>","null","html-keyboard-response","10","450114","0.0-7.0-1.0-1.0-0.0-1.0","3","3","3","3","2","3","3","2","3","3","4","4","2","2","2","4","3","2","4","4","4","4","2","2","2","2","2","2","2","1","1","1","1","1","1","1","0","0","0","1","0","0","0","1","3","2","4","1","4","5","4","4","4","4","3","798934746745937922","许","433","","","","","","","","","","","","","","","","","","","","","","","","","","","","","","feedback_test","","","","","","","","","","","",""
"null","","null","psychophysics","11","452327","0.0-7.0-1.0-1.0-0.0-0.1","3","3","3","3","2","3","3","2","3","3","4","4","2","2","2","4","3","2","4","4","4","4","2","2","2","2","2","2","2","1","1","1","1","1","1","1","0","0","0","1","0","0","0","1","3","2","4","1","4","5","4","4","4","4","3","798934746745937922","许","433","","","","null","","","","","","","","","","","","","","key","null","16.663335877862576","768","428","f","false","nonmatch","img/triangle.png","圆形","三角","ALT1_2","prac_ALT1_2","","","","","","","","","","","",""
"null","<span class='add_' style='color:yellow; font-size: 70px;'> 太慢! </span>","null","html-keyboard-response","12","452829","0.0-7.0-1.0-1.0-0.0-1.1","3","3","3","3","2","3","3","2","3","3","4","4","2","2","2","4","3","2","4","4","4","4","2","2","2","2","2","2","2","1","1","1","1","1","1","1","0","0","0","1","0","0","0","1","3","2","4","1","4","5","4","4","4","4","3","798934746745937922","许","433","","","","","","","","","","","","","","","","","","","","","","","","","","","","","","feedback_test","","","","","","","","","","","",""
"null","","null","psychophysics","13","455032","0.0-7.0-1.0-1.0-0.0-0.2","3","3","3","3","2","3","3","2","3","3","4","4","2","2","2","4","3","2","4","4","4","4","2","2","2","2","2","2","2","1","1","1","1","1","1","1","0","0","0","1","0","0","0","1","3","2","4","1","4","5","4","4","4","4","3","798934746745937922","许","433","","","","null","","","","","","","","","","","","","","key","null","16.663671755725126","768","428","j","false","match","img/triangle.png","三角","三角","ALT1_2","prac_ALT1_2","","","","","","","","","","","",""
"null","<span class='add_' style='color:yellow; font-size: 70px;'> 太慢! </span>","null","html-keyboard-response","14","455534","0.0-7.0-1.0-1.0-0.0-1.2","3","3","3","3","2","3","3","2","3","3","4","4","2","2","2","4","3","2","4","4","4","4","2","2","2","2","2","2","2","1","1","1","1","1","1","1","0","0","0","1","0","0","0","1","3","2","4","1","4","5","4","4","4","4","3","798934746745937922","许","433","","","","","","","","","","","","","","","","","","","","","","","","","","","","","","feedback_test","","","","","","","","","","","",""
"982","","j","psychophysics","15","457520","0.0-7.0-1.0-1.0-0.0-0.3","3","3","3","3","2","3","3","2","3","3","4","4","2","2","2","4","3","2","4","4","4","4","2","2","2","2","2","2","2","1","1","1","1","1","1","1","0","0","0","1","0","0","0","1","3","2","4","1","4","5","4","4","4","4","3","798934746745937922","许","433","","","","match","","","","","","","","","","","","","","key","j","16.66439830508454","768","428","f","false","nonmatch","img/circle.png","三角","圆形","ALT1_2","prac_ALT1_2","","","","","","","","","","","",""
"null","<span style='color:red; font-size: 70px;'>错误! </span>","null","html-keyboard-response","16","458024","0.0-7.0-1.0-1.0-0.0-1.3","3","3","3","3","2","3","3","2","3","3","4","4","2","2","2","4","3","2","4","4","4","4","2","2","2","2","2","2","2","1","1","1","1","1","1","1","0","0","0","1","0","0","0","1","3","2","4","1","4","5","4","4","4","4","3","798934746745937922","许","433","","","","","","","","","","","","","","","","","","","","","","","","","","","","","","feedback_test","","","","","","","","","","","",""
"null","","null","psychophysics","17","460231","0.0-7.0-1.0-1.0-0.0-0.4","3","3","3","3","2","3","3","2","3","3","4","4","2","2","2","4","3","2","4","4","4","4","2","2","2","2","2","2","2","1","1","1","1","1","1","1","0","0","0","1","0","0","0","1","3","2","4","1","4","5","4","4","4","4","3","798934746745937922","许","433","","","","null","","","","","","","","","","","","","","key","null","16.664575757575662","768","428","j","false","match","img/hexagon.png","六边","六边","ALT1_2","prac_ALT1_2","","","","","","","","","","","",""
"null","<span class='add_' style='color:yellow; font-size: 70px;'> 太慢! </span>","null","html-keyboard-response","18","460735","0.0-7.0-1.0-1.0-0.0-1.4","3","3","3","3","2","3","3","2","3","3","4","4","2","2","2","4","3","2","4","4","4","4","2","2","2","2","2","2","2","1","1","1","1","1","1","1","0","0","0","1","0","0","0","1","3","2","4","1","4","5","4","4","4","4","3","798934746745937922","许","433","","","","","","","","","","","","","","","","","","","","","","","","","","","","","","feedback_test","","","","","","","","","","","",""
"null","","null","psychophysics","19","462941","0.0-7.0-1.0-1.0-0.0-0.5","3","3","3","3","2","3","3","2","3","3","4","4","2","2","2","4","3","2","4","4","4","4","2","2","2","2","2","2","2","1","1","1","1","1","1","1","0","0","0","1","0","0","0","1","3","2","4","1","4","5","4","4","4","4","3","798934746745937922","许","433","","","","null","","","","","","","","","","","","","","key","null","16.665183206106615","768","428","f","false","nonmatch","img/circle.png","梯形","圆形","ALT1_2","prac_ALT1_2","","","","","","","","","","","",""
"null","<span class='add_' style='color:yellow; font-size: 70px;'> 太慢! </span>","null","html-keyboard-response","20","463444","0.0-7.0-1.0-1.0-0.0-1.5","3","3","3","3","2","3","3","2","3","3","4","4","2","2","2","4","3","2","4","4","4","4","2","2","2","2","2","2","2","1","1","1","1","1","1","1","0","0","0","1","0","0","0","1","3","2","4","1","4","5","4","4","4","4","3","798934746745937922","许","433","","","","","","","","","","","","","","","","","","","","","","","","","","","","","","feedback_test","","","","","","","","","","","",""
"null","","null","psychophysics","21","465652","0.0-7.0-1.0-1.0-0.0-0.6","3","3","3","3","2","3","3","2","3","3","4","4","2","2","2","4","3","2","4","4","4","4","2","2","2","2","2","2","2","1","1","1","1","1","1","1","0","0","0","1","0","0","0","1","3","2","4","1","4","5","4","4","4","4","3","798934746745937922","许","433","","","","null","","","","","","","","","","","","","","key","null","16.665183206106615","768","428","j","false","match","img/triangle.png","三角","三角","ALT1_2","prac_ALT1_2","","","","","","","","","","","",""
"null","<span class='add_' style='color:yellow; font-size: 70px;'> 太慢! </span>","null","html-keyboard-response","22","466155","0.0-7.0-1.0-1.0-0.0-1.6","3","3","3","3","2","3","3","2","3","3","4","4","2","2","2","4","3","2","4","4","4","4","2","2","2","2","2","2","2","1","1","1","1","1","1","1","0","0","0","1","0","0","0","1","3","2","4","1","4","5","4","4","4","4","3","798934746745937922","许","433","","","","","","","","","","","","","","","","","","","","","","","","","","","","","","feedback_test","","","","","","","","","","","",""
"null","","null","psychophysics","23","468363","0.0-7.0-1.0-1.0-0.0-0.7","3","3","3","3","2","3","3","2","3","3","4","4","2","2","2","4","3","2","4","4","4","4","2","2","2","2","2","2","2","1","1","1","1","1","1","1","0","0","0","1","0","0","0","1","3","2","4","1","4","5","4","4","4","4","3","798934746745937922","许","433","","","","null","","","","","","","","","","","","","","key","null","16.664090909091158","768","428","j","false","match","img/circle.png","圆形","圆形","ALT1_2","prac_ALT1_2","","","","","","","","","","","",""
"null","<span class='add_' style='color:yellow; font-size: 70px;'> 太慢! </span>","null","html-keyboard-response","24","468866","0.0-7.0-1.0-1.0-0.0-1.7","3","3","3","3","2","3","3","2","3","3","4","4","2","2","2","4","3","2","4","4","4","4","2","2","2","2","2","2","2","1","1","1","1","1","1","1","0","0","0","1","0","0","0","1","3","2","4","1","4","5","4","4","4","4","3","798934746745937922","许","433","","","","","","","","","","","","","","","","","","","","","","","","","","","","","","feedback_test","","","","","","","","","","","",""
"null","","null","psychophysics","25","471073","0.0-7.0-1.0-1.0-0.0-0.8","3","3","3","3","2","3","3","2","3","3","4","4","2","2","2","4","3","2","4","4","4","4","2","2","2","2","2","2","2","1","1","1","1","1","1","1","0","0","0","1","0","0","0","1","3","2","4","1","4","5","4","4","4","4","3","798934746745937922","许","433","","","","null","","","","","","","","","","","","","","key","null","16.66519847328247","768","428","f","false","nonmatch","img/trapezoid.png","六边","梯形","ALT1_2","prac_ALT1_2","","","","","","","","","","","",""
"null","<span class='add_' style='color:yellow; font-size: 70px;'> 太慢! </span>","null","html-keyboard-response","26","471575","0.0-7.0-1.0-1.0-0.0-1.8","3","3","3","3","2","3","3","2","3","3","4","4","2","2","2","4","3","2","4","4","4","4","2","2","2","2","2","2","2","1","1","1","1","1","1","1","0","0","0","1","0","0","0","1","3","2","4","1","4","5","4","4","4","4","3","798934746745937922","许","433","","","","","","","","","","","","","","","","","","","","","","","","","","","","","","feedback_test","","","","","","","","","","","",""
"null","","null","psychophysics","27","473784","0.0-7.0-1.0-1.0-0.0-0.9","3","3","3","3","2","3","3","2","3","3","4","4","2","2","2","4","3","2","4","4","4","4","2","2","2","2","2","2","2","1","1","1","1","1","1","1","0","0","0","1","0","0","0","1","3","2","4","1","4","5","4","4","4","4","3","798934746745937922","许","433","","","","null","","","","","","","","","","","","","","key","null","16.665251908396844","768","428","j","false","match","img/triangle.png","三角","三角","ALT1_2","prac_ALT1_2","","","","","","","","","","","",""
"null","<span class='add_' style='color:yellow; font-size: 70px;'> 太慢! </span>","null","html-keyboard-response","28","474287","0.0-7.0-1.0-1.0-0.0-1.9","3","3","3","3","2","3","3","2","3","3","4","4","2","2","2","4","3","2","4","4","4","4","2","2","2","2","2","2","2","1","1","1","1","1","1","1","0","0","0","1","0","0","0","1","3","2","4","1","4","5","4","4","4","4","3","798934746745937922","许","433","","","","","","","","","","","","","","","","","","","","","","","","","","","","","","feedback_test","","","","","","","","","","","",""
"null","","null","psychophysics","29","476495","0.0-7.0-1.0-1.0-0.0-0.10","3","3","3","3","2","3","3","2","3","3","4","4","2","2","2","4","3","2","4","4","4","4","2","2","2","2","2","2","2","1","1","1","1","1","1","1","0","0","0","1","0","0","0","1","3","2","4","1","4","5","4","4","4","4","3","798934746745937922","许","433","","","","null","","","","","","","","","","","","","","key","null","16.664454545454426","768","428","j","false","match","img/trapezoid.png","梯形","梯形","ALT1_2","prac_ALT1_2","","","","","","","","","","","",""
"null","<span class='add_' style='color:yellow; font-size: 70px;'> 太慢! </span>","null","html-keyboard-response","30","476999","0.0-7.0-1.0-1.0-0.0-1.10","3","3","3","3","2","3","3","2","3","3","4","4","2","2","2","4","3","2","4","4","4","4","2","2","2","2","2","2","2","1","1","1","1","1","1","1","0","0","0","1","0","0","0","1","3","2","4","1","4","5","4","4","4","4","3","798934746745937922","许","433","","","","","","","","","","","","","","","","","","","","","","","","","","","","","","feedback_test","","","","","","","","","","","",""
"null","","null","psychophysics","31","479206","0.0-7.0-1.0-1.0-0.0-0.11","3","3","3","3","2","3","3","2","3","3","4","4","2","2","2","4","3","2","4","4","4","4","2","2","2","2","2","2","2","1","1","1","1","1","1","1","0","0","0","1","0","0","0","1","3","2","4","1","4","5","4","4","4","4","3","798934746745937922","许","433","","","","null","","","","","","","","","","","","","","key","null","16.664946564885554","768","428","j","false","match","img/trapezoid.png","梯形","梯形","ALT1_2","prac_ALT1_2","","","","","","","","","","","",""
"null","<span class='add_' style='color:yellow; font-size: 70px;'> 太慢! </span>","null","html-keyboard-response","32","479709","0.0-7.0-1.0-1.0-0.0-1.11","3","3","3","3","2","3","3","2","3","3","4","4","2","2","2","4","3","2","4","4","4","4","2","2","2","2","2","2","2","1","1","1","1","1","1","1","0","0","0","1","0","0","0","1","3","2","4","1","4","5","4","4","4","4","3","798934746745937922","许","433","","","","","","","","","","","","","","","","","","","","","","","","","","","","","","feedback_test","","","","","","","","","","","",""
"null","","null","psychophysics","33","481915","0.0-7.0-1.0-1.0-0.0-0.12","3","3","3","3","2","3","3","2","3","3","4","4","2","2","2","4","3","2","4","4","4","4","2","2","2","2","2","2","2","1","1","1","1","1","1","1","0","0","0","1","0","0","0","1","3","2","4","1","4","5","4","4","4","4","3","798934746745937922","许","433","","","","null","","","","","","","","","","","","","","key","null","16.66453435114507","768","428","f","false","nonmatch","img/hexagon.png","梯形","六边","ALT1_2","prac_ALT1_2","","","","","","","","","","","",""
"null","<span class='add_' style='color:yellow; font-size: 70px;'> 太慢! </span>","null","html-keyboard-response","34","482419","0.0-7.0-1.0-1.0-0.0-1.12","3","3","3","3","2","3","3","2","3","3","4","4","2","2","2","4","3","2","4","4","4","4","2","2","2","2","2","2","2","1","1","1","1","1","1","1","0","0","0","1","0","0","0","1","3","2","4","1","4","5","4","4","4","4","3","798934746745937922","许","433","","","","","","","","","","","","","","","","","","","","","","","","","","","","","","feedback_test","","","","","","","","","","","",""
"null","","null","psychophysics","35","484626","0.0-7.0-1.0-1.0-0.0-0.13","3","3","3","3","2","3","3","2","3","3","4","4","2","2","2","4","3","2","4","4","4","4","2","2","2","2","2","2","2","1","1","1","1","1","1","1","0","0","0","1","0","0","0","1","3","2","4","1","4","5","4","4","4","4","3","798934746745937922","许","433","","","","null","","","","","","","","","","","","","","key","null","16.663348484848306","768","428","f","false","nonmatch","img/hexagon.png","三角","六边","ALT1_2","prac_ALT1_2","","","","","","","","","","","",""
"null","<span class='add_' style='color:yellow; font-size: 70px;'> 太慢! </span>","null","html-keyboard-response","36","485128","0.0-7.0-1.0-1.0-0.0-1.13","3","3","3","3","2","3","3","2","3","3","4","4","2","2","2","4","3","2","4","4","4","4","2","2","2","2","2","2","2","1","1","1","1","1","1","1","0","0","0","1","0","0","0","1","3","2","4","1","4","5","4","4","4","4","3","798934746745937922","许","433","","","","","","","","","","","","","","","","","","","","","","","","","","","","","","feedback_test","","","","","","","","","","","",""
"null","","null","psychophysics","37","487334","0.0-7.0-1.0-1.0-0.0-0.14","3","3","3","3","2","3","3","2","3","3","4","4","2","2","2","4","3","2","4","4","4","4","2","2","2","2","2","2","2","1","1","1","1","1","1","1","0","0","0","1","0","0","0","1","3","2","4","1","4","5","4","4","4","4","3","798934746745937922","许","433","","","","null","","","","","","","","","","","","","","key","null","16.66448091603069","768","428","j","false","match","img/hexagon.png","六边","六边","ALT1_2","prac_ALT1_2","","","","","","","","","","","",""
"null","<span class='add_' style='color:yellow; font-size: 70px;'> 太慢! </span>","null","html-keyboard-response","38","487837","0.0-7.0-1.0-1.0-0.0-1.14","3","3","3","3","2","3","3","2","3","3","4","4","2","2","2","4","3","2","4","4","4","4","2","2","2","2","2","2","2","1","1","1","1","1","1","1","0","0","0","1","0","0","0","1","3","2","4","1","4","5","4","4","4","4","3","798934746745937922","许","433","","","","","","","","","","","","","","","","","","","","","","","","","","","","","","feedback_test","","","","","","","","","","","",""
"null","","null","psychophysics","39","490045","0.0-7.0-1.0-1.0-0.0-0.15","3","3","3","3","2","3","3","2","3","3","4","4","2","2","2","4","3","2","4","4","4","4","2","2","2","2","2","2","2","1","1","1","1","1","1","1","0","0","0","1","0","0","0","1","3","2","4","1","4","5","4","4","4","4","3","798934746745937922","许","433","","","","null","","","","","","","","","","","","","","key","null","16.664801526717834","768","428","j","false","match","img/circle.png","圆形","圆形","ALT1_2","prac_ALT1_2","","","","","","","","","","","",""
"null","<span class='add_' style='color:yellow; font-size: 70px;'> 太慢! </span>","null","html-keyboard-response","40","490548","0.0-7.0-1.0-1.0-0.0-1.15","3","3","3","3","2","3","3","2","3","3","4","4","2","2","2","4","3","2","4","4","4","4","2","2","2","2","2","2","2","1","1","1","1","1","1","1","0","0","0","1","0","0","0","1","3","2","4","1","4","5","4","4","4","4","3","798934746745937922","许","433","","","","","","","","","","","","","","","","","","","","","","","","","","","","","","feedback_test","","","","","","","","","","","",""
"null","","null","psychophysics","41","492758","0.0-7.0-1.0-1.0-0.0-0.16","3","3","3","3","2","3","3","2","3","3","4","4","2","2","2","4","3","2","4","4","4","4","2","2","2","2","2","2","2","1","1","1","1","1","1","1","0","0","0","1","0","0","0","1","3","2","4","1","4","5","4","4","4","4","3","798934746745937922","许","433","","","","null","","","","","","","","","","","","","","key","null","16.66449242424234","768","428","f","false","nonmatch","img/circle.png","六边","圆形","ALT1_2","prac_ALT1_2","","","","","","","","","","","",""
"null","<span class='add_' style='color:yellow; font-size: 70px;'> 太慢! </span>","null","html-keyboard-response","42","493261","0.0-7.0-1.0-1.0-0.0-1.16","3","3","3","3","2","3","3","2","3","3","4","4","2","2","2","4","3","2","4","4","4","4","2","2","2","2","2","2","2","1","1","1","1","1","1","1","0","0","0","1","0","0","0","1","3","2","4","1","4","5","4","4","4","4","3","798934746745937922","许","433","","","","","","","","","","","","","","","","","","","","","","","","","","","","","","feedback_test","","","","","","","","","","","",""
"null","","null","psychophysics","43","495468","0.0-7.0-1.0-1.0-0.0-0.17","3","3","3","3","2","3","3","2","3","3","4","4","2","2","2","4","3","2","4","4","4","4","2","2","2","2","2","2","2","1","1","1","1","1","1","1","0","0","0","1","0","0","0","1","3","2","4","1","4","5","4","4","4","4","3","798934746745937922","许","433","","","","null","","","","","","","","","","","","","","key","null","16.66511450381683","768","428","f","false","nonmatch","img/hexagon.png","圆形","六边","ALT1_2","prac_ALT1_2","","","","","","","","","","","",""
"null","<span class='add_' style='color:yellow; font-size: 70px;'> 太慢! </span>","null","html-keyboard-response","44","495971","0.0-7.0-1.0-1.0-0.0-1.17","3","3","3","3","2","3","3","2","3","3","4","4","2","2","2","4","3","2","4","4","4","4","2","2","2","2","2","2","2","1","1","1","1","1","1","1","0","0","0","1","0","0","0","1","3","2","4","1","4","5","4","4","4","4","3","798934746745937922","许","433","","","","","","","","","","","","","","","","","","","","","","","","","","","","","","feedback_test","","","","","","","","","","","",""
"null","","null","psychophysics","45","498179","0.0-7.0-1.0-1.0-0.0-0.18","3","3","3","3","2","3","3","2","3","3","4","4","2","2","2","4","3","2","4","4","4","4","2","2","2","2","2","2","2","1","1","1","1","1","1","1","0","0","0","1","0","0","0","1","3","2","4","1","4","5","4","4","4","4","3","798934746745937922","许","433","","","","null","","","","","","","","","","","","","","key","null","16.663694656488683","768","428","j","false","match","img/hexagon.png","六边","六边","ALT1_2","prac_ALT1_2","","","","","","","","","","","",""
"null","<span class='add_' style='color:yellow; font-size: 70px;'> 太慢! </span>","null","html-keyboard-response","46","498681","0.0-7.0-1.0-1.0-0.0-1.18","3","3","3","3","2","3","3","2","3","3","4","4","2","2","2","4","3","2","4","4","4","4","2","2","2","2","2","2","2","1","1","1","1","1","1","1","0","0","0","1","0","0","0","1","3","2","4","1","4","5","4","4","4","4","3","798934746745937922","许","433","","","","","","","","","","","","","","","","","","","","","","","","","","","","","","feedback_test","","","","","","","","","","","",""
"null","","null","psychophysics","47","500890","0.0-7.0-1.0-1.0-0.0-0.19","3","3","3","3","2","3","3","2","3","3","4","4","2","2","2","4","3","2","4","4","4","4","2","2","2","2","2","2","2","1","1","1","1","1","1","1","0","0","0","1","0","0","0","1","3","2","4","1","4","5","4","4","4","4","3","798934746745937922","许","433","","","","null","","","","","","","","","","","","","","key","null","16.600227272727132","768","428","f","false","nonmatch","img/trapezoid.png","三角","梯形","ALT1_2","prac_ALT1_2","","","","","","","","","","","",""
"null","<span class='add_' style='color:yellow; font-size: 70px;'> 太慢! </span>","null","html-keyboard-response","48","501392","0.0-7.0-1.0-1.0-0.0-1.19","3","3","3","3","2","3","3","2","3","3","4","4","2","2","2","4","3","2","4","4","4","4","2","2","2","2","2","2","2","1","1","1","1","1","1","1","0","0","0","1","0","0","0","1","3","2","4","1","4","5","4","4","4","4","3","798934746745937922","许","433","","","","","","","","","","","","","","","","","","","","","","","","","","","","","","feedback_test","","","","","","","","","","","",""
"null","","null","psychophysics","49","503606","0.0-7.0-1.0-1.0-0.0-0.20","3","3","3","3","2","3","3","2","3","3","4","4","2","2","2","4","3","2","4","4","4","4","2","2","2","2","2","2","2","1","1","1","1","1","1","1","0","0","0","1","0","0","0","1","3","2","4","1","4","5","4","4","4","4","3","798934746745937922","许","433","","","","null","","","","","","","","","","","","","","key","null","16.665174242423912","768","428","j","false","match","img/circle.png","圆形","圆形","ALT1_2","prac_ALT1_2","","","","","","","","","","","",""
"null","<span class='add_' style='color:yellow; font-size: 70px;'> 太慢! </span>","null","html-keyboard-response","50","504110","0.0-7.0-1.0-1.0-0.0-1.20","3","3","3","3","2","3","3","2","3","3","4","4","2","2","2","4","3","2","4","4","4","4","2","2","2","2","2","2","2","1","1","1","1","1","1","1","0","0","0","1","0","0","0","1","3","2","4","1","4","5","4","4","4","4","3","798934746745937922","许","433","","","","","","","","","","","","","","","","","","","","","","","","","","","","","","feedback_test","","","","","","","","","","","",""
"null","","null","psychophysics","51","506318","0.0-7.0-1.0-1.0-0.0-0.21","3","3","3","3","2","3","3","2","3","3","4","4","2","2","2","4","3","2","4","4","4","4","2","2","2","2","2","2","2","1","1","1","1","1","1","1","0","0","0","1","0","0","0","1","3","2","4","1","4","5","4","4","4","4","3","798934746745937922","许","433","","","","null","","","","","","","","","","","","","","key","null","16.66509160305327","768","428","j","false","match","img/trapezoid.png","梯形","梯形","ALT1_2","prac_ALT1_2","","","","","","","","","","","",""
"null","<span class='add_' style='color:yellow; font-size: 70px;'> 太慢! </span>","null","html-keyboard-response","52","506821","0.0-7.0-1.0-1.0-0.0-1.21","3","3","3","3","2","3","3","2","3","3","4","4","2","2","2","4","3","2","4","4","4","4","2","2","2","2","2","2","2","1","1","1","1","1","1","1","0","0","0","1","0","0","0","1","3","2","4","1","4","5","4","4","4","4","3","798934746745937922","许","433","","","","","","","","","","","","","","","","","","","","","","","","","","","","","","feedback_test","","","","","","","","","","","",""
"850","","j","psychophysics","53","508675","0.0-7.0-1.0-1.0-0.0-0.22","3","3","3","3","2","3","3","2","3","3","4","4","2","2","2","4","3","2","4","4","4","4","2","2","2","2","2","2","2","1","1","1","1","1","1","1","0","0","0","1","0","0","0","1","3","2","4","1","4","5","4","4","4","4","3","798934746745937922","许","433","","","","match","","","","","","","","","","","","","","key","j","16.66389999999982","768","428","f","false","nonmatch","img/triangle.png","六边","三角","ALT1_2","prac_ALT1_2","","","","","","","","","","","",""
"null","<span style='color:red; font-size: 70px;'>错误! </span>","null","html-keyboard-response","54","509185","0.0-7.0-1.0-1.0-0.0-1.22","3","3","3","3","2","3","3","2","3","3","4","4","2","2","2","4","3","2","4","4","4","4","2","2","2","2","2","2","2","1","1","1","1","1","1","1","0","0","0","1","0","0","0","1","3","2","4","1","4","5","4","4","4","4","3","798934746745937922","许","433","","","","","","","","","","","","","","","","","","","","","","","","","","","","","","feedback_test","","","","","","","","","","","",""
"null","","null","psychophysics","55","511392","0.0-7.0-1.0-1.0-0.0-0.23","3","3","3","3","2","3","3","2","3","3","4","4","2","2","2","4","3","2","4","4","4","4","2","2","2","2","2","2","2","1","1","1","1","1","1","1","0","0","0","1","0","0","0","1","3","2","4","1","4","5","4","4","4","4","3","798934746745937922","许","433","","","","null","","","","","","","","","","","","","","key","null","16.665122137404534","768","428","f","false","nonmatch","img/trapezoid.png","圆形","梯形","ALT1_2","prac_ALT1_2","","","","","","","","","","","",""
"null","<span class='add_' style='color:yellow; font-size: 70px;'> 太慢! </span>","null","html-keyboard-response","56","511895","0.0-7.0-1.0-1.0-0.0-1.23","3","3","3","3","2","3","3","2","3","3","4","4","2","2","2","4","3","2","4","4","4","4","2","2","2","2","2","2","2","1","1","1","1","1","1","1","0","0","0","1","0","0","0","1","3","2","4","1","4","5","4","4","4","4","3","798934746745937922","许","433","","","","","","","","","","","","","","","","","","","","","","","","","","","","","","feedback_test","","","","","","","","","","","",""
"660","","f","psychophysics","57","513561","0.0-7.0-1.0-1.0-0.0-0.24","3","3","3","3","2","3","3","2","3","3","4","4","2","2","2","4","3","2","4","4","4","4","2","2","2","2","2","2","2","1","1","1","1","1","1","1","0","0","0","1","0","0","0","1","3","2","4","1","4","5","4","4","4","4","3","798934746745937922","许","433","","","","nonmatch","","","","","","","","","","","","","","key","f","16.664646464646935","768","428","j","false","match","img/triangle.png","三角","三角","ALT1_2","prac_ALT1_2","","","","","","","","","","","",""
"null","<span style='color:red; font-size: 70px;'>错误! </span>","null","html-keyboard-response","58","514064","0.0-7.0-1.0-1.0-0.0-1.24","3","3","3","3","2","3","3","2","3","3","4","4","2","2","2","4","3","2","4","4","4","4","2","2","2","2","2","2","2","1","1","1","1","1","1","1","0","0","0","1","0","0","0","1","3","2","4","1","4","5","4","4","4","4","3","798934746745937922","许","433","","","","","","","","","","","","","","","","","","","","","","","","","","","","","","feedback_test","","","","","","","","","","","",""
"1087","","j","psychophysics","59","516155","0.0-7.0-1.0-1.0-0.0-0.25","3","3","3","3","2","3","3","2","3","3","4","4","2","2","2","4","3","2","4","4","4","4","2","2","2","2","2","2","2","1","1","1","1","1","1","1","0","0","0","1","0","0","0","1","3","2","4","1","4","5","4","4","4","4","3","798934746745937922","许","433","","","","match","","","","","","","","","","","","","","key","j","16.666128000000025","768","428","j","true","match","img/circle.png","圆形","圆形","ALT1_2","prac_ALT1_2","","","","","","","","","","","",""
"null","<span style='color:GreenYellow; font-size: 70px;'>正确! </span>","null","html-keyboard-response","60","516657","0.0-7.0-1.0-1.0-0.0-1.25","3","3","3","3","2","3","3","2","3","3","4","4","2","2","2","4","3","2","4","4","4","4","2","2","2","2","2","2","2","1","1","1","1","1","1","1","0","0","0","1","0","0","0","1","3","2","4","1","4","5","4","4","4","4","3","798934746745937922","许","433","","","","","","","","","","","","","","","","","","","","","","","","","","","","","","feedback_test","","","","","","","","","","","",""
"604","","j","psychophysics","61","518264","0.0-7.0-1.0-1.0-0.0-0.26","3","3","3","3","2","3","3","2","3","3","4","4","2","2","2","4","3","2","4","4","4","4","2","2","2","2","2","2","2","1","1","1","1","1","1","1","0","0","0","1","0","0","0","1","3","2","4","1","4","5","4","4","4","4","3","798934746745937922","许","433","","","","match","","","","","","","","","","","","","","key","j","16.663326315788897","768","428","f","false","nonmatch","img/circle.png","六边","圆形","ALT1_2","prac_ALT1_2","","","","","","","","","","","",""
"null","<span style='color:red; font-size: 70px;'>错误! </span>","null","html-keyboard-response","62","518767","0.0-7.0-1.0-1.0-0.0-1.26","3","3","3","3","2","3","3","2","3","3","4","4","2","2","2","4","3","2","4","4","4","4","2","2","2","2","2","2","2","1","1","1","1","1","1","1","0","0","0","1","0","0","0","1","3","2","4","1","4","5","4","4","4","4","3","798934746745937922","许","433","","","","","","","","","","","","","","","","","","","","","","","","","","","","","","feedback_test","","","","","","","","","","","",""
"792","","j","psychophysics","63","520562","0.0-7.0-1.0-1.0-0.0-0.27","3","3","3","3","2","3","3","2","3","3","4","4","2","2","2","4","3","2","4","4","4","4","2","2","2","2","2","2","2","1","1","1","1","1","1","1","0","0","0","1","0","0","0","1","3","2","4","1","4","5","4","4","4","4","3","798934746745937922","许","433","","","","match","","","","","","","","","","","","","","key","j","16.664792452830127","768","428","f","false","nonmatch","img/triangle.png","圆形","三角","ALT1_2","prac_ALT1_2","","","","","","","","","","","",""
"null","<span style='color:red; font-size: 70px;'>错误! </span>","null","html-keyboard-response","64","521065","0.0-7.0-1.0-1.0-0.0-1.27","3","3","3","3","2","3","3","2","3","3","4","4","2","2","2","4","3","2","4","4","4","4","2","2","2","2","2","2","2","1","1","1","1","1","1","1","0","0","0","1","0","0","0","1","3","2","4","1","4","5","4","4","4","4","3","798934746745937922","许","433","","","","","","","","","","","","","","","","","","","","","","","","","","","","","","feedback_test","","","","","","","","","","","",""
"649","","f","psychophysics","65","522717","0.0-7.0-1.0-1.0-0.0-0.28","3","3","3","3","2","3","3","2","3","3","4","4","2","2","2","4","3","2","4","4","4","4","2","2","2","2","2","2","2","1","1","1","1","1","1","1","0","0","0","1","0","0","0","1","3","2","4","1","4","5","4","4","4","4","3","798934746745937922","许","433","","","","nonmatch","","","","","","","","","","","","","","key","f","16.598701030928066","768","428","j","false","match","img/hexagon.png","六边","六边","ALT1_2","prac_ALT1_2","","","","","","","","","","","",""
"null","<span style='color:red; font-size: 70px;'>错误! </span>","null","html-keyboard-response","66","523220","0.0-7.0-1.0-1.0-0.0-1.28","3","3","3","3","2","3","3","2","3","3","4","4","2","2","2","4","3","2","4","4","4","4","2","2","2","2","2","2","2","1","1","1","1","1","1","1","0","0","0","1","0","0","0","1","3","2","4","1","4","5","4","4","4","4","3","798934746745937922","许","433","","","","","","","","","","","","","","","","","","","","","","","","","","","","","","feedback_test","","","","","","","","","","","",""
"null","","null","psychophysics","67","525428","0.0-7.0-1.0-1.0-0.0-0.29","3","3","3","3","2","3","3","2","3","3","4","4","2","2","2","4","3","2","4","4","4","4","2","2","2","2","2","2","2","1","1","1","1","1","1","1","0","0","0","1","0","0","0","1","3","2","4","1","4","5","4","4","4","4","3","798934746745937922","许","433","","","","null","","","","","","","","","","","","","","key","null","16.66475572519072","768","428","j","false","match","img/hexagon.png","六边","六边","ALT1_2","prac_ALT1_2","","","","","","","","","","","",""
"null","<span class='add_' style='color:yellow; font-size: 70px;'> 太慢! </span>","null","html-keyboard-response","68","525931","0.0-7.0-1.0-1.0-0.0-1.29","3","3","3","3","2","3","3","2","3","3","4","4","2","2","2","4","3","2","4","4","4","4","2","2","2","2","2","2","2","1","1","1","1","1","1","1","0","0","0","1","0","0","0","1","3","2","4","1","4","5","4","4","4","4","3","798934746745937922","许","433","","","","","","","","","","","","","","","","","","","","","","","","","","","","","","feedback_test","","","","","","","","","","","",""
"514","","j","psychophysics","69","527449","0.0-7.0-1.0-1.0-0.0-0.30","3","3","3","3","2","3","3","2","3","3","4","4","2","2","2","4","3","2","4","4","4","4","2","2","2","2","2","2","2","1","1","1","1","1","1","1","0","0","0","1","0","0","0","1","3","2","4","1","4","5","4","4","4","4","3","798934746745937922","许","433","","","","match","","","","","","","","","","","","","","key","j","16.66605617977506","768","428","j","true","match","img/hexagon.png","六边","六边","ALT1_2","prac_ALT1_2","","","","","","","","","","","",""
"null","<span style='color:GreenYellow; font-size: 70px;'>正确! </span>","null","html-keyboard-response","70","527951","0.0-7.0-1.0-1.0-0.0-1.30","3","3","3","3","2","3","3","2","3","3","4","4","2","2","2","4","3","2","4","4","4","4","2","2","2","2","2","2","2","1","1","1","1","1","1","1","0","0","0","1","0","0","0","1","3","2","4","1","4","5","4","4","4","4","3","798934746745937922","许","433","","","","","","","","","","","","","","","","","","","","","","","","","","","","","","feedback_test","","","","","","","","","","","",""
"665","","j","psychophysics","71","529621","0.0-7.0-1.0-1.0-0.0-0.31","3","3","3","3","2","3","3","2","3","3","4","4","2","2","2","4","3","2","4","4","4","4","2","2","2","2","2","2","2","1","1","1","1","1","1","1","0","0","0","1","0","0","0","1","3","2","4","1","4","5","4","4","4","4","3","798934746745937922","许","433","","","","match","","","","","","","","","","","","","","key","j","16.664565656565816","768","428","f","false","nonmatch","img/hexagon.png","三角","六边","ALT1_2","prac_ALT1_2","","","","","","","","","","","",""
"null","<span style='color:red; font-size: 70px;'>错误! </span>","null","html-keyboard-response","72","530123","0.0-7.0-1.0-1.0-0.0-1.31","3","3","3","3","2","3","3","2","3","3","4","4","2","2","2","4","3","2","4","4","4","4","2","2","2","2","2","2","2","1","1","1","1","1","1","1","0","0","0","1","0","0","0","1","3","2","4","1","4","5","4","4","4","4","3","798934746745937922","许","433","","","","","","","","","","","","","","","","","","","","","","","","","","","","","","feedback_test","","","","","","","","","","","",""
"638","","j","psychophysics","73","531765","0.0-7.0-1.0-1.0-0.0-0.32","3","3","3","3","2","3","3","2","3","3","4","4","2","2","2","4","3","2","4","4","4","4","2","2","2","2","2","2","2","1","1","1","1","1","1","1","0","0","0","1","0","0","0","1","3","2","4","1","4","5","4","4","4","4","3","798934746745937922","许","433","","","","match","","","","","","","","","","","","","","key","j","16.66508247422717","768","428","j","true","match","img/triangle.png","三角","三角","ALT1_2","prac_ALT1_2","","","","","","","","","","","",""
"null","<span style='color:GreenYellow; font-size: 70px;'>正确! </span>","null","html-keyboard-response","74","532268","0.0-7.0-1.0-1.0-0.0-1.32","3","3","3","3","2","3","3","2","3","3","4","4","2","2","2","4","3","2","4","4","4","4","2","2","2","2","2","2","2","1","1","1","1","1","1","1","0","0","0","1","0","0","0","1","3","2","4","1","4","5","4","4","4","4","3","798934746745937922","许","433","","","","","","","","","","","","","","","","","","","","","","","","","","","","","","feedback_test","","","","","","","","","","","",""
"953","","f","psychophysics","75","534225","0.0-7.0-1.0-1.0-0.0-0.33","3","3","3","3","2","3","3","2","3","3","4","4","2","2","2","4","3","2","4","4","4","4","2","2","2","2","2","2","2","1","1","1","1","1","1","1","0","0","0","1","0","0","0","1","3","2","4","1","4","5","4","4","4","4","3","798934746745937922","许","433","","","","nonmatch","","","","","","","","","","","","","","key","f","16.664810344827732","768","428","f","true","nonmatch","img/triangle.png","六边","三角","ALT1_2","prac_ALT1_2","","","","","","","","","","","",""
"null","<span style='color:GreenYellow; font-size: 70px;'>正确! </span>","null","html-keyboard-response","76","534727","0.0-7.0-1.0-1.0-0.0-1.33","3","3","3","3","2","3","3","2","3","3","4","4","2","2","2","4","3","2","4","4","4","4","2","2","2","2","2","2","2","1","1","1","1","1","1","1","0","0","0","1","0","0","0","1","3","2","4","1","4","5","4","4","4","4","3","798934746745937922","许","433","","","","","","","","","","","","","","","","","","","","","","","","","","","","","","feedback_test","","","","","","","","","","","",""
"694","","j","psychophysics","77","536425","0.0-7.0-1.0-1.0-0.0-0.34","3","3","3","3","2","3","3","2","3","3","4","4","2","2","2","4","3","2","4","4","4","4","2","2","2","2","2","2","2","1","1","1","1","1","1","1","0","0","0","1","0","0","0","1","3","2","4","1","4","5","4","4","4","4","3","798934746745937922","许","433","","","","match","","","","","","","","","","","","","","key","j","16.665148514851992","768","428","j","true","match","img/circle.png","圆形","圆形","ALT1_2","prac_ALT1_2","","","","","","","","","","","",""
"null","<span style='color:GreenYellow; font-size: 70px;'>正确! </span>","null","html-keyboard-response","78","536927","0.0-7.0-1.0-1.0-0.0-1.34","3","3","3","3","2","3","3","2","3","3","4","4","2","2","2","4","3","2","4","4","4","4","2","2","2","2","2","2","2","1","1","1","1","1","1","1","0","0","0","1","0","0","0","1","3","2","4","1","4","5","4","4","4","4","3","798934746745937922","许","433","","","","","","","","","","","","","","","","","","","","","","","","","","","","","","feedback_test","","","","","","","","","","","",""
"578","","j","psychophysics","79","538508","0.0-7.0-1.0-1.0-0.0-0.35","3","3","3","3","2","3","3","2","3","3","4","4","2","2","2","4","3","2","4","4","4","4","2","2","2","2","2","2","2","1","1","1","1","1","1","1","0","0","0","1","0","0","0","1","3","2","4","1","4","5","4","4","4","4","3","798934746745937922","许","433","","","","match","","","","","","","","","","","","","","key","j","16.664521276595398","768","428","f","false","nonmatch","img/hexagon.png","梯形","六边","ALT1_2","prac_ALT1_2","","","","","","","","","","","",""
"null","<span style='color:red; font-size: 70px;'>错误! </span>","null","html-keyboard-response","80","539011","0.0-7.0-1.0-1.0-0.0-1.35","3","3","3","3","2","3","3","2","3","3","4","4","2","2","2","4","3","2","4","4","4","4","2","2","2","2","2","2","2","1","1","1","1","1","1","1","0","0","0","1","0","0","0","1","3","2","4","1","4","5","4","4","4","4","3","798934746745937922","许","433","","","","","","","","","","","","","","","","","","","","","","","","","","","","","","feedback_test","","","","","","","","","","","",""
"658","","f","psychophysics","81","540673","0.0-7.0-1.0-1.0-0.0-0.36","3","3","3","3","2","3","3","2","3","3","4","4","2","2","2","4","3","2","4","4","4","4","2","2","2","2","2","2","2","1","1","1","1","1","1","1","0","0","0","1","0","0","0","1","3","2","4","1","4","5","4","4","4","4","3","798934746745937922","许","433","","","","nonmatch","","","","","","","","","","","","","","key","f","16.629153061224557","768","428","f","true","nonmatch","img/circle.png","梯形","圆形","ALT1_2","prac_ALT1_2","","","","","","","","","","","",""
"null","<span style='color:GreenYellow; font-size: 70px;'>正确! </span>","null","html-keyboard-response","82","541181","0.0-7.0-1.0-1.0-0.0-1.36","3","3","3","3","2","3","3","2","3","3","4","4","2","2","2","4","3","2","4","4","4","4","2","2","2","2","2","2","2","1","1","1","1","1","1","1","0","0","0","1","0","0","0","1","3","2","4","1","4","5","4","4","4","4","3","798934746745937922","许","433","","","","","","","","","","","","","","","","","","","","","","","","","","","","","","feedback_test","","","","","","","","","","","",""
"641","","j","psychophysics","83","542825","0.0-7.0-1.0-1.0-0.0-0.37","3","3","3","3","2","3","3","2","3","3","4","4","2","2","2","4","3","2","4","4","4","4","2","2","2","2","2","2","2","1","1","1","1","1","1","1","0","0","0","1","0","0","0","1","3","2","4","1","4","5","4","4","4","4","3","798934746745937922","许","433","","","","match","","","","","","","","","","","","","","key","j","16.664463917525563","768","428","j","true","match","img/circle.png","圆形","圆形","ALT1_2","prac_ALT1_2","","","","","","","","","","","",""
"null","<span style='color:GreenYellow; font-size: 70px;'>正确! </span>","null","html-keyboard-response","84","543328","0.0-7.0-1.0-1.0-0.0-1.37","3","3","3","3","2","3","3","2","3","3","4","4","2","2","2","4","3","2","4","4","4","4","2","2","2","2","2","2","2","1","1","1","1","1","1","1","0","0","0","1","0","0","0","1","3","2","4","1","4","5","4","4","4","4","3","798934746745937922","许","433","","","","","","","","","","","","","","","","","","","","","","","","","","","","","","feedback_test","","","","","","","","","","","",""
"736","","f","psychophysics","85","545066","0.0-7.0-1.0-1.0-0.0-0.38","3","3","3","3","2","3","3","2","3","3","4","4","2","2","2","4","3","2","4","4","4","4","2","2","2","2","2","2","2","1","1","1","1","1","1","1","0","0","0","1","0","0","0","1","3","2","4","1","4","5","4","4","4","4","3","798934746745937922","许","433","","","","nonmatch","","","","","","","","","","","","","","key","f","16.579252427183906","768","428","f","true","nonmatch","img/hexagon.png","圆形","六边","ALT1_2","prac_ALT1_2","","","","","","","","","","","",""
"null","<span style='color:GreenYellow; font-size: 70px;'>正确! </span>","null","html-keyboard-response","86","545569","0.0-7.0-1.0-1.0-0.0-1.38","3","3","3","3","2","3","3","2","3","3","4","4","2","2","2","4","3","2","4","4","4","4","2","2","2","2","2","2","2","1","1","1","1","1","1","1","0","0","0","1","0","0","0","1","3","2","4","1","4","5","4","4","4","4","3","798934746745937922","许","433","","","","","","","","","","","","","","","","","","","","","","","","","","","","","","feedback_test","","","","","","","","","","","",""
"null","","null","psychophysics","87","547775","0.0-7.0-1.0-1.0-0.0-0.39","3","3","3","3","2","3","3","2","3","3","4","4","2","2","2","4","3","2","4","4","4","4","2","2","2","2","2","2","2","1","1","1","1","1","1","1","0","0","0","1","0","0","0","1","3","2","4","1","4","5","4","4","4","4","3","798934746745937922","许","433","","","","null","","","","","","","","","","","","","","key","null","16.665564885496284","768","428","j","false","match","img/triangle.png","三角","三角","ALT1_2","prac_ALT1_2","","","","","","","","","","","",""
"null","<span class='add_' style='color:yellow; font-size: 70px;'> 太慢! </span>","null","html-keyboard-response","88","548279","0.0-7.0-1.0-1.0-0.0-1.39","3","3","3","3","2","3","3","2","3","3","4","4","2","2","2","4","3","2","4","4","4","4","2","2","2","2","2","2","2","1","1","1","1","1","1","1","0","0","0","1","0","0","0","1","3","2","4","1","4","5","4","4","4","4","3","798934746745937922","许","433","","","","","","","","","","","","","","","","","","","","","","","","","","","","","","feedback_test","","","","","","","","","","","",""
"886","","f","psychophysics","89","550168","0.0-7.0-1.0-1.0-0.0-0.40","3","3","3","3","2","3","3","2","3","3","4","4","2","2","2","4","3","2","4","4","4","4","2","2","2","2","2","2","2","1","1","1","1","1","1","1","0","0","0","1","0","0","0","1","3","2","4","1","4","5","4","4","4","4","3","798934746745937922","许","433","","","","nonmatch","","","","","","","","","","","","","","key","f","16.664919642857317","768","428","j","false","match","img/trapezoid.png","梯形","梯形","ALT1_2","prac_ALT1_2","","","","","","","","","","","",""
"null","<span style='color:red; font-size: 70px;'>错误! </span>","null","html-keyboard-response","90","550672","0.0-7.0-1.0-1.0-0.0-1.40","3","3","3","3","2","3","3","2","3","3","4","4","2","2","2","4","3","2","4","4","4","4","2","2","2","2","2","2","2","1","1","1","1","1","1","1","0","0","0","1","0","0","0","1","3","2","4","1","4","5","4","4","4","4","3","798934746745937922","许","433","","","","","","","","","","","","","","","","","","","","","","","","","","","","","","feedback_test","","","","","","","","","","","",""
"null","","null","psychophysics","91","552879","0.0-7.0-1.0-1.0-0.0-0.41","3","3","3","3","2","3","3","2","3","3","4","4","2","2","2","4","3","2","4","4","4","4","2","2","2","2","2","2","2","1","1","1","1","1","1","1","0","0","0","1","0","0","0","1","3","2","4","1","4","5","4","4","4","4","3","798934746745937922","许","433","","","","null","","","","","","","","","","","","","","key","null","16.663962121212425","768","428","f","false","nonmatch","img/triangle.png","梯形","三角","ALT1_2","prac_ALT1_2","","","","","","","","","","","",""
"null","<span class='add_' style='color:yellow; font-size: 70px;'> 太慢! </span>","null","html-keyboard-response","92","553382","0.0-7.0-1.0-1.0-0.0-1.41","3","3","3","3","2","3","3","2","3","3","4","4","2","2","2","4","3","2","4","4","4","4","2","2","2","2","2","2","2","1","1","1","1","1","1","1","0","0","0","1","0","0","0","1","3","2","4","1","4","5","4","4","4","4","3","798934746745937922","许","433","","","","","","","","","","","","","","","","","","","","","","","","","","","","","","feedback_test","","","","","","","","","","","",""
"null","","null","psychophysics","93","555586","0.0-7.0-1.0-1.0-0.0-0.42","3","3","3","3","2","3","3","2","3","3","4","4","2","2","2","4","3","2","4","4","4","4","2","2","2","2","2","2","2","1","1","1","1","1","1","1","0","0","0","1","0","0","0","1","3","2","4","1","4","5","4","4","4","4","3","798934746745937922","许","433","","","","null","","","","","","","","","","","","","","key","null","16.664557251907734","768","428","f","false","nonmatch","img/circle.png","三角","圆形","ALT1_2","prac_ALT1_2","","","","","","","","","","","",""
"null","<span class='add_' style='color:yellow; font-size: 70px;'> 太慢! </span>","null","html-keyboard-response","94","556090","0.0-7.0-1.0-1.0-0.0-1.42","3","3","3","3","2","3","3","2","3","3","4","4","2","2","2","4","3","2","4","4","4","4","2","2","2","2","2","2","2","1","1","1","1","1","1","1","0","0","0","1","0","0","0","1","3","2","4","1","4","5","4","4","4","4","3","798934746745937922","许","433","","","","","","","","","","","","","","","","","","","","","","","","","","","","","","feedback_test","","","","","","","","","","","",""
"776","","f","psychophysics","95","557870","0.0-7.0-1.0-1.0-0.0-0.43","3","3","3","3","2","3","3","2","3","3","4","4","2","2","2","4","3","2","4","4","4","4","2","2","2","2","2","2","2","1","1","1","1","1","1","1","0","0","0","1","0","0","0","1","3","2","4","1","4","5","4","4","4","4","3","798934746745937922","许","433","","","","nonmatch","","","","","","","","","","","","","","key","f","16.663679245283898","768","428","j","false","match","img/trapezoid.png","梯形","梯形","ALT1_2","prac_ALT1_2","","","","","","","","","","","",""
"null","<span style='color:red; font-size: 70px;'>错误! </span>","null","html-keyboard-response","96","558373","0.0-7.0-1.0-1.0-0.0-1.43","3","3","3","3","2","3","3","2","3","3","4","4","2","2","2","4","3","2","4","4","4","4","2","2","2","2","2","2","2","1","1","1","1","1","1","1","0","0","0","1","0","0","0","1","3","2","4","1","4","5","4","4","4","4","3","798934746745937922","许","433","","","","","","","","","","","","","","","","","","","","","","","","","","","","","","feedback_test","","","","","","","","","","","",""
"665","","j","psychophysics","97","560040","0.0-7.0-1.0-1.0-0.0-0.44","3","3","3","3","2","3","3","2","3","3","4","4","2","2","2","4","3","2","4","4","4","4","2","2","2","2","2","2","2","1","1","1","1","1","1","1","0","0","0","1","0","0","0","1","3","2","4","1","4","5","4","4","4","4","3","798934746745937922","许","433","","","","match","","","","","","","","","","","","","","key","j","16.665808080808457","768","428","f","false","nonmatch","img/trapezoid.png","六边","梯形","ALT1_2","prac_ALT1_2","","","","","","","","","","","",""
"null","<span style='color:red; font-size: 70px;'>错误! </span>","null","html-keyboard-response","98","560542","0.0-7.0-1.0-1.0-0.0-1.44","3","3","3","3","2","3","3","2","3","3","4","4","2","2","2","4","3","2","4","4","4","4","2","2","2","2","2","2","2","1","1","1","1","1","1","1","0","0","0","1","0","0","0","1","3","2","4","1","4","5","4","4","4","4","3","798934746745937922","许","433","","","","","","","","","","","","","","","","","","","","","","","","","","","","","","feedback_test","","","","","","","","","","","",""
"1106","","f","psychophysics","99","562652","0.0-7.0-1.0-1.0-0.0-0.45","3","3","3","3","2","3","3","2","3","3","4","4","2","2","2","4","3","2","4","4","4","4","2","2","2","2","2","2","2","1","1","1","1","1","1","1","0","0","0","1","0","0","0","1","3","2","4","1","4","5","4","4","4","4","3","798934746745937922","许","433","","","","nonmatch","","","","","","","","","","","","","","key","f","16.665207999999634","768","428","f","true","nonmatch","img/trapezoid.png","圆形","梯形","ALT1_2","prac_ALT1_2","","","","","","","","","","","",""
"null","<span style='color:GreenYellow; font-size: 70px;'>正确! </span>","null","html-keyboard-response","100","563169","0.0-7.0-1.0-1.0-0.0-1.45","3","3","3","3","2","3","3","2","3","3","4","4","2","2","2","4","3","2","4","4","4","4","2","2","2","2","2","2","2","1","1","1","1","1","1","1","0","0","0","1","0","0","0","1","3","2","4","1","4","5","4","4","4","4","3","798934746745937922","许","433","","","","","","","","","","","","","","","","","","","","","","","","","","","","","","feedback_test","","","","","","","","","","","",""
"785","","f","psychophysics","101","564958","0.0-7.0-1.0-1.0-0.0-0.46","3","3","3","3","2","3","3","2","3","3","4","4","2","2","2","4","3","2","4","4","4","4","2","2","2","2","2","2","2","1","1","1","1","1","1","1","0","0","0","1","0","0","0","1","3","2","4","1","4","5","4","4","4","4","3","798934746745937922","许","433","","","","nonmatch","","","","","","","","","","","","","","key","f","16.664688679244687","768","428","f","true","nonmatch","img/trapezoid.png","三角","梯形","ALT1_2","prac_ALT1_2","","","","","","","","","","","",""
"null","<span style='color:GreenYellow; font-size: 70px;'>正确! </span>","null","html-keyboard-response","102","565461","0.0-7.0-1.0-1.0-0.0-1.46","3","3","3","3","2","3","3","2","3","3","4","4","2","2","2","4","3","2","4","4","4","4","2","2","2","2","2","2","2","1","1","1","1","1","1","1","0","0","0","1","0","0","0","1","3","2","4","1","4","5","4","4","4","4","3","798934746745937922","许","433","","","","","","","","","","","","","","","","","","","","","","","","","","","","","","feedback_test","","","","","","","","","","","",""
"705","","j","psychophysics","103","567169","0.0-7.0-1.0-1.0-0.0-0.47","3","3","3","3","2","3","3","2","3","3","4","4","2","2","2","4","3","2","4","4","4","4","2","2","2","2","2","2","2","1","1","1","1","1","1","1","0","0","0","1","0","0","0","1","3","2","4","1","4","5","4","4","4","4","3","798934746745937922","许","433","","","","match","","","","","","","","","","","","","","key","j","16.6648811881193","768","428","j","true","match","img/trapezoid.png","梯形","梯形","ALT1_2","prac_ALT1_2","","","","","","","","","","","",""
"null","<span style='color:GreenYellow; font-size: 70px;'>正确! </span>","null","html-keyboard-response","104","567671","0.0-7.0-1.0-1.0-0.0-1.47","3","3","3","3","2","3","3","2","3","3","4","4","2","2","2","4","3","2","4","4","4","4","2","2","2","2","2","2","2","1","1","1","1","1","1","1","0","0","0","1","0","0","0","1","3","2","4","1","4","5","4","4","4","4","3","798934746745937922","许","433","","","","","","","","","","","","","","","","","","","","","","","","","","","","","","feedback_test","","","","","","","","","","","",""
"2012","<style>.context{color:white; font-size: 35px; line-height:40px}</style>                          <div><p class='context'>您正确回答了23% 的试次。</p><p class='context'>您的平均反应时为774毫秒。</p><p class='context'>恭喜您完成练习。按空格键继续。</p></div>"," ","html-keyboard-response","105","569689","0.0-7.0-1.0-1.0-1.0-0.0","3","3","3","3","2","3","3","2","3","3","4","4","2","2","2","4","3","2","4","4","4","4","2","2","2","2","2","2","2","1","1","1","1","1","1","1","0","0","0","1","0","0","0","1","3","2","4","1","4","5","4","4","4","4","3","798934746745937922","许","433","","","","","","","","","","","","","","","","","","","","","","","","","","","","","","","","","","","","","","","","","",""
"14887","","","instructions","106","584588","0.0-7.0-1.0-1.0-1.0-1.0","3","3","3","3","2","3","3","2","3","3","4","4","2","2","2","4","3","2","4","4","4","4","2","2","2","2","2","2","2","1","1","1","1","1","1","1","0","0","0","1","0","0","0","1","3","2","4","1","4","5","4","4","4","4","3","798934746745937922","许","433","","","","","","","","","","","","","","","","","[{""page_index"":0,""viewing_time"":4800},{""page_index"":1,""viewing_time"":7814},{""page_index"":2,""viewing_time"":2272}]","","","","","","","","","","","","","","","","","","","","","","","","",""
"749","","f","psychophysics","107","586341","0.0-7.0-1.0-1.1-0.1-0.48","3","3","3","3","2","3","3","2","3","3","4","4","2","2","2","4","3","2","4","4","4","4","2","2","2","2","2","2","2","1","1","1","1","1","1","1","0","0","0","1","0","0","0","1","3","2","4","1","4","5","4","4","4","4","3","798934746745937922","许","433","","","","nonmatch","","","","","","","","","","","","","","key","f","16.665740384616164","768","428","f","true","nonmatch","img/triangle.png","六边","三角","ALT1_2","prac_ALT1_2","","","","","","","","","","","",""
"null","<span style='color:GreenYellow; font-size: 70px;'>正确! </span>","null","html-keyboard-response","108","586845","0.0-7.0-1.0-1.1-0.1-1.48","3","3","3","3","2","3","3","2","3","3","4","4","2","2","2","4","3","2","4","4","4","4","2","2","2","2","2","2","2","1","1","1","1","1","1","1","0","0","0","1","0","0","0","1","3","2","4","1","4","5","4","4","4","4","3","798934746745937922","许","433","","","","","","","","","","","","","","","","","","","","","","","","","","","","","","feedback_test","","","","","","","","","","","",""
"876","","f","psychophysics","109","588725","0.0-7.0-1.0-1.1-0.1-0.49","3","3","3","3","2","3","3","2","3","3","4","4","2","2","2","4","3","2","4","4","4","4","2","2","2","2","2","2","2","1","1","1","1","1","1","1","0","0","0","1","0","0","0","1","3","2","4","1","4","5","4","4","4","4","3","798934746745937922","许","433","","","","nonmatch","","","","","","","","","","","","","","key","f","16.66551785714338","768","428","f","true","nonmatch","img/circle.png","梯形","圆形","ALT1_2","prac_ALT1_2","","","","","","","","","","","",""
"null","<span style='color:GreenYellow; font-size: 70px;'>正确! </span>","null","html-keyboard-response","110","589229","0.0-7.0-1.0-1.1-0.1-1.49","3","3","3","3","2","3","3","2","3","3","4","4","2","2","2","4","3","2","4","4","4","4","2","2","2","2","2","2","2","1","1","1","1","1","1","1","0","0","0","1","0","0","0","1","3","2","4","1","4","5","4","4","4","4","3","798934746745937922","许","433","","","","","","","","","","","","","","","","","","","","","","","","","","","","","","feedback_test","","","","","","","","","","","",""
"489","","j","psychophysics","111","590721","0.0-7.0-1.0-1.1-0.1-0.50","3","3","3","3","2","3","3","2","3","3","4","4","2","2","2","4","3","2","4","4","4","4","2","2","2","2","2","2","2","1","1","1","1","1","1","1","0","0","0","1","0","0","0","1","3","2","4","1","4","5","4","4","4","4","3","798934746745937922","许","433","","","","match","","","","","","","","","","","","","","key","j","16.66555681818202","768","428","j","true","match","img/triangle.png","三角","三角","ALT1_2","prac_ALT1_2","","","","","","","","","","","",""
"null","<span style='color:GreenYellow; font-size: 70px;'>正确! </span>","null","html-keyboard-response","112","591224","0.0-7.0-1.0-1.1-0.1-1.50","3","3","3","3","2","3","3","2","3","3","4","4","2","2","2","4","3","2","4","4","4","4","2","2","2","2","2","2","2","1","1","1","1","1","1","1","0","0","0","1","0","0","0","1","3","2","4","1","4","5","4","4","4","4","3","798934746745937922","许","433","","","","","","","","","","","","","","","","","","","","","","","","","","","","","","feedback_test","","","","","","","","","","","",""
"485","","j","psychophysics","113","592712","0.0-7.0-1.0-1.1-0.1-0.51","3","3","3","3","2","3","3","2","3","3","4","4","2","2","2","4","3","2","4","4","4","4","2","2","2","2","2","2","2","1","1","1","1","1","1","1","0","0","0","1","0","0","0","1","3","2","4","1","4","5","4","4","4","4","3","798934746745937922","许","433","","","","match","","","","","","","","","","","","","","key","j","16.663568181817855","768","428","j","true","match","img/triangle.png","三角","三角","ALT1_2","prac_ALT1_2","","","","","","","","","","","",""
"null","<span style='color:GreenYellow; font-size: 70px;'>正确! </span>","null","html-keyboard-response","114","593214","0.0-7.0-1.0-1.1-0.1-1.51","3","3","3","3","2","3","3","2","3","3","4","4","2","2","2","4","3","2","4","4","4","4","2","2","2","2","2","2","2","1","1","1","1","1","1","1","0","0","0","1","0","0","0","1","3","2","4","1","4","5","4","4","4","4","3","798934746745937922","许","433","","","","","","","","","","","","","","","","","","","","","","","","","","","","","","feedback_test","","","","","","","","","","","",""
"612","","f","psychophysics","115","594830","0.0-7.0-1.0-1.1-0.1-0.52","3","3","3","3","2","3","3","2","3","3","4","4","2","2","2","4","3","2","4","4","4","4","2","2","2","2","2","2","2","1","1","1","1","1","1","1","0","0","0","1","0","0","0","1","3","2","4","1","4","5","4","4","4","4","3","798934746745937922","许","433","","","","nonmatch","","","","","","","","","","","","","","key","f","16.663802083333092","768","428","f","true","nonmatch","img/trapezoid.png","三角","梯形","ALT1_2","prac_ALT1_2","","","","","","","","","","","",""
"null","<span style='color:GreenYellow; font-size: 70px;'>正确! </span>","null","html-keyboard-response","116","595333","0.0-7.0-1.0-1.1-0.1-1.52","3","3","3","3","2","3","3","2","3","3","4","4","2","2","2","4","3","2","4","4","4","4","2","2","2","2","2","2","2","1","1","1","1","1","1","1","0","0","0","1","0","0","0","1","3","2","4","1","4","5","4","4","4","4","3","798934746745937922","许","433","","","","","","","","","","","","","","","","","","","","","","","","","","","","","","feedback_test","","","","","","","","","","","",""
"559","","f","psychophysics","117","596896","0.0-7.0-1.0-1.1-0.1-0.53","3","3","3","3","2","3","3","2","3","3","4","4","2","2","2","4","3","2","4","4","4","4","2","2","2","2","2","2","2","1","1","1","1","1","1","1","0","0","0","1","0","0","0","1","3","2","4","1","4","5","4","4","4","4","3","798934746745937922","许","433","","","","nonmatch","","","","","","","","","","","","","","key","f","16.664709677419033","768","428","f","true","nonmatch","img/circle.png","六边","圆形","ALT1_2","prac_ALT1_2","","","","","","","","","","","",""
"null","<span style='color:GreenYellow; font-size: 70px;'>正确! </span>","null","html-keyboard-response","118","597399","0.0-7.0-1.0-1.1-0.1-1.53","3","3","3","3","2","3","3","2","3","3","4","4","2","2","2","4","3","2","4","4","4","4","2","2","2","2","2","2","2","1","1","1","1","1","1","1","0","0","0","1","0","0","0","1","3","2","4","1","4","5","4","4","4","4","3","798934746745937922","许","433","","","","","","","","","","","","","","","","","","","","","","","","","","","","","","feedback_test","","","","","","","","","","","",""
"627","","f","psychophysics","119","599028","0.0-7.0-1.0-1.1-0.1-0.54","3","3","3","3","2","3","3","2","3","3","4","4","2","2","2","4","3","2","4","4","4","4","2","2","2","2","2","2","2","1","1","1","1","1","1","1","0","0","0","1","0","0","0","1","3","2","4","1","4","5","4","4","4","4","3","798934746745937922","许","433","","","","nonmatch","","","","","","","","","","","","","","key","f","16.664639175258642","768","428","j","false","match","img/trapezoid.png","梯形","梯形","ALT1_2","prac_ALT1_2","","","","","","","","","","","",""
"null","<span style='color:red; font-size: 70px;'>错误! </span>","null","html-keyboard-response","120","599531","0.0-7.0-1.0-1.1-0.1-1.54","3","3","3","3","2","3","3","2","3","3","4","4","2","2","2","4","3","2","4","4","4","4","2","2","2","2","2","2","2","1","1","1","1","1","1","1","0","0","0","1","0","0","0","1","3","2","4","1","4","5","4","4","4","4","3","798934746745937922","许","433","","","","","","","","","","","","","","","","","","","","","","","","","","","","","","feedback_test","","","","","","","","","","","",""
"559","","j","psychophysics","121","601093","0.0-7.0-1.0-1.1-0.1-0.55","3","3","3","3","2","3","3","2","3","3","4","4","2","2","2","4","3","2","4","4","4","4","2","2","2","2","2","2","2","1","1","1","1","1","1","1","0","0","0","1","0","0","0","1","3","2","4","1","4","5","4","4","4","4","3","798934746745937922","许","433","","","","match","","","","","","","","","","","","","","key","j","16.66451612903276","768","428","j","true","match","img/circle.png","圆形","圆形","ALT1_2","prac_ALT1_2","","","","","","","","","","","",""
"null","<span style='color:GreenYellow; font-size: 70px;'>正确! </span>","null","html-keyboard-response","122","601596","0.0-7.0-1.0-1.1-0.1-1.55","3","3","3","3","2","3","3","2","3","3","4","4","2","2","2","4","3","2","4","4","4","4","2","2","2","2","2","2","2","1","1","1","1","1","1","1","0","0","0","1","0","0","0","1","3","2","4","1","4","5","4","4","4","4","3","798934746745937922","许","433","","","","","","","","","","","","","","","","","","","","","","","","","","","","","","feedback_test","","","","","","","","","","","",""
"614","","f","psychophysics","123","603213","0.0-7.0-1.0-1.1-0.1-0.56","3","3","3","3","2","3","3","2","3","3","4","4","2","2","2","4","3","2","4","4","4","4","2","2","2","2","2","2","2","1","1","1","1","1","1","1","0","0","0","1","0","0","0","1","3","2","4","1","4","5","4","4","4","4","3","798934746745937922","许","433","","","","nonmatch","","","","","","","","","","","","","","key","f","16.66469791666653","768","428","f","true","nonmatch","img/trapezoid.png","圆形","梯形","ALT1_2","prac_ALT1_2","","","","","","","","","","","",""
"null","<span style='color:GreenYellow; font-size: 70px;'>正确! </span>","null","html-keyboard-response","124","603716","0.0-7.0-1.0-1.1-0.1-1.56","3","3","3","3","2","3","3","2","3","3","4","4","2","2","2","4","3","2","4","4","4","4","2","2","2","2","2","2","2","1","1","1","1","1","1","1","0","0","0","1","0","0","0","1","3","2","4","1","4","5","4","4","4","4","3","798934746745937922","许","433","","","","","","","","","","","","","","","","","","","","","","","","","","","","","","feedback_test","","","","","","","","","","","",""
"541","","j","psychophysics","125","605260","0.0-7.0-1.0-1.1-0.1-0.57","3","3","3","3","2","3","3","2","3","3","4","4","2","2","2","4","3","2","4","4","4","4","2","2","2","2","2","2","2","1","1","1","1","1","1","1","0","0","0","1","0","0","0","1","3","2","4","1","4","5","4","4","4","4","3","798934746745937922","许","433","","","","match","","","","","","","","","","","","","","key","j","16.664956043956668","768","428","j","true","match","img/circle.png","圆形","圆形","ALT1_2","prac_ALT1_2","","","","","","","","","","","",""
"null","<span style='color:GreenYellow; font-size: 70px;'>正确! </span>","null","html-keyboard-response","126","605763","0.0-7.0-1.0-1.1-0.1-1.57","3","3","3","3","2","3","3","2","3","3","4","4","2","2","2","4","3","2","4","4","4","4","2","2","2","2","2","2","2","1","1","1","1","1","1","1","0","0","0","1","0","0","0","1","3","2","4","1","4","5","4","4","4","4","3","798934746745937922","许","433","","","","","","","","","","","","","","","","","","","","","","","","","","","","","","feedback_test","","","","","","","","","","","",""
"607","","j","psychophysics","127","607373","0.0-7.0-1.0-1.1-0.1-0.58","3","3","3","3","2","3","3","2","3","3","4","4","2","2","2","4","3","2","4","4","4","4","2","2","2","2","2","2","2","1","1","1","1","1","1","1","0","0","0","1","0","0","0","1","3","2","4","1","4","5","4","4","4","4","3","798934746745937922","许","433","","","","match","","","","","","","","","","","","","","key","j","16.664260416666366","768","428","j","true","match","img/hexagon.png","六边","六边","ALT1_2","prac_ALT1_2","","","","","","","","","","","",""
"null","<span style='color:GreenYellow; font-size: 70px;'>正确! </span>","null","html-keyboard-response","128","607876","0.0-7.0-1.0-1.1-0.1-1.58","3","3","3","3","2","3","3","2","3","3","4","4","2","2","2","4","3","2","4","4","4","4","2","2","2","2","2","2","2","1","1","1","1","1","1","1","0","0","0","1","0","0","0","1","3","2","4","1","4","5","4","4","4","4","3","798934746745937922","许","433","","","","","","","","","","","","","","","","","","","","","","","","","","","","","","feedback_test","","","","","","","","","","","",""
"580","","f","psychophysics","129","609460","0.0-7.0-1.0-1.1-0.1-0.59","3","3","3","3","2","3","3","2","3","3","4","4","2","2","2","4","3","2","4","4","4","4","2","2","2","2","2","2","2","1","1","1","1","1","1","1","0","0","0","1","0","0","0","1","3","2","4","1","4","5","4","4","4","4","3","798934746745937922","许","433","","","","nonmatch","","","","","","","","","","","","","","key","f","16.665393617021493","768","428","f","true","nonmatch","img/circle.png","三角","圆形","ALT1_2","prac_ALT1_2","","","","","","","","","","","",""
"null","<span style='color:GreenYellow; font-size: 70px;'>正确! </span>","null","html-keyboard-response","130","609964","0.0-7.0-1.0-1.1-0.1-1.59","3","3","3","3","2","3","3","2","3","3","4","4","2","2","2","4","3","2","4","4","4","4","2","2","2","2","2","2","2","1","1","1","1","1","1","1","0","0","0","1","0","0","0","1","3","2","4","1","4","5","4","4","4","4","3","798934746745937922","许","433","","","","","","","","","","","","","","","","","","","","","","","","","","","","","","feedback_test","","","","","","","","","","","",""
"693","","f","psychophysics","131","611660","0.0-7.0-1.0-1.1-0.1-0.60","3","3","3","3","2","3","3","2","3","3","4","4","2","2","2","4","3","2","4","4","4","4","2","2","2","2","2","2","2","1","1","1","1","1","1","1","0","0","0","1","0","0","0","1","3","2","4","1","4","5","4","4","4","4","3","798934746745937922","许","433","","","","nonmatch","","","","","","","","","","","","","","key","f","16.579559999998892","768","428","f","true","nonmatch","img/hexagon.png","圆形","六边","ALT1_2","prac_ALT1_2","","","","","","","","","","","",""
"null","<span style='color:GreenYellow; font-size: 70px;'>正确! </span>","null","html-keyboard-response","132","612162","0.0-7.0-1.0-1.1-0.1-1.60","3","3","3","3","2","3","3","2","3","3","4","4","2","2","2","4","3","2","4","4","4","4","2","2","2","2","2","2","2","1","1","1","1","1","1","1","0","0","0","1","0","0","0","1","3","2","4","1","4","5","4","4","4","4","3","798934746745937922","许","433","","","","","","","","","","","","","","","","","","","","","","","","","","","","","","feedback_test","","","","","","","","","","","",""
"674","","j","psychophysics","133","613841","0.0-7.0-1.0-1.1-0.1-0.61","3","3","3","3","2","3","3","2","3","3","4","4","2","2","2","4","3","2","4","4","4","4","2","2","2","2","2","2","2","1","1","1","1","1","1","1","0","0","0","1","0","0","0","1","3","2","4","1","4","5","4","4","4","4","3","798934746745937922","许","433","","","","match","","","","","","","","","","","","","","key","j","16.664650000000837","768","428","f","false","nonmatch","img/triangle.png","梯形","三角","ALT1_2","prac_ALT1_2","","","","","","","","","","","",""
"null","<span style='color:red; font-size: 70px;'>错误! </span>","null","html-keyboard-response","134","614344","0.0-7.0-1.0-1.1-0.1-1.61","3","3","3","3","2","3","3","2","3","3","4","4","2","2","2","4","3","2","4","4","4","4","2","2","2","2","2","2","2","1","1","1","1","1","1","1","0","0","0","1","0","0","0","1","3","2","4","1","4","5","4","4","4","4","3","798934746745937922","许","433","","","","","","","","","","","","","","","","","","","","","","","","","","","","","","feedback_test","","","","","","","","","","","",""
"622","","j","psychophysics","135","615969","0.0-7.0-1.0-1.1-0.1-0.62","3","3","3","3","2","3","3","2","3","3","4","4","2","2","2","4","3","2","4","4","4","4","2","2","2","2","2","2","2","1","1","1","1","1","1","1","0","0","0","1","0","0","0","1","3","2","4","1","4","5","4","4","4","4","3","798934746745937922","许","433","","","","match","","","","","","","","","","","","","","key","j","16.664443298969083","768","428","j","true","match","img/trapezoid.png","梯形","梯形","ALT1_2","prac_ALT1_2","","","","","","","","","","","",""
"null","<span style='color:GreenYellow; font-size: 70px;'>正确! </span>","null","html-keyboard-response","136","616472","0.0-7.0-1.0-1.1-0.1-1.62","3","3","3","3","2","3","3","2","3","3","4","4","2","2","2","4","3","2","4","4","4","4","2","2","2","2","2","2","2","1","1","1","1","1","1","1","0","0","0","1","0","0","0","1","3","2","4","1","4","5","4","4","4","4","3","798934746745937922","许","433","","","","","","","","","","","","","","","","","","","","","","","","","","","","","","feedback_test","","","","","","","","","","","",""
"685","","f","psychophysics","137","618161","0.0-7.0-1.0-1.1-0.1-0.63","3","3","3","3","2","3","3","2","3","3","4","4","2","2","2","4","3","2","4","4","4","4","2","2","2","2","2","2","2","1","1","1","1","1","1","1","0","0","0","1","0","0","0","1","3","2","4","1","4","5","4","4","4","4","3","798934746745937922","许","433","","","","nonmatch","","","","","","","","","","","","","","key","f","16.66594999999972","768","428","f","true","nonmatch","img/trapezoid.png","六边","梯形","ALT1_2","prac_ALT1_2","","","","","","","","","","","",""
"null","<span style='color:GreenYellow; font-size: 70px;'>正确! </span>","null","html-keyboard-response","138","618664","0.0-7.0-1.0-1.1-0.1-1.63","3","3","3","3","2","3","3","2","3","3","4","4","2","2","2","4","3","2","4","4","4","4","2","2","2","2","2","2","2","1","1","1","1","1","1","1","0","0","0","1","0","0","0","1","3","2","4","1","4","5","4","4","4","4","3","798934746745937922","许","433","","","","","","","","","","","","","","","","","","","","","","","","","","","","","","feedback_test","","","","","","","","","","","",""
"756","","j","psychophysics","139","620425","0.0-7.0-1.0-1.1-0.1-0.64","3","3","3","3","2","3","3","2","3","3","4","4","2","2","2","4","3","2","4","4","4","4","2","2","2","2","2","2","2","1","1","1","1","1","1","1","0","0","0","1","0","0","0","1","3","2","4","1","4","5","4","4","4","4","3","798934746745937922","许","433","","","","match","","","","","","","","","","","","","","key","j","16.664067307691976","768","428","j","true","match","img/trapezoid.png","梯形","梯形","ALT1_2","prac_ALT1_2","","","","","","","","","","","",""
"null","<span style='color:GreenYellow; font-size: 70px;'>正确! </span>","null","html-keyboard-response","140","620927","0.0-7.0-1.0-1.1-0.1-1.64","3","3","3","3","2","3","3","2","3","3","4","4","2","2","2","4","3","2","4","4","4","4","2","2","2","2","2","2","2","1","1","1","1","1","1","1","0","0","0","1","0","0","0","1","3","2","4","1","4","5","4","4","4","4","3","798934746745937922","许","433","","","","","","","","","","","","","","","","","","","","","","","","","","","","","","feedback_test","","","","","","","","","","","",""
"545","","j","psychophysics","141","622475","0.0-7.0-1.0-1.1-0.1-0.65","3","3","3","3","2","3","3","2","3","3","4","4","2","2","2","4","3","2","4","4","4","4","2","2","2","2","2","2","2","1","1","1","1","1","1","1","0","0","0","1","0","0","0","1","3","2","4","1","4","5","4","4","4","4","3","798934746745937922","许","433","","","","match","","","","","","","","","","","","","","key","j","16.66365217391285","768","428","j","true","match","img/triangle.png","三角","三角","ALT1_2","prac_ALT1_2","","","","","","","","","","","",""
"null","<span style='color:GreenYellow; font-size: 70px;'>正确! </span>","null","html-keyboard-response","142","622978","0.0-7.0-1.0-1.1-0.1-1.65","3","3","3","3","2","3","3","2","3","3","4","4","2","2","2","4","3","2","4","4","4","4","2","2","2","2","2","2","2","1","1","1","1","1","1","1","0","0","0","1","0","0","0","1","3","2","4","1","4","5","4","4","4","4","3","798934746745937922","许","433","","","","","","","","","","","","","","","","","","","","","","","","","","","","","","feedback_test","","","","","","","","","","","",""
"604","","j","psychophysics","143","624586","0.0-7.0-1.0-1.1-0.1-0.66","3","3","3","3","2","3","3","2","3","3","4","4","2","2","2","4","3","2","4","4","4","4","2","2","2","2","2","2","2","1","1","1","1","1","1","1","0","0","0","1","0","0","0","1","3","2","4","1","4","5","4","4","4","4","3","798934746745937922","许","433","","","","match","","","","","","","","","","","","","","key","j","16.665515789474163","768","428","j","true","match","img/circle.png","圆形","圆形","ALT1_2","prac_ALT1_2","","","","","","","","","","","",""
"null","<span style='color:GreenYellow; font-size: 70px;'>正确! </span>","null","html-keyboard-response","144","625088","0.0-7.0-1.0-1.1-0.1-1.66","3","3","3","3","2","3","3","2","3","3","4","4","2","2","2","4","3","2","4","4","4","4","2","2","2","2","2","2","2","1","1","1","1","1","1","1","0","0","0","1","0","0","0","1","3","2","4","1","4","5","4","4","4","4","3","798934746745937922","许","433","","","","","","","","","","","","","","","","","","","","","","","","","","","","","","feedback_test","","","","","","","","","","","",""
"629","","j","psychophysics","145","626720","0.0-7.0-1.0-1.1-0.1-0.67","3","3","3","3","2","3","3","2","3","3","4","4","2","2","2","4","3","2","4","4","4","4","2","2","2","2","2","2","2","1","1","1","1","1","1","1","0","0","0","1","0","0","0","1","3","2","4","1","4","5","4","4","4","4","3","798934746745937922","许","433","","","","match","","","","","","","","","","","","","","key","j","16.664742268041046","768","428","f","false","nonmatch","img/hexagon.png","梯形","六边","ALT1_2","prac_ALT1_2","","","","","","","","","","","",""
"null","<span style='color:red; font-size: 70px;'>错误! </span>","null","html-keyboard-response","146","627225","0.0-7.0-1.0-1.1-0.1-1.67","3","3","3","3","2","3","3","2","3","3","4","4","2","2","2","4","3","2","4","4","4","4","2","2","2","2","2","2","2","1","1","1","1","1","1","1","0","0","0","1","0","0","0","1","3","2","4","1","4","5","4","4","4","4","3","798934746745937922","许","433","","","","","","","","","","","","","","","","","","","","","","","","","","","","","","feedback_test","","","","","","","","","","","",""
"588","","f","psychophysics","147","628817","0.0-7.0-1.0-1.1-0.1-0.68","3","3","3","3","2","3","3","2","3","3","4","4","2","2","2","4","3","2","4","4","4","4","2","2","2","2","2","2","2","1","1","1","1","1","1","1","0","0","0","1","0","0","0","1","3","2","4","1","4","5","4","4","4","4","3","798934746745937922","许","433","","","","nonmatch","","","","","","","","","","","","","","key","f","16.665021052630618","768","428","f","true","nonmatch","img/hexagon.png","三角","六边","ALT1_2","prac_ALT1_2","","","","","","","","","","","",""
"null","<span style='color:GreenYellow; font-size: 70px;'>正确! </span>","null","html-keyboard-response","148","629320","0.0-7.0-1.0-1.1-0.1-1.68","3","3","3","3","2","3","3","2","3","3","4","4","2","2","2","4","3","2","4","4","4","4","2","2","2","2","2","2","2","1","1","1","1","1","1","1","0","0","0","1","0","0","0","1","3","2","4","1","4","5","4","4","4","4","3","798934746745937922","许","433","","","","","","","","","","","","","","","","","","","","","","","","","","","","","","feedback_test","","","","","","","","","","","",""
"616","","j","psychophysics","149","630940","0.0-7.0-1.0-1.1-0.1-0.69","3","3","3","3","2","3","3","2","3","3","4","4","2","2","2","4","3","2","4","4","4","4","2","2","2","2","2","2","2","1","1","1","1","1","1","1","0","0","0","1","0","0","0","1","3","2","4","1","4","5","4","4","4","4","3","798934746745937922","许","433","","","","match","","","","","","","","","","","","","","key","j","16.665447916666988","768","428","j","true","match","img/hexagon.png","六边","六边","ALT1_2","prac_ALT1_2","","","","","","","","","","","",""
"null","<span style='color:GreenYellow; font-size: 70px;'>正确! </span>","null","html-keyboard-response","150","631443","0.0-7.0-1.0-1.1-0.1-1.69","3","3","3","3","2","3","3","2","3","3","4","4","2","2","2","4","3","2","4","4","4","4","2","2","2","2","2","2","2","1","1","1","1","1","1","1","0","0","0","1","0","0","0","1","3","2","4","1","4","5","4","4","4","4","3","798934746745937922","许","433","","","","","","","","","","","","","","","","","","","","","","","","","","","","","","feedback_test","","","","","","","","","","","",""
"694","","j","psychophysics","151","633141","0.0-7.0-1.0-1.1-0.1-0.70","3","3","3","3","2","3","3","2","3","3","4","4","2","2","2","4","3","2","4","4","4","4","2","2","2","2","2","2","2","1","1","1","1","1","1","1","0","0","0","1","0","0","0","1","3","2","4","1","4","5","4","4","4","4","3","798934746745937922","许","433","","","","match","","","","","","","","","","","","","","key","j","16.58923999999999","768","428","j","true","match","img/hexagon.png","六边","六边","ALT1_2","prac_ALT1_2","","","","","","","","","","","",""
"null","<span style='color:GreenYellow; font-size: 70px;'>正确! </span>","null","html-keyboard-response","152","633644","0.0-7.0-1.0-1.1-0.1-1.70","3","3","3","3","2","3","3","2","3","3","4","4","2","2","2","4","3","2","4","4","4","4","2","2","2","2","2","2","2","1","1","1","1","1","1","1","0","0","0","1","0","0","0","1","3","2","4","1","4","5","4","4","4","4","3","798934746745937922","许","433","","","","","","","","","","","","","","","","","","","","","","","","","","","","","","feedback_test","","","","","","","","","","","",""
"590","","f","psychophysics","153","635237","0.0-7.0-1.0-1.1-0.1-0.71","3","3","3","3","2","3","3","2","3","3","4","4","2","2","2","4","3","2","4","4","4","4","2","2","2","2","2","2","2","1","1","1","1","1","1","1","0","0","0","1","0","0","0","1","3","2","4","1","4","5","4","4","4","4","3","798934746745937922","许","433","","","","nonmatch","","","","","","","","","","","","","","key","f","16.665840425532302","768","428","f","true","nonmatch","img/triangle.png","圆形","三角","ALT1_2","prac_ALT1_2","","","","","","","","","","","",""
"null","<span style='color:GreenYellow; font-size: 70px;'>正确! </span>","null","html-keyboard-response","154","635740","0.0-7.0-1.0-1.1-0.1-1.71","3","3","3","3","2","3","3","2","3","3","4","4","2","2","2","4","3","2","4","4","4","4","2","2","2","2","2","2","2","1","1","1","1","1","1","1","0","0","0","1","0","0","0","1","3","2","4","1","4","5","4","4","4","4","3","798934746745937922","许","433","","","","","","","","","","","","","","","","","","","","","","","","","","","","","","feedback_test","","","","","","","","","","","",""
"574","","j","psychophysics","155","637319","0.0-7.0-1.0-1.1-0.1-0.72","3","3","3","3","2","3","3","2","3","3","4","4","2","2","2","4","3","2","4","4","4","4","2","2","2","2","2","2","2","1","1","1","1","1","1","1","0","0","0","1","0","0","0","1","3","2","4","1","4","5","4","4","4","4","3","798934746745937922","许","433","","","","match","","","","","","","","","","","","","","key","j","16.664234042552824","768","428","j","true","match","img/circle.png","圆形","圆形","ALT1_2","prac_ALT1_2","","","","","","","","","","","",""
"null","<span style='color:GreenYellow; font-size: 70px;'>正确! </span>","null","html-keyboard-response","156","637821","0.0-7.0-1.0-1.1-0.1-1.72","3","3","3","3","2","3","3","2","3","3","4","4","2","2","2","4","3","2","4","4","4","4","2","2","2","2","2","2","2","1","1","1","1","1","1","1","0","0","0","1","0","0","0","1","3","2","4","1","4","5","4","4","4","4","3","798934746745937922","许","433","","","","","","","","","","","","","","","","","","","","","","","","","","","","","","feedback_test","","","","","","","","","","","",""
"780","","f","psychophysics","157","639604","0.0-7.0-1.0-1.1-0.1-0.73","3","3","3","3","2","3","3","2","3","3","4","4","2","2","2","4","3","2","4","4","4","4","2","2","2","2","2","2","2","1","1","1","1","1","1","1","0","0","0","1","0","0","0","1","3","2","4","1","4","5","4","4","4","4","3","798934746745937922","许","433","","","","nonmatch","","","","","","","","","","","","","","key","f","16.663547169811416","768","428","f","true","nonmatch","img/trapezoid.png","六边","梯形","ALT1_2","prac_ALT1_2","","","","","","","","","","","",""
"null","<span style='color:GreenYellow; font-size: 70px;'>正确! </span>","null","html-keyboard-response","158","640106","0.0-7.0-1.0-1.1-0.1-1.73","3","3","3","3","2","3","3","2","3","3","4","4","2","2","2","4","3","2","4","4","4","4","2","2","2","2","2","2","2","1","1","1","1","1","1","1","0","0","0","1","0","0","0","1","3","2","4","1","4","5","4","4","4","4","3","798934746745937922","许","433","","","","","","","","","","","","","","","","","","","","","","","","","","","","","","feedback_test","","","","","","","","","","","",""
"783","","f","psychophysics","159","641893","0.0-7.0-1.0-1.1-0.1-0.74","3","3","3","3","2","3","3","2","3","3","4","4","2","2","2","4","3","2","4","4","4","4","2","2","2","2","2","2","2","1","1","1","1","1","1","1","0","0","0","1","0","0","0","1","3","2","4","1","4","5","4","4","4","4","3","798934746745937922","许","433","","","","nonmatch","","","","","","","","","","","","","","key","f","16.663867924528258","768","428","f","true","nonmatch","img/circle.png","六边","圆形","ALT1_2","prac_ALT1_2","","","","","","","","","","","",""
"null","<span style='color:GreenYellow; font-size: 70px;'>正确! </span>","null","html-keyboard-response","160","642396","0.0-7.0-1.0-1.1-0.1-1.74","3","3","3","3","2","3","3","2","3","3","4","4","2","2","2","4","3","2","4","4","4","4","2","2","2","2","2","2","2","1","1","1","1","1","1","1","0","0","0","1","0","0","0","1","3","2","4","1","4","5","4","4","4","4","3","798934746745937922","许","433","","","","","","","","","","","","","","","","","","","","","","","","","","","","","","feedback_test","","","","","","","","","","","",""
"692","","j","psychophysics","161","644093","0.0-7.0-1.0-1.1-0.1-0.75","3","3","3","3","2","3","3","2","3","3","4","4","2","2","2","4","3","2","4","4","4","4","2","2","2","2","2","2","2","1","1","1","1","1","1","1","0","0","0","1","0","0","0","1","3","2","4","1","4","5","4","4","4","4","3","798934746745937922","许","433","","","","match","","","","","","","","","","","","","","key","j","16.66523000000045","768","428","j","true","match","img/hexagon.png","六边","六边","ALT1_2","prac_ALT1_2","","","","","","","","","","","",""
"null","<span style='color:GreenYellow; font-size: 70px;'>正确! </span>","null","html-keyboard-response","162","644595","0.0-7.0-1.0-1.1-0.1-1.75","3","3","3","3","2","3","3","2","3","3","4","4","2","2","2","4","3","2","4","4","4","4","2","2","2","2","2","2","2","1","1","1","1","1","1","1","0","0","0","1","0","0","0","1","3","2","4","1","4","5","4","4","4","4","3","798934746745937922","许","433","","","","","","","","","","","","","","","","","","","","","","","","","","","","","","feedback_test","","","","","","","","","","","",""
"812","","f","psychophysics","163","646410","0.0-7.0-1.0-1.1-0.1-0.76","3","3","3","3","2","3","3","2","3","3","4","4","2","2","2","4","3","2","4","4","4","4","2","2","2","2","2","2","2","1","1","1","1","1","1","1","0","0","0","1","0","0","0","1","3","2","4","1","4","5","4","4","4","4","3","798934746745937922","许","433","","","","nonmatch","","","","","","","","","","","","","","key","f","16.66406542056014","768","428","f","true","nonmatch","img/triangle.png","圆形","三角","ALT1_2","prac_ALT1_2","","","","","","","","","","","",""
"null","<span style='color:GreenYellow; font-size: 70px;'>正确! </span>","null","html-keyboard-response","164","646912","0.0-7.0-1.0-1.1-0.1-1.76","3","3","3","3","2","3","3","2","3","3","4","4","2","2","2","4","3","2","4","4","4","4","2","2","2","2","2","2","2","1","1","1","1","1","1","1","0","0","0","1","0","0","0","1","3","2","4","1","4","5","4","4","4","4","3","798934746745937922","许","433","","","","","","","","","","","","","","","","","","","","","","","","","","","","","","feedback_test","","","","","","","","","","","",""
"553","","j","psychophysics","165","648469","0.0-7.0-1.0-1.1-0.1-0.77","3","3","3","3","2","3","3","2","3","3","4","4","2","2","2","4","3","2","4","4","4","4","2","2","2","2","2","2","2","1","1","1","1","1","1","1","0","0","0","1","0","0","0","1","3","2","4","1","4","5","4","4","4","4","3","798934746745937922","许","433","","","","match","","","","","","","","","","","","","","key","j","16.66455434782572","768","428","j","true","match","img/triangle.png","三角","三角","ALT1_2","prac_ALT1_2","","","","","","","","","","","",""
"null","<span style='color:GreenYellow; font-size: 70px;'>正确! </span>","null","html-keyboard-response","166","648974","0.0-7.0-1.0-1.1-0.1-1.77","3","3","3","3","2","3","3","2","3","3","4","4","2","2","2","4","3","2","4","4","4","4","2","2","2","2","2","2","2","1","1","1","1","1","1","1","0","0","0","1","0","0","0","1","3","2","4","1","4","5","4","4","4","4","3","798934746745937922","许","433","","","","","","","","","","","","","","","","","","","","","","","","","","","","","","feedback_test","","","","","","","","","","","",""
"744","","f","psychophysics","167","650721","0.0-7.0-1.0-1.1-0.1-0.78","3","3","3","3","2","3","3","2","3","3","4","4","2","2","2","4","3","2","4","4","4","4","2","2","2","2","2","2","2","1","1","1","1","1","1","1","0","0","0","1","0","0","0","1","3","2","4","1","4","5","4","4","4","4","3","798934746745937922","许","433","","","","nonmatch","","","","","","","","","","","","","","key","f","16.66546601941809","768","428","f","true","nonmatch","img/triangle.png","六边","三角","ALT1_2","prac_ALT1_2","","","","","","","","","","","",""
"null","<span style='color:GreenYellow; font-size: 70px;'>正确! </span>","null","html-keyboard-response","168","651225","0.0-7.0-1.0-1.1-0.1-1.78","3","3","3","3","2","3","3","2","3","3","4","4","2","2","2","4","3","2","4","4","4","4","2","2","2","2","2","2","2","1","1","1","1","1","1","1","0","0","0","1","0","0","0","1","3","2","4","1","4","5","4","4","4","4","3","798934746745937922","许","433","","","","","","","","","","","","","","","","","","","","","","","","","","","","","","feedback_test","","","","","","","","","","","",""
"587","","j","psychophysics","169","652815","0.0-7.0-1.0-1.1-0.1-0.79","3","3","3","3","2","3","3","2","3","3","4","4","2","2","2","4","3","2","4","4","4","4","2","2","2","2","2","2","2","1","1","1","1","1","1","1","0","0","0","1","0","0","0","1","3","2","4","1","4","5","4","4","4","4","3","798934746745937922","许","433","","","","match","","","","","","","","","","","","","","key","j","16.66524468085164","768","428","f","false","nonmatch","img/hexagon.png","梯形","六边","ALT1_2","prac_ALT1_2","","","","","","","","","","","",""
"null","<span style='color:red; font-size: 70px;'>错误! </span>","null","html-keyboard-response","170","653317","0.0-7.0-1.0-1.1-0.1-1.79","3","3","3","3","2","3","3","2","3","3","4","4","2","2","2","4","3","2","4","4","4","4","2","2","2","2","2","2","2","1","1","1","1","1","1","1","0","0","0","1","0","0","0","1","3","2","4","1","4","5","4","4","4","4","3","798934746745937922","许","433","","","","","","","","","","","","","","","","","","","","","","","","","","","","","","feedback_test","","","","","","","","","","","",""
"640","","j","psychophysics","171","654961","0.0-7.0-1.0-1.1-0.1-0.80","3","3","3","3","2","3","3","2","3","3","4","4","2","2","2","4","3","2","4","4","4","4","2","2","2","2","2","2","2","1","1","1","1","1","1","1","0","0","0","1","0","0","0","1","3","2","4","1","4","5","4","4","4","4","3","798934746745937922","许","433","","","","match","","","","","","","","","","","","","","key","j","16.66566326530598","768","428","j","true","match","img/circle.png","圆形","圆形","ALT1_2","prac_ALT1_2","","","","","","","","","","","",""
"null","<span style='color:GreenYellow; font-size: 70px;'>正确! </span>","null","html-keyboard-response","172","655464","0.0-7.0-1.0-1.1-0.1-1.80","3","3","3","3","2","3","3","2","3","3","4","4","2","2","2","4","3","2","4","4","4","4","2","2","2","2","2","2","2","1","1","1","1","1","1","1","0","0","0","1","0","0","0","1","3","2","4","1","4","5","4","4","4","4","3","798934746745937922","许","433","","","","","","","","","","","","","","","","","","","","","","","","","","","","","","feedback_test","","","","","","","","","","","",""
"731","","f","psychophysics","173","657197","0.0-7.0-1.0-1.1-0.1-0.81","3","3","3","3","2","3","3","2","3","3","4","4","2","2","2","4","3","2","4","4","4","4","2","2","2","2","2","2","2","1","1","1","1","1","1","1","0","0","0","1","0","0","0","1","3","2","4","1","4","5","4","4","4","4","3","798934746745937922","许","433","","","","nonmatch","","","","","","","","","","","","","","key","f","16.66565048543723","768","428","f","true","nonmatch","img/circle.png","三角","圆形","ALT1_2","prac_ALT1_2","","","","","","","","","","","",""
"null","<span style='color:GreenYellow; font-size: 70px;'>正确! </span>","null","html-keyboard-response","174","657700","0.0-7.0-1.0-1.1-0.1-1.81","3","3","3","3","2","3","3","2","3","3","4","4","2","2","2","4","3","2","4","4","4","4","2","2","2","2","2","2","2","1","1","1","1","1","1","1","0","0","0","1","0","0","0","1","3","2","4","1","4","5","4","4","4","4","3","798934746745937922","许","433","","","","","","","","","","","","","","","","","","","","","","","","","","","","","","feedback_test","","","","","","","","","","","",""
"893","","f","psychophysics","175","659597","0.0-7.0-1.0-1.1-0.1-0.82","3","3","3","3","2","3","3","2","3","3","4","4","2","2","2","4","3","2","4","4","4","4","2","2","2","2","2","2","2","1","1","1","1","1","1","1","0","0","0","1","0","0","0","1","3","2","4","1","4","5","4","4","4","4","3","798934746745937922","许","433","","","","nonmatch","","","","","","","","","","","","","","key","f","16.664902654866918","768","428","f","true","nonmatch","img/hexagon.png","圆形","六边","ALT1_2","prac_ALT1_2","","","","","","","","","","","",""
"null","<span style='color:GreenYellow; font-size: 70px;'>正确! </span>","null","html-keyboard-response","176","660099","0.0-7.0-1.0-1.1-0.1-1.82","3","3","3","3","2","3","3","2","3","3","4","4","2","2","2","4","3","2","4","4","4","4","2","2","2","2","2","2","2","1","1","1","1","1","1","1","0","0","0","1","0","0","0","1","3","2","4","1","4","5","4","4","4","4","3","798934746745937922","许","433","","","","","","","","","","","","","","","","","","","","","","","","","","","","","","feedback_test","","","","","","","","","","","",""
"566","","j","psychophysics","177","661669","0.0-7.0-1.0-1.1-0.1-0.83","3","3","3","3","2","3","3","2","3","3","4","4","2","2","2","4","3","2","4","4","4","4","2","2","2","2","2","2","2","1","1","1","1","1","1","1","0","0","0","1","0","0","0","1","3","2","4","1","4","5","4","4","4","4","3","798934746745937922","许","433","","","","match","","","","","","","","","","","","","","key","j","16.66526881720425","768","428","j","true","match","img/triangle.png","三角","三角","ALT1_2","prac_ALT1_2","","","","","","","","","","","",""
"null","<span style='color:GreenYellow; font-size: 70px;'>正确! </span>","null","html-keyboard-response","178","662171","0.0-7.0-1.0-1.1-0.1-1.83","3","3","3","3","2","3","3","2","3","3","4","4","2","2","2","4","3","2","4","4","4","4","2","2","2","2","2","2","2","1","1","1","1","1","1","1","0","0","0","1","0","0","0","1","3","2","4","1","4","5","4","4","4","4","3","798934746745937922","许","433","","","","","","","","","","","","","","","","","","","","","","","","","","","","","","feedback_test","","","","","","","","","","","",""
"802","","f","psychophysics","179","663976","0.0-7.0-1.0-1.1-0.1-0.84","3","3","3","3","2","3","3","2","3","3","4","4","2","2","2","4","3","2","4","4","4","4","2","2","2","2","2","2","2","1","1","1","1","1","1","1","0","0","0","1","0","0","0","1","3","2","4","1","4","5","4","4","4","4","3","798934746745937922","许","433","","","","nonmatch","","","","","","","","","","","","","","key","f","16.665504672896404","768","428","f","true","nonmatch","img/triangle.png","梯形","三角","ALT1_2","prac_ALT1_2","","","","","","","","","","","",""
"null","<span style='color:GreenYellow; font-size: 70px;'>正确! </span>","null","html-keyboard-response","180","664479","0.0-7.0-1.0-1.1-0.1-1.84","3","3","3","3","2","3","3","2","3","3","4","4","2","2","2","4","3","2","4","4","4","4","2","2","2","2","2","2","2","1","1","1","1","1","1","1","0","0","0","1","0","0","0","1","3","2","4","1","4","5","4","4","4","4","3","798934746745937922","许","433","","","","","","","","","","","","","","","","","","","","","","","","","","","","","","feedback_test","","","","","","","","","","","",""
"586","","j","psychophysics","181","666068","0.0-7.0-1.0-1.1-0.1-0.85","3","3","3","3","2","3","3","2","3","3","4","4","2","2","2","4","3","2","4","4","4","4","2","2","2","2","2","2","2","1","1","1","1","1","1","1","0","0","0","1","0","0","0","1","3","2","4","1","4","5","4","4","4","4","3","798934746745937922","许","433","","","","match","","","","","","","","","","","","","","key","j","16.66561702127628","768","428","j","true","match","img/circle.png","圆形","圆形","ALT1_2","prac_ALT1_2","","","","","","","","","","","",""
