"rt","stimulus","response","trial_type","trial_index","time_elapsed","internal_node_id","ses_1","ses_2","ses_3","ses_4","ses_5","ses_6","ses_7","ses_8","ses_9","ses_10","coreself_1","coreself_2","coreself_3","coreself_4","coreself_5","coreself_6","coreself_7","coreself_8","coreself_9","coreself_10","SGPS_1","SGPS_2","SGPS_3","SGPS_4","SGPS_5","SGPS_6","SGPS_7","SGPS_8","SGPS_9","NPI1","NPI2","NPI3","NPI4","NPI5","NPI6","NPI7","NPI8","NPI9","NPI10","NPI11","NPI12","NPI13","NPI14","NPI15","hsns_1","hsns_2","hsns_3","hsns_4","hsns_5","trap1","hsns_6","hsns_7","hsns_8","hsns_9","hsns_10","subj_idx","friend_name","ParticipantID","value","success","user_agent","responses","item_order","radio_event_ids","radio_event_times","key_event_times","mouse_event_times","straightlining","zigzagging","honeypot","timeout","failed_images","failed_audio","failed_video","view_history","response_type","key_press","avg_frame_time","center_x","center_y","correct_response","correct","identity","Image","word","condition","task_id","screen_id","time_stamp","version_attrib","version_target","IAT","RT","varname","summary","version_attrib2","version_target2","question_order","correct_answer","trap1_item"
"5124","
   <p><div style = ""color: white;font-size:25px;"">您好，欢迎参加本次实验。</div> </p>
   <p><div style = ""color: white;font-size:25px;"">为充分保障您的权利，请确保您已经知晓并同意《参与实验同意书》以及《数据公开知情同意书》。</div></p>
   <p><div style = ""color: white;font-size:25px;"">如果您未见过上述内容，请咨询实验员。</div></p>
   <p><div style = ""color: white;font-size:25px;"">如果您选择继续实验，则表示您已经清楚两份知情同意书的内容并同意。</div></p>
   <p><div style = ""color: pink;font-size:30px;"">请确保您记得day0的实验编号，您将在本次实验输入该编号，若您忘记，请咨询实验员后作答。</div></p>
   <p><div style = ""color: lightblue;font-size:25px;"">请您尽可能认真地作答，我们将依据您在各问卷和按键任务中的作答质量发放报酬。</div></p>
   <p> <div style = ""color: green;font-size:25px;""><按空格键至下页></div> </p>
   "," ","html-keyboard-response","0","5128","0.0-0.0","4","4","4","4","3","3","3","3","3","3","5","4","2","4","4","4","4","4","4","3","2","2","2","2","3","2","2","2","1","0","0","1","0","0","1","1","1","1","0","0","0","1","1","1","5","2","2","2","3","4","2","3","4","2","3","789244798249869314","马","640","","","","","","","","","","","","","","","","","","","","","","","","","","","","","","","","","","","","","","","","","",""
"","","","call-function","1","5133","0.0-1.0-0.0","4","4","4","4","3","3","3","3","3","3","5","4","2","4","4","4","4","4","4","3","2","2","2","2","3","2","2","2","1","0","0","1","0","0","1","1","1","1","0","0","0","1","1","1","5","2","2","2","3","4","2","3","4","2","3","789244798249869314","马","640","","","","","","","","","","","","","","","","","","","","","","","","","","","","","","","","","","","","","","","","","",""
"31702","","{""friend_name"":""马"",""ParticipantID"":""640""}","survey-html-form","2","36837","0.0-1.0-1.0","4","4","4","4","3","3","3","3","3","3","5","4","2","4","4","4","4","4","4","3","2","2","2","2","3","2","2","2","1","0","0","1","0","0","1","1","1","1","0","0","0","1","1","1","5","2","2","2","3","4","2","3","4","2","3","789244798249869314","马","640","","","","","","","","","","","","","","","","","","","","","","","","","","","","","","","","","","","","","","","","","",""
"","","","fullscreen","3","38475","0.0-2.0","4","4","4","4","3","3","3","3","3","3","5","4","2","4","4","4","4","4","4","3","2","2","2","2","3","2","2","2","1","0","0","1","0","0","1","1","1","1","0","0","0","1","1","1","5","2","2","2","3","4","2","3","4","2","3","789244798249869314","马","640","","true","{}","","","","","","","","","","","","","","","","","","","","","","","","","","","","","","","","","","","","","","",""
"21447.5","","{""Q01"":""4"",""Q02"":""4"",""Q03"":""4"",""Q04"":""4"",""Q05"":""3"",""Q06"":""3"",""Q07"":""3"",""Q08"":""3"",""Q09"":""3"",""Q10"":""3""}","survey-template","4","59927","0.0-3.0","4","4","4","4","3","3","3","3","3","3","5","4","2","4","4","4","4","4","4","3","2","2","2","2","3","2","2","2","1","0","0","1","0","0","1","1","1","1","0","0","0","1","1","1","5","2","2","2","3","4","2","3","4","2","3","789244798249869314","马","640","","","","{""Q01"":""4"",""Q02"":""4"",""Q03"":""4"",""Q04"":""4"",""Q05"":""3"",""Q06"":""3"",""Q07"":""3"",""Q08"":""3"",""Q09"":""3"",""Q10"":""3""}","[0,1,2,3,4,5,6,7,8,9]","[""Q01"",""Q02"",""Q03"",""Q04"",""Q05"",""Q06"",""Q07"",""Q08"",""Q09"",""Q10""]","[3489.7999999523163,4673.199999809265,7979.899999856949,11462.199999809265,12433.5,14293.5,15425.599999904633,17459.799999952316,19449.5,20514.099999904633]","[]","[3489.7999999523163,4673.199999809265,7979.899999856949,11462.199999809265,12433.5,14293.5,15425.599999904633,17459.799999952316,19449.5,20514.099999904633,21445.699999809265]","0.4","0.4444444444444444","0","","","","","","","","","","","","","","","","","","","","","","","","","","","","","",""
"22141.299999952316","","{""Q01"":""5"",""Q02"":""4"",""Q03"":""2"",""Q04"":""4"",""Q05"":""4"",""Q06"":""4"",""Q07"":""4"",""Q08"":""4"",""Q09"":""4"",""Q10"":""3""}","survey-template","5","82079","0.0-4.0","4","4","4","4","3","3","3","3","3","3","5","4","2","4","4","4","4","4","4","3","2","2","2","2","3","2","2","2","1","0","0","1","0","0","1","1","1","1","0","0","0","1","1","1","5","2","2","2","3","4","2","3","4","2","3","789244798249869314","马","640","","","","{""Q01"":""5"",""Q02"":""4"",""Q03"":""2"",""Q04"":""4"",""Q05"":""4"",""Q06"":""4"",""Q07"":""4"",""Q08"":""4"",""Q09"":""4"",""Q10"":""3""}","[0,1,2,3,4,5,6,7,8,9]","[""Q01"",""Q02"",""Q03"",""Q04"",""Q05"",""Q06"",""Q07"",""Q08"",""Q09"",""Q10""]","[4638.700000047684,7133.299999952316,8347.299999952316,10307.099999904633,13163.5,14333.099999904633,15959.099999904633,17877.200000047684,19529.200000047684,20675.099999904633]","[]","[3077.399999856949,4638.700000047684,7133.299999952316,8347.299999952316,10307.099999904633,13163.5,14333.099999904633,15959.099999904633,17877.200000047684,19529.200000047684,20675.099999904633,22139.299999952316]","0.4","0.1111111111111111","0","","","","","","","","","","","","","","","","","","","","","","","","","","","","","",""
"","","","preload","6","82272","0.0-5.0","4","4","4","4","3","3","3","3","3","3","5","4","2","4","4","4","4","4","4","3","2","2","2","2","3","2","2","2","1","0","0","1","0","0","1","1","1","1","0","0","0","1","1","1","5","2","2","2","3","4","2","3","4","2","3","789244798249869314","马","640","","true","","","","","","","","","","","false","[]","[]","[]","","","","","","","","","","","","","","","","","","","","","","","","","",""
"6343","","","instructions","7","88618","0.0-6.0","4","4","4","4","3","3","3","3","3","3","5","4","2","4","4","4","4","4","4","3","2","2","2","2","3","2","2","2","1","0","0","1","0","0","1","1","1","1","0","0","0","1","1","1","5","2","2","2","3","4","2","3","4","2","3","789244798249869314","马","640","","","","","","","","","","","","","","","","","[{""page_index"":0,""viewing_time"":6343}]","","","","","","","","","","","","","","","","","","","","","","","","",""
"11172","","","instructions","8","99792","0.0-7.0-1.0-0.0","4","4","4","4","3","3","3","3","3","3","5","4","2","4","4","4","4","4","4","3","2","2","2","2","3","2","2","2","1","0","0","1","0","0","1","1","1","1","0","0","0","1","1","1","5","2","2","2","3","4","2","3","4","2","3","789244798249869314","马","640","","","","","","","","","","","","","","","","","[{""page_index"":0,""viewing_time"":7728},{""page_index"":1,""viewing_time"":1930},{""page_index"":2,""viewing_time"":1514}]","","","","","","","","","","","","","","","","","","","","","","","","",""
"701","","f","psychophysics","9","101513","0.0-7.0-1.0-1.0-0.0-0.0","4","4","4","4","3","3","3","3","3","3","5","4","2","4","4","4","4","4","4","3","2","2","2","2","3","2","2","2","1","0","0","1","0","0","1","1","1","1","0","0","0","1","1","1","5","2","2","2","3","4","2","3","4","2","3","789244798249869314","马","640","","","","match","","","","","","","","","","","","","","key","f","16.653455445544516","768","428","f","true","match","img/square.png","方形","方形","ALT1_2","prac_ALT1_2","","","","","","","","","","","",""
"null","<span style='color:GreenYellow; font-size: 70px;'>正确! </span>","null","html-keyboard-response","10","102030","0.0-7.0-1.0-1.0-0.0-1.0","4","4","4","4","3","3","3","3","3","3","5","4","2","4","4","4","4","4","4","3","2","2","2","2","3","2","2","2","1","0","0","1","0","0","1","1","1","1","0","0","0","1","1","1","5","2","2","2","3","4","2","3","4","2","3","789244798249869314","马","640","","","","","","","","","","","","","","","","","","","","","","","","","","","","","","feedback_test","","","","","","","","","","","",""
"688","","f","psychophysics","11","103731","0.0-7.0-1.0-1.0-0.0-0.1","4","4","4","4","3","3","3","3","3","3","5","4","2","4","4","4","4","4","4","3","2","2","2","2","3","2","2","2","1","0","0","1","0","0","1","1","1","1","0","0","0","1","1","1","5","2","2","2","3","4","2","3","4","2","3","789244798249869314","马","640","","","","match","","","","","","","","","","","","","","key","f","16.666495049505013","768","428","f","true","match","img/pentagon.png","五边","五边","ALT1_2","prac_ALT1_2","","","","","","","","","","","",""
"null","<span style='color:GreenYellow; font-size: 70px;'>正确! </span>","null","html-keyboard-response","12","104234","0.0-7.0-1.0-1.0-0.0-1.1","4","4","4","4","3","3","3","3","3","3","5","4","2","4","4","4","4","4","4","3","2","2","2","2","3","2","2","2","1","0","0","1","0","0","1","1","1","1","0","0","0","1","1","1","5","2","2","2","3","4","2","3","4","2","3","789244798249869314","马","640","","","","","","","","","","","","","","","","","","","","","","","","","","","","","","feedback_test","","","","","","","","","","","",""
"710","","j","psychophysics","13","105952","0.0-7.0-1.0-1.0-0.0-0.2","4","4","4","4","3","3","3","3","3","3","5","4","2","4","4","4","4","4","4","3","2","2","2","2","3","2","2","2","1","0","0","1","0","0","1","1","1","1","0","0","0","1","1","1","5","2","2","2","3","4","2","3","4","2","3","789244798249869314","马","640","","","","nonmatch","","","","","","","","","","","","","","key","j","16.663098039215672","768","428","j","true","nonmatch","img/square.png","菱形","方形","ALT1_2","prac_ALT1_2","","","","","","","","","","","",""
"null","<span style='color:GreenYellow; font-size: 70px;'>正确! </span>","null","html-keyboard-response","14","106469","0.0-7.0-1.0-1.0-0.0-1.2","4","4","4","4","3","3","3","3","3","3","5","4","2","4","4","4","4","4","4","3","2","2","2","2","3","2","2","2","1","0","0","1","0","0","1","1","1","1","0","0","0","1","1","1","5","2","2","2","3","4","2","3","4","2","3","789244798249869314","马","640","","","","","","","","","","","","","","","","","","","","","","","","","","","","","","feedback_test","","","","","","","","","","","",""
"671","","j","psychophysics","15","108180","0.0-7.0-1.0-1.0-0.0-0.3","4","4","4","4","3","3","3","3","3","3","5","4","2","4","4","4","4","4","4","3","2","2","2","2","3","2","2","2","1","0","0","1","0","0","1","1","1","1","0","0","0","1","1","1","5","2","2","2","3","4","2","3","4","2","3","789244798249869314","马","640","","","","nonmatch","","","","","","","","","","","","","","key","j","16.665754901960707","768","428","j","true","nonmatch","img/pentagon.png","菱形","五边","ALT1_2","prac_ALT1_2","","","","","","","","","","","",""
"null","<span style='color:GreenYellow; font-size: 70px;'>正确! </span>","null","html-keyboard-response","16","108694","0.0-7.0-1.0-1.0-0.0-1.3","4","4","4","4","3","3","3","3","3","3","5","4","2","4","4","4","4","4","4","3","2","2","2","2","3","2","2","2","1","0","0","1","0","0","1","1","1","1","0","0","0","1","1","1","5","2","2","2","3","4","2","3","4","2","3","789244798249869314","马","640","","","","","","","","","","","","","","","","","","","","","","","","","","","","","","feedback_test","","","","","","","","","","","",""
"761","","j","psychophysics","17","110457","0.0-7.0-1.0-1.0-0.0-0.4","4","4","4","4","3","3","3","3","3","3","5","4","2","4","4","4","4","4","4","3","2","2","2","2","3","2","2","2","1","0","0","1","0","0","1","1","1","1","0","0","0","1","1","1","5","2","2","2","3","4","2","3","4","2","3","789244798249869314","马","640","","","","nonmatch","","","","","","","","","","","","","","key","j","16.66731730769243","768","428","f","false","match","img/diamond.png","菱形","菱形","ALT1_2","prac_ALT1_2","","","","","","","","","","","",""
"null","<span style='color:red; font-size: 70px;'>错误! </span>","null","html-keyboard-response","18","110961","0.0-7.0-1.0-1.0-0.0-1.4","4","4","4","4","3","3","3","3","3","3","5","4","2","4","4","4","4","4","4","3","2","2","2","2","3","2","2","2","1","0","0","1","0","0","1","1","1","1","0","0","0","1","1","1","5","2","2","2","3","4","2","3","4","2","3","789244798249869314","马","640","","","","","","","","","","","","","","","","","","","","","","","","","","","","","","feedback_test","","","","","","","","","","","",""
"999","","f","psychophysics","19","112974","0.0-7.0-1.0-1.0-0.0-0.5","4","4","4","4","3","3","3","3","3","3","5","4","2","4","4","4","4","4","4","3","2","2","2","2","3","2","2","2","1","0","0","1","0","0","1","1","1","1","0","0","0","1","1","1","5","2","2","2","3","4","2","3","4","2","3","789244798249869314","马","640","","","","match","","","","","","","","","","","","","","key","f","16.66581512605033","768","428","f","true","match","img/ellipse.png","椭圆","椭圆","ALT1_2","prac_ALT1_2","","","","","","","","","","","",""
"null","<span style='color:GreenYellow; font-size: 70px;'>正确! </span>","null","html-keyboard-response","20","113509","0.0-7.0-1.0-1.0-0.0-1.5","4","4","4","4","3","3","3","3","3","3","5","4","2","4","4","4","4","4","4","3","2","2","2","2","3","2","2","2","1","0","0","1","0","0","1","1","1","1","0","0","0","1","1","1","5","2","2","2","3","4","2","3","4","2","3","789244798249869314","马","640","","","","","","","","","","","","","","","","","","","","","","","","","","","","","","feedback_test","","","","","","","","","","","",""
"1083","","j","psychophysics","21","115607","0.0-7.0-1.0-1.0-0.0-0.6","4","4","4","4","3","3","3","3","3","3","5","4","2","4","4","4","4","4","4","3","2","2","2","2","3","2","2","2","1","0","0","1","0","0","1","1","1","1","0","0","0","1","1","1","5","2","2","2","3","4","2","3","4","2","3","789244798249869314","马","640","","","","nonmatch","","","","","","","","","","","","","","key","j","16.6659838709677","768","428","j","true","nonmatch","img/diamond.png","椭圆","菱形","ALT1_2","prac_ALT1_2","","","","","","","","","","","",""
"null","<span style='color:GreenYellow; font-size: 70px;'>正确! </span>","null","html-keyboard-response","22","116118","0.0-7.0-1.0-1.0-0.0-1.6","4","4","4","4","3","3","3","3","3","3","5","4","2","4","4","4","4","4","4","3","2","2","2","2","3","2","2","2","1","0","0","1","0","0","1","1","1","1","0","0","0","1","1","1","5","2","2","2","3","4","2","3","4","2","3","789244798249869314","马","640","","","","","","","","","","","","","","","","","","","","","","","","","","","","","","feedback_test","","","","","","","","","","","",""
"681","","j","psychophysics","23","117804","0.0-7.0-1.0-1.0-0.0-0.7","4","4","4","4","3","3","3","3","3","3","5","4","2","4","4","4","4","4","4","3","2","2","2","2","3","2","2","2","1","0","0","1","0","0","1","1","1","1","0","0","0","1","1","1","5","2","2","2","3","4","2","3","4","2","3","789244798249869314","马","640","","","","nonmatch","","","","","","","","","","","","","","key","j","16.66572","768","428","f","false","match","img/diamond.png","菱形","菱形","ALT1_2","prac_ALT1_2","","","","","","","","","","","",""
"null","<span style='color:red; font-size: 70px;'>错误! </span>","null","html-keyboard-response","24","118310","0.0-7.0-1.0-1.0-0.0-1.7","4","4","4","4","3","3","3","3","3","3","5","4","2","4","4","4","4","4","4","3","2","2","2","2","3","2","2","2","1","0","0","1","0","0","1","1","1","1","0","0","0","1","1","1","5","2","2","2","3","4","2","3","4","2","3","789244798249869314","马","640","","","","","","","","","","","","","","","","","","","","","","","","","","","","","","feedback_test","","","","","","","","","","","",""
"1185","","j","psychophysics","25","120498","0.0-7.0-1.0-1.0-0.0-0.8","4","4","4","4","3","3","3","3","3","3","5","4","2","4","4","4","4","4","4","3","2","2","2","2","3","2","2","2","1","0","0","1","0","0","1","1","1","1","0","0","0","1","1","1","5","2","2","2","3","4","2","3","4","2","3","789244798249869314","马","640","","","","nonmatch","","","","","","","","","","","","","","key","j","16.66565116279063","768","428","j","true","nonmatch","img/diamond.png","五边","菱形","ALT1_2","prac_ALT1_2","","","","","","","","","","","",""
"null","<span style='color:GreenYellow; font-size: 70px;'>正确! </span>","null","html-keyboard-response","26","121044","0.0-7.0-1.0-1.0-0.0-1.8","4","4","4","4","3","3","3","3","3","3","5","4","2","4","4","4","4","4","4","3","2","2","2","2","3","2","2","2","1","0","0","1","0","0","1","1","1","1","0","0","0","1","1","1","5","2","2","2","3","4","2","3","4","2","3","789244798249869314","马","640","","","","","","","","","","","","","","","","","","","","","","","","","","","","","","feedback_test","","","","","","","","","","","",""
"795","","j","psychophysics","27","122851","0.0-7.0-1.0-1.0-0.0-0.9","4","4","4","4","3","3","3","3","3","3","5","4","2","4","4","4","4","4","4","3","2","2","2","2","3","2","2","2","1","0","0","1","0","0","1","1","1","1","0","0","0","1","1","1","5","2","2","2","3","4","2","3","4","2","3","789244798249869314","马","640","","","","nonmatch","","","","","","","","","","","","","","key","j","16.666299065420645","768","428","j","true","nonmatch","img/pentagon.png","方形","五边","ALT1_2","prac_ALT1_2","","","","","","","","","","","",""
"null","<span style='color:GreenYellow; font-size: 70px;'>正确! </span>","null","html-keyboard-response","28","123369","0.0-7.0-1.0-1.0-0.0-1.9","4","4","4","4","3","3","3","3","3","3","5","4","2","4","4","4","4","4","4","3","2","2","2","2","3","2","2","2","1","0","0","1","0","0","1","1","1","1","0","0","0","1","1","1","5","2","2","2","3","4","2","3","4","2","3","789244798249869314","马","640","","","","","","","","","","","","","","","","","","","","","","","","","","","","","","feedback_test","","","","","","","","","","","",""
"737","","j","psychophysics","29","125111","0.0-7.0-1.0-1.0-0.0-0.10","4","4","4","4","3","3","3","3","3","3","5","4","2","4","4","4","4","4","4","3","2","2","2","2","3","2","2","2","1","0","0","1","0","0","1","1","1","1","0","0","0","1","1","1","5","2","2","2","3","4","2","3","4","2","3","789244798249869314","马","640","","","","nonmatch","","","","","","","","","","","","","","key","j","16.663563106796204","768","428","j","true","nonmatch","img/ellipse.png","菱形","椭圆","ALT1_2","prac_ALT1_2","","","","","","","","","","","",""
"null","<span style='color:GreenYellow; font-size: 70px;'>正确! </span>","null","html-keyboard-response","30","125622","0.0-7.0-1.0-1.0-0.0-1.10","4","4","4","4","3","3","3","3","3","3","5","4","2","4","4","4","4","4","4","3","2","2","2","2","3","2","2","2","1","0","0","1","0","0","1","1","1","1","0","0","0","1","1","1","5","2","2","2","3","4","2","3","4","2","3","789244798249869314","马","640","","","","","","","","","","","","","","","","","","","","","","","","","","","","","","feedback_test","","","","","","","","","","","",""
"752","","j","psychophysics","31","127377","0.0-7.0-1.0-1.0-0.0-0.11","4","4","4","4","3","3","3","3","3","3","5","4","2","4","4","4","4","4","4","3","2","2","2","2","3","2","2","2","1","0","0","1","0","0","1","1","1","1","0","0","0","1","1","1","5","2","2","2","3","4","2","3","4","2","3","789244798249869314","马","640","","","","nonmatch","","","","","","","","","","","","","","key","j","16.66383653846158","768","428","j","true","nonmatch","img/pentagon.png","椭圆","五边","ALT1_2","prac_ALT1_2","","","","","","","","","","","",""
"null","<span style='color:GreenYellow; font-size: 70px;'>正确! </span>","null","html-keyboard-response","32","127930","0.0-7.0-1.0-1.0-0.0-1.11","4","4","4","4","3","3","3","3","3","3","5","4","2","4","4","4","4","4","4","3","2","2","2","2","3","2","2","2","1","0","0","1","0","0","1","1","1","1","0","0","0","1","1","1","5","2","2","2","3","4","2","3","4","2","3","789244798249869314","马","640","","","","","","","","","","","","","","","","","","","","","","","","","","","","","","feedback_test","","","","","","","","","","","",""
"755","","f","psychophysics","33","129709","0.0-7.0-1.0-1.0-0.0-0.12","4","4","4","4","3","3","3","3","3","3","5","4","2","4","4","4","4","4","4","3","2","2","2","2","3","2","2","2","1","0","0","1","0","0","1","1","1","1","0","0","0","1","1","1","5","2","2","2","3","4","2","3","4","2","3","789244798249869314","马","640","","","","match","","","","","","","","","","","","","","key","f","16.664075471698318","768","428","f","true","match","img/pentagon.png","五边","五边","ALT1_2","prac_ALT1_2","","","","","","","","","","","",""
"null","<span style='color:GreenYellow; font-size: 70px;'>正确! </span>","null","html-keyboard-response","34","130222","0.0-7.0-1.0-1.0-0.0-1.12","4","4","4","4","3","3","3","3","3","3","5","4","2","4","4","4","4","4","4","3","2","2","2","2","3","2","2","2","1","0","0","1","0","0","1","1","1","1","0","0","0","1","1","1","5","2","2","2","3","4","2","3","4","2","3","789244798249869314","马","640","","","","","","","","","","","","","","","","","","","","","","","","","","","","","","feedback_test","","","","","","","","","","","",""
"872","","f","psychophysics","35","132108","0.0-7.0-1.0-1.0-0.0-0.13","4","4","4","4","3","3","3","3","3","3","5","4","2","4","4","4","4","4","4","3","2","2","2","2","3","2","2","2","1","0","0","1","0","0","1","1","1","1","0","0","0","1","1","1","5","2","2","2","3","4","2","3","4","2","3","789244798249869314","马","640","","","","match","","","","","","","","","","","","","","key","f","16.662473214285587","768","428","f","true","match","img/pentagon.png","五边","五边","ALT1_2","prac_ALT1_2","","","","","","","","","","","",""
"null","<span style='color:GreenYellow; font-size: 70px;'>正确! </span>","null","html-keyboard-response","36","132628","0.0-7.0-1.0-1.0-0.0-1.13","4","4","4","4","3","3","3","3","3","3","5","4","2","4","4","4","4","4","4","3","2","2","2","2","3","2","2","2","1","0","0","1","0","0","1","1","1","1","0","0","0","1","1","1","5","2","2","2","3","4","2","3","4","2","3","789244798249869314","马","640","","","","","","","","","","","","","","","","","","","","","","","","","","","","","","feedback_test","","","","","","","","","","","",""
"708","","f","psychophysics","37","134342","0.0-7.0-1.0-1.0-0.0-0.14","4","4","4","4","3","3","3","3","3","3","5","4","2","4","4","4","4","4","4","3","2","2","2","2","3","2","2","2","1","0","0","1","0","0","1","1","1","1","0","0","0","1","1","1","5","2","2","2","3","4","2","3","4","2","3","789244798249869314","马","640","","","","match","","","","","","","","","","","","","","key","f","16.663088235294207","768","428","j","false","nonmatch","img/square.png","椭圆","方形","ALT1_2","prac_ALT1_2","","","","","","","","","","","",""
"null","<span style='color:red; font-size: 70px;'>错误! </span>","null","html-keyboard-response","38","134873","0.0-7.0-1.0-1.0-0.0-1.14","4","4","4","4","3","3","3","3","3","3","5","4","2","4","4","4","4","4","4","3","2","2","2","2","3","2","2","2","1","0","0","1","0","0","1","1","1","1","0","0","0","1","1","1","5","2","2","2","3","4","2","3","4","2","3","789244798249869314","马","640","","","","","","","","","","","","","","","","","","","","","","","","","","","","","","feedback_test","","","","","","","","","","","",""
"644","","f","psychophysics","39","136531","0.0-7.0-1.0-1.0-0.0-0.15","4","4","4","4","3","3","3","3","3","3","5","4","2","4","4","4","4","4","4","3","2","2","2","2","3","2","2","2","1","0","0","1","0","0","1","1","1","1","0","0","0","1","1","1","5","2","2","2","3","4","2","3","4","2","3","789244798249869314","马","640","","","","match","","","","","","","","","","","","","","key","f","16.66263265306117","768","428","f","true","match","img/ellipse.png","椭圆","椭圆","ALT1_2","prac_ALT1_2","","","","","","","","","","","",""
"null","<span style='color:GreenYellow; font-size: 70px;'>正确! </span>","null","html-keyboard-response","40","137034","0.0-7.0-1.0-1.0-0.0-1.15","4","4","4","4","3","3","3","3","3","3","5","4","2","4","4","4","4","4","4","3","2","2","2","2","3","2","2","2","1","0","0","1","0","0","1","1","1","1","0","0","0","1","1","1","5","2","2","2","3","4","2","3","4","2","3","789244798249869314","马","640","","","","","","","","","","","","","","","","","","","","","","","","","","","","","","feedback_test","","","","","","","","","","","",""
"688","","j","psychophysics","41","138724","0.0-7.0-1.0-1.0-0.0-0.16","4","4","4","4","3","3","3","3","3","3","5","4","2","4","4","4","4","4","4","3","2","2","2","2","3","2","2","2","1","0","0","1","0","0","1","1","1","1","0","0","0","1","1","1","5","2","2","2","3","4","2","3","4","2","3","789244798249869314","马","640","","","","nonmatch","","","","","","","","","","","","","","key","j","16.66266000000003","768","428","j","true","nonmatch","img/diamond.png","方形","菱形","ALT1_2","prac_ALT1_2","","","","","","","","","","","",""
"null","<span style='color:GreenYellow; font-size: 70px;'>正确! </span>","null","html-keyboard-response","42","139240","0.0-7.0-1.0-1.0-0.0-1.16","4","4","4","4","3","3","3","3","3","3","5","4","2","4","4","4","4","4","4","3","2","2","2","2","3","2","2","2","1","0","0","1","0","0","1","1","1","1","0","0","0","1","1","1","5","2","2","2","3","4","2","3","4","2","3","789244798249869314","马","640","","","","","","","","","","","","","","","","","","","","","","","","","","","","","","feedback_test","","","","","","","","","","","",""
"774","","f","psychophysics","43","141021","0.0-7.0-1.0-1.0-0.0-0.17","4","4","4","4","3","3","3","3","3","3","5","4","2","4","4","4","4","4","4","3","2","2","2","2","3","2","2","2","1","0","0","1","0","0","1","1","1","1","0","0","0","1","1","1","5","2","2","2","3","4","2","3","4","2","3","789244798249869314","马","640","","","","match","","","","","","","","","","","","","","key","f","16.66337735849056","768","428","f","true","match","img/ellipse.png","椭圆","椭圆","ALT1_2","prac_ALT1_2","","","","","","","","","","","",""
"null","<span style='color:GreenYellow; font-size: 70px;'>正确! </span>","null","html-keyboard-response","44","141535","0.0-7.0-1.0-1.0-0.0-1.17","4","4","4","4","3","3","3","3","3","3","5","4","2","4","4","4","4","4","4","3","2","2","2","2","3","2","2","2","1","0","0","1","0","0","1","1","1","1","0","0","0","1","1","1","5","2","2","2","3","4","2","3","4","2","3","789244798249869314","马","640","","","","","","","","","","","","","","","","","","","","","","","","","","","","","","feedback_test","","","","","","","","","","","",""
"732","","j","psychophysics","45","143281","0.0-7.0-1.0-1.0-0.0-0.18","4","4","4","4","3","3","3","3","3","3","5","4","2","4","4","4","4","4","4","3","2","2","2","2","3","2","2","2","1","0","0","1","0","0","1","1","1","1","0","0","0","1","1","1","5","2","2","2","3","4","2","3","4","2","3","789244798249869314","马","640","","","","nonmatch","","","","","","","","","","","","","","key","j","16.66325242718449","768","428","j","true","nonmatch","img/ellipse.png","方形","椭圆","ALT1_2","prac_ALT1_2","","","","","","","","","","","",""
"null","<span style='color:GreenYellow; font-size: 70px;'>正确! </span>","null","html-keyboard-response","46","143791","0.0-7.0-1.0-1.0-0.0-1.18","4","4","4","4","3","3","3","3","3","3","5","4","2","4","4","4","4","4","4","3","2","2","2","2","3","2","2","2","1","0","0","1","0","0","1","1","1","1","0","0","0","1","1","1","5","2","2","2","3","4","2","3","4","2","3","789244798249869314","马","640","","","","","","","","","","","","","","","","","","","","","","","","","","","","","","feedback_test","","","","","","","","","","","",""
"717","","f","psychophysics","47","145516","0.0-7.0-1.0-1.0-0.0-0.19","4","4","4","4","3","3","3","3","3","3","5","4","2","4","4","4","4","4","4","3","2","2","2","2","3","2","2","2","1","0","0","1","0","0","1","1","1","1","0","0","0","1","1","1","5","2","2","2","3","4","2","3","4","2","3","789244798249869314","马","640","","","","match","","","","","","","","","","","","","","key","f","16.66672549019602","768","428","f","true","match","img/square.png","方形","方形","ALT1_2","prac_ALT1_2","","","","","","","","","","","",""
"null","<span style='color:GreenYellow; font-size: 70px;'>正确! </span>","null","html-keyboard-response","48","146024","0.0-7.0-1.0-1.0-0.0-1.19","4","4","4","4","3","3","3","3","3","3","5","4","2","4","4","4","4","4","4","3","2","2","2","2","3","2","2","2","1","0","0","1","0","0","1","1","1","1","0","0","0","1","1","1","5","2","2","2","3","4","2","3","4","2","3","789244798249869314","马","640","","","","","","","","","","","","","","","","","","","","","","","","","","","","","","feedback_test","","","","","","","","","","","",""
"652","","f","psychophysics","49","147684","0.0-7.0-1.0-1.0-0.0-0.20","4","4","4","4","3","3","3","3","3","3","5","4","2","4","4","4","4","4","4","3","2","2","2","2","3","2","2","2","1","0","0","1","0","0","1","1","1","1","0","0","0","1","1","1","5","2","2","2","3","4","2","3","4","2","3","789244798249869314","马","640","","","","match","","","","","","","","","","","","","","key","f","16.663242424242352","768","428","f","true","match","img/square.png","方形","方形","ALT1_2","prac_ALT1_2","","","","","","","","","","","",""
"null","<span style='color:GreenYellow; font-size: 70px;'>正确! </span>","null","html-keyboard-response","50","148201","0.0-7.0-1.0-1.0-0.0-1.20","4","4","4","4","3","3","3","3","3","3","5","4","2","4","4","4","4","4","4","3","2","2","2","2","3","2","2","2","1","0","0","1","0","0","1","1","1","1","0","0","0","1","1","1","5","2","2","2","3","4","2","3","4","2","3","789244798249869314","马","640","","","","","","","","","","","","","","","","","","","","","","","","","","","","","","feedback_test","","","","","","","","","","","",""
"726","","f","psychophysics","51","149957","0.0-7.0-1.0-1.0-0.0-0.21","4","4","4","4","3","3","3","3","3","3","5","4","2","4","4","4","4","4","4","3","2","2","2","2","3","2","2","2","1","0","0","1","0","0","1","1","1","1","0","0","0","1","1","1","5","2","2","2","3","4","2","3","4","2","3","789244798249869314","马","640","","","","match","","","","","","","","","","","","","","key","f","16.66612500000002","768","428","f","true","match","img/diamond.png","菱形","菱形","ALT1_2","prac_ALT1_2","","","","","","","","","","","",""
"null","<span style='color:GreenYellow; font-size: 70px;'>正确! </span>","null","html-keyboard-response","52","150475","0.0-7.0-1.0-1.0-0.0-1.21","4","4","4","4","3","3","3","3","3","3","5","4","2","4","4","4","4","4","4","3","2","2","2","2","3","2","2","2","1","0","0","1","0","0","1","1","1","1","0","0","0","1","1","1","5","2","2","2","3","4","2","3","4","2","3","789244798249869314","马","640","","","","","","","","","","","","","","","","","","","","","","","","","","","","","","feedback_test","","","","","","","","","","","",""
"703","","j","psychophysics","53","152185","0.0-7.0-1.0-1.0-0.0-0.22","4","4","4","4","3","3","3","3","3","3","5","4","2","4","4","4","4","4","4","3","2","2","2","2","3","2","2","2","1","0","0","1","0","0","1","1","1","1","0","0","0","1","1","1","5","2","2","2","3","4","2","3","4","2","3","789244798249869314","马","640","","","","nonmatch","","","","","","","","","","","","","","key","j","16.663617647058953","768","428","j","true","nonmatch","img/ellipse.png","五边","椭圆","ALT1_2","prac_ALT1_2","","","","","","","","","","","",""
"null","<span style='color:GreenYellow; font-size: 70px;'>正确! </span>","null","html-keyboard-response","54","152695","0.0-7.0-1.0-1.0-0.0-1.22","4","4","4","4","3","3","3","3","3","3","5","4","2","4","4","4","4","4","4","3","2","2","2","2","3","2","2","2","1","0","0","1","0","0","1","1","1","1","0","0","0","1","1","1","5","2","2","2","3","4","2","3","4","2","3","789244798249869314","马","640","","","","","","","","","","","","","","","","","","","","","","","","","","","","","","feedback_test","","","","","","","","","","","",""
"738","","j","psychophysics","55","154437","0.0-7.0-1.0-1.0-0.0-0.23","4","4","4","4","3","3","3","3","3","3","5","4","2","4","4","4","4","4","4","3","2","2","2","2","3","2","2","2","1","0","0","1","0","0","1","1","1","1","0","0","0","1","1","1","5","2","2","2","3","4","2","3","4","2","3","789244798249869314","马","640","","","","nonmatch","","","","","","","","","","","","","","key","j","16.664902912621223","768","428","j","true","nonmatch","img/square.png","五边","方形","ALT1_2","prac_ALT1_2","","","","","","","","","","","",""
"null","<span style='color:GreenYellow; font-size: 70px;'>正确! </span>","null","html-keyboard-response","56","154950","0.0-7.0-1.0-1.0-0.0-1.23","4","4","4","4","3","3","3","3","3","3","5","4","2","4","4","4","4","4","4","3","2","2","2","2","3","2","2","2","1","0","0","1","0","0","1","1","1","1","0","0","0","1","1","1","5","2","2","2","3","4","2","3","4","2","3","789244798249869314","马","640","","","","","","","","","","","","","","","","","","","","","","","","","","","","","","feedback_test","","","","","","","","","","","",""
"506","","f","psychophysics","57","156487","0.0-7.0-1.0-1.0-0.0-0.24","4","4","4","4","3","3","3","3","3","3","5","4","2","4","4","4","4","4","4","3","2","2","2","2","3","2","2","2","1","0","0","1","0","0","1","1","1","1","0","0","0","1","1","1","5","2","2","2","3","4","2","3","4","2","3","789244798249869314","马","640","","","","match","","","","","","","","","","","","","","key","f","16.66768131868122","768","428","j","false","nonmatch","img/ellipse.png","菱形","椭圆","ALT1_2","prac_ALT1_2","","","","","","","","","","","",""
"null","<span style='color:red; font-size: 70px;'>错误! </span>","null","html-keyboard-response","58","156999","0.0-7.0-1.0-1.0-0.0-1.24","4","4","4","4","3","3","3","3","3","3","5","4","2","4","4","4","4","4","4","3","2","2","2","2","3","2","2","2","1","0","0","1","0","0","1","1","1","1","0","0","0","1","1","1","5","2","2","2","3","4","2","3","4","2","3","789244798249869314","马","640","","","","","","","","","","","","","","","","","","","","","","","","","","","","","","feedback_test","","","","","","","","","","","",""
"655","","f","psychophysics","59","158668","0.0-7.0-1.0-1.0-0.0-0.25","4","4","4","4","3","3","3","3","3","3","5","4","2","4","4","4","4","4","4","3","2","2","2","2","3","2","2","2","1","0","0","1","0","0","1","1","1","1","0","0","0","1","1","1","5","2","2","2","3","4","2","3","4","2","3","789244798249869314","马","640","","","","match","","","","","","","","","","","","","","key","f","16.666040404040643","768","428","f","true","match","img/square.png","方形","方形","ALT1_2","prac_ALT1_2","","","","","","","","","","","",""
"null","<span style='color:GreenYellow; font-size: 70px;'>正确! </span>","null","html-keyboard-response","60","159183","0.0-7.0-1.0-1.0-0.0-1.25","4","4","4","4","3","3","3","3","3","3","5","4","2","4","4","4","4","4","4","3","2","2","2","2","3","2","2","2","1","0","0","1","0","0","1","1","1","1","0","0","0","1","1","1","5","2","2","2","3","4","2","3","4","2","3","789244798249869314","马","640","","","","","","","","","","","","","","","","","","","","","","","","","","","","","","feedback_test","","","","","","","","","","","",""
"623","","j","psychophysics","61","160819","0.0-7.0-1.0-1.0-0.0-0.26","4","4","4","4","3","3","3","3","3","3","5","4","2","4","4","4","4","4","4","3","2","2","2","2","3","2","2","2","1","0","0","1","0","0","1","1","1","1","0","0","0","1","1","1","5","2","2","2","3","4","2","3","4","2","3","789244798249869314","马","640","","","","nonmatch","","","","","","","","","","","","","","key","j","16.66329896907213","768","428","j","true","nonmatch","img/diamond.png","五边","菱形","ALT1_2","prac_ALT1_2","","","","","","","","","","","",""
"null","<span style='color:GreenYellow; font-size: 70px;'>正确! </span>","null","html-keyboard-response","62","161327","0.0-7.0-1.0-1.0-0.0-1.26","4","4","4","4","3","3","3","3","3","3","5","4","2","4","4","4","4","4","4","3","2","2","2","2","3","2","2","2","1","0","0","1","0","0","1","1","1","1","0","0","0","1","1","1","5","2","2","2","3","4","2","3","4","2","3","789244798249869314","马","640","","","","","","","","","","","","","","","","","","","","","","","","","","","","","","feedback_test","","","","","","","","","","","",""
"524","","f","psychophysics","63","162869","0.0-7.0-1.0-1.0-0.0-0.27","4","4","4","4","3","3","3","3","3","3","5","4","2","4","4","4","4","4","4","3","2","2","2","2","3","2","2","2","1","0","0","1","0","0","1","1","1","1","0","0","0","1","1","1","5","2","2","2","3","4","2","3","4","2","3","789244798249869314","马","640","","","","match","","","","","","","","","","","","","","key","f","16.667472527472746","768","428","f","true","match","img/ellipse.png","椭圆","椭圆","ALT1_2","prac_ALT1_2","","","","","","","","","","","",""
"null","<span style='color:GreenYellow; font-size: 70px;'>正确! </span>","null","html-keyboard-response","64","163375","0.0-7.0-1.0-1.0-0.0-1.27","4","4","4","4","3","3","3","3","3","3","5","4","2","4","4","4","4","4","4","3","2","2","2","2","3","2","2","2","1","0","0","1","0","0","1","1","1","1","0","0","0","1","1","1","5","2","2","2","3","4","2","3","4","2","3","789244798249869314","马","640","","","","","","","","","","","","","","","","","","","","","","","","","","","","","","feedback_test","","","","","","","","","","","",""
"724","","j","psychophysics","65","165103","0.0-7.0-1.0-1.0-0.0-0.28","4","4","4","4","3","3","3","3","3","3","5","4","2","4","4","4","4","4","4","3","2","2","2","2","3","2","2","2","1","0","0","1","0","0","1","1","1","1","0","0","0","1","1","1","5","2","2","2","3","4","2","3","4","2","3","789244798249869314","马","640","","","","nonmatch","","","","","","","","","","","","","","key","j","16.562490196078535","768","428","j","true","nonmatch","img/pentagon.png","菱形","五边","ALT1_2","prac_ALT1_2","","","","","","","","","","","",""
"null","<span style='color:GreenYellow; font-size: 70px;'>正确! </span>","null","html-keyboard-response","66","165612","0.0-7.0-1.0-1.0-0.0-1.28","4","4","4","4","3","3","3","3","3","3","5","4","2","4","4","4","4","4","4","3","2","2","2","2","3","2","2","2","1","0","0","1","0","0","1","1","1","1","0","0","0","1","1","1","5","2","2","2","3","4","2","3","4","2","3","789244798249869314","马","640","","","","","","","","","","","","","","","","","","","","","","","","","","","","","","feedback_test","","","","","","","","","","","",""
"719","","f","psychophysics","67","167347","0.0-7.0-1.0-1.0-0.0-0.29","4","4","4","4","3","3","3","3","3","3","5","4","2","4","4","4","4","4","4","3","2","2","2","2","3","2","2","2","1","0","0","1","0","0","1","1","1","1","0","0","0","1","1","1","5","2","2","2","3","4","2","3","4","2","3","789244798249869314","马","640","","","","match","","","","","","","","","","","","","","key","f","16.663843137254897","768","428","j","false","nonmatch","img/pentagon.png","椭圆","五边","ALT1_2","prac_ALT1_2","","","","","","","","","","","",""
"null","<span style='color:red; font-size: 70px;'>错误! </span>","null","html-keyboard-response","68","167855","0.0-7.0-1.0-1.0-0.0-1.29","4","4","4","4","3","3","3","3","3","3","5","4","2","4","4","4","4","4","4","3","2","2","2","2","3","2","2","2","1","0","0","1","0","0","1","1","1","1","0","0","0","1","1","1","5","2","2","2","3","4","2","3","4","2","3","789244798249869314","马","640","","","","","","","","","","","","","","","","","","","","","","","","","","","","","","feedback_test","","","","","","","","","","","",""
"562","","j","psychophysics","69","169455","0.0-7.0-1.0-1.0-0.0-0.30","4","4","4","4","3","3","3","3","3","3","5","4","2","4","4","4","4","4","4","3","2","2","2","2","3","2","2","2","1","0","0","1","0","0","1","1","1","1","0","0","0","1","1","1","5","2","2","2","3","4","2","3","4","2","3","789244798249869314","马","640","","","","nonmatch","","","","","","","","","","","","","","key","j","16.664652631578868","768","428","j","true","nonmatch","img/diamond.png","方形","菱形","ALT1_2","prac_ALT1_2","","","","","","","","","","","",""
"null","<span style='color:GreenYellow; font-size: 70px;'>正确! </span>","null","html-keyboard-response","70","169966","0.0-7.0-1.0-1.0-0.0-1.30","4","4","4","4","3","3","3","3","3","3","5","4","2","4","4","4","4","4","4","3","2","2","2","2","3","2","2","2","1","0","0","1","0","0","1","1","1","1","0","0","0","1","1","1","5","2","2","2","3","4","2","3","4","2","3","789244798249869314","马","640","","","","","","","","","","","","","","","","","","","","","","","","","","","","","","feedback_test","","","","","","","","","","","",""
"613","","j","psychophysics","71","171588","0.0-7.0-1.0-1.0-0.0-0.31","4","4","4","4","3","3","3","3","3","3","5","4","2","4","4","4","4","4","4","3","2","2","2","2","3","2","2","2","1","0","0","1","0","0","1","1","1","1","0","0","0","1","1","1","5","2","2","2","3","4","2","3","4","2","3","789244798249869314","马","640","","","","nonmatch","","","","","","","","","","","","","","key","j","16.667156250000215","768","428","j","true","nonmatch","img/square.png","五边","方形","ALT1_2","prac_ALT1_2","","","","","","","","","","","",""
"null","<span style='color:GreenYellow; font-size: 70px;'>正确! </span>","null","html-keyboard-response","72","172102","0.0-7.0-1.0-1.0-0.0-1.31","4","4","4","4","3","3","3","3","3","3","5","4","2","4","4","4","4","4","4","3","2","2","2","2","3","2","2","2","1","0","0","1","0","0","1","1","1","1","0","0","0","1","1","1","5","2","2","2","3","4","2","3","4","2","3","789244798249869314","马","640","","","","","","","","","","","","","","","","","","","","","","","","","","","","","","feedback_test","","","","","","","","","","","",""
"692","","j","psychophysics","73","173801","0.0-7.0-1.0-1.0-0.0-0.32","4","4","4","4","3","3","3","3","3","3","5","4","2","4","4","4","4","4","4","3","2","2","2","2","3","2","2","2","1","0","0","1","0","0","1","1","1","1","0","0","0","1","1","1","5","2","2","2","3","4","2","3","4","2","3","789244798249869314","马","640","","","","nonmatch","","","","","","","","","","","","","","key","j","16.666574257425676","768","428","j","true","nonmatch","img/ellipse.png","五边","椭圆","ALT1_2","prac_ALT1_2","","","","","","","","","","","",""
"null","<span style='color:GreenYellow; font-size: 70px;'>正确! </span>","null","html-keyboard-response","74","174314","0.0-7.0-1.0-1.0-0.0-1.32","4","4","4","4","3","3","3","3","3","3","5","4","2","4","4","4","4","4","4","3","2","2","2","2","3","2","2","2","1","0","0","1","0","0","1","1","1","1","0","0","0","1","1","1","5","2","2","2","3","4","2","3","4","2","3","789244798249869314","马","640","","","","","","","","","","","","","","","","","","","","","","","","","","","","","","feedback_test","","","","","","","","","","","",""
"558","","f","psychophysics","75","175901","0.0-7.0-1.0-1.0-0.0-0.33","4","4","4","4","3","3","3","3","3","3","5","4","2","4","4","4","4","4","4","3","2","2","2","2","3","2","2","2","1","0","0","1","0","0","1","1","1","1","0","0","0","1","1","1","5","2","2","2","3","4","2","3","4","2","3","789244798249869314","马","640","","","","match","","","","","","","","","","","","","","key","f","16.667053191489142","768","428","f","true","match","img/square.png","方形","方形","ALT1_2","prac_ALT1_2","","","","","","","","","","","",""
"null","<span style='color:GreenYellow; font-size: 70px;'>正确! </span>","null","html-keyboard-response","76","176405","0.0-7.0-1.0-1.0-0.0-1.33","4","4","4","4","3","3","3","3","3","3","5","4","2","4","4","4","4","4","4","3","2","2","2","2","3","2","2","2","1","0","0","1","0","0","1","1","1","1","0","0","0","1","1","1","5","2","2","2","3","4","2","3","4","2","3","789244798249869314","马","640","","","","","","","","","","","","","","","","","","","","","","","","","","","","","","feedback_test","","","","","","","","","","","",""
"645","","f","psychophysics","77","178054","0.0-7.0-1.0-1.0-0.0-0.34","4","4","4","4","3","3","3","3","3","3","5","4","2","4","4","4","4","4","4","3","2","2","2","2","3","2","2","2","1","0","0","1","0","0","1","1","1","1","0","0","0","1","1","1","5","2","2","2","3","4","2","3","4","2","3","789244798249869314","马","640","","","","match","","","","","","","","","","","","","","key","f","16.665408163265223","768","428","f","true","match","img/pentagon.png","五边","五边","ALT1_2","prac_ALT1_2","","","","","","","","","","","",""
"null","<span style='color:GreenYellow; font-size: 70px;'>正确! </span>","null","html-keyboard-response","78","178564","0.0-7.0-1.0-1.0-0.0-1.34","4","4","4","4","3","3","3","3","3","3","5","4","2","4","4","4","4","4","4","3","2","2","2","2","3","2","2","2","1","0","0","1","0","0","1","1","1","1","0","0","0","1","1","1","5","2","2","2","3","4","2","3","4","2","3","789244798249869314","马","640","","","","","","","","","","","","","","","","","","","","","","","","","","","","","","feedback_test","","","","","","","","","","","",""
"831","","f","psychophysics","79","180405","0.0-7.0-1.0-1.0-0.0-0.35","4","4","4","4","3","3","3","3","3","3","5","4","2","4","4","4","4","4","4","3","2","2","2","2","3","2","2","2","1","0","0","1","0","0","1","1","1","1","0","0","0","1","1","1","5","2","2","2","3","4","2","3","4","2","3","789244798249869314","马","640","","","","match","","","","","","","","","","","","","","key","f","16.66633944954123","768","428","j","false","nonmatch","img/diamond.png","椭圆","菱形","ALT1_2","prac_ALT1_2","","","","","","","","","","","",""
"null","<span style='color:red; font-size: 70px;'>错误! </span>","null","html-keyboard-response","80","180915","0.0-7.0-1.0-1.0-0.0-1.35","4","4","4","4","3","3","3","3","3","3","5","4","2","4","4","4","4","4","4","3","2","2","2","2","3","2","2","2","1","0","0","1","0","0","1","1","1","1","0","0","0","1","1","1","5","2","2","2","3","4","2","3","4","2","3","789244798249869314","马","640","","","","","","","","","","","","","","","","","","","","","","","","","","","","","","feedback_test","","","","","","","","","","","",""
"632","","f","psychophysics","81","182573","0.0-7.0-1.0-1.0-0.0-0.36","4","4","4","4","3","3","3","3","3","3","5","4","2","4","4","4","4","4","4","3","2","2","2","2","3","2","2","2","1","0","0","1","0","0","1","1","1","1","0","0","0","1","1","1","5","2","2","2","3","4","2","3","4","2","3","789244798249869314","马","640","","","","match","","","","","","","","","","","","","","key","f","16.666540816326492","768","428","f","true","match","img/pentagon.png","五边","五边","ALT1_2","prac_ALT1_2","","","","","","","","","","","",""
"null","<span style='color:GreenYellow; font-size: 70px;'>正确! </span>","null","html-keyboard-response","82","183082","0.0-7.0-1.0-1.0-0.0-1.36","4","4","4","4","3","3","3","3","3","3","5","4","2","4","4","4","4","4","4","3","2","2","2","2","3","2","2","2","1","0","0","1","0","0","1","1","1","1","0","0","0","1","1","1","5","2","2","2","3","4","2","3","4","2","3","789244798249869314","马","640","","","","","","","","","","","","","","","","","","","","","","","","","","","","","","feedback_test","","","","","","","","","","","",""
"659","","f","psychophysics","83","184749","0.0-7.0-1.0-1.0-0.0-0.37","4","4","4","4","3","3","3","3","3","3","5","4","2","4","4","4","4","4","4","3","2","2","2","2","3","2","2","2","1","0","0","1","0","0","1","1","1","1","0","0","0","1","1","1","5","2","2","2","3","4","2","3","4","2","3","789244798249869314","马","640","","","","match","","","","","","","","","","","","","","key","f","16.666646464646387","768","428","f","true","match","img/ellipse.png","椭圆","椭圆","ALT1_2","prac_ALT1_2","","","","","","","","","","","",""
"null","<span style='color:GreenYellow; font-size: 70px;'>正确! </span>","null","html-keyboard-response","84","185263","0.0-7.0-1.0-1.0-0.0-1.37","4","4","4","4","3","3","3","3","3","3","5","4","2","4","4","4","4","4","4","3","2","2","2","2","3","2","2","2","1","0","0","1","0","0","1","1","1","1","0","0","0","1","1","1","5","2","2","2","3","4","2","3","4","2","3","789244798249869314","马","640","","","","","","","","","","","","","","","","","","","","","","","","","","","","","","feedback_test","","","","","","","","","","","",""
"679","","j","psychophysics","85","186952","0.0-7.0-1.0-1.0-0.0-0.38","4","4","4","4","3","3","3","3","3","3","5","4","2","4","4","4","4","4","4","3","2","2","2","2","3","2","2","2","1","0","0","1","0","0","1","1","1","1","0","0","0","1","1","1","5","2","2","2","3","4","2","3","4","2","3","789244798249869314","马","640","","","","nonmatch","","","","","","","","","","","","","","key","j","16.66646000000008","768","428","f","false","match","img/diamond.png","菱形","菱形","ALT1_2","prac_ALT1_2","","","","","","","","","","","",""
"null","<span style='color:red; font-size: 70px;'>错误! </span>","null","html-keyboard-response","86","187470","0.0-7.0-1.0-1.0-0.0-1.38","4","4","4","4","3","3","3","3","3","3","5","4","2","4","4","4","4","4","4","3","2","2","2","2","3","2","2","2","1","0","0","1","0","0","1","1","1","1","0","0","0","1","1","1","5","2","2","2","3","4","2","3","4","2","3","789244798249869314","马","640","","","","","","","","","","","","","","","","","","","","","","","","","","","","","","feedback_test","","","","","","","","","","","",""
"692","","f","psychophysics","87","189195","0.0-7.0-1.0-1.0-0.0-0.39","4","4","4","4","3","3","3","3","3","3","5","4","2","4","4","4","4","4","4","3","2","2","2","2","3","2","2","2","1","0","0","1","0","0","1","1","1","1","0","0","0","1","1","1","5","2","2","2","3","4","2","3","4","2","3","789244798249869314","马","640","","","","match","","","","","","","","","","","","","","key","f","16.667509803921384","768","428","f","true","match","img/diamond.png","菱形","菱形","ALT1_2","prac_ALT1_2","","","","","","","","","","","",""
"null","<span style='color:GreenYellow; font-size: 70px;'>正确! </span>","null","html-keyboard-response","88","189715","0.0-7.0-1.0-1.0-0.0-1.39","4","4","4","4","3","3","3","3","3","3","5","4","2","4","4","4","4","4","4","3","2","2","2","2","3","2","2","2","1","0","0","1","0","0","1","1","1","1","0","0","0","1","1","1","5","2","2","2","3","4","2","3","4","2","3","789244798249869314","马","640","","","","","","","","","","","","","","","","","","","","","","","","","","","","","","feedback_test","","","","","","","","","","","",""
"605","","j","psychophysics","89","191326","0.0-7.0-1.0-1.0-0.0-0.40","4","4","4","4","3","3","3","3","3","3","5","4","2","4","4","4","4","4","4","3","2","2","2","2","3","2","2","2","1","0","0","1","0","0","1","1","1","1","0","0","0","1","1","1","5","2","2","2","3","4","2","3","4","2","3","789244798249869314","马","640","","","","nonmatch","","","","","","","","","","","","","","key","j","16.665500000000065","768","428","j","true","nonmatch","img/square.png","椭圆","方形","ALT1_2","prac_ALT1_2","","","","","","","","","","","",""
"null","<span style='color:GreenYellow; font-size: 70px;'>正确! </span>","null","html-keyboard-response","90","191836","0.0-7.0-1.0-1.0-0.0-1.40","4","4","4","4","3","3","3","3","3","3","5","4","2","4","4","4","4","4","4","3","2","2","2","2","3","2","2","2","1","0","0","1","0","0","1","1","1","1","0","0","0","1","1","1","5","2","2","2","3","4","2","3","4","2","3","789244798249869314","马","640","","","","","","","","","","","","","","","","","","","","","","","","","","","","","","feedback_test","","","","","","","","","","","",""
"722","","j","psychophysics","91","193562","0.0-7.0-1.0-1.0-0.0-0.41","4","4","4","4","3","3","3","3","3","3","5","4","2","4","4","4","4","4","4","3","2","2","2","2","3","2","2","2","1","0","0","1","0","0","1","1","1","1","0","0","0","1","1","1","5","2","2","2","3","4","2","3","4","2","3","789244798249869314","马","640","","","","nonmatch","","","","","","","","","","","","","","key","j","16.65979411764705","768","428","j","true","nonmatch","img/pentagon.png","方形","五边","ALT1_2","prac_ALT1_2","","","","","","","","","","","",""
"null","<span style='color:GreenYellow; font-size: 70px;'>正确! </span>","null","html-keyboard-response","92","194071","0.0-7.0-1.0-1.0-0.0-1.41","4","4","4","4","3","3","3","3","3","3","5","4","2","4","4","4","4","4","4","3","2","2","2","2","3","2","2","2","1","0","0","1","0","0","1","1","1","1","0","0","0","1","1","1","5","2","2","2","3","4","2","3","4","2","3","789244798249869314","马","640","","","","","","","","","","","","","","","","","","","","","","","","","","","","","","feedback_test","","","","","","","","","","","",""
"606","","f","psychophysics","93","195709","0.0-7.0-1.0-1.0-0.0-0.42","4","4","4","4","3","3","3","3","3","3","5","4","2","4","4","4","4","4","4","3","2","2","2","2","3","2","2","2","1","0","0","1","0","0","1","1","1","1","0","0","0","1","1","1","5","2","2","2","3","4","2","3","4","2","3","789244798249869314","马","640","","","","match","","","","","","","","","","","","","","key","f","16.662750000000113","768","428","f","true","match","img/pentagon.png","五边","五边","ALT1_2","prac_ALT1_2","","","","","","","","","","","",""
"null","<span style='color:GreenYellow; font-size: 70px;'>正确! </span>","null","html-keyboard-response","94","196222","0.0-7.0-1.0-1.0-0.0-1.42","4","4","4","4","3","3","3","3","3","3","5","4","2","4","4","4","4","4","4","3","2","2","2","2","3","2","2","2","1","0","0","1","0","0","1","1","1","1","0","0","0","1","1","1","5","2","2","2","3","4","2","3","4","2","3","789244798249869314","马","640","","","","","","","","","","","","","","","","","","","","","","","","","","","","","","feedback_test","","","","","","","","","","","",""
"658","","f","psychophysics","95","197894","0.0-7.0-1.0-1.0-0.0-0.43","4","4","4","4","3","3","3","3","3","3","5","4","2","4","4","4","4","4","4","3","2","2","2","2","3","2","2","2","1","0","0","1","0","0","1","1","1","1","0","0","0","1","1","1","5","2","2","2","3","4","2","3","4","2","3","789244798249869314","马","640","","","","match","","","","","","","","","","","","","","key","f","16.666515151515306","768","428","f","true","match","img/diamond.png","菱形","菱形","ALT1_2","prac_ALT1_2","","","","","","","","","","","",""
"null","<span style='color:GreenYellow; font-size: 70px;'>正确! </span>","null","html-keyboard-response","96","198399","0.0-7.0-1.0-1.0-0.0-1.43","4","4","4","4","3","3","3","3","3","3","5","4","2","4","4","4","4","4","4","3","2","2","2","2","3","2","2","2","1","0","0","1","0","0","1","1","1","1","0","0","0","1","1","1","5","2","2","2","3","4","2","3","4","2","3","789244798249869314","马","640","","","","","","","","","","","","","","","","","","","","","","","","","","","","","","feedback_test","","","","","","","","","","","",""
"623","","f","psychophysics","97","200025","0.0-7.0-1.0-1.0-0.0-0.44","4","4","4","4","3","3","3","3","3","3","5","4","2","4","4","4","4","4","4","3","2","2","2","2","3","2","2","2","1","0","0","1","0","0","1","1","1","1","0","0","0","1","1","1","5","2","2","2","3","4","2","3","4","2","3","789244798249869314","马","640","","","","match","","","","","","","","","","","","","","key","f","16.666309278350642","768","428","f","true","match","img/ellipse.png","椭圆","椭圆","ALT1_2","prac_ALT1_2","","","","","","","","","","","",""
"null","<span style='color:GreenYellow; font-size: 70px;'>正确! </span>","null","html-keyboard-response","98","200534","0.0-7.0-1.0-1.0-0.0-1.44","4","4","4","4","3","3","3","3","3","3","5","4","2","4","4","4","4","4","4","3","2","2","2","2","3","2","2","2","1","0","0","1","0","0","1","1","1","1","0","0","0","1","1","1","5","2","2","2","3","4","2","3","4","2","3","789244798249869314","马","640","","","","","","","","","","","","","","","","","","","","","","","","","","","","","","feedback_test","","","","","","","","","","","",""
"656","","f","psychophysics","99","202209","0.0-7.0-1.0-1.0-0.0-0.45","4","4","4","4","3","3","3","3","3","3","5","4","2","4","4","4","4","4","4","3","2","2","2","2","3","2","2","2","1","0","0","1","0","0","1","1","1","1","0","0","0","1","1","1","5","2","2","2","3","4","2","3","4","2","3","789244798249869314","马","640","","","","match","","","","","","","","","","","","","","key","f","16.666858585858588","768","428","f","true","match","img/square.png","方形","方形","ALT1_2","prac_ALT1_2","","","","","","","","","","","",""
"null","<span style='color:GreenYellow; font-size: 70px;'>正确! </span>","null","html-keyboard-response","100","202718","0.0-7.0-1.0-1.0-0.0-1.45","4","4","4","4","3","3","3","3","3","3","5","4","2","4","4","4","4","4","4","3","2","2","2","2","3","2","2","2","1","0","0","1","0","0","1","1","1","1","0","0","0","1","1","1","5","2","2","2","3","4","2","3","4","2","3","789244798249869314","马","640","","","","","","","","","","","","","","","","","","","","","","","","","","","","","","feedback_test","","","","","","","","","","","",""
"684","","j","psychophysics","101","204405","0.0-7.0-1.0-1.0-0.0-0.46","4","4","4","4","3","3","3","3","3","3","5","4","2","4","4","4","4","4","4","3","2","2","2","2","3","2","2","2","1","0","0","1","0","0","1","1","1","1","0","0","0","1","1","1","5","2","2","2","3","4","2","3","4","2","3","789244798249869314","马","640","","","","nonmatch","","","","","","","","","","","","","","key","j","16.66262000000017","768","428","j","true","nonmatch","img/ellipse.png","方形","椭圆","ALT1_2","prac_ALT1_2","","","","","","","","","","","",""
"null","<span style='color:GreenYellow; font-size: 70px;'>正确! </span>","null","html-keyboard-response","102","204909","0.0-7.0-1.0-1.0-0.0-1.46","4","4","4","4","3","3","3","3","3","3","5","4","2","4","4","4","4","4","4","3","2","2","2","2","3","2","2","2","1","0","0","1","0","0","1","1","1","1","0","0","0","1","1","1","5","2","2","2","3","4","2","3","4","2","3","789244798249869314","马","640","","","","","","","","","","","","","","","","","","","","","","","","","","","","","","feedback_test","","","","","","","","","","","",""
"892","","j","psychophysics","103","206810","0.0-7.0-1.0-1.0-0.0-0.47","4","4","4","4","3","3","3","3","3","3","5","4","2","4","4","4","4","4","4","3","2","2","2","2","3","2","2","2","1","0","0","1","0","0","1","1","1","1","0","0","0","1","1","1","5","2","2","2","3","4","2","3","4","2","3","789244798249869314","马","640","","","","nonmatch","","","","","","","","","","","","","","key","j","16.666300884955636","768","428","j","true","nonmatch","img/square.png","菱形","方形","ALT1_2","prac_ALT1_2","","","","","","","","","","","",""
"null","<span style='color:GreenYellow; font-size: 70px;'>正确! </span>","null","html-keyboard-response","104","207356","0.0-7.0-1.0-1.0-0.0-1.47","4","4","4","4","3","3","3","3","3","3","5","4","2","4","4","4","4","4","4","3","2","2","2","2","3","2","2","2","1","0","0","1","0","0","1","1","1","1","0","0","0","1","1","1","5","2","2","2","3","4","2","3","4","2","3","789244798249869314","马","640","","","","","","","","","","","","","","","","","","","","","","","","","","","","","","feedback_test","","","","","","","","","","","",""
"111637","<style>.context{color:white; font-size: 35px; line-height:40px}</style>                          <div><p class='context'>您正确回答了85% 的试次。</p><p class='context'>您的平均反应时为716毫秒。</p><p class='context'>恭喜您完成练习。按空格键进入正式实验。</p><p class='footer' style='font-size: 35px; line-height:40px;'>请在进入正式实验实验之前将您的<span style='color: lightgreen;'>食指</span>放在电脑键盘的相应键位上进行按键。</p>"," ","html-keyboard-response","105","319001","0.0-7.0-1.0-2.0","4","4","4","4","3","3","3","3","3","3","5","4","2","4","4","4","4","4","4","3","2","2","2","2","3","2","2","2","1","0","0","1","0","0","1","1","1","1","0","0","0","1","1","1","5","2","2","2","3","4","2","3","4","2","3","789244798249869314","马","640","","","","","","","","","","","","","","","","","","","","","","","","","","","","","","","","","","","","","","","","","",""
"761","
  <p style='color: white; font-size: 22px'>请您将手指放在按键上，准备进入正式的匹配任务。</p>
  <p> <div style = ""color: green""><按空格键进入下一阶段的匹配任务></div></p>
  "," ","html-keyboard-response","106","319774","0.0-7.0-1.0-3.0","4","4","4","4","3","3","3","3","3","3","5","4","2","4","4","4","4","4","4","3","2","2","2","2","3","2","2","2","1","0","0","1","0","0","1","1","1","1","0","0","0","1","1","1","5","2","2","2","3","4","2","3","4","2","3","789244798249869314","马","640","","","","","","","","","","","","","","","","","","","","","","","","","","","","","","","","","","","","","","","","","",""
"746","","f","psychophysics","107","321522","0.0-7.0-1.0-4.0-0.0-0.0","4","4","4","4","3","3","3","3","3","3","5","4","2","4","4","4","4","4","4","3","2","2","2","2","3","2","2","2","1","0","0","1","0","0","1","1","1","1","0","0","0","1","1","1","5","2","2","2","3","4","2","3","4","2","3","789244798249869314","马","640","","","","match","","","","","","","","","","","","","","key","f","16.666553398058525","768","428","j","false","nonmatch","img/diamond.png","方形","菱形","ALT1","formal_ALT1_2","","","","","","","","","","","",""
"null","<span style='color:red; font-size: 70px;'>错误! </span>","null","html-keyboard-response","108","322027","0.0-7.0-1.0-4.0-0.0-1.0","4","4","4","4","3","3","3","3","3","3","5","4","2","4","4","4","4","4","4","3","2","2","2","2","3","2","2","2","1","0","0","1","0","0","1","1","1","1","0","0","0","1","1","1","5","2","2","2","3","4","2","3","4","2","3","789244798249869314","马","640","","","","","","","","","","","","","","","","","","","","","","","","","","","","","","feedback_test","","","","","","","","","","","",""
"657","","j","psychophysics","109","323696","0.0-7.0-1.0-4.0-0.0-0.1","4","4","4","4","3","3","3","3","3","3","5","4","2","4","4","4","4","4","4","3","2","2","2","2","3","2","2","2","1","0","0","1","0","0","1","1","1","1","0","0","0","1","1","1","5","2","2","2","3","4","2","3","4","2","3","789244798249869314","马","640","","","","nonmatch","","","","","","","","","","","","","","key","j","16.66321212121208","768","428","j","true","nonmatch","img/diamond.png","椭圆","菱形","ALT1","formal_ALT1_2","","","","","","","","","","","",""
"null","<span style='color:GreenYellow; font-size: 70px;'>正确! </span>","null","html-keyboard-response","110","324237","0.0-7.0-1.0-4.0-0.0-1.1","4","4","4","4","3","3","3","3","3","3","5","4","2","4","4","4","4","4","4","3","2","2","2","2","3","2","2","2","1","0","0","1","0","0","1","1","1","1","0","0","0","1","1","1","5","2","2","2","3","4","2","3","4","2","3","789244798249869314","马","640","","","","","","","","","","","","","","","","","","","","","","","","","","","","","","feedback_test","","","","","","","","","","","",""
"653","","j","psychophysics","111","325895","0.0-7.0-1.0-4.0-0.0-0.2","4","4","4","4","3","3","3","3","3","3","5","4","2","4","4","4","4","4","4","3","2","2","2","2","3","2","2","2","1","0","0","1","0","0","1","1","1","1","0","0","0","1","1","1","5","2","2","2","3","4","2","3","4","2","3","789244798249869314","马","640","","","","nonmatch","","","","","","","","","","","","","","key","j","16.666608247422907","768","428","j","true","nonmatch","img/ellipse.png","五边","椭圆","ALT1","formal_ALT1_2","","","","","","","","","","","",""
"null","<span style='color:GreenYellow; font-size: 70px;'>正确! </span>","null","html-keyboard-response","112","326403","0.0-7.0-1.0-4.0-0.0-1.2","4","4","4","4","3","3","3","3","3","3","5","4","2","4","4","4","4","4","4","3","2","2","2","2","3","2","2","2","1","0","0","1","0","0","1","1","1","1","0","0","0","1","1","1","5","2","2","2","3","4","2","3","4","2","3","789244798249869314","马","640","","","","","","","","","","","","","","","","","","","","","","","","","","","","","","feedback_test","","","","","","","","","","","",""
"820","","j","psychophysics","113","328227","0.0-7.0-1.0-4.0-0.0-0.3","4","4","4","4","3","3","3","3","3","3","5","4","2","4","4","4","4","4","4","3","2","2","2","2","3","2","2","2","1","0","0","1","0","0","1","1","1","1","0","0","0","1","1","1","5","2","2","2","3","4","2","3","4","2","3","789244798249869314","马","640","","","","nonmatch","","","","","","","","","","","","","","key","j","16.664407407407353","768","428","j","true","nonmatch","img/ellipse.png","菱形","椭圆","ALT1","formal_ALT1_2","","","","","","","","","","","",""
"null","<span style='color:GreenYellow; font-size: 70px;'>正确! </span>","null","html-keyboard-response","114","328733","0.0-7.0-1.0-4.0-0.0-1.3","4","4","4","4","3","3","3","3","3","3","5","4","2","4","4","4","4","4","4","3","2","2","2","2","3","2","2","2","1","0","0","1","0","0","1","1","1","1","0","0","0","1","1","1","5","2","2","2","3","4","2","3","4","2","3","789244798249869314","马","640","","","","","","","","","","","","","","","","","","","","","","","","","","","","","","feedback_test","","","","","","","","","","","",""
"796","","j","psychophysics","115","330533","0.0-7.0-1.0-4.0-0.0-0.4","4","4","4","4","3","3","3","3","3","3","5","4","2","4","4","4","4","4","4","3","2","2","2","2","3","2","2","2","1","0","0","1","0","0","1","1","1","1","0","0","0","1","1","1","5","2","2","2","3","4","2","3","4","2","3","789244798249869314","马","640","","","","nonmatch","","","","","","","","","","","","","","key","j","16.664962616822546","768","428","j","true","nonmatch","img/pentagon.png","菱形","五边","ALT1","formal_ALT1_2","","","","","","","","","","","",""
"null","<span style='color:GreenYellow; font-size: 70px;'>正确! </span>","null","html-keyboard-response","116","331075","0.0-7.0-1.0-4.0-0.0-1.4","4","4","4","4","3","3","3","3","3","3","5","4","2","4","4","4","4","4","4","3","2","2","2","2","3","2","2","2","1","0","0","1","0","0","1","1","1","1","0","0","0","1","1","1","5","2","2","2","3","4","2","3","4","2","3","789244798249869314","马","640","","","","","","","","","","","","","","","","","","","","","","","","","","","","","","feedback_test","","","","","","","","","","","",""
"631","","f","psychophysics","117","332718","0.0-7.0-1.0-4.0-0.0-0.5","4","4","4","4","3","3","3","3","3","3","5","4","2","4","4","4","4","4","4","3","2","2","2","2","3","2","2","2","1","0","0","1","0","0","1","1","1","1","0","0","0","1","1","1","5","2","2","2","3","4","2","3","4","2","3","789244798249869314","马","640","","","","match","","","","","","","","","","","","","","key","f","16.662865979381543","768","428","f","true","match","img/pentagon.png","五边","五边","ALT1","formal_ALT1_2","","","","","","","","","","","",""
"null","<span style='color:GreenYellow; font-size: 70px;'>正确! </span>","null","html-keyboard-response","118","333234","0.0-7.0-1.0-4.0-0.0-1.5","4","4","4","4","3","3","3","3","3","3","5","4","2","4","4","4","4","4","4","3","2","2","2","2","3","2","2","2","1","0","0","1","0","0","1","1","1","1","0","0","0","1","1","1","5","2","2","2","3","4","2","3","4","2","3","789244798249869314","马","640","","","","","","","","","","","","","","","","","","","","","","","","","","","","","","feedback_test","","","","","","","","","","","",""
"769","","f","psychophysics","119","335008","0.0-7.0-1.0-4.0-0.0-0.6","4","4","4","4","3","3","3","3","3","3","5","4","2","4","4","4","4","4","4","3","2","2","2","2","3","2","2","2","1","0","0","1","0","0","1","1","1","1","0","0","0","1","1","1","5","2","2","2","3","4","2","3","4","2","3","789244798249869314","马","640","","","","match","","","","","","","","","","","","","","key","f","16.652933333333515","768","428","f","true","match","img/diamond.png","菱形","菱形","ALT1","formal_ALT1_2","","","","","","","","","","","",""
"null","<span style='color:GreenYellow; font-size: 70px;'>正确! </span>","null","html-keyboard-response","120","335511","0.0-7.0-1.0-4.0-0.0-1.6","4","4","4","4","3","3","3","3","3","3","5","4","2","4","4","4","4","4","4","3","2","2","2","2","3","2","2","2","1","0","0","1","0","0","1","1","1","1","0","0","0","1","1","1","5","2","2","2","3","4","2","3","4","2","3","789244798249869314","马","640","","","","","","","","","","","","","","","","","","","","","","","","","","","","","","feedback_test","","","","","","","","","","","",""
"825","","f","psychophysics","121","337341","0.0-7.0-1.0-4.0-0.0-0.7","4","4","4","4","3","3","3","3","3","3","5","4","2","4","4","4","4","4","4","3","2","2","2","2","3","2","2","2","1","0","0","1","0","0","1","1","1","1","0","0","0","1","1","1","5","2","2","2","3","4","2","3","4","2","3","789244798249869314","马","640","","","","match","","","","","","","","","","","","","","key","f","16.664963302752025","768","428","f","true","match","img/diamond.png","菱形","菱形","ALT1","formal_ALT1_2","","","","","","","","","","","",""
"null","<span style='color:GreenYellow; font-size: 70px;'>正确! </span>","null","html-keyboard-response","122","337879","0.0-7.0-1.0-4.0-0.0-1.7","4","4","4","4","3","3","3","3","3","3","5","4","2","4","4","4","4","4","4","3","2","2","2","2","3","2","2","2","1","0","0","1","0","0","1","1","1","1","0","0","0","1","1","1","5","2","2","2","3","4","2","3","4","2","3","789244798249869314","马","640","","","","","","","","","","","","","","","","","","","","","","","","","","","","","","feedback_test","","","","","","","","","","","",""
"691","","j","psychophysics","123","339593","0.0-7.0-1.0-4.0-0.0-0.8","4","4","4","4","3","3","3","3","3","3","5","4","2","4","4","4","4","4","4","3","2","2","2","2","3","2","2","2","1","0","0","1","0","0","1","1","1","1","0","0","0","1","1","1","5","2","2","2","3","4","2","3","4","2","3","789244798249869314","马","640","","","","nonmatch","","","","","","","","","","","","","","key","j","16.662921568627617","768","428","j","true","nonmatch","img/ellipse.png","方形","椭圆","ALT1","formal_ALT1_2","","","","","","","","","","","",""
"null","<span style='color:GreenYellow; font-size: 70px;'>正确! </span>","null","html-keyboard-response","124","340095","0.0-7.0-1.0-4.0-0.0-1.8","4","4","4","4","3","3","3","3","3","3","5","4","2","4","4","4","4","4","4","3","2","2","2","2","3","2","2","2","1","0","0","1","0","0","1","1","1","1","0","0","0","1","1","1","5","2","2","2","3","4","2","3","4","2","3","789244798249869314","马","640","","","","","","","","","","","","","","","","","","","","","","","","","","","","","","feedback_test","","","","","","","","","","","",""
"714","","f","psychophysics","125","341816","0.0-7.0-1.0-4.0-0.0-0.9","4","4","4","4","3","3","3","3","3","3","5","4","2","4","4","4","4","4","4","3","2","2","2","2","3","2","2","2","1","0","0","1","0","0","1","1","1","1","0","0","0","1","1","1","5","2","2","2","3","4","2","3","4","2","3","789244798249869314","马","640","","","","match","","","","","","","","","","","","","","key","f","16.66286274509769","768","428","f","true","match","img/ellipse.png","椭圆","椭圆","ALT1","formal_ALT1_2","","","","","","","","","","","",""
"null","<span style='color:GreenYellow; font-size: 70px;'>正确! </span>","null","html-keyboard-response","126","342333","0.0-7.0-1.0-4.0-0.0-1.9","4","4","4","4","3","3","3","3","3","3","5","4","2","4","4","4","4","4","4","3","2","2","2","2","3","2","2","2","1","0","0","1","0","0","1","1","1","1","0","0","0","1","1","1","5","2","2","2","3","4","2","3","4","2","3","789244798249869314","马","640","","","","","","","","","","","","","","","","","","","","","","","","","","","","","","feedback_test","","","","","","","","","","","",""
"622","","f","psychophysics","127","343958","0.0-7.0-1.0-4.0-0.0-0.10","4","4","4","4","3","3","3","3","3","3","5","4","2","4","4","4","4","4","4","3","2","2","2","2","3","2","2","2","1","0","0","1","0","0","1","1","1","1","0","0","0","1","1","1","5","2","2","2","3","4","2","3","4","2","3","789244798249869314","马","640","","","","match","","","","","","","","","","","","","","key","f","16.666281249999884","768","428","f","true","match","img/ellipse.png","椭圆","椭圆","ALT1","formal_ALT1_2","","","","","","","","","","","",""
"null","<span style='color:GreenYellow; font-size: 70px;'>正确! </span>","null","html-keyboard-response","128","344461","0.0-7.0-1.0-4.0-0.0-1.10","4","4","4","4","3","3","3","3","3","3","5","4","2","4","4","4","4","4","4","3","2","2","2","2","3","2","2","2","1","0","0","1","0","0","1","1","1","1","0","0","0","1","1","1","5","2","2","2","3","4","2","3","4","2","3","789244798249869314","马","640","","","","","","","","","","","","","","","","","","","","","","","","","","","","","","feedback_test","","","","","","","","","","","",""
"690","","j","psychophysics","129","346190","0.0-7.0-1.0-4.0-0.0-0.11","4","4","4","4","3","3","3","3","3","3","5","4","2","4","4","4","4","4","4","3","2","2","2","2","3","2","2","2","1","0","0","1","0","0","1","1","1","1","0","0","0","1","1","1","5","2","2","2","3","4","2","3","4","2","3","789244798249869314","马","640","","","","nonmatch","","","","","","","","","","","","","","key","j","16.665660194174986","768","428","j","true","nonmatch","img/diamond.png","五边","菱形","ALT1","formal_ALT1_2","","","","","","","","","","","",""
"null","<span style='color:GreenYellow; font-size: 70px;'>正确! </span>","null","html-keyboard-response","130","346703","0.0-7.0-1.0-4.0-0.0-1.11","4","4","4","4","3","3","3","3","3","3","5","4","2","4","4","4","4","4","4","3","2","2","2","2","3","2","2","2","1","0","0","1","0","0","1","1","1","1","0","0","0","1","1","1","5","2","2","2","3","4","2","3","4","2","3","789244798249869314","马","640","","","","","","","","","","","","","","","","","","","","","","","","","","","","","","feedback_test","","","","","","","","","","","",""
"646","","f","psychophysics","131","348362","0.0-7.0-1.0-4.0-0.0-0.12","4","4","4","4","3","3","3","3","3","3","5","4","2","4","4","4","4","4","4","3","2","2","2","2","3","2","2","2","1","0","0","1","0","0","1","1","1","1","0","0","0","1","1","1","5","2","2","2","3","4","2","3","4","2","3","789244798249869314","马","640","","","","match","","","","","","","","","","","","","","key","f","16.666520408162853","768","428","f","true","match","img/pentagon.png","五边","五边","ALT1","formal_ALT1_2","","","","","","","","","","","",""
"null","<span style='color:GreenYellow; font-size: 70px;'>正确! </span>","null","html-keyboard-response","132","348876","0.0-7.0-1.0-4.0-0.0-1.12","4","4","4","4","3","3","3","3","3","3","5","4","2","4","4","4","4","4","4","3","2","2","2","2","3","2","2","2","1","0","0","1","0","0","1","1","1","1","0","0","0","1","1","1","5","2","2","2","3","4","2","3","4","2","3","789244798249869314","马","640","","","","","","","","","","","","","","","","","","","","","","","","","","","","","","feedback_test","","","","","","","","","","","",""
"864","","j","psychophysics","133","350746","0.0-7.0-1.0-4.0-0.0-0.13","4","4","4","4","3","3","3","3","3","3","5","4","2","4","4","4","4","4","4","3","2","2","2","2","3","2","2","2","1","0","0","1","0","0","1","1","1","1","0","0","0","1","1","1","5","2","2","2","3","4","2","3","4","2","3","789244798249869314","马","640","","","","nonmatch","","","","","","","","","","","","","","key","j","16.66361261261281","768","428","j","true","nonmatch","img/pentagon.png","方形","五边","ALT1","formal_ALT1_2","","","","","","","","","","","",""
"null","<span style='color:GreenYellow; font-size: 70px;'>正确! </span>","null","html-keyboard-response","134","351257","0.0-7.0-1.0-4.0-0.0-1.13","4","4","4","4","3","3","3","3","3","3","5","4","2","4","4","4","4","4","4","3","2","2","2","2","3","2","2","2","1","0","0","1","0","0","1","1","1","1","0","0","0","1","1","1","5","2","2","2","3","4","2","3","4","2","3","789244798249869314","马","640","","","","","","","","","","","","","","","","","","","","","","","","","","","","","","feedback_test","","","","","","","","","","","",""
"838","","f","psychophysics","135","353119","0.0-7.0-1.0-4.0-0.0-0.14","4","4","4","4","3","3","3","3","3","3","5","4","2","4","4","4","4","4","4","3","2","2","2","2","3","2","2","2","1","0","0","1","0","0","1","1","1","1","0","0","0","1","1","1","5","2","2","2","3","4","2","3","4","2","3","789244798249869314","马","640","","","","match","","","","","","","","","","","","","","key","f","16.66384684684663","768","428","j","false","nonmatch","img/square.png","椭圆","方形","ALT1","formal_ALT1_2","","","","","","","","","","","",""
"null","<span style='color:red; font-size: 70px;'>错误! </span>","null","html-keyboard-response","136","353635","0.0-7.0-1.0-4.0-0.0-1.14","4","4","4","4","3","3","3","3","3","3","5","4","2","4","4","4","4","4","4","3","2","2","2","2","3","2","2","2","1","0","0","1","0","0","1","1","1","1","0","0","0","1","1","1","5","2","2","2","3","4","2","3","4","2","3","789244798249869314","马","640","","","","","","","","","","","","","","","","","","","","","","","","","","","","","","feedback_test","","","","","","","","","","","",""
"745","","j","psychophysics","137","355392","0.0-7.0-1.0-4.0-0.0-0.15","4","4","4","4","3","3","3","3","3","3","5","4","2","4","4","4","4","4","4","3","2","2","2","2","3","2","2","2","1","0","0","1","0","0","1","1","1","1","0","0","0","1","1","1","5","2","2","2","3","4","2","3","4","2","3","789244798249869314","马","640","","","","nonmatch","","","","","","","","","","","","","","key","j","16.666740384614968","768","428","j","true","nonmatch","img/square.png","五边","方形","ALT1","formal_ALT1_2","","","","","","","","","","","",""
"null","<span style='color:GreenYellow; font-size: 70px;'>正确! </span>","null","html-keyboard-response","138","355909","0.0-7.0-1.0-4.0-0.0-1.15","4","4","4","4","3","3","3","3","3","3","5","4","2","4","4","4","4","4","4","3","2","2","2","2","3","2","2","2","1","0","0","1","0","0","1","1","1","1","0","0","0","1","1","1","5","2","2","2","3","4","2","3","4","2","3","789244798249869314","马","640","","","","","","","","","","","","","","","","","","","","","","","","","","","","","","feedback_test","","","","","","","","","","","",""
"709","","f","psychophysics","139","357622","0.0-7.0-1.0-4.0-0.0-0.16","4","4","4","4","3","3","3","3","3","3","5","4","2","4","4","4","4","4","4","3","2","2","2","2","3","2","2","2","1","0","0","1","0","0","1","1","1","1","0","0","0","1","1","1","5","2","2","2","3","4","2","3","4","2","3","789244798249869314","马","640","","","","match","","","","","","","","","","","","","","key","f","16.66559803921572","768","428","f","true","match","img/pentagon.png","五边","五边","ALT1","formal_ALT1_2","","","","","","","","","","","",""
"null","<span style='color:GreenYellow; font-size: 70px;'>正确! </span>","null","html-keyboard-response","140","358141","0.0-7.0-1.0-4.0-0.0-1.16","4","4","4","4","3","3","3","3","3","3","5","4","2","4","4","4","4","4","4","3","2","2","2","2","3","2","2","2","1","0","0","1","0","0","1","1","1","1","0","0","0","1","1","1","5","2","2","2","3","4","2","3","4","2","3","789244798249869314","马","640","","","","","","","","","","","","","","","","","","","","","","","","","","","","","","feedback_test","","","","","","","","","","","",""
"811","","j","psychophysics","141","359991","0.0-7.0-1.0-4.0-0.0-0.17","4","4","4","4","3","3","3","3","3","3","5","4","2","4","4","4","4","4","4","3","2","2","2","2","3","2","2","2","1","0","0","1","0","0","1","1","1","1","0","0","0","1","1","1","5","2","2","2","3","4","2","3","4","2","3","789244798249869314","马","640","","","","nonmatch","","","","","","","","","","","","","","key","j","16.666458715596065","768","428","j","true","nonmatch","img/pentagon.png","椭圆","五边","ALT1","formal_ALT1_2","","","","","","","","","","","",""
"null","<span style='color:GreenYellow; font-size: 70px;'>正确! </span>","null","html-keyboard-response","142","360507","0.0-7.0-1.0-4.0-0.0-1.17","4","4","4","4","3","3","3","3","3","3","5","4","2","4","4","4","4","4","4","3","2","2","2","2","3","2","2","2","1","0","0","1","0","0","1","1","1","1","0","0","0","1","1","1","5","2","2","2","3","4","2","3","4","2","3","789244798249869314","马","640","","","","","","","","","","","","","","","","","","","","","","","","","","","","","","feedback_test","","","","","","","","","","","",""
"646","","f","psychophysics","143","362158","0.0-7.0-1.0-4.0-0.0-0.18","4","4","4","4","3","3","3","3","3","3","5","4","2","4","4","4","4","4","4","3","2","2","2","2","3","2","2","2","1","0","0","1","0","0","1","1","1","1","0","0","0","1","1","1","5","2","2","2","3","4","2","3","4","2","3","789244798249869314","马","640","","","","match","","","","","","","","","","","","","","key","f","16.66336734693887","768","428","f","true","match","img/ellipse.png","椭圆","椭圆","ALT1","formal_ALT1_2","","","","","","","","","","","",""
"null","<span style='color:GreenYellow; font-size: 70px;'>正确! </span>","null","html-keyboard-response","144","362671","0.0-7.0-1.0-4.0-0.0-1.18","4","4","4","4","3","3","3","3","3","3","5","4","2","4","4","4","4","4","4","3","2","2","2","2","3","2","2","2","1","0","0","1","0","0","1","1","1","1","0","0","0","1","1","1","5","2","2","2","3","4","2","3","4","2","3","789244798249869314","马","640","","","","","","","","","","","","","","","","","","","","","","","","","","","","","","feedback_test","","","","","","","","","","","",""
"759","","f","psychophysics","145","364437","0.0-7.0-1.0-4.0-0.0-0.19","4","4","4","4","3","3","3","3","3","3","5","4","2","4","4","4","4","4","4","3","2","2","2","2","3","2","2","2","1","0","0","1","0","0","1","1","1","1","0","0","0","1","1","1","5","2","2","2","3","4","2","3","4","2","3","789244798249869314","马","640","","","","match","","","","","","","","","","","","","","key","f","16.662857142857476","768","428","f","true","match","img/square.png","方形","方形","ALT1","formal_ALT1_2","","","","","","","","","","","",""
"null","<span style='color:GreenYellow; font-size: 70px;'>正确! </span>","null","html-keyboard-response","146","364953","0.0-7.0-1.0-4.0-0.0-1.19","4","4","4","4","3","3","3","3","3","3","5","4","2","4","4","4","4","4","4","3","2","2","2","2","3","2","2","2","1","0","0","1","0","0","1","1","1","1","0","0","0","1","1","1","5","2","2","2","3","4","2","3","4","2","3","789244798249869314","马","640","","","","","","","","","","","","","","","","","","","","","","","","","","","","","","feedback_test","","","","","","","","","","","",""
"763","","f","psychophysics","147","366746","0.0-7.0-1.0-4.0-0.0-0.20","4","4","4","4","3","3","3","3","3","3","5","4","2","4","4","4","4","4","4","3","2","2","2","2","3","2","2","2","1","0","0","1","0","0","1","1","1","1","0","0","0","1","1","1","5","2","2","2","3","4","2","3","4","2","3","789244798249869314","马","640","","","","match","","","","","","","","","","","","","","key","f","16.66521698113186","768","428","f","true","match","img/square.png","方形","方形","ALT1","formal_ALT1_2","","","","","","","","","","","",""
"null","<span style='color:GreenYellow; font-size: 70px;'>正确! </span>","null","html-keyboard-response","148","367255","0.0-7.0-1.0-4.0-0.0-1.20","4","4","4","4","3","3","3","3","3","3","5","4","2","4","4","4","4","4","4","3","2","2","2","2","3","2","2","2","1","0","0","1","0","0","1","1","1","1","0","0","0","1","1","1","5","2","2","2","3","4","2","3","4","2","3","789244798249869314","马","640","","","","","","","","","","","","","","","","","","","","","","","","","","","","","","feedback_test","","","","","","","","","","","",""
"923","","j","psychophysics","149","369184","0.0-7.0-1.0-4.0-0.0-0.21","4","4","4","4","3","3","3","3","3","3","5","4","2","4","4","4","4","4","4","3","2","2","2","2","3","2","2","2","1","0","0","1","0","0","1","1","1","1","0","0","0","1","1","1","5","2","2","2","3","4","2","3","4","2","3","789244798249869314","马","640","","","","nonmatch","","","","","","","","","","","","","","key","j","16.665626086956195","768","428","j","true","nonmatch","img/square.png","菱形","方形","ALT1","formal_ALT1_2","","","","","","","","","","","",""
"null","<span style='color:GreenYellow; font-size: 70px;'>正确! </span>","null","html-keyboard-response","150","369692","0.0-7.0-1.0-4.0-0.0-1.21","4","4","4","4","3","3","3","3","3","3","5","4","2","4","4","4","4","4","4","3","2","2","2","2","3","2","2","2","1","0","0","1","0","0","1","1","1","1","0","0","0","1","1","1","5","2","2","2","3","4","2","3","4","2","3","789244798249869314","马","640","","","","","","","","","","","","","","","","","","","","","","","","","","","","","","feedback_test","","","","","","","","","","","",""
"690","","f","psychophysics","151","371386","0.0-7.0-1.0-4.0-0.0-0.22","4","4","4","4","3","3","3","3","3","3","5","4","2","4","4","4","4","4","4","3","2","2","2","2","3","2","2","2","1","0","0","1","0","0","1","1","1","1","0","0","0","1","1","1","5","2","2","2","3","4","2","3","4","2","3","789244798249869314","马","640","","","","match","","","","","","","","","","","","","","key","f","16.66525000000023","768","428","f","true","match","img/diamond.png","菱形","菱形","ALT1","formal_ALT1_2","","","","","","","","","","","",""
"null","<span style='color:GreenYellow; font-size: 70px;'>正确! </span>","null","html-keyboard-response","152","371901","0.0-7.0-1.0-4.0-0.0-1.22","4","4","4","4","3","3","3","3","3","3","5","4","2","4","4","4","4","4","4","3","2","2","2","2","3","2","2","2","1","0","0","1","0","0","1","1","1","1","0","0","0","1","1","1","5","2","2","2","3","4","2","3","4","2","3","789244798249869314","马","640","","","","","","","","","","","","","","","","","","","","","","","","","","","","","","feedback_test","","","","","","","","","","","",""
"624","","f","psychophysics","153","373536","0.0-7.0-1.0-4.0-0.0-0.23","4","4","4","4","3","3","3","3","3","3","5","4","2","4","4","4","4","4","4","3","2","2","2","2","3","2","2","2","1","0","0","1","0","0","1","1","1","1","0","0","0","1","1","1","5","2","2","2","3","4","2","3","4","2","3","789244798249869314","马","640","","","","match","","","","","","","","","","","","","","key","f","16.662917525773345","768","428","f","true","match","img/square.png","方形","方形","ALT1","formal_ALT1_2","","","","","","","","","","","",""
"null","<span style='color:GreenYellow; font-size: 70px;'>正确! </span>","null","html-keyboard-response","154","374041","0.0-7.0-1.0-4.0-0.0-1.23","4","4","4","4","3","3","3","3","3","3","5","4","2","4","4","4","4","4","4","3","2","2","2","2","3","2","2","2","1","0","0","1","0","0","1","1","1","1","0","0","0","1","1","1","5","2","2","2","3","4","2","3","4","2","3","789244798249869314","马","640","","","","","","","","","","","","","","","","","","","","","","","","","","","","","","feedback_test","","","","","","","","","","","",""
"687","","f","psychophysics","155","375736","0.0-7.0-1.0-4.0-0.0-0.24","4","4","4","4","3","3","3","3","3","3","5","4","2","4","4","4","4","4","4","3","2","2","2","2","3","2","2","2","1","0","0","1","0","0","1","1","1","1","0","0","0","1","1","1","5","2","2","2","3","4","2","3","4","2","3","789244798249869314","马","640","","","","match","","","","","","","","","","","","","","key","f","16.666323232323382","768","428","f","true","match","img/square.png","方形","方形","ALT1","formal_ALT1_2","","","","","","","","","","","",""
"null","<span style='color:GreenYellow; font-size: 70px;'>正确! </span>","null","html-keyboard-response","156","376238","0.0-7.0-1.0-4.0-0.0-1.24","4","4","4","4","3","3","3","3","3","3","5","4","2","4","4","4","4","4","4","3","2","2","2","2","3","2","2","2","1","0","0","1","0","0","1","1","1","1","0","0","0","1","1","1","5","2","2","2","3","4","2","3","4","2","3","789244798249869314","马","640","","","","","","","","","","","","","","","","","","","","","","","","","","","","","","feedback_test","","","","","","","","","","","",""
"670","","j","psychophysics","157","377912","0.0-7.0-1.0-4.0-0.0-0.25","4","4","4","4","3","3","3","3","3","3","5","4","2","4","4","4","4","4","4","3","2","2","2","2","3","2","2","2","1","0","0","1","0","0","1","1","1","1","0","0","0","1","1","1","5","2","2","2","3","4","2","3","4","2","3","789244798249869314","马","640","","","","nonmatch","","","","","","","","","","","","","","key","j","16.662050000000164","768","428","j","true","nonmatch","img/square.png","菱形","方形","ALT1","formal_ALT1_2","","","","","","","","","","","",""
"null","<span style='color:GreenYellow; font-size: 70px;'>正确! </span>","null","html-keyboard-response","158","378433","0.0-7.0-1.0-4.0-0.0-1.25","4","4","4","4","3","3","3","3","3","3","5","4","2","4","4","4","4","4","4","3","2","2","2","2","3","2","2","2","1","0","0","1","0","0","1","1","1","1","0","0","0","1","1","1","5","2","2","2","3","4","2","3","4","2","3","789244798249869314","马","640","","","","","","","","","","","","","","","","","","","","","","","","","","","","","","feedback_test","","","","","","","","","","","",""
"786","","j","psychophysics","159","380244","0.0-7.0-1.0-4.0-0.0-0.26","4","4","4","4","3","3","3","3","3","3","5","4","2","4","4","4","4","4","4","3","2","2","2","2","3","2","2","2","1","0","0","1","0","0","1","1","1","1","0","0","0","1","1","1","5","2","2","2","3","4","2","3","4","2","3","789244798249869314","马","640","","","","nonmatch","","","","","","","","","","","","","","key","j","16.663388888888964","768","428","f","false","match","img/ellipse.png","椭圆","椭圆","ALT1","formal_ALT1_2","","","","","","","","","","","",""
"null","<span style='color:red; font-size: 70px;'>错误! </span>","null","html-keyboard-response","160","380752","0.0-7.0-1.0-4.0-0.0-1.26","4","4","4","4","3","3","3","3","3","3","5","4","2","4","4","4","4","4","4","3","2","2","2","2","3","2","2","2","1","0","0","1","0","0","1","1","1","1","0","0","0","1","1","1","5","2","2","2","3","4","2","3","4","2","3","789244798249869314","马","640","","","","","","","","","","","","","","","","","","","","","","","","","","","","","","feedback_test","","","","","","","","","","","",""
"708","","j","psychophysics","161","382465","0.0-7.0-1.0-4.0-0.0-0.27","4","4","4","4","3","3","3","3","3","3","5","4","2","4","4","4","4","4","4","3","2","2","2","2","3","2","2","2","1","0","0","1","0","0","1","1","1","1","0","0","0","1","1","1","5","2","2","2","3","4","2","3","4","2","3","789244798249869314","马","640","","","","nonmatch","","","","","","","","","","","","","","key","j","16.666178217821635","768","428","j","true","nonmatch","img/square.png","椭圆","方形","ALT1","formal_ALT1_2","","","","","","","","","","","",""
"null","<span style='color:GreenYellow; font-size: 70px;'>正确! </span>","null","html-keyboard-response","162","382979","0.0-7.0-1.0-4.0-0.0-1.27","4","4","4","4","3","3","3","3","3","3","5","4","2","4","4","4","4","4","4","3","2","2","2","2","3","2","2","2","1","0","0","1","0","0","1","1","1","1","0","0","0","1","1","1","5","2","2","2","3","4","2","3","4","2","3","789244798249869314","马","640","","","","","","","","","","","","","","","","","","","","","","","","","","","","","","feedback_test","","","","","","","","","","","",""
"713","","f","psychophysics","163","384703","0.0-7.0-1.0-4.0-0.0-0.28","4","4","4","4","3","3","3","3","3","3","5","4","2","4","4","4","4","4","4","3","2","2","2","2","3","2","2","2","1","0","0","1","0","0","1","1","1","1","0","0","0","1","1","1","5","2","2","2","3","4","2","3","4","2","3","789244798249869314","马","640","","","","match","","","","","","","","","","","","","","key","f","16.66410784313727","768","428","j","false","nonmatch","img/pentagon.png","菱形","五边","ALT1","formal_ALT1_2","","","","","","","","","","","",""
"null","<span style='color:red; font-size: 70px;'>错误! </span>","null","html-keyboard-response","164","385211","0.0-7.0-1.0-4.0-0.0-1.28","4","4","4","4","3","3","3","3","3","3","5","4","2","4","4","4","4","4","4","3","2","2","2","2","3","2","2","2","1","0","0","1","0","0","1","1","1","1","0","0","0","1","1","1","5","2","2","2","3","4","2","3","4","2","3","789244798249869314","马","640","","","","","","","","","","","","","","","","","","","","","","","","","","","","","","feedback_test","","","","","","","","","","","",""
"793","","f","psychophysics","165","387032","0.0-7.0-1.0-4.0-0.0-0.29","4","4","4","4","3","3","3","3","3","3","5","4","2","4","4","4","4","4","4","3","2","2","2","2","3","2","2","2","1","0","0","1","0","0","1","1","1","1","0","0","0","1","1","1","5","2","2","2","3","4","2","3","4","2","3","789244798249869314","马","640","","","","match","","","","","","","","","","","","","","key","f","16.66544444444406","768","428","f","true","match","img/pentagon.png","五边","五边","ALT1","formal_ALT1_2","","","","","","","","","","","",""
"null","<span style='color:GreenYellow; font-size: 70px;'>正确! </span>","null","html-keyboard-response","166","387541","0.0-7.0-1.0-4.0-0.0-1.29","4","4","4","4","3","3","3","3","3","3","5","4","2","4","4","4","4","4","4","3","2","2","2","2","3","2","2","2","1","0","0","1","0","0","1","1","1","1","0","0","0","1","1","1","5","2","2","2","3","4","2","3","4","2","3","789244798249869314","马","640","","","","","","","","","","","","","","","","","","","","","","","","","","","","","","feedback_test","","","","","","","","","","","",""
"750","","j","psychophysics","167","389295","0.0-7.0-1.0-4.0-0.0-0.30","4","4","4","4","3","3","3","3","3","3","5","4","2","4","4","4","4","4","4","3","2","2","2","2","3","2","2","2","1","0","0","1","0","0","1","1","1","1","0","0","0","1","1","1","5","2","2","2","3","4","2","3","4","2","3","789244798249869314","马","640","","","","nonmatch","","","","","","","","","","","","","","key","j","16.6628557692311","768","428","j","true","nonmatch","img/diamond.png","五边","菱形","ALT1","formal_ALT1_2","","","","","","","","","","","",""
"null","<span style='color:GreenYellow; font-size: 70px;'>正确! </span>","null","html-keyboard-response","168","389801","0.0-7.0-1.0-4.0-0.0-1.30","4","4","4","4","3","3","3","3","3","3","5","4","2","4","4","4","4","4","4","3","2","2","2","2","3","2","2","2","1","0","0","1","0","0","1","1","1","1","0","0","0","1","1","1","5","2","2","2","3","4","2","3","4","2","3","789244798249869314","马","640","","","","","","","","","","","","","","","","","","","","","","","","","","","","","","feedback_test","","","","","","","","","","","",""
"739","","f","psychophysics","169","391545","0.0-7.0-1.0-4.0-0.0-0.31","4","4","4","4","3","3","3","3","3","3","5","4","2","4","4","4","4","4","4","3","2","2","2","2","3","2","2","2","1","0","0","1","0","0","1","1","1","1","0","0","0","1","1","1","5","2","2","2","3","4","2","3","4","2","3","789244798249869314","马","640","","","","match","","","","","","","","","","","","","","key","f","16.656650485436984","768","428","f","true","match","img/pentagon.png","五边","五边","ALT1","formal_ALT1_2","","","","","","","","","","","",""
"null","<span style='color:GreenYellow; font-size: 70px;'>正确! </span>","null","html-keyboard-response","170","392063","0.0-7.0-1.0-4.0-0.0-1.31","4","4","4","4","3","3","3","3","3","3","5","4","2","4","4","4","4","4","4","3","2","2","2","2","3","2","2","2","1","0","0","1","0","0","1","1","1","1","0","0","0","1","1","1","5","2","2","2","3","4","2","3","4","2","3","789244798249869314","马","640","","","","","","","","","","","","","","","","","","","","","","","","","","","","","","feedback_test","","","","","","","","","","","",""
"770","","f","psychophysics","171","393842","0.0-7.0-1.0-4.0-0.0-0.32","4","4","4","4","3","3","3","3","3","3","5","4","2","4","4","4","4","4","4","3","2","2","2","2","3","2","2","2","1","0","0","1","0","0","1","1","1","1","0","0","0","1","1","1","5","2","2","2","3","4","2","3","4","2","3","789244798249869314","马","640","","","","match","","","","","","","","","","","","","","key","f","16.66217924528294","768","428","f","true","match","img/diamond.png","菱形","菱形","ALT1","formal_ALT1_2","","","","","","","","","","","",""
"null","<span style='color:GreenYellow; font-size: 70px;'>正确! </span>","null","html-keyboard-response","172","394353","0.0-7.0-1.0-4.0-0.0-1.32","4","4","4","4","3","3","3","3","3","3","5","4","2","4","4","4","4","4","4","3","2","2","2","2","3","2","2","2","1","0","0","1","0","0","1","1","1","1","0","0","0","1","1","1","5","2","2","2","3","4","2","3","4","2","3","789244798249869314","马","640","","","","","","","","","","","","","","","","","","","","","","","","","","","","","","feedback_test","","","","","","","","","","","",""
"676","","f","psychophysics","173","396034","0.0-7.0-1.0-4.0-0.0-0.33","4","4","4","4","3","3","3","3","3","3","5","4","2","4","4","4","4","4","4","3","2","2","2","2","3","2","2","2","1","0","0","1","0","0","1","1","1","1","0","0","0","1","1","1","5","2","2","2","3","4","2","3","4","2","3","789244798249869314","马","640","","","","match","","","","","","","","","","","","","","key","f","16.835816326530352","768","428","f","true","match","img/ellipse.png","椭圆","椭圆","ALT1","formal_ALT1_2","","","","","","","","","","","",""
"null","<span style='color:GreenYellow; font-size: 70px;'>正确! </span>","null","html-keyboard-response","174","396537","0.0-7.0-1.0-4.0-0.0-1.33","4","4","4","4","3","3","3","3","3","3","5","4","2","4","4","4","4","4","4","3","2","2","2","2","3","2","2","2","1","0","0","1","0","0","1","1","1","1","0","0","0","1","1","1","5","2","2","2","3","4","2","3","4","2","3","789244798249869314","马","640","","","","","","","","","","","","","","","","","","","","","","","","","","","","","","feedback_test","","","","","","","","","","","",""
"905","","f","psychophysics","175","398445","0.0-7.0-1.0-4.0-0.0-0.34","4","4","4","4","3","3","3","3","3","3","5","4","2","4","4","4","4","4","4","3","2","2","2","2","3","2","2","2","1","0","0","1","0","0","1","1","1","1","0","0","0","1","1","1","5","2","2","2","3","4","2","3","4","2","3","789244798249869314","马","640","","","","match","","","","","","","","","","","","","","key","f","16.66530088495527","768","428","f","true","match","img/diamond.png","菱形","菱形","ALT1","formal_ALT1_2","","","","","","","","","","","",""
"null","<span style='color:GreenYellow; font-size: 70px;'>正确! </span>","null","html-keyboard-response","176","398963","0.0-7.0-1.0-4.0-0.0-1.34","4","4","4","4","3","3","3","3","3","3","5","4","2","4","4","4","4","4","4","3","2","2","2","2","3","2","2","2","1","0","0","1","0","0","1","1","1","1","0","0","0","1","1","1","5","2","2","2","3","4","2","3","4","2","3","789244798249869314","马","640","","","","","","","","","","","","","","","","","","","","","","","","","","","","","","feedback_test","","","","","","","","","","","",""
"735","","j","psychophysics","177","400707","0.0-7.0-1.0-4.0-0.0-0.35","4","4","4","4","3","3","3","3","3","3","5","4","2","4","4","4","4","4","4","3","2","2","2","2","3","2","2","2","1","0","0","1","0","0","1","1","1","1","0","0","0","1","1","1","5","2","2","2","3","4","2","3","4","2","3","789244798249869314","马","640","","","","nonmatch","","","","","","","","","","","","","","key","j","16.66318269230788","768","428","j","true","nonmatch","img/ellipse.png","方形","椭圆","ALT1","formal_ALT1_2","","","","","","","","","","","",""
"null","<span style='color:GreenYellow; font-size: 70px;'>正确! </span>","null","html-keyboard-response","178","401217","0.0-7.0-1.0-4.0-0.0-1.35","4","4","4","4","3","3","3","3","3","3","5","4","2","4","4","4","4","4","4","3","2","2","2","2","3","2","2","2","1","0","0","1","0","0","1","1","1","1","0","0","0","1","1","1","5","2","2","2","3","4","2","3","4","2","3","789244798249869314","马","640","","","","","","","","","","","","","","","","","","","","","","","","","","","","","","feedback_test","","","","","","","","","","","",""
"640","","f","psychophysics","179","402860","0.0-7.0-1.0-4.0-0.0-0.36","4","4","4","4","3","3","3","3","3","3","5","4","2","4","4","4","4","4","4","3","2","2","2","2","3","2","2","2","1","0","0","1","0","0","1","1","1","1","0","0","0","1","1","1","5","2","2","2","3","4","2","3","4","2","3","789244798249869314","马","640","","","","match","","","","","","","","","","","","","","key","f","16.657762886598086","768","428","j","false","nonmatch","img/pentagon.png","椭圆","五边","ALT1","formal_ALT1_2","","","","","","","","","","","",""
"null","<span style='color:red; font-size: 70px;'>错误! </span>","null","html-keyboard-response","180","403369","0.0-7.0-1.0-4.0-0.0-1.36","4","4","4","4","3","3","3","3","3","3","5","4","2","4","4","4","4","4","4","3","2","2","2","2","3","2","2","2","1","0","0","1","0","0","1","1","1","1","0","0","0","1","1","1","5","2","2","2","3","4","2","3","4","2","3","789244798249869314","马","640","","","","","","","","","","","","","","","","","","","","","","","","","","","","","","feedback_test","","","","","","","","","","","",""
"700","","f","psychophysics","181","405111","0.0-7.0-1.0-4.0-0.0-0.37","4","4","4","4","3","3","3","3","3","3","5","4","2","4","4","4","4","4","4","3","2","2","2","2","3","2","2","2","1","0","0","1","0","0","1","1","1","1","0","0","0","1","1","1","5","2","2","2","3","4","2","3","4","2","3","789244798249869314","马","640","","","","match","","","","","","","","","","","","","","key","f","16.829078431372466","768","428","f","true","match","img/square.png","方形","方形","ALT1","formal_ALT1_2","","","","","","","","","","","",""
