"rt","stimulus","response","trial_type","trial_index","time_elapsed","internal_node_id","ses_1","ses_2","ses_3","ses_4","ses_5","ses_6","ses_7","ses_8","ses_9","ses_10","coreself_1","coreself_2","coreself_3","coreself_4","coreself_5","coreself_6","coreself_7","coreself_8","coreself_9","coreself_10","SGPS_1","SGPS_2","SGPS_3","SGPS_4","SGPS_5","SGPS_6","SGPS_7","SGPS_8","SGPS_9","NPI1","NPI2","NPI3","NPI4","NPI5","NPI6","NPI7","NPI8","NPI9","NPI10","NPI11","NPI12","NPI13","NPI14","NPI15","hsns_1","hsns_2","hsns_3","hsns_4","hsns_5","trap1","hsns_6","hsns_7","hsns_8","hsns_9","hsns_10","subj_idx","friend_name","ParticipantID","value","success","user_agent","responses","item_order","radio_event_ids","radio_event_times","key_event_times","mouse_event_times","straightlining","zigzagging","honeypot","timeout","failed_images","failed_audio","failed_video","version_attrib2","version_target2","correct","IAT","screen_id","task_id","RT","condition","word","varname","summary","version_attrib","version_target","time_stamp","view_history","response_type","key_press","avg_frame_time","center_x","center_y","correct_response","identity","Image","question_order","correct_answer","trap1_item"
"824","
   <p><div style = ""color: white;font-size:25px;"">您好，欢迎参加本次实验。</div> </p>
   <p><div style = ""color: white;font-size:25px;"">为充分保障您的权利，请确保您已经知晓并同意《参与实验同意书》以及《数据公开知情同意书》。</div></p>
   <p><div style = ""color: white;font-size:25px;"">如果您未见过上述内容，请咨询实验员。</div></p>
   <p><div style = ""color: white;font-size:25px;"">如果您选择继续实验，则表示您已经清楚两份知情同意书的内容并同意。</div></p>
   <p><div style = ""color: pink;font-size:30px;"">请确保您记得day0的实验编号，您将在本次实验输入该编号，若您忘记，请咨询实验员后作答。</div></p>
   <p><div style = ""color: lightblue;font-size:25px;"">请您尽可能认真地作答，我们将依据您在各问卷和按键任务中的作答质量发放报酬。</div></p>
   <p> <div style = ""color: green;font-size:25px;""><按空格键至下页></div> </p>
   "," ","html-keyboard-response","0","832","0.0-0.0","4","4","4","3","4","4","3","4","3","4","3","2","2","5","3","4","3","2","4","4","1","1","2","1","1","1","2","1","2","1","0","1","1","0","0","1","1","0","1","1","0","1","0","1","4","4","5","2","4","","4","5","5","4","1","797768746788855810","赵","580","","","","","","","","","","","","","","","","","","","","","","","","","","","","","","","","","","","","","","","","","",""
"","","","call-function","1","835","0.0-1.0-0.0","4","4","4","3","4","4","3","4","3","4","3","2","2","5","3","4","3","2","4","4","1","1","2","1","1","1","2","1","2","1","0","1","1","0","0","1","1","0","1","1","0","1","0","1","4","4","5","2","4","","4","5","5","4","1","797768746788855810","赵","580","","","","","","","","","","","","","","","","","","","","","","","","","","","","","","","","","","","","","","","","","",""
"12018","","{""friend_name"":""赵"",""ParticipantID"":""580""}","survey-html-form","2","12855","0.0-1.0-1.0","4","4","4","3","4","4","3","4","3","4","3","2","2","5","3","4","3","2","4","4","1","1","2","1","1","1","2","1","2","1","0","1","1","0","0","1","1","0","1","1","0","1","0","1","4","4","5","2","4","","4","5","5","4","1","797768746788855810","赵","580","","","","","","","","","","","","","","","","","","","","","","","","","","","","","","","","","","","","","","","","","",""
"","","","fullscreen","3","14057","0.0-2.0","4","4","4","3","4","4","3","4","3","4","3","2","2","5","3","4","3","2","4","4","1","1","2","1","1","1","2","1","2","1","0","1","1","0","0","1","1","0","1","1","0","1","0","1","4","4","5","2","4","","4","5","5","4","1","797768746788855810","赵","580","","true","{}","","","","","","","","","","","","","","","","","","","","","","","","","","","","","","","","","","","","","","",""
"38451.10000000149","","{""Q01"":""4"",""Q02"":""4"",""Q03"":""4"",""Q04"":""3"",""Q05"":""4"",""Q06"":""4"",""Q07"":""3"",""Q08"":""4"",""Q09"":""3"",""Q10"":""4""}","survey-template","4","52518","0.0-3.0","4","4","4","3","4","4","3","4","3","4","3","2","2","5","3","4","3","2","4","4","1","1","2","1","1","1","2","1","2","1","0","1","1","0","0","1","1","0","1","1","0","1","0","1","4","4","5","2","4","","4","5","5","4","1","797768746788855810","赵","580","","","","{""Q01"":""4"",""Q02"":""4"",""Q03"":""4"",""Q04"":""3"",""Q05"":""4"",""Q06"":""4"",""Q07"":""3"",""Q08"":""4"",""Q09"":""3"",""Q10"":""4""}","[0,1,2,3,4,5,6,7,8,9]","[""Q01"",""Q02"",""Q03"",""Q04"",""Q05"",""Q06"",""Q07"",""Q08"",""Q09"",""Q10""]","[18168.20000000298,19207.89999999851,22863.80000000447,23655.70000000298,25711.70000000298,26663.60000000149,28472,30175.80000000447,32207.60000000149,32895.39999999851]","[]","[18168.20000000298,19207.89999999851,21224.10000000149,22512,22863.80000000447,23655.70000000298,25327.60000000149,25711.70000000298,26663.60000000149,28199.39999999851,28472,30175.80000000447,31031.80000000447,32207.60000000149,32895.39999999851,38447.60000000149]","0.4","0.5555555555555556","0","","","","","","","","","","","","","","","","","","","","","","","","","","","","","",""
"35903.80000000447","","{""Q01"":""3"",""Q02"":""2"",""Q03"":""2"",""Q04"":""5"",""Q05"":""3"",""Q06"":""4"",""Q07"":""3"",""Q08"":""2"",""Q09"":""4"",""Q10"":""4""}","survey-template","5","88445","0.0-4.0","4","4","4","3","4","4","3","4","3","4","3","2","2","5","3","4","3","2","4","4","1","1","2","1","1","1","2","1","2","1","0","1","1","0","0","1","1","0","1","1","0","1","0","1","4","4","5","2","4","","4","5","5","4","1","797768746788855810","赵","580","","","","{""Q01"":""3"",""Q02"":""2"",""Q03"":""2"",""Q04"":""5"",""Q05"":""3"",""Q06"":""4"",""Q07"":""3"",""Q08"":""2"",""Q09"":""4"",""Q10"":""4""}","[0,1,2,3,4,5,6,7,8,9]","[""Q01"",""Q02"",""Q03"",""Q04"",""Q05"",""Q06"",""Q07"",""Q07"",""Q08"",""Q08"",""Q08"",""Q08"",""Q07"",""Q09"",""Q10""]","[5077,6397.30000000447,8076.5,11548.39999999851,13956.80000000447,15109,16868.70000000298,18572.60000000149,20428.39999999851,22092.5,23588.5,25348.30000000447,27396.60000000149,29620.20000000298,30732.10000000149]","[]","[4732.60000000149,5077,6397.30000000447,8076.5,11548.39999999851,13956.80000000447,15109,16868.70000000298,18572.60000000149,19652.70000000298,20428.39999999851,22092.5,23172.70000000298,23588.5,25348.30000000447,25892.5,26252.30000000447,26548.30000000447,27396.60000000149,29620.20000000298,30732.10000000149,35900.39999999851]","0.5","0.5555555555555556","0","","","","","","","","","","","","","","","","","","","","","","","","","","","","","",""
"","","","preload","6","89101","0.0-5.0","4","4","4","3","4","4","3","4","3","4","3","2","2","5","3","4","3","2","4","4","1","1","2","1","1","1","2","1","2","1","0","1","1","0","0","1","1","0","1","1","0","1","0","1","4","4","5","2","4","","4","5","5","4","1","797768746788855810","赵","580","","true","","","","","","","","","","","false","[]","[]","[]","","","","","","","","","","","","","","","","","","","","","","","","","",""
"10712","
    <h3>词语分类任务</h3>
    <p>在接下来的任务中，你需要对一系列词语进行分类。<p/>
    请先熟悉这些词语，这有利于你完成接下来的任务。</p>
    <table align=""center"" border=1 cellpadding=3 cellspacing=0>
    <tr> <th>类别</th> <th>词语</th> </tr>
    <tr> <td>&emsp;积极&emsp;</td> <td>&emsp;高尚、诚信、善良、君子、廉正、正直&emsp;</td> </tr>
    <tr> <td>&emsp;消极&emsp;</td> <td>&emsp;缺德、卑鄙、不孝、不仁、小人、黑心&emsp;</td> </tr>
    <tr> <td>&emsp;自我&emsp;</td> <td>&emsp;我、我的、自己、自己的、本人、本人的&emsp;</td> </tr>
    <tr> <td>&emsp;他人&emsp;</td> <td>&emsp;他、他的、别人、别人的、他人、他人的&emsp;</td> </tr>
    </table><br/>","0","html-button-response","7","99817","0.0-6.0-1.0-0.0","4","4","4","3","4","4","3","4","3","4","3","2","2","5","3","4","3","2","4","4","1","1","2","1","1","1","2","1","2","1","0","1","1","0","0","1","1","0","1","1","0","1","0","1","4","4","5","2","4","","4","5","5","4","1","797768746788855810","赵","580","","","","","","","","","","","","","","","","","2","2","","","","","","","","","","","","","","","","","","","","","","","",""
"3044","
    <div class=""tag-bottom""><p>
    —— 任务1：对“他人”词和“自我”词分类 ——<p/>
    不同词语会出现在屏幕中央，类别标签将始终显示在屏幕上方<p/>   
    <span style=""color:#FFD866""><b>请根据上方标签的提示，尽可能正确并且快速地做出按键反应</b></span><p/>
    当按键错误时屏幕中会出现<span style=""color:red""> X </span>，需要按另一个键纠正才能继续<br/><p/>
    请把双手食指分别放在键盘的“E”键和“I”键上<p/>
    按<空格键>开始
    </p></div>"," ","html-keyboard-response","8","102872","0.0-6.0-1.0-1.0","4","4","4","3","4","4","3","4","3","4","3","2","2","5","3","4","3","2","4","4","1","1","2","1","1","1","2","1","2","1","0","1","1","0","0","1","1","0","1","1","0","1","0","1","4","4","5","2","4","","4","5","5","4","1","797768746788855810","赵","580","","","","","","","","","","","","","","","","","","","","","","","","","","","","","","","","","","","","","","","","","",""
"null","","null","html-keyboard-response","9","103132","0.0-6.0-1.0-2.0-0.0","4","4","4","3","4","4","3","4","3","4","3","2","2","5","3","4","3","2","4","4","1","1","2","1","1","1","2","1","2","1","0","1","1","0","0","1","1","0","1","1","0","1","0","1","4","4","5","2","4","","4","5","5","4","1","797768746788855810","赵","580","","","","","","","","","","","","","","","","","","","","","","","","","","","","","","","","","","","","","","","","","",""
"791","<p style=""color:rgb(150, 250, 100); font-size: 35px;"">他的</p>","e","categorize-html","10","103931","0.0-6.0-1.0-2.0-1.0","4","4","4","3","4","4","3","4","3","4","3","2","2","5","3","4","3","2","4","4","1","1","2","1","1","1","2","1","2","1","0","1","1","0","0","1","1","0","1","1","0","1","0","1","4","4","5","2","4","","4","5","5","4","1","797768746788855810","赵","580","","","","","","","","","","","","","","","","","","","true","11","1","moral","791","other","他的","","","","","","","","","","","","","","","","",""
"null","","null","html-keyboard-response","11","104188","0.0-6.0-1.0-2.0-0.1","4","4","4","3","4","4","3","4","3","4","3","2","2","5","3","4","3","2","4","4","1","1","2","1","1","1","2","1","2","1","0","1","1","0","0","1","1","0","1","1","0","1","0","1","4","4","5","2","4","","4","5","5","4","1","797768746788855810","赵","580","","","","","","","","","","","","","","","","","","","","","","","","","","","","","","","","","","","","","","","","","",""
"562","<p style=""color:rgb(150, 250, 100); font-size: 35px;"">自己</p>","i","categorize-html","12","104755","0.0-6.0-1.0-2.0-1.1","4","4","4","3","4","4","3","4","3","4","3","2","2","5","3","4","3","2","4","4","1","1","2","1","1","1","2","1","2","1","0","1","1","0","0","1","1","0","1","1","0","1","0","1","4","4","5","2","4","","4","5","5","4","1","797768746788855810","赵","580","","","","","","","","","","","","","","","","","","","true","11","1","moral","562","self","自己","","","","","","","","","","","","","","","","",""
"null","","null","html-keyboard-response","13","105012","0.0-6.0-1.0-2.0-0.2","4","4","4","3","4","4","3","4","3","4","3","2","2","5","3","4","3","2","4","4","1","1","2","1","1","1","2","1","2","1","0","1","1","0","0","1","1","0","1","1","0","1","0","1","4","4","5","2","4","","4","5","5","4","1","797768746788855810","赵","580","","","","","","","","","","","","","","","","","","","","","","","","","","","","","","","","","","","","","","","","","",""
"650","<p style=""color:rgb(150, 250, 100); font-size: 35px;"">别人</p>","i","categorize-html","14","106112","0.0-6.0-1.0-2.0-1.2","4","4","4","3","4","4","3","4","3","4","3","2","2","5","3","4","3","2","4","4","1","1","2","1","1","1","2","1","2","1","0","1","1","0","0","1","1","0","1","1","0","1","0","1","4","4","5","2","4","","4","5","5","4","1","797768746788855810","赵","580","","","","","","","","","","","","","","","","","","","false","11","1","moral","650","other","别人","","","","","","","","","","","","","","","","",""
"null","","null","html-keyboard-response","15","106364","0.0-6.0-1.0-2.0-0.3","4","4","4","3","4","4","3","4","3","4","3","2","2","5","3","4","3","2","4","4","1","1","2","1","1","1","2","1","2","1","0","1","1","0","0","1","1","0","1","1","0","1","0","1","4","4","5","2","4","","4","5","5","4","1","797768746788855810","赵","580","","","","","","","","","","","","","","","","","","","","","","","","","","","","","","","","","","","","","","","","","",""
"562","<p style=""color:rgb(150, 250, 100); font-size: 35px;"">我的</p>","i","categorize-html","16","106931","0.0-6.0-1.0-2.0-1.3","4","4","4","3","4","4","3","4","3","4","3","2","2","5","3","4","3","2","4","4","1","1","2","1","1","1","2","1","2","1","0","1","1","0","0","1","1","0","1","1","0","1","0","1","4","4","5","2","4","","4","5","5","4","1","797768746788855810","赵","580","","","","","","","","","","","","","","","","","","","true","11","1","moral","562","self","我的","","","","","","","","","","","","","","","","",""
"null","","null","html-keyboard-response","17","107188","0.0-6.0-1.0-2.0-0.4","4","4","4","3","4","4","3","4","3","4","3","2","2","5","3","4","3","2","4","4","1","1","2","1","1","1","2","1","2","1","0","1","1","0","0","1","1","0","1","1","0","1","0","1","4","4","5","2","4","","4","5","5","4","1","797768746788855810","赵","580","","","","","","","","","","","","","","","","","","","","","","","","","","","","","","","","","","","","","","","","","",""
"666","<p style=""color:rgb(150, 250, 100); font-size: 35px;"">他人</p>","e","categorize-html","18","107859","0.0-6.0-1.0-2.0-1.4","4","4","4","3","4","4","3","4","3","4","3","2","2","5","3","4","3","2","4","4","1","1","2","1","1","1","2","1","2","1","0","1","1","0","0","1","1","0","1","1","0","1","0","1","4","4","5","2","4","","4","5","5","4","1","797768746788855810","赵","580","","","","","","","","","","","","","","","","","","","true","11","1","moral","666","other","他人","","","","","","","","","","","","","","","","",""
"null","","null","html-keyboard-response","19","108115","0.0-6.0-1.0-2.0-0.5","4","4","4","3","4","4","3","4","3","4","3","2","2","5","3","4","3","2","4","4","1","1","2","1","1","1","2","1","2","1","0","1","1","0","0","1","1","0","1","1","0","1","0","1","4","4","5","2","4","","4","5","5","4","1","797768746788855810","赵","580","","","","","","","","","","","","","","","","","","","","","","","","","","","","","","","","","","","","","","","","","",""
"731","<p style=""color:rgb(150, 250, 100); font-size: 35px;"">别人的</p>","e","categorize-html","20","108851","0.0-6.0-1.0-2.0-1.5","4","4","4","3","4","4","3","4","3","4","3","2","2","5","3","4","3","2","4","4","1","1","2","1","1","1","2","1","2","1","0","1","1","0","0","1","1","0","1","1","0","1","0","1","4","4","5","2","4","","4","5","5","4","1","797768746788855810","赵","580","","","","","","","","","","","","","","","","","","","true","11","1","moral","731","other","别人的","","","","","","","","","","","","","","","","",""
"null","","null","html-keyboard-response","21","109107","0.0-6.0-1.0-2.0-0.6","4","4","4","3","4","4","3","4","3","4","3","2","2","5","3","4","3","2","4","4","1","1","2","1","1","1","2","1","2","1","0","1","1","0","0","1","1","0","1","1","0","1","0","1","4","4","5","2","4","","4","5","5","4","1","797768746788855810","赵","580","","","","","","","","","","","","","","","","","","","","","","","","","","","","","","","","","","","","","","","","","",""
"651","<p style=""color:rgb(150, 250, 100); font-size: 35px;"">本人的</p>","i","categorize-html","22","109764","0.0-6.0-1.0-2.0-1.6","4","4","4","3","4","4","3","4","3","4","3","2","2","5","3","4","3","2","4","4","1","1","2","1","1","1","2","1","2","1","0","1","1","0","0","1","1","0","1","1","0","1","0","1","4","4","5","2","4","","4","5","5","4","1","797768746788855810","赵","580","","","","","","","","","","","","","","","","","","","true","11","1","moral","651","self","本人的","","","","","","","","","","","","","","","","",""
"null","","null","html-keyboard-response","23","110019","0.0-6.0-1.0-2.0-0.7","4","4","4","3","4","4","3","4","3","4","3","2","2","5","3","4","3","2","4","4","1","1","2","1","1","1","2","1","2","1","0","1","1","0","0","1","1","0","1","1","0","1","0","1","4","4","5","2","4","","4","5","5","4","1","797768746788855810","赵","580","","","","","","","","","","","","","","","","","","","","","","","","","","","","","","","","","","","","","","","","","",""
"579","<p style=""color:rgb(150, 250, 100); font-size: 35px;"">我</p>","i","categorize-html","24","110603","0.0-6.0-1.0-2.0-1.7","4","4","4","3","4","4","3","4","3","4","3","2","2","5","3","4","3","2","4","4","1","1","2","1","1","1","2","1","2","1","0","1","1","0","0","1","1","0","1","1","0","1","0","1","4","4","5","2","4","","4","5","5","4","1","797768746788855810","赵","580","","","","","","","","","","","","","","","","","","","true","11","1","moral","579","self","我","","","","","","","","","","","","","","","","",""
"null","","null","html-keyboard-response","25","110859","0.0-6.0-1.0-2.0-0.8","4","4","4","3","4","4","3","4","3","4","3","2","2","5","3","4","3","2","4","4","1","1","2","1","1","1","2","1","2","1","0","1","1","0","0","1","1","0","1","1","0","1","0","1","4","4","5","2","4","","4","5","5","4","1","797768746788855810","赵","580","","","","","","","","","","","","","","","","","","","","","","","","","","","","","","","","","","","","","","","","","",""
"587","<p style=""color:rgb(150, 250, 100); font-size: 35px;"">他</p>","e","categorize-html","26","111451","0.0-6.0-1.0-2.0-1.8","4","4","4","3","4","4","3","4","3","4","3","2","2","5","3","4","3","2","4","4","1","1","2","1","1","1","2","1","2","1","0","1","1","0","0","1","1","0","1","1","0","1","0","1","4","4","5","2","4","","4","5","5","4","1","797768746788855810","赵","580","","","","","","","","","","","","","","","","","","","true","11","1","moral","587","other","他","","","","","","","","","","","","","","","","",""
"null","","null","html-keyboard-response","27","111708","0.0-6.0-1.0-2.0-0.9","4","4","4","3","4","4","3","4","3","4","3","2","2","5","3","4","3","2","4","4","1","1","2","1","1","1","2","1","2","1","0","1","1","0","0","1","1","0","1","1","0","1","0","1","4","4","5","2","4","","4","5","5","4","1","797768746788855810","赵","580","","","","","","","","","","","","","","","","","","","","","","","","","","","","","","","","","","","","","","","","","",""
"721","<p style=""color:rgb(150, 250, 100); font-size: 35px;"">自己的</p>","i","categorize-html","28","112435","0.0-6.0-1.0-2.0-1.9","4","4","4","3","4","4","3","4","3","4","3","2","2","5","3","4","3","2","4","4","1","1","2","1","1","1","2","1","2","1","0","1","1","0","0","1","1","0","1","1","0","1","0","1","4","4","5","2","4","","4","5","5","4","1","797768746788855810","赵","580","","","","","","","","","","","","","","","","","","","true","11","1","moral","721","self","自己的","","","","","","","","","","","","","","","","",""
"null","","null","html-keyboard-response","29","112691","0.0-6.0-1.0-2.0-0.10","4","4","4","3","4","4","3","4","3","4","3","2","2","5","3","4","3","2","4","4","1","1","2","1","1","1","2","1","2","1","0","1","1","0","0","1","1","0","1","1","0","1","0","1","4","4","5","2","4","","4","5","5","4","1","797768746788855810","赵","580","","","","","","","","","","","","","","","","","","","","","","","","","","","","","","","","","","","","","","","","","",""
"530","<p style=""color:rgb(150, 250, 100); font-size: 35px;"">他人的</p>","i","categorize-html","30","113287","0.0-6.0-1.0-2.0-1.10","4","4","4","3","4","4","3","4","3","4","3","2","2","5","3","4","3","2","4","4","1","1","2","1","1","1","2","1","2","1","0","1","1","0","0","1","1","0","1","1","0","1","0","1","4","4","5","2","4","","4","5","5","4","1","797768746788855810","赵","580","","","","","","","","","","","","","","","","","","","false","11","1","moral","530","other","他人的","","","","","","","","","","","","","","","","",""
"null","","null","html-keyboard-response","31","113539","0.0-6.0-1.0-2.0-0.11","4","4","4","3","4","4","3","4","3","4","3","2","2","5","3","4","3","2","4","4","1","1","2","1","1","1","2","1","2","1","0","1","1","0","0","1","1","0","1","1","0","1","0","1","4","4","5","2","4","","4","5","5","4","1","797768746788855810","赵","580","","","","","","","","","","","","","","","","","","","","","","","","","","","","","","","","","","","","","","","","","",""
"698","<p style=""color:rgb(150, 250, 100); font-size: 35px;"">本人</p>","i","categorize-html","32","114243","0.0-6.0-1.0-2.0-1.11","4","4","4","3","4","4","3","4","3","4","3","2","2","5","3","4","3","2","4","4","1","1","2","1","1","1","2","1","2","1","0","1","1","0","0","1","1","0","1","1","0","1","0","1","4","4","5","2","4","","4","5","5","4","1","797768746788855810","赵","580","","","","","","","","","","","","","","","","","","","true","11","1","moral","698","self","本人","","","","","","","","","","","","","","","","",""
"723","
    <div class=""tag-bottom""><p>
    —— 任务2：对“消极”词和“积极”词分类 ——<p/>   
    <span style=""color:#78DCE8""><b>注意上方，类别标签和需要分类的词语都已经改变</b></span><p/>
    <span style=""color:#FFD866""><b>请根据上方标签的提示，尽可能正确并且快速地做出按键反应</b></span><p/>
    当按键错误时屏幕中会出现<span style=""color:red""> X </span>，需要按另一个键纠正才能继续<br/><p/>
    请把双手食指分别放在键盘的“E”键和“I”键上<p/>
    按<空格键>开始
    </p></div>"," ","html-keyboard-response","33","114967","0.0-6.0-1.0-3.0","4","4","4","3","4","4","3","4","3","4","3","2","2","5","3","4","3","2","4","4","1","1","2","1","1","1","2","1","2","1","0","1","1","0","0","1","1","0","1","1","0","1","0","1","4","4","5","2","4","","4","5","5","4","1","797768746788855810","赵","580","","","","","","","","","","","","","","","","","","","","","","","","","","","","","","","","","","","","","","","","","",""
"null","","null","html-keyboard-response","34","115220","0.0-6.0-1.0-4.0-0.0","4","4","4","3","4","4","3","4","3","4","3","2","2","5","3","4","3","2","4","4","1","1","2","1","1","1","2","1","2","1","0","1","1","0","0","1","1","0","1","1","0","1","0","1","4","4","5","2","4","","4","5","5","4","1","797768746788855810","赵","580","","","","","","","","","","","","","","","","","","","","","","","","","","","","","","","","","","","","","","","","","",""
"969","<p style=""color:white; font-size: 35px;"">小人</p>","e","categorize-html","35","116195","0.0-6.0-1.0-4.0-1.0","4","4","4","3","4","4","3","4","3","4","3","2","2","5","3","4","3","2","4","4","1","1","2","1","1","1","2","1","2","1","0","1","1","0","0","1","1","0","1","1","0","1","0","1","4","4","5","2","4","","4","5","5","4","1","797768746788855810","赵","580","","","","","","","","","","","","","","","","","","","true","12","2","moral","969","negative","小人","","","","","","","","","","","","","","","","",""
"null","","null","html-keyboard-response","36","116451","0.0-6.0-1.0-4.0-0.1","4","4","4","3","4","4","3","4","3","4","3","2","2","5","3","4","3","2","4","4","1","1","2","1","1","1","2","1","2","1","0","1","1","0","0","1","1","0","1","1","0","1","0","1","4","4","5","2","4","","4","5","5","4","1","797768746788855810","赵","580","","","","","","","","","","","","","","","","","","","","","","","","","","","","","","","","","","","","","","","","","",""
"578","<p style=""color:white; font-size: 35px;"">卑鄙</p>","e","categorize-html","37","117035","0.0-6.0-1.0-4.0-1.1","4","4","4","3","4","4","3","4","3","4","3","2","2","5","3","4","3","2","4","4","1","1","2","1","1","1","2","1","2","1","0","1","1","0","0","1","1","0","1","1","0","1","0","1","4","4","5","2","4","","4","5","5","4","1","797768746788855810","赵","580","","","","","","","","","","","","","","","","","","","true","12","2","moral","578","negative","卑鄙","","","","","","","","","","","","","","","","",""
"null","","null","html-keyboard-response","38","117291","0.0-6.0-1.0-4.0-0.2","4","4","4","3","4","4","3","4","3","4","3","2","2","5","3","4","3","2","4","4","1","1","2","1","1","1","2","1","2","1","0","1","1","0","0","1","1","0","1","1","0","1","0","1","4","4","5","2","4","","4","5","5","4","1","797768746788855810","赵","580","","","","","","","","","","","","","","","","","","","","","","","","","","","","","","","","","","","","","","","","","",""
"666","<p style=""color:white; font-size: 35px;"">君子</p>","i","categorize-html","39","117963","0.0-6.0-1.0-4.0-1.2","4","4","4","3","4","4","3","4","3","4","3","2","2","5","3","4","3","2","4","4","1","1","2","1","1","1","2","1","2","1","0","1","1","0","0","1","1","0","1","1","0","1","0","1","4","4","5","2","4","","4","5","5","4","1","797768746788855810","赵","580","","","","","","","","","","","","","","","","","","","true","12","2","moral","666","positive","君子","","","","","","","","","","","","","","","","",""
"null","","null","html-keyboard-response","40","118220","0.0-6.0-1.0-4.0-0.3","4","4","4","3","4","4","3","4","3","4","3","2","2","5","3","4","3","2","4","4","1","1","2","1","1","1","2","1","2","1","0","1","1","0","0","1","1","0","1","1","0","1","0","1","4","4","5","2","4","","4","5","5","4","1","797768746788855810","赵","580","","","","","","","","","","","","","","","","","","","","","","","","","","","","","","","","","","","","","","","","","",""
"714","<p style=""color:white; font-size: 35px;"">正直</p>","i","categorize-html","41","118940","0.0-6.0-1.0-4.0-1.3","4","4","4","3","4","4","3","4","3","4","3","2","2","5","3","4","3","2","4","4","1","1","2","1","1","1","2","1","2","1","0","1","1","0","0","1","1","0","1","1","0","1","0","1","4","4","5","2","4","","4","5","5","4","1","797768746788855810","赵","580","","","","","","","","","","","","","","","","","","","true","12","2","moral","714","positive","正直","","","","","","","","","","","","","","","","",""
"null","","null","html-keyboard-response","42","119195","0.0-6.0-1.0-4.0-0.4","4","4","4","3","4","4","3","4","3","4","3","2","2","5","3","4","3","2","4","4","1","1","2","1","1","1","2","1","2","1","0","1","1","0","0","1","1","0","1","1","0","1","0","1","4","4","5","2","4","","4","5","5","4","1","797768746788855810","赵","580","","","","","","","","","","","","","","","","","","","","","","","","","","","","","","","","","","","","","","","","","",""
"611","<p style=""color:white; font-size: 35px;"">不仁</p>","e","categorize-html","43","119811","0.0-6.0-1.0-4.0-1.4","4","4","4","3","4","4","3","4","3","4","3","2","2","5","3","4","3","2","4","4","1","1","2","1","1","1","2","1","2","1","0","1","1","0","0","1","1","0","1","1","0","1","0","1","4","4","5","2","4","","4","5","5","4","1","797768746788855810","赵","580","","","","","","","","","","","","","","","","","","","true","12","2","moral","611","negative","不仁","","","","","","","","","","","","","","","","",""
"null","","null","html-keyboard-response","44","120068","0.0-6.0-1.0-4.0-0.5","4","4","4","3","4","4","3","4","3","4","3","2","2","5","3","4","3","2","4","4","1","1","2","1","1","1","2","1","2","1","0","1","1","0","0","1","1","0","1","1","0","1","0","1","4","4","5","2","4","","4","5","5","4","1","797768746788855810","赵","580","","","","","","","","","","","","","","","","","","","","","","","","","","","","","","","","","","","","","","","","","",""
"594","<p style=""color:white; font-size: 35px;"">诚信</p>","e","categorize-html","45","121167","0.0-6.0-1.0-4.0-1.5","4","4","4","3","4","4","3","4","3","4","3","2","2","5","3","4","3","2","4","4","1","1","2","1","1","1","2","1","2","1","0","1","1","0","0","1","1","0","1","1","0","1","0","1","4","4","5","2","4","","4","5","5","4","1","797768746788855810","赵","580","","","","","","","","","","","","","","","","","","","false","12","2","moral","594","positive","诚信","","","","","","","","","","","","","","","","",""
"null","","null","html-keyboard-response","46","121420","0.0-6.0-1.0-4.0-0.6","4","4","4","3","4","4","3","4","3","4","3","2","2","5","3","4","3","2","4","4","1","1","2","1","1","1","2","1","2","1","0","1","1","0","0","1","1","0","1","1","0","1","0","1","4","4","5","2","4","","4","5","5","4","1","797768746788855810","赵","580","","","","","","","","","","","","","","","","","","","","","","","","","","","","","","","","","","","","","","","","","",""
"666","<p style=""color:white; font-size: 35px;"">高尚</p>","i","categorize-html","47","122091","0.0-6.0-1.0-4.0-1.6","4","4","4","3","4","4","3","4","3","4","3","2","2","5","3","4","3","2","4","4","1","1","2","1","1","1","2","1","2","1","0","1","1","0","0","1","1","0","1","1","0","1","0","1","4","4","5","2","4","","4","5","5","4","1","797768746788855810","赵","580","","","","","","","","","","","","","","","","","","","true","12","2","moral","666","positive","高尚","","","","","","","","","","","","","","","","",""
"null","","null","html-keyboard-response","48","122348","0.0-6.0-1.0-4.0-0.7","4","4","4","3","4","4","3","4","3","4","3","2","2","5","3","4","3","2","4","4","1","1","2","1","1","1","2","1","2","1","0","1","1","0","0","1","1","0","1","1","0","1","0","1","4","4","5","2","4","","4","5","5","4","1","797768746788855810","赵","580","","","","","","","","","","","","","","","","","","","","","","","","","","","","","","","","","","","","","","","","","",""
"562","<p style=""color:white; font-size: 35px;"">黑心</p>","e","categorize-html","49","122914","0.0-6.0-1.0-4.0-1.7","4","4","4","3","4","4","3","4","3","4","3","2","2","5","3","4","3","2","4","4","1","1","2","1","1","1","2","1","2","1","0","1","1","0","0","1","1","0","1","1","0","1","0","1","4","4","5","2","4","","4","5","5","4","1","797768746788855810","赵","580","","","","","","","","","","","","","","","","","","","true","12","2","moral","562","negative","黑心","","","","","","","","","","","","","","","","",""
"null","","null","html-keyboard-response","50","123172","0.0-6.0-1.0-4.0-0.8","4","4","4","3","4","4","3","4","3","4","3","2","2","5","3","4","3","2","4","4","1","1","2","1","1","1","2","1","2","1","0","1","1","0","0","1","1","0","1","1","0","1","0","1","4","4","5","2","4","","4","5","5","4","1","797768746788855810","赵","580","","","","","","","","","","","","","","","","","","","","","","","","","","","","","","","","","","","","","","","","","",""
"834","<p style=""color:white; font-size: 35px;"">不孝</p>","e","categorize-html","51","124011","0.0-6.0-1.0-4.0-1.8","4","4","4","3","4","4","3","4","3","4","3","2","2","5","3","4","3","2","4","4","1","1","2","1","1","1","2","1","2","1","0","1","1","0","0","1","1","0","1","1","0","1","0","1","4","4","5","2","4","","4","5","5","4","1","797768746788855810","赵","580","","","","","","","","","","","","","","","","","","","true","12","2","moral","834","negative","不孝","","","","","","","","","","","","","","","","",""
"null","","null","html-keyboard-response","52","124268","0.0-6.0-1.0-4.0-0.9","4","4","4","3","4","4","3","4","3","4","3","2","2","5","3","4","3","2","4","4","1","1","2","1","1","1","2","1","2","1","0","1","1","0","0","1","1","0","1","1","0","1","0","1","4","4","5","2","4","","4","5","5","4","1","797768746788855810","赵","580","","","","","","","","","","","","","","","","","","","","","","","","","","","","","","","","","","","","","","","","","",""
"954","<p style=""color:white; font-size: 35px;"">善良</p>","i","categorize-html","53","125227","0.0-6.0-1.0-4.0-1.9","4","4","4","3","4","4","3","4","3","4","3","2","2","5","3","4","3","2","4","4","1","1","2","1","1","1","2","1","2","1","0","1","1","0","0","1","1","0","1","1","0","1","0","1","4","4","5","2","4","","4","5","5","4","1","797768746788855810","赵","580","","","","","","","","","","","","","","","","","","","true","12","2","moral","954","positive","善良","","","","","","","","","","","","","","","","",""
"null","","null","html-keyboard-response","54","125484","0.0-6.0-1.0-4.0-0.10","4","4","4","3","4","4","3","4","3","4","3","2","2","5","3","4","3","2","4","4","1","1","2","1","1","1","2","1","2","1","0","1","1","0","0","1","1","0","1","1","0","1","0","1","4","4","5","2","4","","4","5","5","4","1","797768746788855810","赵","580","","","","","","","","","","","","","","","","","","","","","","","","","","","","","","","","","","","","","","","","","",""
"978","<p style=""color:white; font-size: 35px;"">缺德</p>","e","categorize-html","55","126466","0.0-6.0-1.0-4.0-1.10","4","4","4","3","4","4","3","4","3","4","3","2","2","5","3","4","3","2","4","4","1","1","2","1","1","1","2","1","2","1","0","1","1","0","0","1","1","0","1","1","0","1","0","1","4","4","5","2","4","","4","5","5","4","1","797768746788855810","赵","580","","","","","","","","","","","","","","","","","","","true","12","2","moral","978","negative","缺德","","","","","","","","","","","","","","","","",""
"null","","null","html-keyboard-response","56","126724","0.0-6.0-1.0-4.0-0.11","4","4","4","3","4","4","3","4","3","4","3","2","2","5","3","4","3","2","4","4","1","1","2","1","1","1","2","1","2","1","0","1","1","0","0","1","1","0","1","1","0","1","0","1","4","4","5","2","4","","4","5","5","4","1","797768746788855810","赵","580","","","","","","","","","","","","","","","","","","","","","","","","","","","","","","","","","","","","","","","","","",""
"1930","<p style=""color:white; font-size: 35px;"">廉正</p>","i","categorize-html","57","128659","0.0-6.0-1.0-4.0-1.11","4","4","4","3","4","4","3","4","3","4","3","2","2","5","3","4","3","2","4","4","1","1","2","1","1","1","2","1","2","1","0","1","1","0","0","1","1","0","1","1","0","1","0","1","4","4","5","2","4","","4","5","5","4","1","797768746788855810","赵","580","","","","","","","","","","","","","","","","","","","true","12","2","moral","1930","positive","廉正","","","","","","","","","","","","","","","","",""
"794","
    <div class=""tag-bottom""><p>
    —— 任务3：对“他人/消极”词和“自我/积极”词分类 ——<p/>
    <span style=""color:#78DCE8""><b>注意上方，之前的四类词语将混合在一起交替呈现</b></span><p/>
    <span style=""color:#FFD866""><b>请根据上方标签的提示，尽可能正确并且快速地做出按键反应</b></span><p/>
    当按键错误时屏幕中会出现<span style=""color:red""> X </span>，需要按另一个键纠正才能继续<br/><p/>
    请把双手食指分别放在键盘的“E”键和“I”键上<p/>
    按<空格键>开始
    </p></div>"," ","html-keyboard-response","58","129455","0.0-6.0-1.0-5.0","4","4","4","3","4","4","3","4","3","4","3","2","2","5","3","4","3","2","4","4","1","1","2","1","1","1","2","1","2","1","0","1","1","0","0","1","1","0","1","1","0","1","0","1","4","4","5","2","4","","4","5","5","4","1","797768746788855810","赵","580","","","","","","","","","","","","","","","","","","","","","","","","","","","","","","","","","","","","","","","","","",""
"null","","null","html-keyboard-response","59","129708","0.0-6.0-1.0-6.0-0.0","4","4","4","3","4","4","3","4","3","4","3","2","2","5","3","4","3","2","4","4","1","1","2","1","1","1","2","1","2","1","0","1","1","0","0","1","1","0","1","1","0","1","0","1","4","4","5","2","4","","4","5","5","4","1","797768746788855810","赵","580","","","","","","","","","","","","","","","","","","","","","","","","","","","","","","","","","","","","","","","","","",""
"1225","<p style=""color:rgb(150, 250, 100); font-size: 35px;"">我</p>","i","categorize-html","60","130939","0.0-6.0-1.0-6.0-1.0","4","4","4","3","4","4","3","4","3","4","3","2","2","5","3","4","3","2","4","4","1","1","2","1","1","1","2","1","2","1","0","1","1","0","0","1","1","0","1","1","0","1","0","1","4","4","5","2","4","","4","5","5","4","1","797768746788855810","赵","580","","","","","","","","","","","","","","","","","","","true","13","3","moral","1225","self","我","","","","","","","","","","","","","","","","",""
"null","","null","html-keyboard-response","61","131195","0.0-6.0-1.0-6.0-0.1","4","4","4","3","4","4","3","4","3","4","3","2","2","5","3","4","3","2","4","4","1","1","2","1","1","1","2","1","2","1","0","1","1","0","0","1","1","0","1","1","0","1","0","1","4","4","5","2","4","","4","5","5","4","1","797768746788855810","赵","580","","","","","","","","","","","","","","","","","","","","","","","","","","","","","","","","","","","","","","","","","",""
"1418","<p style=""color:white; font-size: 35px;"">君子</p>","i","categorize-html","62","132619","0.0-6.0-1.0-6.0-1.1","4","4","4","3","4","4","3","4","3","4","3","2","2","5","3","4","3","2","4","4","1","1","2","1","1","1","2","1","2","1","0","1","1","0","0","1","1","0","1","1","0","1","0","1","4","4","5","2","4","","4","5","5","4","1","797768746788855810","赵","580","","","","","","","","","","","","","","","","","","","true","13","3","moral","1418","positive","君子","","","","","","","","","","","","","","","","",""
"null","","null","html-keyboard-response","63","132876","0.0-6.0-1.0-6.0-0.2","4","4","4","3","4","4","3","4","3","4","3","2","2","5","3","4","3","2","4","4","1","1","2","1","1","1","2","1","2","1","0","1","1","0","0","1","1","0","1","1","0","1","0","1","4","4","5","2","4","","4","5","5","4","1","797768746788855810","赵","580","","","","","","","","","","","","","","","","","","","","","","","","","","","","","","","","","","","","","","","","","",""
"577","<p style=""color:rgb(150, 250, 100); font-size: 35px;"">别人的</p>","e","categorize-html","64","133459","0.0-6.0-1.0-6.0-1.2","4","4","4","3","4","4","3","4","3","4","3","2","2","5","3","4","3","2","4","4","1","1","2","1","1","1","2","1","2","1","0","1","1","0","0","1","1","0","1","1","0","1","0","1","4","4","5","2","4","","4","5","5","4","1","797768746788855810","赵","580","","","","","","","","","","","","","","","","","","","true","13","3","moral","577","other","别人的","","","","","","","","","","","","","","","","",""
"null","","null","html-keyboard-response","65","133716","0.0-6.0-1.0-6.0-0.3","4","4","4","3","4","4","3","4","3","4","3","2","2","5","3","4","3","2","4","4","1","1","2","1","1","1","2","1","2","1","0","1","1","0","0","1","1","0","1","1","0","1","0","1","4","4","5","2","4","","4","5","5","4","1","797768746788855810","赵","580","","","","","","","","","","","","","","","","","","","","","","","","","","","","","","","","","","","","","","","","","",""
"625","<p style=""color:white; font-size: 35px;"">缺德</p>","e","categorize-html","66","134347","0.0-6.0-1.0-6.0-1.3","4","4","4","3","4","4","3","4","3","4","3","2","2","5","3","4","3","2","4","4","1","1","2","1","1","1","2","1","2","1","0","1","1","0","0","1","1","0","1","1","0","1","0","1","4","4","5","2","4","","4","5","5","4","1","797768746788855810","赵","580","","","","","","","","","","","","","","","","","","","true","13","3","moral","625","negative","缺德","","","","","","","","","","","","","","","","",""
"null","","null","html-keyboard-response","67","134608","0.0-6.0-1.0-6.0-0.4","4","4","4","3","4","4","3","4","3","4","3","2","2","5","3","4","3","2","4","4","1","1","2","1","1","1","2","1","2","1","0","1","1","0","0","1","1","0","1","1","0","1","0","1","4","4","5","2","4","","4","5","5","4","1","797768746788855810","赵","580","","","","","","","","","","","","","","","","","","","","","","","","","","","","","","","","","","","","","","","","","",""
"502","<p style=""color:rgb(150, 250, 100); font-size: 35px;"">他人的</p>","e","categorize-html","68","135115","0.0-6.0-1.0-6.0-1.4","4","4","4","3","4","4","3","4","3","4","3","2","2","5","3","4","3","2","4","4","1","1","2","1","1","1","2","1","2","1","0","1","1","0","0","1","1","0","1","1","0","1","0","1","4","4","5","2","4","","4","5","5","4","1","797768746788855810","赵","580","","","","","","","","","","","","","","","","","","","true","13","3","moral","502","other","他人的","","","","","","","","","","","","","","","","",""
"null","","null","html-keyboard-response","69","135372","0.0-6.0-1.0-6.0-0.5","4","4","4","3","4","4","3","4","3","4","3","2","2","5","3","4","3","2","4","4","1","1","2","1","1","1","2","1","2","1","0","1","1","0","0","1","1","0","1","1","0","1","0","1","4","4","5","2","4","","4","5","5","4","1","797768746788855810","赵","580","","","","","","","","","","","","","","","","","","","","","","","","","","","","","","","","","","","","","","","","","",""
"505","<p style=""color:white; font-size: 35px;"">不孝</p>","e","categorize-html","70","135883","0.0-6.0-1.0-6.0-1.5","4","4","4","3","4","4","3","4","3","4","3","2","2","5","3","4","3","2","4","4","1","1","2","1","1","1","2","1","2","1","0","1","1","0","0","1","1","0","1","1","0","1","0","1","4","4","5","2","4","","4","5","5","4","1","797768746788855810","赵","580","","","","","","","","","","","","","","","","","","","true","13","3","moral","505","negative","不孝","","","","","","","","","","","","","","","","",""
"null","","null","html-keyboard-response","71","136139","0.0-6.0-1.0-6.0-0.6","4","4","4","3","4","4","3","4","3","4","3","2","2","5","3","4","3","2","4","4","1","1","2","1","1","1","2","1","2","1","0","1","1","0","0","1","1","0","1","1","0","1","0","1","4","4","5","2","4","","4","5","5","4","1","797768746788855810","赵","580","","","","","","","","","","","","","","","","","","","","","","","","","","","","","","","","","","","","","","","","","",""
"562","<p style=""color:rgb(150, 250, 100); font-size: 35px;"">我的</p>","i","categorize-html","72","136706","0.0-6.0-1.0-6.0-1.6","4","4","4","3","4","4","3","4","3","4","3","2","2","5","3","4","3","2","4","4","1","1","2","1","1","1","2","1","2","1","0","1","1","0","0","1","1","0","1","1","0","1","0","1","4","4","5","2","4","","4","5","5","4","1","797768746788855810","赵","580","","","","","","","","","","","","","","","","","","","true","13","3","moral","562","self","我的","","","","","","","","","","","","","","","","",""
"null","","null","html-keyboard-response","73","136963","0.0-6.0-1.0-6.0-0.7","4","4","4","3","4","4","3","4","3","4","3","2","2","5","3","4","3","2","4","4","1","1","2","1","1","1","2","1","2","1","0","1","1","0","0","1","1","0","1","1","0","1","0","1","4","4","5","2","4","","4","5","5","4","1","797768746788855810","赵","580","","","","","","","","","","","","","","","","","","","","","","","","","","","","","","","","","","","","","","","","","",""
"602","<p style=""color:white; font-size: 35px;"">正直</p>","i","categorize-html","74","137570","0.0-6.0-1.0-6.0-1.7","4","4","4","3","4","4","3","4","3","4","3","2","2","5","3","4","3","2","4","4","1","1","2","1","1","1","2","1","2","1","0","1","1","0","0","1","1","0","1","1","0","1","0","1","4","4","5","2","4","","4","5","5","4","1","797768746788855810","赵","580","","","","","","","","","","","","","","","","","","","true","13","3","moral","602","positive","正直","","","","","","","","","","","","","","","","",""
"null","","null","html-keyboard-response","75","137827","0.0-6.0-1.0-6.0-0.8","4","4","4","3","4","4","3","4","3","4","3","2","2","5","3","4","3","2","4","4","1","1","2","1","1","1","2","1","2","1","0","1","1","0","0","1","1","0","1","1","0","1","0","1","4","4","5","2","4","","4","5","5","4","1","797768746788855810","赵","580","","","","","","","","","","","","","","","","","","","","","","","","","","","","","","","","","","","","","","","","","",""
"602","<p style=""color:rgb(150, 250, 100); font-size: 35px;"">他人</p>","e","categorize-html","76","138435","0.0-6.0-1.0-6.0-1.8","4","4","4","3","4","4","3","4","3","4","3","2","2","5","3","4","3","2","4","4","1","1","2","1","1","1","2","1","2","1","0","1","1","0","0","1","1","0","1","1","0","1","0","1","4","4","5","2","4","","4","5","5","4","1","797768746788855810","赵","580","","","","","","","","","","","","","","","","","","","true","13","3","moral","602","other","他人","","","","","","","","","","","","","","","","",""
"null","","null","html-keyboard-response","77","138691","0.0-6.0-1.0-6.0-0.9","4","4","4","3","4","4","3","4","3","4","3","2","2","5","3","4","3","2","4","4","1","1","2","1","1","1","2","1","2","1","0","1","1","0","0","1","1","0","1","1","0","1","0","1","4","4","5","2","4","","4","5","5","4","1","797768746788855810","赵","580","","","","","","","","","","","","","","","","","","","","","","","","","","","","","","","","","","","","","","","","","",""
"1306","<p style=""color:white; font-size: 35px;"">善良</p>","i","categorize-html","78","140003","0.0-6.0-1.0-6.0-1.9","4","4","4","3","4","4","3","4","3","4","3","2","2","5","3","4","3","2","4","4","1","1","2","1","1","1","2","1","2","1","0","1","1","0","0","1","1","0","1","1","0","1","0","1","4","4","5","2","4","","4","5","5","4","1","797768746788855810","赵","580","","","","","","","","","","","","","","","","","","","true","13","3","moral","1306","positive","善良","","","","","","","","","","","","","","","","",""
"null","","null","html-keyboard-response","79","140259","0.0-6.0-1.0-6.0-0.10","4","4","4","3","4","4","3","4","3","4","3","2","2","5","3","4","3","2","4","4","1","1","2","1","1","1","2","1","2","1","0","1","1","0","0","1","1","0","1","1","0","1","0","1","4","4","5","2","4","","4","5","5","4","1","797768746788855810","赵","580","","","","","","","","","","","","","","","","","","","","","","","","","","","","","","","","","","","","","","","","","",""
"618","<p style=""color:rgb(150, 250, 100); font-size: 35px;"">本人的</p>","i","categorize-html","80","140882","0.0-6.0-1.0-6.0-1.10","4","4","4","3","4","4","3","4","3","4","3","2","2","5","3","4","3","2","4","4","1","1","2","1","1","1","2","1","2","1","0","1","1","0","0","1","1","0","1","1","0","1","0","1","4","4","5","2","4","","4","5","5","4","1","797768746788855810","赵","580","","","","","","","","","","","","","","","","","","","true","13","3","moral","618","self","本人的","","","","","","","","","","","","","","","","",""
"null","","null","html-keyboard-response","81","141140","0.0-6.0-1.0-6.0-0.11","4","4","4","3","4","4","3","4","3","4","3","2","2","5","3","4","3","2","4","4","1","1","2","1","1","1","2","1","2","1","0","1","1","0","0","1","1","0","1","1","0","1","0","1","4","4","5","2","4","","4","5","5","4","1","797768746788855810","赵","580","","","","","","","","","","","","","","","","","","","","","","","","","","","","","","","","","","","","","","","","","",""
"706","<p style=""color:white; font-size: 35px;"">黑心</p>","e","categorize-html","82","141851","0.0-6.0-1.0-6.0-1.11","4","4","4","3","4","4","3","4","3","4","3","2","2","5","3","4","3","2","4","4","1","1","2","1","1","1","2","1","2","1","0","1","1","0","0","1","1","0","1","1","0","1","0","1","4","4","5","2","4","","4","5","5","4","1","797768746788855810","赵","580","","","","","","","","","","","","","","","","","","","true","13","3","moral","706","negative","黑心","","","","","","","","","","","","","","","","",""
"null","","null","html-keyboard-response","83","142108","0.0-6.0-1.0-6.0-0.12","4","4","4","3","4","4","3","4","3","4","3","2","2","5","3","4","3","2","4","4","1","1","2","1","1","1","2","1","2","1","0","1","1","0","0","1","1","0","1","1","0","1","0","1","4","4","5","2","4","","4","5","5","4","1","797768746788855810","赵","580","","","","","","","","","","","","","","","","","","","","","","","","","","","","","","","","","","","","","","","","","",""
"922","<p style=""color:rgb(150, 250, 100); font-size: 35px;"">自己</p>","i","categorize-html","84","143035","0.0-6.0-1.0-6.0-1.12","4","4","4","3","4","4","3","4","3","4","3","2","2","5","3","4","3","2","4","4","1","1","2","1","1","1","2","1","2","1","0","1","1","0","0","1","1","0","1","1","0","1","0","1","4","4","5","2","4","","4","5","5","4","1","797768746788855810","赵","580","","","","","","","","","","","","","","","","","","","true","13","3","moral","922","self","自己","","","","","","","","","","","","","","","","",""
"null","","null","html-keyboard-response","85","143291","0.0-6.0-1.0-6.0-0.13","4","4","4","3","4","4","3","4","3","4","3","2","2","5","3","4","3","2","4","4","1","1","2","1","1","1","2","1","2","1","0","1","1","0","0","1","1","0","1","1","0","1","0","1","4","4","5","2","4","","4","5","5","4","1","797768746788855810","赵","580","","","","","","","","","","","","","","","","","","","","","","","","","","","","","","","","","","","","","","","","","",""
"786","<p style=""color:white; font-size: 35px;"">诚信</p>","i","categorize-html","86","144082","0.0-6.0-1.0-6.0-1.13","4","4","4","3","4","4","3","4","3","4","3","2","2","5","3","4","3","2","4","4","1","1","2","1","1","1","2","1","2","1","0","1","1","0","0","1","1","0","1","1","0","1","0","1","4","4","5","2","4","","4","5","5","4","1","797768746788855810","赵","580","","","","","","","","","","","","","","","","","","","true","13","3","moral","786","positive","诚信","","","","","","","","","","","","","","","","",""
"null","","null","html-keyboard-response","87","144340","0.0-6.0-1.0-6.0-0.14","4","4","4","3","4","4","3","4","3","4","3","2","2","5","3","4","3","2","4","4","1","1","2","1","1","1","2","1","2","1","0","1","1","0","0","1","1","0","1","1","0","1","0","1","4","4","5","2","4","","4","5","5","4","1","797768746788855810","赵","580","","","","","","","","","","","","","","","","","","","","","","","","","","","","","","","","","","","","","","","","","",""
"569","<p style=""color:rgb(150, 250, 100); font-size: 35px;"">他的</p>","e","categorize-html","88","144914","0.0-6.0-1.0-6.0-1.14","4","4","4","3","4","4","3","4","3","4","3","2","2","5","3","4","3","2","4","4","1","1","2","1","1","1","2","1","2","1","0","1","1","0","0","1","1","0","1","1","0","1","0","1","4","4","5","2","4","","4","5","5","4","1","797768746788855810","赵","580","","","","","","","","","","","","","","","","","","","true","13","3","moral","569","other","他的","","","","","","","","","","","","","","","","",""
"null","","null","html-keyboard-response","89","145172","0.0-6.0-1.0-6.0-0.15","4","4","4","3","4","4","3","4","3","4","3","2","2","5","3","4","3","2","4","4","1","1","2","1","1","1","2","1","2","1","0","1","1","0","0","1","1","0","1","1","0","1","0","1","4","4","5","2","4","","4","5","5","4","1","797768746788855810","赵","580","","","","","","","","","","","","","","","","","","","","","","","","","","","","","","","","","","","","","","","","","",""
"594","<p style=""color:white; font-size: 35px;"">不仁</p>","e","categorize-html","90","145770","0.0-6.0-1.0-6.0-1.15","4","4","4","3","4","4","3","4","3","4","3","2","2","5","3","4","3","2","4","4","1","1","2","1","1","1","2","1","2","1","0","1","1","0","0","1","1","0","1","1","0","1","0","1","4","4","5","2","4","","4","5","5","4","1","797768746788855810","赵","580","","","","","","","","","","","","","","","","","","","true","13","3","moral","594","negative","不仁","","","","","","","","","","","","","","","","",""
"null","","null","html-keyboard-response","91","146028","0.0-6.0-1.0-6.0-0.16","4","4","4","3","4","4","3","4","3","4","3","2","2","5","3","4","3","2","4","4","1","1","2","1","1","1","2","1","2","1","0","1","1","0","0","1","1","0","1","1","0","1","0","1","4","4","5","2","4","","4","5","5","4","1","797768746788855810","赵","580","","","","","","","","","","","","","","","","","","","","","","","","","","","","","","","","","","","","","","","","","",""
"586","<p style=""color:rgb(150, 250, 100); font-size: 35px;"">自己的</p>","i","categorize-html","92","146618","0.0-6.0-1.0-6.0-1.16","4","4","4","3","4","4","3","4","3","4","3","2","2","5","3","4","3","2","4","4","1","1","2","1","1","1","2","1","2","1","0","1","1","0","0","1","1","0","1","1","0","1","0","1","4","4","5","2","4","","4","5","5","4","1","797768746788855810","赵","580","","","","","","","","","","","","","","","","","","","true","13","3","moral","586","self","自己的","","","","","","","","","","","","","","","","",""
"null","","null","html-keyboard-response","93","146876","0.0-6.0-1.0-6.0-0.17","4","4","4","3","4","4","3","4","3","4","3","2","2","5","3","4","3","2","4","4","1","1","2","1","1","1","2","1","2","1","0","1","1","0","0","1","1","0","1","1","0","1","0","1","4","4","5","2","4","","4","5","5","4","1","797768746788855810","赵","580","","","","","","","","","","","","","","","","","","","","","","","","","","","","","","","","","","","","","","","","","",""
"730","<p style=""color:white; font-size: 35px;"">廉正</p>","i","categorize-html","94","147610","0.0-6.0-1.0-6.0-1.17","4","4","4","3","4","4","3","4","3","4","3","2","2","5","3","4","3","2","4","4","1","1","2","1","1","1","2","1","2","1","0","1","1","0","0","1","1","0","1","1","0","1","0","1","4","4","5","2","4","","4","5","5","4","1","797768746788855810","赵","580","","","","","","","","","","","","","","","","","","","true","13","3","moral","730","positive","廉正","","","","","","","","","","","","","","","","",""
"null","","null","html-keyboard-response","95","147868","0.0-6.0-1.0-6.0-0.18","4","4","4","3","4","4","3","4","3","4","3","2","2","5","3","4","3","2","4","4","1","1","2","1","1","1","2","1","2","1","0","1","1","0","0","1","1","0","1","1","0","1","0","1","4","4","5","2","4","","4","5","5","4","1","797768746788855810","赵","580","","","","","","","","","","","","","","","","","","","","","","","","","","","","","","","","","","","","","","","","","",""
"618","<p style=""color:rgb(150, 250, 100); font-size: 35px;"">别人</p>","e","categorize-html","96","148491","0.0-6.0-1.0-6.0-1.18","4","4","4","3","4","4","3","4","3","4","3","2","2","5","3","4","3","2","4","4","1","1","2","1","1","1","2","1","2","1","0","1","1","0","0","1","1","0","1","1","0","1","0","1","4","4","5","2","4","","4","5","5","4","1","797768746788855810","赵","580","","","","","","","","","","","","","","","","","","","true","13","3","moral","618","other","别人","","","","","","","","","","","","","","","","",""
"null","","null","html-keyboard-response","97","148749","0.0-6.0-1.0-6.0-0.19","4","4","4","3","4","4","3","4","3","4","3","2","2","5","3","4","3","2","4","4","1","1","2","1","1","1","2","1","2","1","0","1","1","0","0","1","1","0","1","1","0","1","0","1","4","4","5","2","4","","4","5","5","4","1","797768746788855810","赵","580","","","","","","","","","","","","","","","","","","","","","","","","","","","","","","","","","","","","","","","","","",""
"866","<p style=""color:white; font-size: 35px;"">小人</p>","e","categorize-html","98","149620","0.0-6.0-1.0-6.0-1.19","4","4","4","3","4","4","3","4","3","4","3","2","2","5","3","4","3","2","4","4","1","1","2","1","1","1","2","1","2","1","0","1","1","0","0","1","1","0","1","1","0","1","0","1","4","4","5","2","4","","4","5","5","4","1","797768746788855810","赵","580","","","","","","","","","","","","","","","","","","","true","13","3","moral","866","negative","小人","","","","","","","","","","","","","","","","",""
"null","","null","html-keyboard-response","99","149877","0.0-6.0-1.0-6.0-0.20","4","4","4","3","4","4","3","4","3","4","3","2","2","5","3","4","3","2","4","4","1","1","2","1","1","1","2","1","2","1","0","1","1","0","0","1","1","0","1","1","0","1","0","1","4","4","5","2","4","","4","5","5","4","1","797768746788855810","赵","580","","","","","","","","","","","","","","","","","","","","","","","","","","","","","","","","","","","","","","","","","",""
"570","<p style=""color:rgb(150, 250, 100); font-size: 35px;"">本人</p>","i","categorize-html","100","150451","0.0-6.0-1.0-6.0-1.20","4","4","4","3","4","4","3","4","3","4","3","2","2","5","3","4","3","2","4","4","1","1","2","1","1","1","2","1","2","1","0","1","1","0","0","1","1","0","1","1","0","1","0","1","4","4","5","2","4","","4","5","5","4","1","797768746788855810","赵","580","","","","","","","","","","","","","","","","","","","true","13","3","moral","570","self","本人","","","","","","","","","","","","","","","","",""
"null","","null","html-keyboard-response","101","150709","0.0-6.0-1.0-6.0-0.21","4","4","4","3","4","4","3","4","3","4","3","2","2","5","3","4","3","2","4","4","1","1","2","1","1","1","2","1","2","1","0","1","1","0","0","1","1","0","1","1","0","1","0","1","4","4","5","2","4","","4","5","5","4","1","797768746788855810","赵","580","","","","","","","","","","","","","","","","","","","","","","","","","","","","","","","","","","","","","","","","","",""
"858","<p style=""color:white; font-size: 35px;"">高尚</p>","i","categorize-html","102","151571","0.0-6.0-1.0-6.0-1.21","4","4","4","3","4","4","3","4","3","4","3","2","2","5","3","4","3","2","4","4","1","1","2","1","1","1","2","1","2","1","0","1","1","0","0","1","1","0","1","1","0","1","0","1","4","4","5","2","4","","4","5","5","4","1","797768746788855810","赵","580","","","","","","","","","","","","","","","","","","","true","13","3","moral","858","positive","高尚","","","","","","","","","","","","","","","","",""
"null","","null","html-keyboard-response","103","151829","0.0-6.0-1.0-6.0-0.22","4","4","4","3","4","4","3","4","3","4","3","2","2","5","3","4","3","2","4","4","1","1","2","1","1","1","2","1","2","1","0","1","1","0","0","1","1","0","1","1","0","1","0","1","4","4","5","2","4","","4","5","5","4","1","797768746788855810","赵","580","","","","","","","","","","","","","","","","","","","","","","","","","","","","","","","","","","","","","","","","","",""
"658","<p style=""color:rgb(150, 250, 100); font-size: 35px;"">他</p>","e","categorize-html","104","152493","0.0-6.0-1.0-6.0-1.22","4","4","4","3","4","4","3","4","3","4","3","2","2","5","3","4","3","2","4","4","1","1","2","1","1","1","2","1","2","1","0","1","1","0","0","1","1","0","1","1","0","1","0","1","4","4","5","2","4","","4","5","5","4","1","797768746788855810","赵","580","","","","","","","","","","","","","","","","","","","true","13","3","moral","658","other","他","","","","","","","","","","","","","","","","",""
"null","","null","html-keyboard-response","105","152749","0.0-6.0-1.0-6.0-0.23","4","4","4","3","4","4","3","4","3","4","3","2","2","5","3","4","3","2","4","4","1","1","2","1","1","1","2","1","2","1","0","1","1","0","0","1","1","0","1","1","0","1","0","1","4","4","5","2","4","","4","5","5","4","1","797768746788855810","赵","580","","","","","","","","","","","","","","","","","","","","","","","","","","","","","","","","","","","","","","","","","",""
"785","<p style=""color:white; font-size: 35px;"">卑鄙</p>","e","categorize-html","106","153539","0.0-6.0-1.0-6.0-1.23","4","4","4","3","4","4","3","4","3","4","3","2","2","5","3","4","3","2","4","4","1","1","2","1","1","1","2","1","2","1","0","1","1","0","0","1","1","0","1","1","0","1","0","1","4","4","5","2","4","","4","5","5","4","1","797768746788855810","赵","580","","","","","","","","","","","","","","","","","","","true","13","3","moral","785","negative","卑鄙","","","","","","","","","","","","","","","","",""
"755","
    <div class=""tag-bottom""><p>
    —— 任务4：对“他人/消极”词和“自我/积极”词分类 ——<p/>
    <span style=""color:#78DCE8""><b>与刚才的任务完全相同，请再次对这四类词语分类</b></span><p/>
    <span style=""color:#FFD866""><b>请根据上方标签的提示，尽可能正确并且快速地做出按键反应</b></span><p/>
    当按键错误时屏幕中会出现<span style=""color:red""> X </span>，需要按另一个键纠正才能继续<br/><p/>
    请把双手食指分别放在键盘的“E”键和“I”键上<p/>
    按<空格键>开始
    </p></div>"," ","html-keyboard-response","107","154296","0.0-6.0-1.0-7.0","4","4","4","3","4","4","3","4","3","4","3","2","2","5","3","4","3","2","4","4","1","1","2","1","1","1","2","1","2","1","0","1","1","0","0","1","1","0","1","1","0","1","0","1","4","4","5","2","4","","4","5","5","4","1","797768746788855810","赵","580","","","","","","","","","","","","","","","","","","","","","","","","","","","","","","","","","","","","","","","","","",""
"null","","null","html-keyboard-response","108","154549","0.0-6.0-1.0-8.0-0.0","4","4","4","3","4","4","3","4","3","4","3","2","2","5","3","4","3","2","4","4","1","1","2","1","1","1","2","1","2","1","0","1","1","0","0","1","1","0","1","1","0","1","0","1","4","4","5","2","4","","4","5","5","4","1","797768746788855810","赵","580","","","","","","","","","","","","","","","","","","","","","","","","","","","","","","","","","","","","","","","","","",""
"656","<p style=""color:rgb(150, 250, 100); font-size: 35px;"">我的</p>","i","categorize-html","109","155212","0.0-6.0-1.0-8.0-1.0","4","4","4","3","4","4","3","4","3","4","3","2","2","5","3","4","3","2","4","4","1","1","2","1","1","1","2","1","2","1","0","1","1","0","0","1","1","0","1","1","0","1","0","1","4","4","5","2","4","","4","5","5","4","1","797768746788855810","赵","580","","","","","","","","","","","","","","","","","","","true","14","4","moral","656","self","我的","","","","","","","","","","","","","","","","",""
"null","","null","html-keyboard-response","110","155469","0.0-6.0-1.0-8.0-0.1","4","4","4","3","4","4","3","4","3","4","3","2","2","5","3","4","3","2","4","4","1","1","2","1","1","1","2","1","2","1","0","1","1","0","0","1","1","0","1","1","0","1","0","1","4","4","5","2","4","","4","5","5","4","1","797768746788855810","赵","580","","","","","","","","","","","","","","","","","","","","","","","","","","","","","","","","","","","","","","","","","",""
"665","<p style=""color:white; font-size: 35px;"">正直</p>","i","categorize-html","111","156139","0.0-6.0-1.0-8.0-1.1","4","4","4","3","4","4","3","4","3","4","3","2","2","5","3","4","3","2","4","4","1","1","2","1","1","1","2","1","2","1","0","1","1","0","0","1","1","0","1","1","0","1","0","1","4","4","5","2","4","","4","5","5","4","1","797768746788855810","赵","580","","","","","","","","","","","","","","","","","","","true","14","4","moral","665","positive","正直","","","","","","","","","","","","","","","","",""
"null","","null","html-keyboard-response","112","156397","0.0-6.0-1.0-8.0-0.2","4","4","4","3","4","4","3","4","3","4","3","2","2","5","3","4","3","2","4","4","1","1","2","1","1","1","2","1","2","1","0","1","1","0","0","1","1","0","1","1","0","1","0","1","4","4","5","2","4","","4","5","5","4","1","797768746788855810","赵","580","","","","","","","","","","","","","","","","","","","","","","","","","","","","","","","","","","","","","","","","","",""
"617","<p style=""color:rgb(150, 250, 100); font-size: 35px;"">别人的</p>","e","categorize-html","113","157019","0.0-6.0-1.0-8.0-1.2","4","4","4","3","4","4","3","4","3","4","3","2","2","5","3","4","3","2","4","4","1","1","2","1","1","1","2","1","2","1","0","1","1","0","0","1","1","0","1","1","0","1","0","1","4","4","5","2","4","","4","5","5","4","1","797768746788855810","赵","580","","","","","","","","","","","","","","","","","","","true","14","4","moral","617","other","别人的","","","","","","","","","","","","","","","","",""
"null","","null","html-keyboard-response","114","157278","0.0-6.0-1.0-8.0-0.3","4","4","4","3","4","4","3","4","3","4","3","2","2","5","3","4","3","2","4","4","1","1","2","1","1","1","2","1","2","1","0","1","1","0","0","1","1","0","1","1","0","1","0","1","4","4","5","2","4","","4","5","5","4","1","797768746788855810","赵","580","","","","","","","","","","","","","","","","","","","","","","","","","","","","","","","","","","","","","","","","","",""
"617","<p style=""color:white; font-size: 35px;"">不孝</p>","e","categorize-html","115","157899","0.0-6.0-1.0-8.0-1.3","4","4","4","3","4","4","3","4","3","4","3","2","2","5","3","4","3","2","4","4","1","1","2","1","1","1","2","1","2","1","0","1","1","0","0","1","1","0","1","1","0","1","0","1","4","4","5","2","4","","4","5","5","4","1","797768746788855810","赵","580","","","","","","","","","","","","","","","","","","","true","14","4","moral","617","negative","不孝","","","","","","","","","","","","","","","","",""
"null","","null","html-keyboard-response","116","158157","0.0-6.0-1.0-8.0-0.4","4","4","4","3","4","4","3","4","3","4","3","2","2","5","3","4","3","2","4","4","1","1","2","1","1","1","2","1","2","1","0","1","1","0","0","1","1","0","1","1","0","1","0","1","4","4","5","2","4","","4","5","5","4","1","797768746788855810","赵","580","","","","","","","","","","","","","","","","","","","","","","","","","","","","","","","","","","","","","","","","","",""
"529","<p style=""color:rgb(150, 250, 100); font-size: 35px;"">他的</p>","e","categorize-html","117","158691","0.0-6.0-1.0-8.0-1.4","4","4","4","3","4","4","3","4","3","4","3","2","2","5","3","4","3","2","4","4","1","1","2","1","1","1","2","1","2","1","0","1","1","0","0","1","1","0","1","1","0","1","0","1","4","4","5","2","4","","4","5","5","4","1","797768746788855810","赵","580","","","","","","","","","","","","","","","","","","","true","14","4","moral","529","other","他的","","","","","","","","","","","","","","","","",""
"null","","null","html-keyboard-response","118","158943","0.0-6.0-1.0-8.0-0.5","4","4","4","3","4","4","3","4","3","4","3","2","2","5","3","4","3","2","4","4","1","1","2","1","1","1","2","1","2","1","0","1","1","0","0","1","1","0","1","1","0","1","0","1","4","4","5","2","4","","4","5","5","4","1","797768746788855810","赵","580","","","","","","","","","","","","","","","","","","","","","","","","","","","","","","","","","","","","","","","","","",""
"527","<p style=""color:white; font-size: 35px;"">卑鄙</p>","e","categorize-html","119","159475","0.0-6.0-1.0-8.0-1.5","4","4","4","3","4","4","3","4","3","4","3","2","2","5","3","4","3","2","4","4","1","1","2","1","1","1","2","1","2","1","0","1","1","0","0","1","1","0","1","1","0","1","0","1","4","4","5","2","4","","4","5","5","4","1","797768746788855810","赵","580","","","","","","","","","","","","","","","","","","","true","14","4","moral","527","negative","卑鄙","","","","","","","","","","","","","","","","",""
"null","","null","html-keyboard-response","120","159733","0.0-6.0-1.0-8.0-0.6","4","4","4","3","4","4","3","4","3","4","3","2","2","5","3","4","3","2","4","4","1","1","2","1","1","1","2","1","2","1","0","1","1","0","0","1","1","0","1","1","0","1","0","1","4","4","5","2","4","","4","5","5","4","1","797768746788855810","赵","580","","","","","","","","","","","","","","","","","","","","","","","","","","","","","","","","","","","","","","","","","",""
"617","<p style=""color:rgb(150, 250, 100); font-size: 35px;"">本人</p>","i","categorize-html","121","160355","0.0-6.0-1.0-8.0-1.6","4","4","4","3","4","4","3","4","3","4","3","2","2","5","3","4","3","2","4","4","1","1","2","1","1","1","2","1","2","1","0","1","1","0","0","1","1","0","1","1","0","1","0","1","4","4","5","2","4","","4","5","5","4","1","797768746788855810","赵","580","","","","","","","","","","","","","","","","","","","true","14","4","moral","617","self","本人","","","","","","","","","","","","","","","","",""
"null","","null","html-keyboard-response","122","160612","0.0-6.0-1.0-8.0-0.7","4","4","4","3","4","4","3","4","3","4","3","2","2","5","3","4","3","2","4","4","1","1","2","1","1","1","2","1","2","1","0","1","1","0","0","1","1","0","1","1","0","1","0","1","4","4","5","2","4","","4","5","5","4","1","797768746788855810","赵","580","","","","","","","","","","","","","","","","","","","","","","","","","","","","","","","","","","","","","","","","","",""
"681","<p style=""color:white; font-size: 35px;"">君子</p>","i","categorize-html","123","161299","0.0-6.0-1.0-8.0-1.7","4","4","4","3","4","4","3","4","3","4","3","2","2","5","3","4","3","2","4","4","1","1","2","1","1","1","2","1","2","1","0","1","1","0","0","1","1","0","1","1","0","1","0","1","4","4","5","2","4","","4","5","5","4","1","797768746788855810","赵","580","","","","","","","","","","","","","","","","","","","true","14","4","moral","681","positive","君子","","","","","","","","","","","","","","","","",""
"null","","null","html-keyboard-response","124","161557","0.0-6.0-1.0-8.0-0.8","4","4","4","3","4","4","3","4","3","4","3","2","2","5","3","4","3","2","4","4","1","1","2","1","1","1","2","1","2","1","0","1","1","0","0","1","1","0","1","1","0","1","0","1","4","4","5","2","4","","4","5","5","4","1","797768746788855810","赵","580","","","","","","","","","","","","","","","","","","","","","","","","","","","","","","","","","","","","","","","","","",""
"577","<p style=""color:rgb(150, 250, 100); font-size: 35px;"">本人的</p>","i","categorize-html","125","162139","0.0-6.0-1.0-8.0-1.8","4","4","4","3","4","4","3","4","3","4","3","2","2","5","3","4","3","2","4","4","1","1","2","1","1","1","2","1","2","1","0","1","1","0","0","1","1","0","1","1","0","1","0","1","4","4","5","2","4","","4","5","5","4","1","797768746788855810","赵","580","","","","","","","","","","","","","","","","","","","true","14","4","moral","577","self","本人的","","","","","","","","","","","","","","","","",""
"null","","null","html-keyboard-response","126","162397","0.0-6.0-1.0-8.0-0.9","4","4","4","3","4","4","3","4","3","4","3","2","2","5","3","4","3","2","4","4","1","1","2","1","1","1","2","1","2","1","0","1","1","0","0","1","1","0","1","1","0","1","0","1","4","4","5","2","4","","4","5","5","4","1","797768746788855810","赵","580","","","","","","","","","","","","","","","","","","","","","","","","","","","","","","","","","","","","","","","","","",""
"834","<p style=""color:white; font-size: 35px;"">诚信</p>","i","categorize-html","127","163236","0.0-6.0-1.0-8.0-1.9","4","4","4","3","4","4","3","4","3","4","3","2","2","5","3","4","3","2","4","4","1","1","2","1","1","1","2","1","2","1","0","1","1","0","0","1","1","0","1","1","0","1","0","1","4","4","5","2","4","","4","5","5","4","1","797768746788855810","赵","580","","","","","","","","","","","","","","","","","","","true","14","4","moral","834","positive","诚信","","","","","","","","","","","","","","","","",""
"null","","null","html-keyboard-response","128","163492","0.0-6.0-1.0-8.0-0.10","4","4","4","3","4","4","3","4","3","4","3","2","2","5","3","4","3","2","4","4","1","1","2","1","1","1","2","1","2","1","0","1","1","0","0","1","1","0","1","1","0","1","0","1","4","4","5","2","4","","4","5","5","4","1","797768746788855810","赵","580","","","","","","","","","","","","","","","","","","","","","","","","","","","","","","","","","","","","","","","","","",""
"601","<p style=""color:rgb(150, 250, 100); font-size: 35px;"">别人的</p>","e","categorize-html","129","164099","0.0-6.0-1.0-8.0-1.10","4","4","4","3","4","4","3","4","3","4","3","2","2","5","3","4","3","2","4","4","1","1","2","1","1","1","2","1","2","1","0","1","1","0","0","1","1","0","1","1","0","1","0","1","4","4","5","2","4","","4","5","5","4","1","797768746788855810","赵","580","","","","","","","","","","","","","","","","","","","true","14","4","moral","601","other","别人的","","","","","","","","","","","","","","","","",""
"null","","null","html-keyboard-response","130","164357","0.0-6.0-1.0-8.0-0.11","4","4","4","3","4","4","3","4","3","4","3","2","2","5","3","4","3","2","4","4","1","1","2","1","1","1","2","1","2","1","0","1","1","0","0","1","1","0","1","1","0","1","0","1","4","4","5","2","4","","4","5","5","4","1","797768746788855810","赵","580","","","","","","","","","","","","","","","","","","","","","","","","","","","","","","","","","","","","","","","","","",""
"753","<p style=""color:white; font-size: 35px;"">小人</p>","e","categorize-html","131","165115","0.0-6.0-1.0-8.0-1.11","4","4","4","3","4","4","3","4","3","4","3","2","2","5","3","4","3","2","4","4","1","1","2","1","1","1","2","1","2","1","0","1","1","0","0","1","1","0","1","1","0","1","0","1","4","4","5","2","4","","4","5","5","4","1","797768746788855810","赵","580","","","","","","","","","","","","","","","","","","","true","14","4","moral","753","negative","小人","","","","","","","","","","","","","","","","",""
"null","","null","html-keyboard-response","132","165372","0.0-6.0-1.0-8.0-0.12","4","4","4","3","4","4","3","4","3","4","3","2","2","5","3","4","3","2","4","4","1","1","2","1","1","1","2","1","2","1","0","1","1","0","0","1","1","0","1","1","0","1","0","1","4","4","5","2","4","","4","5","5","4","1","797768746788855810","赵","580","","","","","","","","","","","","","","","","","","","","","","","","","","","","","","","","","","","","","","","","","",""
"562","<p style=""color:rgb(150, 250, 100); font-size: 35px;"">他人的</p>","e","categorize-html","133","165939","0.0-6.0-1.0-8.0-1.12","4","4","4","3","4","4","3","4","3","4","3","2","2","5","3","4","3","2","4","4","1","1","2","1","1","1","2","1","2","1","0","1","1","0","0","1","1","0","1","1","0","1","0","1","4","4","5","2","4","","4","5","5","4","1","797768746788855810","赵","580","","","","","","","","","","","","","","","","","","","true","14","4","moral","562","other","他人的","","","","","","","","","","","","","","","","",""
"null","","null","html-keyboard-response","134","166196","0.0-6.0-1.0-8.0-0.13","4","4","4","3","4","4","3","4","3","4","3","2","2","5","3","4","3","2","4","4","1","1","2","1","1","1","2","1","2","1","0","1","1","0","0","1","1","0","1","1","0","1","0","1","4","4","5","2","4","","4","5","5","4","1","797768746788855810","赵","580","","","","","","","","","","","","","","","","","","","","","","","","","","","","","","","","","","","","","","","","","",""
"650","<p style=""color:white; font-size: 35px;"">不孝</p>","e","categorize-html","135","166851","0.0-6.0-1.0-8.0-1.13","4","4","4","3","4","4","3","4","3","4","3","2","2","5","3","4","3","2","4","4","1","1","2","1","1","1","2","1","2","1","0","1","1","0","0","1","1","0","1","1","0","1","0","1","4","4","5","2","4","","4","5","5","4","1","797768746788855810","赵","580","","","","","","","","","","","","","","","","","","","true","14","4","moral","650","negative","不孝","","","","","","","","","","","","","","","","",""
"null","","null","html-keyboard-response","136","167109","0.0-6.0-1.0-8.0-0.14","4","4","4","3","4","4","3","4","3","4","3","2","2","5","3","4","3","2","4","4","1","1","2","1","1","1","2","1","2","1","0","1","1","0","0","1","1","0","1","1","0","1","0","1","4","4","5","2","4","","4","5","5","4","1","797768746788855810","赵","580","","","","","","","","","","","","","","","","","","","","","","","","","","","","","","","","","","","","","","","","","",""
"649","<p style=""color:rgb(150, 250, 100); font-size: 35px;"">本人</p>","i","categorize-html","137","167763","0.0-6.0-1.0-8.0-1.14","4","4","4","3","4","4","3","4","3","4","3","2","2","5","3","4","3","2","4","4","1","1","2","1","1","1","2","1","2","1","0","1","1","0","0","1","1","0","1","1","0","1","0","1","4","4","5","2","4","","4","5","5","4","1","797768746788855810","赵","580","","","","","","","","","","","","","","","","","","","true","14","4","moral","649","self","本人","","","","","","","","","","","","","","","","",""
"null","","null","html-keyboard-response","138","168021","0.0-6.0-1.0-8.0-0.15","4","4","4","3","4","4","3","4","3","4","3","2","2","5","3","4","3","2","4","4","1","1","2","1","1","1","2","1","2","1","0","1","1","0","0","1","1","0","1","1","0","1","0","1","4","4","5","2","4","","4","5","5","4","1","797768746788855810","赵","580","","","","","","","","","","","","","","","","","","","","","","","","","","","","","","","","","","","","","","","","","",""
"601","<p style=""color:white; font-size: 35px;"">高尚</p>","i","categorize-html","139","168627","0.0-6.0-1.0-8.0-1.15","4","4","4","3","4","4","3","4","3","4","3","2","2","5","3","4","3","2","4","4","1","1","2","1","1","1","2","1","2","1","0","1","1","0","0","1","1","0","1","1","0","1","0","1","4","4","5","2","4","","4","5","5","4","1","797768746788855810","赵","580","","","","","","","","","","","","","","","","","","","true","14","4","moral","601","positive","高尚","","","","","","","","","","","","","","","","",""
"null","","null","html-keyboard-response","140","168885","0.0-6.0-1.0-8.0-0.16","4","4","4","3","4","4","3","4","3","4","3","2","2","5","3","4","3","2","4","4","1","1","2","1","1","1","2","1","2","1","0","1","1","0","0","1","1","0","1","1","0","1","0","1","4","4","5","2","4","","4","5","5","4","1","797768746788855810","赵","580","","","","","","","","","","","","","","","","","","","","","","","","","","","","","","","","","","","","","","","","","",""
"841","<p style=""color:rgb(150, 250, 100); font-size: 35px;"">他</p>","e","categorize-html","141","169731","0.0-6.0-1.0-8.0-1.16","4","4","4","3","4","4","3","4","3","4","3","2","2","5","3","4","3","2","4","4","1","1","2","1","1","1","2","1","2","1","0","1","1","0","0","1","1","0","1","1","0","1","0","1","4","4","5","2","4","","4","5","5","4","1","797768746788855810","赵","580","","","","","","","","","","","","","","","","","","","true","14","4","moral","841","other","他","","","","","","","","","","","","","","","","",""
"null","","null","html-keyboard-response","142","169989","0.0-6.0-1.0-8.0-0.17","4","4","4","3","4","4","3","4","3","4","3","2","2","5","3","4","3","2","4","4","1","1","2","1","1","1","2","1","2","1","0","1","1","0","0","1","1","0","1","1","0","1","0","1","4","4","5","2","4","","4","5","5","4","1","797768746788855810","赵","580","","","","","","","","","","","","","","","","","","","","","","","","","","","","","","","","","","","","","","","","","",""
"881","<p style=""color:white; font-size: 35px;"">小人</p>","e","categorize-html","143","170875","0.0-6.0-1.0-8.0-1.17","4","4","4","3","4","4","3","4","3","4","3","2","2","5","3","4","3","2","4","4","1","1","2","1","1","1","2","1","2","1","0","1","1","0","0","1","1","0","1","1","0","1","0","1","4","4","5","2","4","","4","5","5","4","1","797768746788855810","赵","580","","","","","","","","","","","","","","","","","","","true","14","4","moral","881","negative","小人","","","","","","","","","","","","","","","","",""
"null","","null","html-keyboard-response","144","171133","0.0-6.0-1.0-8.0-0.18","4","4","4","3","4","4","3","4","3","4","3","2","2","5","3","4","3","2","4","4","1","1","2","1","1","1","2","1","2","1","0","1","1","0","0","1","1","0","1","1","0","1","0","1","4","4","5","2","4","","4","5","5","4","1","797768746788855810","赵","580","","","","","","","","","","","","","","","","","","","","","","","","","","","","","","","","","","","","","","","","","",""
"641","<p style=""color:rgb(150, 250, 100); font-size: 35px;"">自己</p>","i","categorize-html","145","171781","0.0-6.0-1.0-8.0-1.18","4","4","4","3","4","4","3","4","3","4","3","2","2","5","3","4","3","2","4","4","1","1","2","1","1","1","2","1","2","1","0","1","1","0","0","1","1","0","1","1","0","1","0","1","4","4","5","2","4","","4","5","5","4","1","797768746788855810","赵","580","","","","","","","","","","","","","","","","","","","true","14","4","moral","641","self","自己","","","","","","","","","","","","","","","","",""
"null","","null","html-keyboard-response","146","172037","0.0-6.0-1.0-8.0-0.19","4","4","4","3","4","4","3","4","3","4","3","2","2","5","3","4","3","2","4","4","1","1","2","1","1","1","2","1","2","1","0","1","1","0","0","1","1","0","1","1","0","1","0","1","4","4","5","2","4","","4","5","5","4","1","797768746788855810","赵","580","","","","","","","","","","","","","","","","","","","","","","","","","","","","","","","","","","","","","","","","","",""
"681","<p style=""color:white; font-size: 35px;"">诚信</p>","i","categorize-html","147","172723","0.0-6.0-1.0-8.0-1.19","4","4","4","3","4","4","3","4","3","4","3","2","2","5","3","4","3","2","4","4","1","1","2","1","1","1","2","1","2","1","0","1","1","0","0","1","1","0","1","1","0","1","0","1","4","4","5","2","4","","4","5","5","4","1","797768746788855810","赵","580","","","","","","","","","","","","","","","","","","","true","14","4","moral","681","positive","诚信","","","","","","","","","","","","","","","","",""
"null","","null","html-keyboard-response","148","172981","0.0-6.0-1.0-8.0-0.20","4","4","4","3","4","4","3","4","3","4","3","2","2","5","3","4","3","2","4","4","1","1","2","1","1","1","2","1","2","1","0","1","1","0","0","1","1","0","1","1","0","1","0","1","4","4","5","2","4","","4","5","5","4","1","797768746788855810","赵","580","","","","","","","","","","","","","","","","","","","","","","","","","","","","","","","","","","","","","","","","","",""
"634","<p style=""color:rgb(150, 250, 100); font-size: 35px;"">我的</p>","i","categorize-html","149","173620","0.0-6.0-1.0-8.0-1.20","4","4","4","3","4","4","3","4","3","4","3","2","2","5","3","4","3","2","4","4","1","1","2","1","1","1","2","1","2","1","0","1","1","0","0","1","1","0","1","1","0","1","0","1","4","4","5","2","4","","4","5","5","4","1","797768746788855810","赵","580","","","","","","","","","","","","","","","","","","","true","14","4","moral","634","self","我的","","","","","","","","","","","","","","","","",""
"null","","null","html-keyboard-response","150","173877","0.0-6.0-1.0-8.0-0.21","4","4","4","3","4","4","3","4","3","4","3","2","2","5","3","4","3","2","4","4","1","1","2","1","1","1","2","1","2","1","0","1","1","0","0","1","1","0","1","1","0","1","0","1","4","4","5","2","4","","4","5","5","4","1","797768746788855810","赵","580","","","","","","","","","","","","","","","","","","","","","","","","","","","","","","","","","","","","","","","","","",""
"1049","<p style=""color:white; font-size: 35px;"">君子</p>","i","categorize-html","151","174931","0.0-6.0-1.0-8.0-1.21","4","4","4","3","4","4","3","4","3","4","3","2","2","5","3","4","3","2","4","4","1","1","2","1","1","1","2","1","2","1","0","1","1","0","0","1","1","0","1","1","0","1","0","1","4","4","5","2","4","","4","5","5","4","1","797768746788855810","赵","580","","","","","","","","","","","","","","","","","","","true","14","4","moral","1049","positive","君子","","","","","","","","","","","","","","","","",""
"null","","null","html-keyboard-response","152","175189","0.0-6.0-1.0-8.0-0.22","4","4","4","3","4","4","3","4","3","4","3","2","2","5","3","4","3","2","4","4","1","1","2","1","1","1","2","1","2","1","0","1","1","0","0","1","1","0","1","1","0","1","0","1","4","4","5","2","4","","4","5","5","4","1","797768746788855810","赵","580","","","","","","","","","","","","","","","","","","","","","","","","","","","","","","","","","","","","","","","","","",""
"1097","<p style=""color:rgb(150, 250, 100); font-size: 35px;"">别人</p>","e","categorize-html","153","176292","0.0-6.0-1.0-8.0-1.22","4","4","4","3","4","4","3","4","3","4","3","2","2","5","3","4","3","2","4","4","1","1","2","1","1","1","2","1","2","1","0","1","1","0","0","1","1","0","1","1","0","1","0","1","4","4","5","2","4","","4","5","5","4","1","797768746788855810","赵","580","","","","","","","","","","","","","","","","","","","true","14","4","moral","1097","other","别人","","","","","","","","","","","","","","","","",""
"null","","null","html-keyboard-response","154","176549","0.0-6.0-1.0-8.0-0.23","4","4","4","3","4","4","3","4","3","4","3","2","2","5","3","4","3","2","4","4","1","1","2","1","1","1","2","1","2","1","0","1","1","0","0","1","1","0","1","1","0","1","0","1","4","4","5","2","4","","4","5","5","4","1","797768746788855810","赵","580","","","","","","","","","","","","","","","","","","","","","","","","","","","","","","","","","","","","","","","","","",""
"705","<p style=""color:white; font-size: 35px;"">缺德</p>","e","categorize-html","155","177259","0.0-6.0-1.0-8.0-1.23","4","4","4","3","4","4","3","4","3","4","3","2","2","5","3","4","3","2","4","4","1","1","2","1","1","1","2","1","2","1","0","1","1","0","0","1","1","0","1","1","0","1","0","1","4","4","5","2","4","","4","5","5","4","1","797768746788855810","赵","580","","","","","","","","","","","","","","","","","","","true","14","4","moral","705","negative","缺德","","","","","","","","","","","","","","","","",""
"null","","null","html-keyboard-response","156","177517","0.0-6.0-1.0-8.0-0.24","4","4","4","3","4","4","3","4","3","4","3","2","2","5","3","4","3","2","4","4","1","1","2","1","1","1","2","1","2","1","0","1","1","0","0","1","1","0","1","1","0","1","0","1","4","4","5","2","4","","4","5","5","4","1","797768746788855810","赵","580","","","","","","","","","","","","","","","","","","","","","","","","","","","","","","","","","","","","","","","","","",""
"609","<p style=""color:rgb(150, 250, 100); font-size: 35px;"">我</p>","i","categorize-html","157","178131","0.0-6.0-1.0-8.0-1.24","4","4","4","3","4","4","3","4","3","4","3","2","2","5","3","4","3","2","4","4","1","1","2","1","1","1","2","1","2","1","0","1","1","0","0","1","1","0","1","1","0","1","0","1","4","4","5","2","4","","4","5","5","4","1","797768746788855810","赵","580","","","","","","","","","","","","","","","","","","","true","14","4","moral","609","self","我","","","","","","","","","","","","","","","","",""
"null","","null","html-keyboard-response","158","178389","0.0-6.0-1.0-8.0-0.25","4","4","4","3","4","4","3","4","3","4","3","2","2","5","3","4","3","2","4","4","1","1","2","1","1","1","2","1","2","1","0","1","1","0","0","1","1","0","1","1","0","1","0","1","4","4","5","2","4","","4","5","5","4","1","797768746788855810","赵","580","","","","","","","","","","","","","","","","","","","","","","","","","","","","","","","","","","","","","","","","","",""
"672","<p style=""color:white; font-size: 35px;"">高尚</p>","i","categorize-html","159","179067","0.0-6.0-1.0-8.0-1.25","4","4","4","3","4","4","3","4","3","4","3","2","2","5","3","4","3","2","4","4","1","1","2","1","1","1","2","1","2","1","0","1","1","0","0","1","1","0","1","1","0","1","0","1","4","4","5","2","4","","4","5","5","4","1","797768746788855810","赵","580","","","","","","","","","","","","","","","","","","","true","14","4","moral","672","positive","高尚","","","","","","","","","","","","","","","","",""
"null","","null","html-keyboard-response","160","179325","0.0-6.0-1.0-8.0-0.26","4","4","4","3","4","4","3","4","3","4","3","2","2","5","3","4","3","2","4","4","1","1","2","1","1","1","2","1","2","1","0","1","1","0","0","1","1","0","1","1","0","1","0","1","4","4","5","2","4","","4","5","5","4","1","797768746788855810","赵","580","","","","","","","","","","","","","","","","","","","","","","","","","","","","","","","","","","","","","","","","","",""
"665","<p style=""color:rgb(150, 250, 100); font-size: 35px;"">他</p>","e","categorize-html","161","179995","0.0-6.0-1.0-8.0-1.26","4","4","4","3","4","4","3","4","3","4","3","2","2","5","3","4","3","2","4","4","1","1","2","1","1","1","2","1","2","1","0","1","1","0","0","1","1","0","1","1","0","1","0","1","4","4","5","2","4","","4","5","5","4","1","797768746788855810","赵","580","","","","","","","","","","","","","","","","","","","true","14","4","moral","665","other","他","","","","","","","","","","","","","","","","",""
"null","","null","html-keyboard-response","162","180253","0.0-6.0-1.0-8.0-0.27","4","4","4","3","4","4","3","4","3","4","3","2","2","5","3","4","3","2","4","4","1","1","2","1","1","1","2","1","2","1","0","1","1","0","0","1","1","0","1","1","0","1","0","1","4","4","5","2","4","","4","5","5","4","1","797768746788855810","赵","580","","","","","","","","","","","","","","","","","","","","","","","","","","","","","","","","","","","","","","","","","",""
"737","<p style=""color:white; font-size: 35px;"">不仁</p>","i","categorize-html","163","181479","0.0-6.0-1.0-8.0-1.27","4","4","4","3","4","4","3","4","3","4","3","2","2","5","3","4","3","2","4","4","1","1","2","1","1","1","2","1","2","1","0","1","1","0","0","1","1","0","1","1","0","1","0","1","4","4","5","2","4","","4","5","5","4","1","797768746788855810","赵","580","","","","","","","","","","","","","","","","","","","false","14","4","moral","1309.2608695652175","negative","不仁","","","","","","","","","","","","","","","","",""
"null","","null","html-keyboard-response","164","181733","0.0-6.0-1.0-8.0-0.28","4","4","4","3","4","4","3","4","3","4","3","2","2","5","3","4","3","2","4","4","1","1","2","1","1","1","2","1","2","1","0","1","1","0","0","1","1","0","1","1","0","1","0","1","4","4","5","2","4","","4","5","5","4","1","797768746788855810","赵","580","","","","","","","","","","","","","","","","","","","","","","","","","","","","","","","","","","","","","","","","","",""
"600","<p style=""color:rgb(150, 250, 100); font-size: 35px;"">他人的</p>","e","categorize-html","165","182339","0.0-6.0-1.0-8.0-1.28","4","4","4","3","4","4","3","4","3","4","3","2","2","5","3","4","3","2","4","4","1","1","2","1","1","1","2","1","2","1","0","1","1","0","0","1","1","0","1","1","0","1","0","1","4","4","5","2","4","","4","5","5","4","1","797768746788855810","赵","580","","","","","","","","","","","","","","","","","","","true","14","4","moral","600","other","他人的","","","","","","","","","","","","","","","","",""
"null","","null","html-keyboard-response","166","182597","0.0-6.0-1.0-8.0-0.29","4","4","4","3","4","4","3","4","3","4","3","2","2","5","3","4","3","2","4","4","1","1","2","1","1","1","2","1","2","1","0","1","1","0","0","1","1","0","1","1","0","1","0","1","4","4","5","2","4","","4","5","5","4","1","797768746788855810","赵","580","","","","","","","","","","","","","","","","","","","","","","","","","","","","","","","","","","","","","","","","","",""
"896","<p style=""color:white; font-size: 35px;"">正直</p>","i","categorize-html","167","183499","0.0-6.0-1.0-8.0-1.29","4","4","4","3","4","4","3","4","3","4","3","2","2","5","3","4","3","2","4","4","1","1","2","1","1","1","2","1","2","1","0","1","1","0","0","1","1","0","1","1","0","1","0","1","4","4","5","2","4","","4","5","5","4","1","797768746788855810","赵","580","","","","","","","","","","","","","","","","","","","true","14","4","moral","896","positive","正直","","","","","","","","","","","","","","","","",""
"null","","null","html-keyboard-response","168","183757","0.0-6.0-1.0-8.0-0.30","4","4","4","3","4","4","3","4","3","4","3","2","2","5","3","4","3","2","4","4","1","1","2","1","1","1","2","1","2","1","0","1","1","0","0","1","1","0","1","1","0","1","0","1","4","4","5","2","4","","4","5","5","4","1","797768746788855810","赵","580","","","","","","","","","","","","","","","","","","","","","","","","","","","","","","","","","","","","","","","","","",""
"641","<p style=""color:rgb(150, 250, 100); font-size: 35px;"">我</p>","i","categorize-html","169","184403","0.0-6.0-1.0-8.0-1.30","4","4","4","3","4","4","3","4","3","4","3","2","2","5","3","4","3","2","4","4","1","1","2","1","1","1","2","1","2","1","0","1","1","0","0","1","1","0","1","1","0","1","0","1","4","4","5","2","4","","4","5","5","4","1","797768746788855810","赵","580","","","","","","","","","","","","","","","","","","","true","14","4","moral","641","self","我","","","","","","","","","","","","","","","","",""
"null","","null","html-keyboard-response","170","184661","0.0-6.0-1.0-8.0-0.31","4","4","4","3","4","4","3","4","3","4","3","2","2","5","3","4","3","2","4","4","1","1","2","1","1","1","2","1","2","1","0","1","1","0","0","1","1","0","1","1","0","1","0","1","4","4","5","2","4","","4","5","5","4","1","797768746788855810","赵","580","","","","","","","","","","","","","","","","","","","","","","","","","","","","","","","","","","","","","","","","","",""
"848","<p style=""color:white; font-size: 35px;"">黑心</p>","e","categorize-html","171","185515","0.0-6.0-1.0-8.0-1.31","4","4","4","3","4","4","3","4","3","4","3","2","2","5","3","4","3","2","4","4","1","1","2","1","1","1","2","1","2","1","0","1","1","0","0","1","1","0","1","1","0","1","0","1","4","4","5","2","4","","4","5","5","4","1","797768746788855810","赵","580","","","","","","","","","","","","","","","","","","","true","14","4","moral","848","negative","黑心","","","","","","","","","","","","","","","","",""
"null","","null","html-keyboard-response","172","185773","0.0-6.0-1.0-8.0-0.32","4","4","4","3","4","4","3","4","3","4","3","2","2","5","3","4","3","2","4","4","1","1","2","1","1","1","2","1","2","1","0","1","1","0","0","1","1","0","1","1","0","1","0","1","4","4","5","2","4","","4","5","5","4","1","797768746788855810","赵","580","","","","","","","","","","","","","","","","","","","","","","","","","","","","","","","","","","","","","","","","","",""
"744","<p style=""color:rgb(150, 250, 100); font-size: 35px;"">他人</p>","e","categorize-html","173","186523","0.0-6.0-1.0-8.0-1.32","4","4","4","3","4","4","3","4","3","4","3","2","2","5","3","4","3","2","4","4","1","1","2","1","1","1","2","1","2","1","0","1","1","0","0","1","1","0","1","1","0","1","0","1","4","4","5","2","4","","4","5","5","4","1","797768746788855810","赵","580","","","","","","","","","","","","","","","","","","","true","14","4","moral","744","other","他人","","","","","","","","","","","","","","","","",""
"null","","null","html-keyboard-response","174","186781","0.0-6.0-1.0-8.0-0.33","4","4","4","3","4","4","3","4","3","4","3","2","2","5","3","4","3","2","4","4","1","1","2","1","1","1","2","1","2","1","0","1","1","0","0","1","1","0","1","1","0","1","0","1","4","4","5","2","4","","4","5","5","4","1","797768746788855810","赵","580","","","","","","","","","","","","","","","","","","","","","","","","","","","","","","","","","","","","","","","","","",""
"921","<p style=""color:white; font-size: 35px;"">善良</p>","i","categorize-html","175","187707","0.0-6.0-1.0-8.0-1.33","4","4","4","3","4","4","3","4","3","4","3","2","2","5","3","4","3","2","4","4","1","1","2","1","1","1","2","1","2","1","0","1","1","0","0","1","1","0","1","1","0","1","0","1","4","4","5","2","4","","4","5","5","4","1","797768746788855810","赵","580","","","","","","","","","","","","","","","","","","","true","14","4","moral","921","positive","善良","","","","","","","","","","","","","","","","",""
"null","","null","html-keyboard-response","176","187965","0.0-6.0-1.0-8.0-0.34","4","4","4","3","4","4","3","4","3","4","3","2","2","5","3","4","3","2","4","4","1","1","2","1","1","1","2","1","2","1","0","1","1","0","0","1","1","0","1","1","0","1","0","1","4","4","5","2","4","","4","5","5","4","1","797768746788855810","赵","580","","","","","","","","","","","","","","","","","","","","","","","","","","","","","","","","","","","","","","","","","",""
"728","<p style=""color:rgb(150, 250, 100); font-size: 35px;"">本人的</p>","i","categorize-html","177","188699","0.0-6.0-1.0-8.0-1.34","4","4","4","3","4","4","3","4","3","4","3","2","2","5","3","4","3","2","4","4","1","1","2","1","1","1","2","1","2","1","0","1","1","0","0","1","1","0","1","1","0","1","0","1","4","4","5","2","4","","4","5","5","4","1","797768746788855810","赵","580","","","","","","","","","","","","","","","","","","","true","14","4","moral","728","self","本人的","","","","","","","","","","","","","","","","",""
"null","","null","html-keyboard-response","178","188956","0.0-6.0-1.0-8.0-0.35","4","4","4","3","4","4","3","4","3","4","3","2","2","5","3","4","3","2","4","4","1","1","2","1","1","1","2","1","2","1","0","1","1","0","0","1","1","0","1","1","0","1","0","1","4","4","5","2","4","","4","5","5","4","1","797768746788855810","赵","580","","","","","","","","","","","","","","","","","","","","","","","","","","","","","","","","","","","","","","","","","",""
"697","<p style=""color:white; font-size: 35px;"">不仁</p>","e","categorize-html","179","189659","0.0-6.0-1.0-8.0-1.35","4","4","4","3","4","4","3","4","3","4","3","2","2","5","3","4","3","2","4","4","1","1","2","1","1","1","2","1","2","1","0","1","1","0","0","1","1","0","1","1","0","1","0","1","4","4","5","2","4","","4","5","5","4","1","797768746788855810","赵","580","","","","","","","","","","","","","","","","","","","true","14","4","moral","697","negative","不仁","","","","","","","","","","","","","","","","",""
"null","","null","html-keyboard-response","180","189917","0.0-6.0-1.0-8.0-0.36","4","4","4","3","4","4","3","4","3","4","3","2","2","5","3","4","3","2","4","4","1","1","2","1","1","1","2","1","2","1","0","1","1","0","0","1","1","0","1","1","0","1","0","1","4","4","5","2","4","","4","5","5","4","1","797768746788855810","赵","580","","","","","","","","","","","","","","","","","","","","","","","","","","","","","","","","","","","","","","","","","",""
"641","<p style=""color:rgb(150, 250, 100); font-size: 35px;"">自己</p>","i","categorize-html","181","190563","0.0-6.0-1.0-8.0-1.36","4","4","4","3","4","4","3","4","3","4","3","2","2","5","3","4","3","2","4","4","1","1","2","1","1","1","2","1","2","1","0","1","1","0","0","1","1","0","1","1","0","1","0","1","4","4","5","2","4","","4","5","5","4","1","797768746788855810","赵","580","","","","","","","","","","","","","","","","","","","true","14","4","moral","641","self","自己","","","","","","","","","","","","","","","","",""
"null","","null","html-keyboard-response","182","190820","0.0-6.0-1.0-8.0-0.37","4","4","4","3","4","4","3","4","3","4","3","2","2","5","3","4","3","2","4","4","1","1","2","1","1","1","2","1","2","1","0","1","1","0","0","1","1","0","1","1","0","1","0","1","4","4","5","2","4","","4","5","5","4","1","797768746788855810","赵","580","","","","","","","","","","","","","","","","","","","","","","","","","","","","","","","","","","","","","","","","","",""
"985","<p style=""color:white; font-size: 35px;"">缺德</p>","e","categorize-html","183","191811","0.0-6.0-1.0-8.0-1.37","4","4","4","3","4","4","3","4","3","4","3","2","2","5","3","4","3","2","4","4","1","1","2","1","1","1","2","1","2","1","0","1","1","0","0","1","1","0","1","1","0","1","0","1","4","4","5","2","4","","4","5","5","4","1","797768746788855810","赵","580","","","","","","","","","","","","","","","","","","","true","14","4","moral","985","negative","缺德","","","","","","","","","","","","","","","","",""
"null","","null","html-keyboard-response","184","192068","0.0-6.0-1.0-8.0-0.38","4","4","4","3","4","4","3","4","3","4","3","2","2","5","3","4","3","2","4","4","1","1","2","1","1","1","2","1","2","1","0","1","1","0","0","1","1","0","1","1","0","1","0","1","4","4","5","2","4","","4","5","5","4","1","797768746788855810","赵","580","","","","","","","","","","","","","","","","","","","","","","","","","","","","","","","","","","","","","","","","","",""
"553","<p style=""color:rgb(150, 250, 100); font-size: 35px;"">他的</p>","e","categorize-html","185","192627","0.0-6.0-1.0-8.0-1.38","4","4","4","3","4","4","3","4","3","4","3","2","2","5","3","4","3","2","4","4","1","1","2","1","1","1","2","1","2","1","0","1","1","0","0","1","1","0","1","1","0","1","0","1","4","4","5","2","4","","4","5","5","4","1","797768746788855810","赵","580","","","","","","","","","","","","","","","","","","","true","14","4","moral","553","other","他的","","","","","","","","","","","","","","","","",""
"null","","null","html-keyboard-response","186","192884","0.0-6.0-1.0-8.0-0.39","4","4","4","3","4","4","3","4","3","4","3","2","2","5","3","4","3","2","4","4","1","1","2","1","1","1","2","1","2","1","0","1","1","0","0","1","1","0","1","1","0","1","0","1","4","4","5","2","4","","4","5","5","4","1","797768746788855810","赵","580","","","","","","","","","","","","","","","","","","","","","","","","","","","","","","","","","","","","","","","","","",""
"601","<p style=""color:white; font-size: 35px;"">廉正</p>","e","categorize-html","187","193927","0.0-6.0-1.0-8.0-1.39","4","4","4","3","4","4","3","4","3","4","3","2","2","5","3","4","3","2","4","4","1","1","2","1","1","1","2","1","2","1","0","1","1","0","0","1","1","0","1","1","0","1","0","1","4","4","5","2","4","","4","5","5","4","1","797768746788855810","赵","580","","","","","","","","","","","","","","","","","","","false","14","4","moral","1309.2608695652175","positive","廉正","","","","","","","","","","","","","","","","",""
"null","","null","html-keyboard-response","188","194181","0.0-6.0-1.0-8.0-0.40","4","4","4","3","4","4","3","4","3","4","3","2","2","5","3","4","3","2","4","4","1","1","2","1","1","1","2","1","2","1","0","1","1","0","0","1","1","0","1","1","0","1","0","1","4","4","5","2","4","","4","5","5","4","1","797768746788855810","赵","580","","","","","","","","","","","","","","","","","","","","","","","","","","","","","","","","","","","","","","","","","",""
"721","<p style=""color:rgb(150, 250, 100); font-size: 35px;"">他人</p>","e","categorize-html","189","194907","0.0-6.0-1.0-8.0-1.40","4","4","4","3","4","4","3","4","3","4","3","2","2","5","3","4","3","2","4","4","1","1","2","1","1","1","2","1","2","1","0","1","1","0","0","1","1","0","1","1","0","1","0","1","4","4","5","2","4","","4","5","5","4","1","797768746788855810","赵","580","","","","","","","","","","","","","","","","","","","true","14","4","moral","721","other","他人","","","","","","","","","","","","","","","","",""
"null","","null","html-keyboard-response","190","195159","0.0-6.0-1.0-8.0-0.41","4","4","4","3","4","4","3","4","3","4","3","2","2","5","3","4","3","2","4","4","1","1","2","1","1","1","2","1","2","1","0","1","1","0","0","1","1","0","1","1","0","1","0","1","4","4","5","2","4","","4","5","5","4","1","797768746788855810","赵","580","","","","","","","","","","","","","","","","","","","","","","","","","","","","","","","","","","","","","","","","","",""
"727","<p style=""color:white; font-size: 35px;"">善良</p>","i","categorize-html","191","195891","0.0-6.0-1.0-8.0-1.41","4","4","4","3","4","4","3","4","3","4","3","2","2","5","3","4","3","2","4","4","1","1","2","1","1","1","2","1","2","1","0","1","1","0","0","1","1","0","1","1","0","1","0","1","4","4","5","2","4","","4","5","5","4","1","797768746788855810","赵","580","","","","","","","","","","","","","","","","","","","true","14","4","moral","727","positive","善良","","","","","","","","","","","","","","","","",""
"null","","null","html-keyboard-response","192","196149","0.0-6.0-1.0-8.0-0.42","4","4","4","3","4","4","3","4","3","4","3","2","2","5","3","4","3","2","4","4","1","1","2","1","1","1","2","1","2","1","0","1","1","0","0","1","1","0","1","1","0","1","0","1","4","4","5","2","4","","4","5","5","4","1","797768746788855810","赵","580","","","","","","","","","","","","","","","","","","","","","","","","","","","","","","","","","","","","","","","","","",""
"792","<p style=""color:rgb(150, 250, 100); font-size: 35px;"">自己的</p>","i","categorize-html","193","196946","0.0-6.0-1.0-8.0-1.42","4","4","4","3","4","4","3","4","3","4","3","2","2","5","3","4","3","2","4","4","1","1","2","1","1","1","2","1","2","1","0","1","1","0","0","1","1","0","1","1","0","1","0","1","4","4","5","2","4","","4","5","5","4","1","797768746788855810","赵","580","","","","","","","","","","","","","","","","","","","true","14","4","moral","792","self","自己的","","","","","","","","","","","","","","","","",""
