"rt","stimulus","response","trial_type","trial_index","time_elapsed","internal_node_id","ses_1","ses_2","ses_3","ses_4","ses_5","ses_6","ses_7","ses_8","ses_9","ses_10","coreself_1","coreself_2","coreself_3","coreself_4","coreself_5","coreself_6","coreself_7","coreself_8","coreself_9","coreself_10","SGPS_1","SGPS_2","SGPS_3","SGPS_4","SGPS_5","SGPS_6","SGPS_7","SGPS_8","SGPS_9","NPI1","NPI2","NPI3","NPI4","NPI5","NPI6","NPI7","NPI8","NPI9","NPI10","NPI11","NPI12","NPI13","NPI14","NPI15","hsns_1","hsns_2","hsns_3","hsns_4","hsns_5","trap1","hsns_6","hsns_7","hsns_8","hsns_9","hsns_10","subj_idx","friend_name","ParticipantID","value","success","user_agent","responses","item_order","radio_event_ids","radio_event_times","key_event_times","mouse_event_times","straightlining","zigzagging","honeypot","timeout","failed_images","failed_audio","failed_video","version_attrib","version_target","correct","IAT","screen_id","task_id","RT","condition","word","varname","summary","version_attrib2","version_target2","time_stamp","view_history","response_type","key_press","avg_frame_time","center_x","center_y","correct_response","identity","Image","question_order","correct_answer","trap1_item"
"20318","
   <p><div style = ""color: white;font-size:25px;"">您好，欢迎参加本次实验。</div> </p>
   <p><div style = ""color: white;font-size:25px;"">为充分保障您的权利，请确保您已经知晓并同意《参与实验同意书》以及《数据公开知情同意书》。</div></p>
   <p><div style = ""color: white;font-size:25px;"">如果您未见过上述内容，请咨询实验员。</div></p>
   <p><div style = ""color: white;font-size:25px;"">如果您选择继续实验，则表示您已经清楚两份知情同意书的内容并同意。</div></p>
   <p><div style = ""color: pink;font-size:30px;"">请确保您记得day0的实验编号，您将在本次实验输入该编号，若您忘记，请咨询实验员后作答。</div></p>
   <p><div style = ""color: lightblue;font-size:25px;"">请您尽可能认真地作答，我们将依据您在各问卷和按键任务中的作答质量发放报酬。</div></p>
   <p> <div style = ""color: green;font-size:25px;""><按空格键至下页></div> </p>
   "," ","html-keyboard-response","0","20325","0.0-0.0","3","3","4","3","3","3","3","2","4","3","4","4","2","4","4","4","4","4","4","4","2","4","2","2","2","2","1","2","2","0","1","0","0","1","1","1","1","0","0","0","0","1","0","1","4","2","5","1","2","3","2","4","4","4","2","766325798146936833","崔","453","","","","","","","","","","","","","","","","","","","","","","","","","","","","","","","","","","","","","","","","","",""
"","","","call-function","1","20328","0.0-1.0-0.0","3","3","4","3","3","3","3","2","4","3","4","4","2","4","4","4","4","4","4","4","2","4","2","2","2","2","1","2","2","0","1","0","0","1","1","1","1","0","0","0","0","1","0","1","4","2","5","1","2","3","2","4","4","4","2","766325798146936833","崔","453","","","","","","","","","","","","","","","","","","","","","","","","","","","","","","","","","","","","","","","","","",""
"18416","","{""friend_name"":""崔"",""ParticipantID"":""453""}","survey-html-form","2","38747","0.0-1.0-1.0","3","3","4","3","3","3","3","2","4","3","4","4","2","4","4","4","4","4","4","4","2","4","2","2","2","2","1","2","2","0","1","0","0","1","1","1","1","0","0","0","0","1","0","1","4","2","5","1","2","3","2","4","4","4","2","766325798146936833","崔","453","","","","","","","","","","","","","","","","","","","","","","","","","","","","","","","","","","","","","","","","","",""
"","","","fullscreen","3","43036","0.0-2.0","3","3","4","3","3","3","3","2","4","3","4","4","2","4","4","4","4","4","4","4","2","4","2","2","2","2","1","2","2","0","1","0","0","1","1","1","1","0","0","0","0","1","0","1","4","2","5","1","2","3","2","4","4","4","2","766325798146936833","崔","453","","true","{}","","","","","","","","","","","","","","","","","","","","","","","","","","","","","","","","","","","","","","",""
"23912.20000000298","","{""Q01"":""3"",""Q02"":""3"",""Q03"":""4"",""Q04"":""3"",""Q05"":""3"",""Q06"":""3"",""Q07"":""3"",""Q08"":""2"",""Q09"":""4"",""Q10"":""3""}","survey-template","4","66959","0.0-3.0","3","3","4","3","3","3","3","2","4","3","4","4","2","4","4","4","4","4","4","4","2","4","2","2","2","2","1","2","2","0","1","0","0","1","1","1","1","0","0","0","0","1","0","1","4","2","5","1","2","3","2","4","4","4","2","766325798146936833","崔","453","","","","{""Q01"":""3"",""Q02"":""3"",""Q03"":""4"",""Q04"":""3"",""Q05"":""3"",""Q06"":""3"",""Q07"":""3"",""Q08"":""2"",""Q09"":""4"",""Q10"":""3""}","[0,1,2,3,4,5,6,7,8,9]","[""Q01"",""Q02"",""Q03"",""Q04"",""Q05"",""Q06"",""Q07"",""Q08"",""Q09"",""Q10""]","[4361.79999999702,5717.79999999702,7352.20000000298,9003.79999999702,10967.5,11869.60000000149,13184.20000000298,14721.20000000298,18393.60000000149,22687.79999999702]","[]","[4361.79999999702,5717.79999999702,7352.20000000298,9003.79999999702,10967.5,11869.60000000149,13184.20000000298,14721.20000000298,18393.60000000149,22687.79999999702,23907.39999999851]","0.6","0.3333333333333333","0","","","","","","","","","","","","","","","","","","","","","","","","","","","","","",""
"31375.60000000149","","{""Q01"":""4"",""Q02"":""4"",""Q03"":""2"",""Q04"":""4"",""Q05"":""4"",""Q06"":""4"",""Q07"":""4"",""Q08"":""4"",""Q09"":""4"",""Q10"":""4""}","survey-template","5","98353","0.0-4.0","3","3","4","3","3","3","3","2","4","3","4","4","2","4","4","4","4","4","4","4","2","4","2","2","2","2","1","2","2","0","1","0","0","1","1","1","1","0","0","0","0","1","0","1","4","2","5","1","2","3","2","4","4","4","2","766325798146936833","崔","453","","","","{""Q01"":""4"",""Q02"":""4"",""Q03"":""2"",""Q04"":""4"",""Q05"":""4"",""Q06"":""4"",""Q07"":""4"",""Q08"":""4"",""Q09"":""4"",""Q10"":""4""}","[0,1,2,3,4,5,6,7,8,9]","[""Q01"",""Q02"",""Q03"",""Q04"",""Q05"",""Q05"",""Q06"",""Q07"",""Q08"",""Q09"",""Q10""]","[4953.29999999702,6207.79999999702,8619.39999999851,10035.29999999702,11801.69999999553,12960.19999999553,14235.19999999553,21440.89999999851,22809.39999999851,25752.29999999702,29669.19999999553]","[]","[4953.29999999702,6207.79999999702,8619.39999999851,10035.29999999702,11801.69999999553,12960.19999999553,14235.19999999553,15811.39999999851,21440.89999999851,22809.39999999851,25752.29999999702,29231.39999999851,29669.19999999553,31371.79999999702]","0.5","0","0","","","","","","","","","","","","","","","","","","","","","","","","","","","","","",""
"","","","preload","6","98437","0.0-5.0","3","3","4","3","3","3","3","2","4","3","4","4","2","4","4","4","4","4","4","4","2","4","2","2","2","2","1","2","2","0","1","0","0","1","1","1","1","0","0","0","0","1","0","1","4","2","5","1","2","3","2","4","4","4","2","766325798146936833","崔","453","","true","","","","","","","","","","","false","[]","[]","[]","","","","","","","","","","","","","","","","","","","","","","","","","",""
"16748","
    <h3>词语分类任务</h3>
    <p>在接下来的任务中，你需要对一系列词语进行分类。</p>
    <p>请先熟悉这些词语，这有利于你完成接下来的任务。</p>
    <table align=""center"" border=1 cellpadding=3 cellspacing=0>
    <tr> <th>类别</th> <th>词语</th> </tr>
    <tr> <td>&emsp;积极&emsp;</td> <td>&emsp;能干、全能、全才、高效、精干、天才&emsp;</td> </tr>
    <tr> <td>&emsp;消极&emsp;</td> <td>&emsp;无能、低能、废物、拙笨、愚钝、蠢笨&emsp;</td> </tr>
    <tr> <td>&emsp;自我&emsp;</td> <td>&emsp;我、我的、自己、自己的、本人、本人的&emsp;</td> </tr>
    <tr> <td>&emsp;他人&emsp;</td> <td>&emsp;他、他的、别人、别人的、他人、他人的&emsp;</td> </tr>
    </table><br/>","0","html-button-response","7","115191","0.0-6.0-0.0-0.0","3","3","4","3","3","3","3","2","4","3","4","4","2","4","4","4","4","4","4","4","2","4","2","2","2","2","1","2","2","0","1","0","0","1","1","1","1","0","0","0","0","1","0","1","4","2","5","1","2","3","2","4","4","4","2","766325798146936833","崔","453","","","","","","","","","","","","","","","","","1","1","","","","","","","","","","","","","","","","","","","","","","","",""
"7472","
    <div class=""tag-bottom"">
    <p> —— 任务1：对“自我”词和“他人”词分类 ——<p/>
    不同词语会出现在屏幕中央，类别标签将始终显示在屏幕上方<p/>   
    <span style=""color:#FFD866""><b>请根据上方标签的提示，尽可能正确并且快速地做出按键反应</b></span><p/>
    当按键错误时屏幕中会出现<span style=""color:red""> X </span>，需要按另一个键纠正才能继续<br/><p/>
    请把双手食指分别放在键盘的“E”键和“I”键上<p/>
    按<空格键>开始
    </p></div>"," ","html-keyboard-response","8","122678","0.0-6.0-0.0-1.0","3","3","4","3","3","3","3","2","4","3","4","4","2","4","4","4","4","4","4","4","2","4","2","2","2","2","1","2","2","0","1","0","0","1","1","1","1","0","0","0","0","1","0","1","4","2","5","1","2","3","2","4","4","4","2","766325798146936833","崔","453","","","","","","","","","","","","","","","","","","","","","","","","","","","","","","","","","","","","","","","","","",""
"null","","null","html-keyboard-response","9","122932","0.0-6.0-0.0-2.0-0.0","3","3","4","3","3","3","3","2","4","3","4","4","2","4","4","4","4","4","4","4","2","4","2","2","2","2","1","2","2","0","1","0","0","1","1","1","1","0","0","0","0","1","0","1","4","2","5","1","2","3","2","4","4","4","2","766325798146936833","崔","453","","","","","","","","","","","","","","","","","","","","","","","","","","","","","","","","","","","","","","","","","",""
"1191","<p style=""color:rgb(150, 250, 100); font-size: 35px;"">他人</p>","i","categorize-html","10","124130","0.0-6.0-0.0-2.0-1.0","3","3","4","3","3","3","3","2","4","3","4","4","2","4","4","4","4","4","4","4","2","4","2","2","2","2","1","2","2","0","1","0","0","1","1","1","1","0","0","0","0","1","0","1","4","2","5","1","2","3","2","4","4","4","2","766325798146936833","崔","453","","","","","","","","","","","","","","","","","","","true","1","1","ability","1191","other","他人","","","","","","","","","","","","","","","","",""
"null","","null","html-keyboard-response","11","124384","0.0-6.0-0.0-2.0-0.1","3","3","4","3","3","3","3","2","4","3","4","4","2","4","4","4","4","4","4","4","2","4","2","2","2","2","1","2","2","0","1","0","0","1","1","1","1","0","0","0","0","1","0","1","4","2","5","1","2","3","2","4","4","4","2","766325798146936833","崔","453","","","","","","","","","","","","","","","","","","","","","","","","","","","","","","","","","","","","","","","","","",""
"1525","<p style=""color:rgb(150, 250, 100); font-size: 35px;"">他的</p>","i","categorize-html","12","125913","0.0-6.0-0.0-2.0-1.1","3","3","4","3","3","3","3","2","4","3","4","4","2","4","4","4","4","4","4","4","2","4","2","2","2","2","1","2","2","0","1","0","0","1","1","1","1","0","0","0","0","1","0","1","4","2","5","1","2","3","2","4","4","4","2","766325798146936833","崔","453","","","","","","","","","","","","","","","","","","","true","1","1","ability","1525","other","他的","","","","","","","","","","","","","","","","",""
"null","","null","html-keyboard-response","13","126165","0.0-6.0-0.0-2.0-0.2","3","3","4","3","3","3","3","2","4","3","4","4","2","4","4","4","4","4","4","4","2","4","2","2","2","2","1","2","2","0","1","0","0","1","1","1","1","0","0","0","0","1","0","1","4","2","5","1","2","3","2","4","4","4","2","766325798146936833","崔","453","","","","","","","","","","","","","","","","","","","","","","","","","","","","","","","","","","","","","","","","","",""
"1151","<p style=""color:rgb(150, 250, 100); font-size: 35px;"">自己</p>","e","categorize-html","14","127321","0.0-6.0-0.0-2.0-1.2","3","3","4","3","3","3","3","2","4","3","4","4","2","4","4","4","4","4","4","4","2","4","2","2","2","2","1","2","2","0","1","0","0","1","1","1","1","0","0","0","0","1","0","1","4","2","5","1","2","3","2","4","4","4","2","766325798146936833","崔","453","","","","","","","","","","","","","","","","","","","true","1","1","ability","1151","self","自己","","","","","","","","","","","","","","","","",""
"null","","null","html-keyboard-response","15","127573","0.0-6.0-0.0-2.0-0.3","3","3","4","3","3","3","3","2","4","3","4","4","2","4","4","4","4","4","4","4","2","4","2","2","2","2","1","2","2","0","1","0","0","1","1","1","1","0","0","0","0","1","0","1","4","2","5","1","2","3","2","4","4","4","2","766325798146936833","崔","453","","","","","","","","","","","","","","","","","","","","","","","","","","","","","","","","","","","","","","","","","",""
"1606","<p style=""color:rgb(150, 250, 100); font-size: 35px;"">本人的</p>","e","categorize-html","16","129184","0.0-6.0-0.0-2.0-1.3","3","3","4","3","3","3","3","2","4","3","4","4","2","4","4","4","4","4","4","4","2","4","2","2","2","2","1","2","2","0","1","0","0","1","1","1","1","0","0","0","0","1","0","1","4","2","5","1","2","3","2","4","4","4","2","766325798146936833","崔","453","","","","","","","","","","","","","","","","","","","true","1","1","ability","1606","self","本人的","","","","","","","","","","","","","","","","",""
"null","","null","html-keyboard-response","17","129435","0.0-6.0-0.0-2.0-0.4","3","3","4","3","3","3","3","2","4","3","4","4","2","4","4","4","4","4","4","4","2","4","2","2","2","2","1","2","2","0","1","0","0","1","1","1","1","0","0","0","0","1","0","1","4","2","5","1","2","3","2","4","4","4","2","766325798146936833","崔","453","","","","","","","","","","","","","","","","","","","","","","","","","","","","","","","","","","","","","","","","","",""
"821","<p style=""color:rgb(150, 250, 100); font-size: 35px;"">别人的</p>","i","categorize-html","18","130261","0.0-6.0-0.0-2.0-1.4","3","3","4","3","3","3","3","2","4","3","4","4","2","4","4","4","4","4","4","4","2","4","2","2","2","2","1","2","2","0","1","0","0","1","1","1","1","0","0","0","0","1","0","1","4","2","5","1","2","3","2","4","4","4","2","766325798146936833","崔","453","","","","","","","","","","","","","","","","","","","true","1","1","ability","821","other","别人的","","","","","","","","","","","","","","","","",""
"null","","null","html-keyboard-response","19","130514","0.0-6.0-0.0-2.0-0.5","3","3","4","3","3","3","3","2","4","3","4","4","2","4","4","4","4","4","4","4","2","4","2","2","2","2","1","2","2","0","1","0","0","1","1","1","1","0","0","0","0","1","0","1","4","2","5","1","2","3","2","4","4","4","2","766325798146936833","崔","453","","","","","","","","","","","","","","","","","","","","","","","","","","","","","","","","","","","","","","","","","",""
"546","<p style=""color:rgb(150, 250, 100); font-size: 35px;"">他人的</p>","i","categorize-html","20","131065","0.0-6.0-0.0-2.0-1.5","3","3","4","3","3","3","3","2","4","3","4","4","2","4","4","4","4","4","4","4","2","4","2","2","2","2","1","2","2","0","1","0","0","1","1","1","1","0","0","0","0","1","0","1","4","2","5","1","2","3","2","4","4","4","2","766325798146936833","崔","453","","","","","","","","","","","","","","","","","","","true","1","1","ability","546","other","他人的","","","","","","","","","","","","","","","","",""
"null","","null","html-keyboard-response","21","131317","0.0-6.0-0.0-2.0-0.6","3","3","4","3","3","3","3","2","4","3","4","4","2","4","4","4","4","4","4","4","2","4","2","2","2","2","1","2","2","0","1","0","0","1","1","1","1","0","0","0","0","1","0","1","4","2","5","1","2","3","2","4","4","4","2","766325798146936833","崔","453","","","","","","","","","","","","","","","","","","","","","","","","","","","","","","","","","","","","","","","","","",""
"779","<p style=""color:rgb(150, 250, 100); font-size: 35px;"">自己的</p>","e","categorize-html","22","132100","0.0-6.0-0.0-2.0-1.6","3","3","4","3","3","3","3","2","4","3","4","4","2","4","4","4","4","4","4","4","2","4","2","2","2","2","1","2","2","0","1","0","0","1","1","1","1","0","0","0","0","1","0","1","4","2","5","1","2","3","2","4","4","4","2","766325798146936833","崔","453","","","","","","","","","","","","","","","","","","","true","1","1","ability","779","self","自己的","","","","","","","","","","","","","","","","",""
"null","","null","html-keyboard-response","23","132354","0.0-6.0-0.0-2.0-0.7","3","3","4","3","3","3","3","2","4","3","4","4","2","4","4","4","4","4","4","4","2","4","2","2","2","2","1","2","2","0","1","0","0","1","1","1","1","0","0","0","0","1","0","1","4","2","5","1","2","3","2","4","4","4","2","766325798146936833","崔","453","","","","","","","","","","","","","","","","","","","","","","","","","","","","","","","","","","","","","","","","","",""
"743","<p style=""color:rgb(150, 250, 100); font-size: 35px;"">我的</p>","e","categorize-html","24","133101","0.0-6.0-0.0-2.0-1.7","3","3","4","3","3","3","3","2","4","3","4","4","2","4","4","4","4","4","4","4","2","4","2","2","2","2","1","2","2","0","1","0","0","1","1","1","1","0","0","0","0","1","0","1","4","2","5","1","2","3","2","4","4","4","2","766325798146936833","崔","453","","","","","","","","","","","","","","","","","","","true","1","1","ability","743","self","我的","","","","","","","","","","","","","","","","",""
"null","","null","html-keyboard-response","25","133354","0.0-6.0-0.0-2.0-0.8","3","3","4","3","3","3","3","2","4","3","4","4","2","4","4","4","4","4","4","4","2","4","2","2","2","2","1","2","2","0","1","0","0","1","1","1","1","0","0","0","0","1","0","1","4","2","5","1","2","3","2","4","4","4","2","766325798146936833","崔","453","","","","","","","","","","","","","","","","","","","","","","","","","","","","","","","","","","","","","","","","","",""
"723","<p style=""color:rgb(150, 250, 100); font-size: 35px;"">我</p>","e","categorize-html","26","134081","0.0-6.0-0.0-2.0-1.8","3","3","4","3","3","3","3","2","4","3","4","4","2","4","4","4","4","4","4","4","2","4","2","2","2","2","1","2","2","0","1","0","0","1","1","1","1","0","0","0","0","1","0","1","4","2","5","1","2","3","2","4","4","4","2","766325798146936833","崔","453","","","","","","","","","","","","","","","","","","","true","1","1","ability","723","self","我","","","","","","","","","","","","","","","","",""
"null","","null","html-keyboard-response","27","134334","0.0-6.0-0.0-2.0-0.9","3","3","4","3","3","3","3","2","4","3","4","4","2","4","4","4","4","4","4","4","2","4","2","2","2","2","1","2","2","0","1","0","0","1","1","1","1","0","0","0","0","1","0","1","4","2","5","1","2","3","2","4","4","4","2","766325798146936833","崔","453","","","","","","","","","","","","","","","","","","","","","","","","","","","","","","","","","","","","","","","","","",""
"808","<p style=""color:rgb(150, 250, 100); font-size: 35px;"">别人</p>","i","categorize-html","28","135150","0.0-6.0-0.0-2.0-1.9","3","3","4","3","3","3","3","2","4","3","4","4","2","4","4","4","4","4","4","4","2","4","2","2","2","2","1","2","2","0","1","0","0","1","1","1","1","0","0","0","0","1","0","1","4","2","5","1","2","3","2","4","4","4","2","766325798146936833","崔","453","","","","","","","","","","","","","","","","","","","true","1","1","ability","808","other","别人","","","","","","","","","","","","","","","","",""
"null","","null","html-keyboard-response","29","135402","0.0-6.0-0.0-2.0-0.10","3","3","4","3","3","3","3","2","4","3","4","4","2","4","4","4","4","4","4","4","2","4","2","2","2","2","1","2","2","0","1","0","0","1","1","1","1","0","0","0","0","1","0","1","4","2","5","1","2","3","2","4","4","4","2","766325798146936833","崔","453","","","","","","","","","","","","","","","","","","","","","","","","","","","","","","","","","","","","","","","","","",""
"827","<p style=""color:rgb(150, 250, 100); font-size: 35px;"">本人</p>","e","categorize-html","30","136234","0.0-6.0-0.0-2.0-1.10","3","3","4","3","3","3","3","2","4","3","4","4","2","4","4","4","4","4","4","4","2","4","2","2","2","2","1","2","2","0","1","0","0","1","1","1","1","0","0","0","0","1","0","1","4","2","5","1","2","3","2","4","4","4","2","766325798146936833","崔","453","","","","","","","","","","","","","","","","","","","true","1","1","ability","827","self","本人","","","","","","","","","","","","","","","","",""
"null","","null","html-keyboard-response","31","136487","0.0-6.0-0.0-2.0-0.11","3","3","4","3","3","3","3","2","4","3","4","4","2","4","4","4","4","4","4","4","2","4","2","2","2","2","1","2","2","0","1","0","0","1","1","1","1","0","0","0","0","1","0","1","4","2","5","1","2","3","2","4","4","4","2","766325798146936833","崔","453","","","","","","","","","","","","","","","","","","","","","","","","","","","","","","","","","","","","","","","","","",""
"1252","<p style=""color:rgb(150, 250, 100); font-size: 35px;"">他</p>","i","categorize-html","32","137743","0.0-6.0-0.0-2.0-1.11","3","3","4","3","3","3","3","2","4","3","4","4","2","4","4","4","4","4","4","4","2","4","2","2","2","2","1","2","2","0","1","0","0","1","1","1","1","0","0","0","0","1","0","1","4","2","5","1","2","3","2","4","4","4","2","766325798146936833","崔","453","","","","","","","","","","","","","","","","","","","true","1","1","ability","1252","other","他","","","","","","","","","","","","","","","","",""
"1070","
    <div class=""tag-bottom""><p>
    —— 任务2：对“积极”词和“消极”词分类 ——<p/>   
    <span style=""color:#78DCE8""><b>注意上方，类别标签和需要分类的词语都已经改变</b></span><p/>
    <span style=""color:#FFD866""><b>请根据上方标签的提示，尽可能正确并且快速地做出按键反应</b></span><p/>
    当按键错误时屏幕中会出现<span style=""color:red""> X </span>，需要按另一个键纠正才能继续<br/><p/>
    请把双手食指分别放在键盘的“E”键和“I”键上<p/>
    按<空格键>开始
    </p></div>"," ","html-keyboard-response","33","138814","0.0-6.0-0.0-3.0","3","3","4","3","3","3","3","2","4","3","4","4","2","4","4","4","4","4","4","4","2","4","2","2","2","2","1","2","2","0","1","0","0","1","1","1","1","0","0","0","0","1","0","1","4","2","5","1","2","3","2","4","4","4","2","766325798146936833","崔","453","","","","","","","","","","","","","","","","","","","","","","","","","","","","","","","","","","","","","","","","","",""
"null","","null","html-keyboard-response","34","139067","0.0-6.0-0.0-4.0-0.0","3","3","4","3","3","3","3","2","4","3","4","4","2","4","4","4","4","4","4","4","2","4","2","2","2","2","1","2","2","0","1","0","0","1","1","1","1","0","0","0","0","1","0","1","4","2","5","1","2","3","2","4","4","4","2","766325798146936833","崔","453","","","","","","","","","","","","","","","","","","","","","","","","","","","","","","","","","","","","","","","","","",""
"1742","<p style=""color:white; font-size: 35px;"">低能</p>","i","categorize-html","35","140813","0.0-6.0-0.0-4.0-1.0","3","3","4","3","3","3","3","2","4","3","4","4","2","4","4","4","4","4","4","4","2","4","2","2","2","2","1","2","2","0","1","0","0","1","1","1","1","0","0","0","0","1","0","1","4","2","5","1","2","3","2","4","4","4","2","766325798146936833","崔","453","","","","","","","","","","","","","","","","","","","true","2","2","ability","1742","negative","低能","","","","","","","","","","","","","","","","",""
"null","","null","html-keyboard-response","36","141066","0.0-6.0-0.0-4.0-0.1","3","3","4","3","3","3","3","2","4","3","4","4","2","4","4","4","4","4","4","4","2","4","2","2","2","2","1","2","2","0","1","0","0","1","1","1","1","0","0","0","0","1","0","1","4","2","5","1","2","3","2","4","4","4","2","766325798146936833","崔","453","","","","","","","","","","","","","","","","","","","","","","","","","","","","","","","","","","","","","","","","","",""
"797","<p style=""color:white; font-size: 35px;"">天才</p>","e","categorize-html","37","141867","0.0-6.0-0.0-4.0-1.1","3","3","4","3","3","3","3","2","4","3","4","4","2","4","4","4","4","4","4","4","2","4","2","2","2","2","1","2","2","0","1","0","0","1","1","1","1","0","0","0","0","1","0","1","4","2","5","1","2","3","2","4","4","4","2","766325798146936833","崔","453","","","","","","","","","","","","","","","","","","","true","2","2","ability","797","positive","天才","","","","","","","","","","","","","","","","",""
"null","","null","html-keyboard-response","38","142120","0.0-6.0-0.0-4.0-0.2","3","3","4","3","3","3","3","2","4","3","4","4","2","4","4","4","4","4","4","4","2","4","2","2","2","2","1","2","2","0","1","0","0","1","1","1","1","0","0","0","0","1","0","1","4","2","5","1","2","3","2","4","4","4","2","766325798146936833","崔","453","","","","","","","","","","","","","","","","","","","","","","","","","","","","","","","","","","","","","","","","","",""
"1125","<p style=""color:white; font-size: 35px;"">废物</p>","i","categorize-html","39","143249","0.0-6.0-0.0-4.0-1.2","3","3","4","3","3","3","3","2","4","3","4","4","2","4","4","4","4","4","4","4","2","4","2","2","2","2","1","2","2","0","1","0","0","1","1","1","1","0","0","0","0","1","0","1","4","2","5","1","2","3","2","4","4","4","2","766325798146936833","崔","453","","","","","","","","","","","","","","","","","","","true","2","2","ability","1125","negative","废物","","","","","","","","","","","","","","","","",""
"null","","null","html-keyboard-response","40","143503","0.0-6.0-0.0-4.0-0.3","3","3","4","3","3","3","3","2","4","3","4","4","2","4","4","4","4","4","4","4","2","4","2","2","2","2","1","2","2","0","1","0","0","1","1","1","1","0","0","0","0","1","0","1","4","2","5","1","2","3","2","4","4","4","2","766325798146936833","崔","453","","","","","","","","","","","","","","","","","","","","","","","","","","","","","","","","","","","","","","","","","",""
"818","<p style=""color:white; font-size: 35px;"">全能</p>","e","categorize-html","41","144325","0.0-6.0-0.0-4.0-1.3","3","3","4","3","3","3","3","2","4","3","4","4","2","4","4","4","4","4","4","4","2","4","2","2","2","2","1","2","2","0","1","0","0","1","1","1","1","0","0","0","0","1","0","1","4","2","5","1","2","3","2","4","4","4","2","766325798146936833","崔","453","","","","","","","","","","","","","","","","","","","true","2","2","ability","818","positive","全能","","","","","","","","","","","","","","","","",""
"null","","null","html-keyboard-response","42","144577","0.0-6.0-0.0-4.0-0.4","3","3","4","3","3","3","3","2","4","3","4","4","2","4","4","4","4","4","4","4","2","4","2","2","2","2","1","2","2","0","1","0","0","1","1","1","1","0","0","0","0","1","0","1","4","2","5","1","2","3","2","4","4","4","2","766325798146936833","崔","453","","","","","","","","","","","","","","","","","","","","","","","","","","","","","","","","","","","","","","","","","",""
"744","<p style=""color:white; font-size: 35px;"">高效</p>","e","categorize-html","43","145325","0.0-6.0-0.0-4.0-1.4","3","3","4","3","3","3","3","2","4","3","4","4","2","4","4","4","4","4","4","4","2","4","2","2","2","2","1","2","2","0","1","0","0","1","1","1","1","0","0","0","0","1","0","1","4","2","5","1","2","3","2","4","4","4","2","766325798146936833","崔","453","","","","","","","","","","","","","","","","","","","true","2","2","ability","744","positive","高效","","","","","","","","","","","","","","","","",""
"null","","null","html-keyboard-response","44","145586","0.0-6.0-0.0-4.0-0.5","3","3","4","3","3","3","3","2","4","3","4","4","2","4","4","4","4","4","4","4","2","4","2","2","2","2","1","2","2","0","1","0","0","1","1","1","1","0","0","0","0","1","0","1","4","2","5","1","2","3","2","4","4","4","2","766325798146936833","崔","453","","","","","","","","","","","","","","","","","","","","","","","","","","","","","","","","","","","","","","","","","",""
"842","<p style=""color:white; font-size: 35px;"">精干</p>","e","categorize-html","45","146433","0.0-6.0-0.0-4.0-1.5","3","3","4","3","3","3","3","2","4","3","4","4","2","4","4","4","4","4","4","4","2","4","2","2","2","2","1","2","2","0","1","0","0","1","1","1","1","0","0","0","0","1","0","1","4","2","5","1","2","3","2","4","4","4","2","766325798146936833","崔","453","","","","","","","","","","","","","","","","","","","true","2","2","ability","842","positive","精干","","","","","","","","","","","","","","","","",""
"null","","null","html-keyboard-response","46","146685","0.0-6.0-0.0-4.0-0.6","3","3","4","3","3","3","3","2","4","3","4","4","2","4","4","4","4","4","4","4","2","4","2","2","2","2","1","2","2","0","1","0","0","1","1","1","1","0","0","0","0","1","0","1","4","2","5","1","2","3","2","4","4","4","2","766325798146936833","崔","453","","","","","","","","","","","","","","","","","","","","","","","","","","","","","","","","","","","","","","","","","",""
"662","<p style=""color:white; font-size: 35px;"">能干</p>","e","categorize-html","47","147351","0.0-6.0-0.0-4.0-1.6","3","3","4","3","3","3","3","2","4","3","4","4","2","4","4","4","4","4","4","4","2","4","2","2","2","2","1","2","2","0","1","0","0","1","1","1","1","0","0","0","0","1","0","1","4","2","5","1","2","3","2","4","4","4","2","766325798146936833","崔","453","","","","","","","","","","","","","","","","","","","true","2","2","ability","662","positive","能干","","","","","","","","","","","","","","","","",""
"null","","null","html-keyboard-response","48","147604","0.0-6.0-0.0-4.0-0.7","3","3","4","3","3","3","3","2","4","3","4","4","2","4","4","4","4","4","4","4","2","4","2","2","2","2","1","2","2","0","1","0","0","1","1","1","1","0","0","0","0","1","0","1","4","2","5","1","2","3","2","4","4","4","2","766325798146936833","崔","453","","","","","","","","","","","","","","","","","","","","","","","","","","","","","","","","","","","","","","","","","",""
"831","<p style=""color:white; font-size: 35px;"">蠢笨</p>","i","categorize-html","49","148440","0.0-6.0-0.0-4.0-1.7","3","3","4","3","3","3","3","2","4","3","4","4","2","4","4","4","4","4","4","4","2","4","2","2","2","2","1","2","2","0","1","0","0","1","1","1","1","0","0","0","0","1","0","1","4","2","5","1","2","3","2","4","4","4","2","766325798146936833","崔","453","","","","","","","","","","","","","","","","","","","true","2","2","ability","831","negative","蠢笨","","","","","","","","","","","","","","","","",""
"null","","null","html-keyboard-response","50","148692","0.0-6.0-0.0-4.0-0.8","3","3","4","3","3","3","3","2","4","3","4","4","2","4","4","4","4","4","4","4","2","4","2","2","2","2","1","2","2","0","1","0","0","1","1","1","1","0","0","0","0","1","0","1","4","2","5","1","2","3","2","4","4","4","2","766325798146936833","崔","453","","","","","","","","","","","","","","","","","","","","","","","","","","","","","","","","","","","","","","","","","",""
"606","<p style=""color:white; font-size: 35px;"">愚钝</p>","i","categorize-html","51","149303","0.0-6.0-0.0-4.0-1.8","3","3","4","3","3","3","3","2","4","3","4","4","2","4","4","4","4","4","4","4","2","4","2","2","2","2","1","2","2","0","1","0","0","1","1","1","1","0","0","0","0","1","0","1","4","2","5","1","2","3","2","4","4","4","2","766325798146936833","崔","453","","","","","","","","","","","","","","","","","","","true","2","2","ability","606","negative","愚钝","","","","","","","","","","","","","","","","",""
"null","","null","html-keyboard-response","52","149555","0.0-6.0-0.0-4.0-0.9","3","3","4","3","3","3","3","2","4","3","4","4","2","4","4","4","4","4","4","4","2","4","2","2","2","2","1","2","2","0","1","0","0","1","1","1","1","0","0","0","0","1","0","1","4","2","5","1","2","3","2","4","4","4","2","766325798146936833","崔","453","","","","","","","","","","","","","","","","","","","","","","","","","","","","","","","","","","","","","","","","","",""
"800","<p style=""color:white; font-size: 35px;"">无能</p>","i","categorize-html","53","150359","0.0-6.0-0.0-4.0-1.9","3","3","4","3","3","3","3","2","4","3","4","4","2","4","4","4","4","4","4","4","2","4","2","2","2","2","1","2","2","0","1","0","0","1","1","1","1","0","0","0","0","1","0","1","4","2","5","1","2","3","2","4","4","4","2","766325798146936833","崔","453","","","","","","","","","","","","","","","","","","","true","2","2","ability","800","negative","无能","","","","","","","","","","","","","","","","",""
"null","","null","html-keyboard-response","54","150612","0.0-6.0-0.0-4.0-0.10","3","3","4","3","3","3","3","2","4","3","4","4","2","4","4","4","4","4","4","4","2","4","2","2","2","2","1","2","2","0","1","0","0","1","1","1","1","0","0","0","0","1","0","1","4","2","5","1","2","3","2","4","4","4","2","766325798146936833","崔","453","","","","","","","","","","","","","","","","","","","","","","","","","","","","","","","","","","","","","","","","","",""
"814","<p style=""color:white; font-size: 35px;"">拙笨</p>","i","categorize-html","55","151430","0.0-6.0-0.0-4.0-1.10","3","3","4","3","3","3","3","2","4","3","4","4","2","4","4","4","4","4","4","4","2","4","2","2","2","2","1","2","2","0","1","0","0","1","1","1","1","0","0","0","0","1","0","1","4","2","5","1","2","3","2","4","4","4","2","766325798146936833","崔","453","","","","","","","","","","","","","","","","","","","true","2","2","ability","814","negative","拙笨","","","","","","","","","","","","","","","","",""
"null","","null","html-keyboard-response","56","151682","0.0-6.0-0.0-4.0-0.11","3","3","4","3","3","3","3","2","4","3","4","4","2","4","4","4","4","4","4","4","2","4","2","2","2","2","1","2","2","0","1","0","0","1","1","1","1","0","0","0","0","1","0","1","4","2","5","1","2","3","2","4","4","4","2","766325798146936833","崔","453","","","","","","","","","","","","","","","","","","","","","","","","","","","","","","","","","","","","","","","","","",""
"763","<p style=""color:white; font-size: 35px;"">全才</p>","e","categorize-html","57","152449","0.0-6.0-0.0-4.0-1.11","3","3","4","3","3","3","3","2","4","3","4","4","2","4","4","4","4","4","4","4","2","4","2","2","2","2","1","2","2","0","1","0","0","1","1","1","1","0","0","0","0","1","0","1","4","2","5","1","2","3","2","4","4","4","2","766325798146936833","崔","453","","","","","","","","","","","","","","","","","","","true","2","2","ability","763","positive","全才","","","","","","","","","","","","","","","","",""
"1022","
    <div class=""tag-bottom""><p>
    —— 任务3：对“自我/积极”词和“他人/消极”词分类 ——<p/>
    <span style=""color:#78DCE8""><b>注意上方，之前的四类词语将混合在一起交替呈现</b></span><p/>
    <span style=""color:#FFD866""><b>请根据上方标签的提示，尽可能正确并且快速地做出按键反应</b></span><p/>
    当按键错误时屏幕中会出现<span style=""color:red""> X </span>，需要按另一个键纠正才能继续<br/><p/>
    请把双手食指分别放在键盘的“E”键和“I”键上<p/>
    按<空格键>开始
    </p></div>"," ","html-keyboard-response","58","153472","0.0-6.0-0.0-5.0","3","3","4","3","3","3","3","2","4","3","4","4","2","4","4","4","4","4","4","4","2","4","2","2","2","2","1","2","2","0","1","0","0","1","1","1","1","0","0","0","0","1","0","1","4","2","5","1","2","3","2","4","4","4","2","766325798146936833","崔","453","","","","","","","","","","","","","","","","","","","","","","","","","","","","","","","","","","","","","","","","","",""
"null","","null","html-keyboard-response","59","153725","0.0-6.0-0.0-6.0-0.0","3","3","4","3","3","3","3","2","4","3","4","4","2","4","4","4","4","4","4","4","2","4","2","2","2","2","1","2","2","0","1","0","0","1","1","1","1","0","0","0","0","1","0","1","4","2","5","1","2","3","2","4","4","4","2","766325798146936833","崔","453","","","","","","","","","","","","","","","","","","","","","","","","","","","","","","","","","","","","","","","","","",""
"1357","<p style=""color:rgb(150, 250, 100); font-size: 35px;"">他</p>","i","categorize-html","60","155087","0.0-6.0-0.0-6.0-1.0","3","3","4","3","3","3","3","2","4","3","4","4","2","4","4","4","4","4","4","4","2","4","2","2","2","2","1","2","2","0","1","0","0","1","1","1","1","0","0","0","0","1","0","1","4","2","5","1","2","3","2","4","4","4","2","766325798146936833","崔","453","","","","","","","","","","","","","","","","","","","true","3","3","ability","1357","other","他","","","","","","","","","","","","","","","","",""
"null","","null","html-keyboard-response","61","155340","0.0-6.0-0.0-6.0-0.1","3","3","4","3","3","3","3","2","4","3","4","4","2","4","4","4","4","4","4","4","2","4","2","2","2","2","1","2","2","0","1","0","0","1","1","1","1","0","0","0","0","1","0","1","4","2","5","1","2","3","2","4","4","4","2","766325798146936833","崔","453","","","","","","","","","","","","","","","","","","","","","","","","","","","","","","","","","","","","","","","","","",""
"752","<p style=""color:white; font-size: 35px;"">蠢笨</p>","i","categorize-html","62","156097","0.0-6.0-0.0-6.0-1.1","3","3","4","3","3","3","3","2","4","3","4","4","2","4","4","4","4","4","4","4","2","4","2","2","2","2","1","2","2","0","1","0","0","1","1","1","1","0","0","0","0","1","0","1","4","2","5","1","2","3","2","4","4","4","2","766325798146936833","崔","453","","","","","","","","","","","","","","","","","","","true","3","3","ability","752","negative","蠢笨","","","","","","","","","","","","","","","","",""
"null","","null","html-keyboard-response","63","156349","0.0-6.0-0.0-6.0-0.2","3","3","4","3","3","3","3","2","4","3","4","4","2","4","4","4","4","4","4","4","2","4","2","2","2","2","1","2","2","0","1","0","0","1","1","1","1","0","0","0","0","1","0","1","4","2","5","1","2","3","2","4","4","4","2","766325798146936833","崔","453","","","","","","","","","","","","","","","","","","","","","","","","","","","","","","","","","","","","","","","","","",""
"769","<p style=""color:rgb(150, 250, 100); font-size: 35px;"">自己的</p>","e","categorize-html","64","157123","0.0-6.0-0.0-6.0-1.2","3","3","4","3","3","3","3","2","4","3","4","4","2","4","4","4","4","4","4","4","2","4","2","2","2","2","1","2","2","0","1","0","0","1","1","1","1","0","0","0","0","1","0","1","4","2","5","1","2","3","2","4","4","4","2","766325798146936833","崔","453","","","","","","","","","","","","","","","","","","","true","3","3","ability","769","self","自己的","","","","","","","","","","","","","","","","",""
"null","","null","html-keyboard-response","65","157377","0.0-6.0-0.0-6.0-0.3","3","3","4","3","3","3","3","2","4","3","4","4","2","4","4","4","4","4","4","4","2","4","2","2","2","2","1","2","2","0","1","0","0","1","1","1","1","0","0","0","0","1","0","1","4","2","5","1","2","3","2","4","4","4","2","766325798146936833","崔","453","","","","","","","","","","","","","","","","","","","","","","","","","","","","","","","","","","","","","","","","","",""
"543","<p style=""color:white; font-size: 35px;"">全能</p>","e","categorize-html","66","157926","0.0-6.0-0.0-6.0-1.3","3","3","4","3","3","3","3","2","4","3","4","4","2","4","4","4","4","4","4","4","2","4","2","2","2","2","1","2","2","0","1","0","0","1","1","1","1","0","0","0","0","1","0","1","4","2","5","1","2","3","2","4","4","4","2","766325798146936833","崔","453","","","","","","","","","","","","","","","","","","","true","3","3","ability","543","positive","全能","","","","","","","","","","","","","","","","",""
"null","","null","html-keyboard-response","67","158186","0.0-6.0-0.0-6.0-0.4","3","3","4","3","3","3","3","2","4","3","4","4","2","4","4","4","4","4","4","4","2","4","2","2","2","2","1","2","2","0","1","0","0","1","1","1","1","0","0","0","0","1","0","1","4","2","5","1","2","3","2","4","4","4","2","766325798146936833","崔","453","","","","","","","","","","","","","","","","","","","","","","","","","","","","","","","","","","","","","","","","","",""
"604","<p style=""color:rgb(150, 250, 100); font-size: 35px;"">自己</p>","e","categorize-html","68","158795","0.0-6.0-0.0-6.0-1.4","3","3","4","3","3","3","3","2","4","3","4","4","2","4","4","4","4","4","4","4","2","4","2","2","2","2","1","2","2","0","1","0","0","1","1","1","1","0","0","0","0","1","0","1","4","2","5","1","2","3","2","4","4","4","2","766325798146936833","崔","453","","","","","","","","","","","","","","","","","","","true","3","3","ability","604","self","自己","","","","","","","","","","","","","","","","",""
"null","","null","html-keyboard-response","69","159047","0.0-6.0-0.0-6.0-0.5","3","3","4","3","3","3","3","2","4","3","4","4","2","4","4","4","4","4","4","4","2","4","2","2","2","2","1","2","2","0","1","0","0","1","1","1","1","0","0","0","0","1","0","1","4","2","5","1","2","3","2","4","4","4","2","766325798146936833","崔","453","","","","","","","","","","","","","","","","","","","","","","","","","","","","","","","","","","","","","","","","","",""
"738","<p style=""color:white; font-size: 35px;"">无能</p>","i","categorize-html","70","159790","0.0-6.0-0.0-6.0-1.5","3","3","4","3","3","3","3","2","4","3","4","4","2","4","4","4","4","4","4","4","2","4","2","2","2","2","1","2","2","0","1","0","0","1","1","1","1","0","0","0","0","1","0","1","4","2","5","1","2","3","2","4","4","4","2","766325798146936833","崔","453","","","","","","","","","","","","","","","","","","","true","3","3","ability","738","negative","无能","","","","","","","","","","","","","","","","",""
"null","","null","html-keyboard-response","71","160042","0.0-6.0-0.0-6.0-0.6","3","3","4","3","3","3","3","2","4","3","4","4","2","4","4","4","4","4","4","4","2","4","2","2","2","2","1","2","2","0","1","0","0","1","1","1","1","0","0","0","0","1","0","1","4","2","5","1","2","3","2","4","4","4","2","766325798146936833","崔","453","","","","","","","","","","","","","","","","","","","","","","","","","","","","","","","","","","","","","","","","","",""
"1018","<p style=""color:rgb(150, 250, 100); font-size: 35px;"">他的</p>","i","categorize-html","72","161065","0.0-6.0-0.0-6.0-1.6","3","3","4","3","3","3","3","2","4","3","4","4","2","4","4","4","4","4","4","4","2","4","2","2","2","2","1","2","2","0","1","0","0","1","1","1","1","0","0","0","0","1","0","1","4","2","5","1","2","3","2","4","4","4","2","766325798146936833","崔","453","","","","","","","","","","","","","","","","","","","true","3","3","ability","1018","other","他的","","","","","","","","","","","","","","","","",""
"null","","null","html-keyboard-response","73","161316","0.0-6.0-0.0-6.0-0.7","3","3","4","3","3","3","3","2","4","3","4","4","2","4","4","4","4","4","4","4","2","4","2","2","2","2","1","2","2","0","1","0","0","1","1","1","1","0","0","0","0","1","0","1","4","2","5","1","2","3","2","4","4","4","2","766325798146936833","崔","453","","","","","","","","","","","","","","","","","","","","","","","","","","","","","","","","","","","","","","","","","",""
"789","<p style=""color:white; font-size: 35px;"">能干</p>","e","categorize-html","74","162113","0.0-6.0-0.0-6.0-1.7","3","3","4","3","3","3","3","2","4","3","4","4","2","4","4","4","4","4","4","4","2","4","2","2","2","2","1","2","2","0","1","0","0","1","1","1","1","0","0","0","0","1","0","1","4","2","5","1","2","3","2","4","4","4","2","766325798146936833","崔","453","","","","","","","","","","","","","","","","","","","true","3","3","ability","789","positive","能干","","","","","","","","","","","","","","","","",""
"null","","null","html-keyboard-response","75","162366","0.0-6.0-0.0-6.0-0.8","3","3","4","3","3","3","3","2","4","3","4","4","2","4","4","4","4","4","4","4","2","4","2","2","2","2","1","2","2","0","1","0","0","1","1","1","1","0","0","0","0","1","0","1","4","2","5","1","2","3","2","4","4","4","2","766325798146936833","崔","453","","","","","","","","","","","","","","","","","","","","","","","","","","","","","","","","","","","","","","","","","",""
"1050","<p style=""color:rgb(150, 250, 100); font-size: 35px;"">别人的</p>","i","categorize-html","76","163422","0.0-6.0-0.0-6.0-1.8","3","3","4","3","3","3","3","2","4","3","4","4","2","4","4","4","4","4","4","4","2","4","2","2","2","2","1","2","2","0","1","0","0","1","1","1","1","0","0","0","0","1","0","1","4","2","5","1","2","3","2","4","4","4","2","766325798146936833","崔","453","","","","","","","","","","","","","","","","","","","true","3","3","ability","1050","other","别人的","","","","","","","","","","","","","","","","",""
"null","","null","html-keyboard-response","77","163674","0.0-6.0-0.0-6.0-0.9","3","3","4","3","3","3","3","2","4","3","4","4","2","4","4","4","4","4","4","4","2","4","2","2","2","2","1","2","2","0","1","0","0","1","1","1","1","0","0","0","0","1","0","1","4","2","5","1","2","3","2","4","4","4","2","766325798146936833","崔","453","","","","","","","","","","","","","","","","","","","","","","","","","","","","","","","","","","","","","","","","","",""
"868","<p style=""color:white; font-size: 35px;"">低能</p>","i","categorize-html","78","164547","0.0-6.0-0.0-6.0-1.9","3","3","4","3","3","3","3","2","4","3","4","4","2","4","4","4","4","4","4","4","2","4","2","2","2","2","1","2","2","0","1","0","0","1","1","1","1","0","0","0","0","1","0","1","4","2","5","1","2","3","2","4","4","4","2","766325798146936833","崔","453","","","","","","","","","","","","","","","","","","","true","3","3","ability","868","negative","低能","","","","","","","","","","","","","","","","",""
"null","","null","html-keyboard-response","79","164799","0.0-6.0-0.0-6.0-0.10","3","3","4","3","3","3","3","2","4","3","4","4","2","4","4","4","4","4","4","4","2","4","2","2","2","2","1","2","2","0","1","0","0","1","1","1","1","0","0","0","0","1","0","1","4","2","5","1","2","3","2","4","4","4","2","766325798146936833","崔","453","","","","","","","","","","","","","","","","","","","","","","","","","","","","","","","","","","","","","","","","","",""
"776","<p style=""color:rgb(150, 250, 100); font-size: 35px;"">本人的</p>","e","categorize-html","80","165580","0.0-6.0-0.0-6.0-1.10","3","3","4","3","3","3","3","2","4","3","4","4","2","4","4","4","4","4","4","4","2","4","2","2","2","2","1","2","2","0","1","0","0","1","1","1","1","0","0","0","0","1","0","1","4","2","5","1","2","3","2","4","4","4","2","766325798146936833","崔","453","","","","","","","","","","","","","","","","","","","true","3","3","ability","776","self","本人的","","","","","","","","","","","","","","","","",""
"null","","null","html-keyboard-response","81","165833","0.0-6.0-0.0-6.0-0.11","3","3","4","3","3","3","3","2","4","3","4","4","2","4","4","4","4","4","4","4","2","4","2","2","2","2","1","2","2","0","1","0","0","1","1","1","1","0","0","0","0","1","0","1","4","2","5","1","2","3","2","4","4","4","2","766325798146936833","崔","453","","","","","","","","","","","","","","","","","","","","","","","","","","","","","","","","","","","","","","","","","",""
"609","<p style=""color:white; font-size: 35px;"">天才</p>","e","categorize-html","82","166449","0.0-6.0-0.0-6.0-1.11","3","3","4","3","3","3","3","2","4","3","4","4","2","4","4","4","4","4","4","4","2","4","2","2","2","2","1","2","2","0","1","0","0","1","1","1","1","0","0","0","0","1","0","1","4","2","5","1","2","3","2","4","4","4","2","766325798146936833","崔","453","","","","","","","","","","","","","","","","","","","true","3","3","ability","609","positive","天才","","","","","","","","","","","","","","","","",""
"null","","null","html-keyboard-response","83","166702","0.0-6.0-0.0-6.0-0.12","3","3","4","3","3","3","3","2","4","3","4","4","2","4","4","4","4","4","4","4","2","4","2","2","2","2","1","2","2","0","1","0","0","1","1","1","1","0","0","0","0","1","0","1","4","2","5","1","2","3","2","4","4","4","2","766325798146936833","崔","453","","","","","","","","","","","","","","","","","","","","","","","","","","","","","","","","","","","","","","","","","",""
"692","<p style=""color:rgb(150, 250, 100); font-size: 35px;"">我</p>","e","categorize-html","84","167400","0.0-6.0-0.0-6.0-1.12","3","3","4","3","3","3","3","2","4","3","4","4","2","4","4","4","4","4","4","4","2","4","2","2","2","2","1","2","2","0","1","0","0","1","1","1","1","0","0","0","0","1","0","1","4","2","5","1","2","3","2","4","4","4","2","766325798146936833","崔","453","","","","","","","","","","","","","","","","","","","true","3","3","ability","692","self","我","","","","","","","","","","","","","","","","",""
"null","","null","html-keyboard-response","85","167654","0.0-6.0-0.0-6.0-0.13","3","3","4","3","3","3","3","2","4","3","4","4","2","4","4","4","4","4","4","4","2","4","2","2","2","2","1","2","2","0","1","0","0","1","1","1","1","0","0","0","0","1","0","1","4","2","5","1","2","3","2","4","4","4","2","766325798146936833","崔","453","","","","","","","","","","","","","","","","","","","","","","","","","","","","","","","","","","","","","","","","","",""
"714","<p style=""color:white; font-size: 35px;"">拙笨</p>","i","categorize-html","86","168372","0.0-6.0-0.0-6.0-1.13","3","3","4","3","3","3","3","2","4","3","4","4","2","4","4","4","4","4","4","4","2","4","2","2","2","2","1","2","2","0","1","0","0","1","1","1","1","0","0","0","0","1","0","1","4","2","5","1","2","3","2","4","4","4","2","766325798146936833","崔","453","","","","","","","","","","","","","","","","","","","true","3","3","ability","714","negative","拙笨","","","","","","","","","","","","","","","","",""
"null","","null","html-keyboard-response","87","168624","0.0-6.0-0.0-6.0-0.14","3","3","4","3","3","3","3","2","4","3","4","4","2","4","4","4","4","4","4","4","2","4","2","2","2","2","1","2","2","0","1","0","0","1","1","1","1","0","0","0","0","1","0","1","4","2","5","1","2","3","2","4","4","4","2","766325798146936833","崔","453","","","","","","","","","","","","","","","","","","","","","","","","","","","","","","","","","","","","","","","","","",""
"921","<p style=""color:rgb(150, 250, 100); font-size: 35px;"">他人的</p>","i","categorize-html","88","169550","0.0-6.0-0.0-6.0-1.14","3","3","4","3","3","3","3","2","4","3","4","4","2","4","4","4","4","4","4","4","2","4","2","2","2","2","1","2","2","0","1","0","0","1","1","1","1","0","0","0","0","1","0","1","4","2","5","1","2","3","2","4","4","4","2","766325798146936833","崔","453","","","","","","","","","","","","","","","","","","","true","3","3","ability","921","other","他人的","","","","","","","","","","","","","","","","",""
"null","","null","html-keyboard-response","89","169803","0.0-6.0-0.0-6.0-0.15","3","3","4","3","3","3","3","2","4","3","4","4","2","4","4","4","4","4","4","4","2","4","2","2","2","2","1","2","2","0","1","0","0","1","1","1","1","0","0","0","0","1","0","1","4","2","5","1","2","3","2","4","4","4","2","766325798146936833","崔","453","","","","","","","","","","","","","","","","","","","","","","","","","","","","","","","","","","","","","","","","","",""
"760","<p style=""color:white; font-size: 35px;"">精干</p>","e","categorize-html","90","170567","0.0-6.0-0.0-6.0-1.15","3","3","4","3","3","3","3","2","4","3","4","4","2","4","4","4","4","4","4","4","2","4","2","2","2","2","1","2","2","0","1","0","0","1","1","1","1","0","0","0","0","1","0","1","4","2","5","1","2","3","2","4","4","4","2","766325798146936833","崔","453","","","","","","","","","","","","","","","","","","","true","3","3","ability","760","positive","精干","","","","","","","","","","","","","","","","",""
"null","","null","html-keyboard-response","91","170820","0.0-6.0-0.0-6.0-0.16","3","3","4","3","3","3","3","2","4","3","4","4","2","4","4","4","4","4","4","4","2","4","2","2","2","2","1","2","2","0","1","0","0","1","1","1","1","0","0","0","0","1","0","1","4","2","5","1","2","3","2","4","4","4","2","766325798146936833","崔","453","","","","","","","","","","","","","","","","","","","","","","","","","","","","","","","","","","","","","","","","","",""
"819","<p style=""color:rgb(150, 250, 100); font-size: 35px;"">我的</p>","e","categorize-html","92","171643","0.0-6.0-0.0-6.0-1.16","3","3","4","3","3","3","3","2","4","3","4","4","2","4","4","4","4","4","4","4","2","4","2","2","2","2","1","2","2","0","1","0","0","1","1","1","1","0","0","0","0","1","0","1","4","2","5","1","2","3","2","4","4","4","2","766325798146936833","崔","453","","","","","","","","","","","","","","","","","","","true","3","3","ability","819","self","我的","","","","","","","","","","","","","","","","",""
"null","","null","html-keyboard-response","93","171895","0.0-6.0-0.0-6.0-0.17","3","3","4","3","3","3","3","2","4","3","4","4","2","4","4","4","4","4","4","4","2","4","2","2","2","2","1","2","2","0","1","0","0","1","1","1","1","0","0","0","0","1","0","1","4","2","5","1","2","3","2","4","4","4","2","766325798146936833","崔","453","","","","","","","","","","","","","","","","","","","","","","","","","","","","","","","","","","","","","","","","","",""
"821","<p style=""color:white; font-size: 35px;"">废物</p>","i","categorize-html","94","172722","0.0-6.0-0.0-6.0-1.17","3","3","4","3","3","3","3","2","4","3","4","4","2","4","4","4","4","4","4","4","2","4","2","2","2","2","1","2","2","0","1","0","0","1","1","1","1","0","0","0","0","1","0","1","4","2","5","1","2","3","2","4","4","4","2","766325798146936833","崔","453","","","","","","","","","","","","","","","","","","","true","3","3","ability","821","negative","废物","","","","","","","","","","","","","","","","",""
"null","","null","html-keyboard-response","95","172974","0.0-6.0-0.0-6.0-0.18","3","3","4","3","3","3","3","2","4","3","4","4","2","4","4","4","4","4","4","4","2","4","2","2","2","2","1","2","2","0","1","0","0","1","1","1","1","0","0","0","0","1","0","1","4","2","5","1","2","3","2","4","4","4","2","766325798146936833","崔","453","","","","","","","","","","","","","","","","","","","","","","","","","","","","","","","","","","","","","","","","","",""
"760","<p style=""color:rgb(150, 250, 100); font-size: 35px;"">他人</p>","i","categorize-html","96","173739","0.0-6.0-0.0-6.0-1.18","3","3","4","3","3","3","3","2","4","3","4","4","2","4","4","4","4","4","4","4","2","4","2","2","2","2","1","2","2","0","1","0","0","1","1","1","1","0","0","0","0","1","0","1","4","2","5","1","2","3","2","4","4","4","2","766325798146936833","崔","453","","","","","","","","","","","","","","","","","","","true","3","3","ability","760","other","他人","","","","","","","","","","","","","","","","",""
"null","","null","html-keyboard-response","97","173990","0.0-6.0-0.0-6.0-0.19","3","3","4","3","3","3","3","2","4","3","4","4","2","4","4","4","4","4","4","4","2","4","2","2","2","2","1","2","2","0","1","0","0","1","1","1","1","0","0","0","0","1","0","1","4","2","5","1","2","3","2","4","4","4","2","766325798146936833","崔","453","","","","","","","","","","","","","","","","","","","","","","","","","","","","","","","","","","","","","","","","","",""
"670","<p style=""color:white; font-size: 35px;"">全才</p>","e","categorize-html","98","174664","0.0-6.0-0.0-6.0-1.19","3","3","4","3","3","3","3","2","4","3","4","4","2","4","4","4","4","4","4","4","2","4","2","2","2","2","1","2","2","0","1","0","0","1","1","1","1","0","0","0","0","1","0","1","4","2","5","1","2","3","2","4","4","4","2","766325798146936833","崔","453","","","","","","","","","","","","","","","","","","","true","3","3","ability","670","positive","全才","","","","","","","","","","","","","","","","",""
"null","","null","html-keyboard-response","99","174916","0.0-6.0-0.0-6.0-0.20","3","3","4","3","3","3","3","2","4","3","4","4","2","4","4","4","4","4","4","4","2","4","2","2","2","2","1","2","2","0","1","0","0","1","1","1","1","0","0","0","0","1","0","1","4","2","5","1","2","3","2","4","4","4","2","766325798146936833","崔","453","","","","","","","","","","","","","","","","","","","","","","","","","","","","","","","","","","","","","","","","","",""
"701","<p style=""color:rgb(150, 250, 100); font-size: 35px;"">本人</p>","e","categorize-html","100","175622","0.0-6.0-0.0-6.0-1.20","3","3","4","3","3","3","3","2","4","3","4","4","2","4","4","4","4","4","4","4","2","4","2","2","2","2","1","2","2","0","1","0","0","1","1","1","1","0","0","0","0","1","0","1","4","2","5","1","2","3","2","4","4","4","2","766325798146936833","崔","453","","","","","","","","","","","","","","","","","","","true","3","3","ability","701","self","本人","","","","","","","","","","","","","","","","",""
"null","","null","html-keyboard-response","101","175876","0.0-6.0-0.0-6.0-0.21","3","3","4","3","3","3","3","2","4","3","4","4","2","4","4","4","4","4","4","4","2","4","2","2","2","2","1","2","2","0","1","0","0","1","1","1","1","0","0","0","0","1","0","1","4","2","5","1","2","3","2","4","4","4","2","766325798146936833","崔","453","","","","","","","","","","","","","","","","","","","","","","","","","","","","","","","","","","","","","","","","","",""
"782","<p style=""color:white; font-size: 35px;"">愚钝</p>","i","categorize-html","102","176662","0.0-6.0-0.0-6.0-1.21","3","3","4","3","3","3","3","2","4","3","4","4","2","4","4","4","4","4","4","4","2","4","2","2","2","2","1","2","2","0","1","0","0","1","1","1","1","0","0","0","0","1","0","1","4","2","5","1","2","3","2","4","4","4","2","766325798146936833","崔","453","","","","","","","","","","","","","","","","","","","true","3","3","ability","782","negative","愚钝","","","","","","","","","","","","","","","","",""
"null","","null","html-keyboard-response","103","176914","0.0-6.0-0.0-6.0-0.22","3","3","4","3","3","3","3","2","4","3","4","4","2","4","4","4","4","4","4","4","2","4","2","2","2","2","1","2","2","0","1","0","0","1","1","1","1","0","0","0","0","1","0","1","4","2","5","1","2","3","2","4","4","4","2","766325798146936833","崔","453","","","","","","","","","","","","","","","","","","","","","","","","","","","","","","","","","","","","","","","","","",""
"712","<p style=""color:rgb(150, 250, 100); font-size: 35px;"">别人</p>","i","categorize-html","104","177633","0.0-6.0-0.0-6.0-1.22","3","3","4","3","3","3","3","2","4","3","4","4","2","4","4","4","4","4","4","4","2","4","2","2","2","2","1","2","2","0","1","0","0","1","1","1","1","0","0","0","0","1","0","1","4","2","5","1","2","3","2","4","4","4","2","766325798146936833","崔","453","","","","","","","","","","","","","","","","","","","true","3","3","ability","712","other","别人","","","","","","","","","","","","","","","","",""
"null","","null","html-keyboard-response","105","177885","0.0-6.0-0.0-6.0-0.23","3","3","4","3","3","3","3","2","4","3","4","4","2","4","4","4","4","4","4","4","2","4","2","2","2","2","1","2","2","0","1","0","0","1","1","1","1","0","0","0","0","1","0","1","4","2","5","1","2","3","2","4","4","4","2","766325798146936833","崔","453","","","","","","","","","","","","","","","","","","","","","","","","","","","","","","","","","","","","","","","","","",""
"855","<p style=""color:white; font-size: 35px;"">高效</p>","e","categorize-html","106","178744","0.0-6.0-0.0-6.0-1.23","3","3","4","3","3","3","3","2","4","3","4","4","2","4","4","4","4","4","4","4","2","4","2","2","2","2","1","2","2","0","1","0","0","1","1","1","1","0","0","0","0","1","0","1","4","2","5","1","2","3","2","4","4","4","2","766325798146936833","崔","453","","","","","","","","","","","","","","","","","","","true","3","3","ability","855","positive","高效","","","","","","","","","","","","","","","","",""
"997","
    <div class=""tag-bottom""><p>
    —— 任务4：对“自我/积极”词和“他人/消极”词分类 ——<p/>
    <span style=""color:#78DCE8""><b>与刚才的任务完全相同，请再次对这四类词语分类</b></span><p/>
    <span style=""color:#FFD866""><b>请根据上方标签的提示，尽可能正确并且快速地做出按键反应</b></span><p/>
    当按键错误时屏幕中会出现<span style=""color:red""> X </span>，需要按另一个键纠正才能继续<br/><p/>
    请把双手食指分别放在键盘的“E”键和“I”键上<p/>
    按<空格键>开始
    </p></div>"," ","html-keyboard-response","107","179743","0.0-6.0-0.0-7.0","3","3","4","3","3","3","3","2","4","3","4","4","2","4","4","4","4","4","4","4","2","4","2","2","2","2","1","2","2","0","1","0","0","1","1","1","1","0","0","0","0","1","0","1","4","2","5","1","2","3","2","4","4","4","2","766325798146936833","崔","453","","","","","","","","","","","","","","","","","","","","","","","","","","","","","","","","","","","","","","","","","",""
"null","","null","html-keyboard-response","108","179997","0.0-6.0-0.0-8.0-0.0","3","3","4","3","3","3","3","2","4","3","4","4","2","4","4","4","4","4","4","4","2","4","2","2","2","2","1","2","2","0","1","0","0","1","1","1","1","0","0","0","0","1","0","1","4","2","5","1","2","3","2","4","4","4","2","766325798146936833","崔","453","","","","","","","","","","","","","","","","","","","","","","","","","","","","","","","","","","","","","","","","","",""
"1300","<p style=""color:rgb(150, 250, 100); font-size: 35px;"">别人的</p>","i","categorize-html","109","181303","0.0-6.0-0.0-8.0-1.0","3","3","4","3","3","3","3","2","4","3","4","4","2","4","4","4","4","4","4","4","2","4","2","2","2","2","1","2","2","0","1","0","0","1","1","1","1","0","0","0","0","1","0","1","4","2","5","1","2","3","2","4","4","4","2","766325798146936833","崔","453","","","","","","","","","","","","","","","","","","","true","4","4","ability","1300","other","别人的","","","","","","","","","","","","","","","","",""
"null","","null","html-keyboard-response","110","181556","0.0-6.0-0.0-8.0-0.1","3","3","4","3","3","3","3","2","4","3","4","4","2","4","4","4","4","4","4","4","2","4","2","2","2","2","1","2","2","0","1","0","0","1","1","1","1","0","0","0","0","1","0","1","4","2","5","1","2","3","2","4","4","4","2","766325798146936833","崔","453","","","","","","","","","","","","","","","","","","","","","","","","","","","","","","","","","","","","","","","","","",""
"913","<p style=""color:white; font-size: 35px;"">愚钝</p>","i","categorize-html","111","182474","0.0-6.0-0.0-8.0-1.1","3","3","4","3","3","3","3","2","4","3","4","4","2","4","4","4","4","4","4","4","2","4","2","2","2","2","1","2","2","0","1","0","0","1","1","1","1","0","0","0","0","1","0","1","4","2","5","1","2","3","2","4","4","4","2","766325798146936833","崔","453","","","","","","","","","","","","","","","","","","","true","4","4","ability","913","negative","愚钝","","","","","","","","","","","","","","","","",""
"null","","null","html-keyboard-response","112","182727","0.0-6.0-0.0-8.0-0.2","3","3","4","3","3","3","3","2","4","3","4","4","2","4","4","4","4","4","4","4","2","4","2","2","2","2","1","2","2","0","1","0","0","1","1","1","1","0","0","0","0","1","0","1","4","2","5","1","2","3","2","4","4","4","2","766325798146936833","崔","453","","","","","","","","","","","","","","","","","","","","","","","","","","","","","","","","","","","","","","","","","",""
"796","<p style=""color:rgb(150, 250, 100); font-size: 35px;"">我</p>","e","categorize-html","113","183527","0.0-6.0-0.0-8.0-1.2","3","3","4","3","3","3","3","2","4","3","4","4","2","4","4","4","4","4","4","4","2","4","2","2","2","2","1","2","2","0","1","0","0","1","1","1","1","0","0","0","0","1","0","1","4","2","5","1","2","3","2","4","4","4","2","766325798146936833","崔","453","","","","","","","","","","","","","","","","","","","true","4","4","ability","796","self","我","","","","","","","","","","","","","","","","",""
"null","","null","html-keyboard-response","114","183779","0.0-6.0-0.0-8.0-0.3","3","3","4","3","3","3","3","2","4","3","4","4","2","4","4","4","4","4","4","4","2","4","2","2","2","2","1","2","2","0","1","0","0","1","1","1","1","0","0","0","0","1","0","1","4","2","5","1","2","3","2","4","4","4","2","766325798146936833","崔","453","","","","","","","","","","","","","","","","","","","","","","","","","","","","","","","","","","","","","","","","","",""
"637","<p style=""color:white; font-size: 35px;"">全才</p>","e","categorize-html","115","184423","0.0-6.0-0.0-8.0-1.3","3","3","4","3","3","3","3","2","4","3","4","4","2","4","4","4","4","4","4","4","2","4","2","2","2","2","1","2","2","0","1","0","0","1","1","1","1","0","0","0","0","1","0","1","4","2","5","1","2","3","2","4","4","4","2","766325798146936833","崔","453","","","","","","","","","","","","","","","","","","","true","4","4","ability","637","positive","全才","","","","","","","","","","","","","","","","",""
"null","","null","html-keyboard-response","116","184675","0.0-6.0-0.0-8.0-0.4","3","3","4","3","3","3","3","2","4","3","4","4","2","4","4","4","4","4","4","4","2","4","2","2","2","2","1","2","2","0","1","0","0","1","1","1","1","0","0","0","0","1","0","1","4","2","5","1","2","3","2","4","4","4","2","766325798146936833","崔","453","","","","","","","","","","","","","","","","","","","","","","","","","","","","","","","","","","","","","","","","","",""
"701","<p style=""color:rgb(150, 250, 100); font-size: 35px;"">自己</p>","e","categorize-html","117","185380","0.0-6.0-0.0-8.0-1.4","3","3","4","3","3","3","3","2","4","3","4","4","2","4","4","4","4","4","4","4","2","4","2","2","2","2","1","2","2","0","1","0","0","1","1","1","1","0","0","0","0","1","0","1","4","2","5","1","2","3","2","4","4","4","2","766325798146936833","崔","453","","","","","","","","","","","","","","","","","","","true","4","4","ability","701","self","自己","","","","","","","","","","","","","","","","",""
"null","","null","html-keyboard-response","118","185634","0.0-6.0-0.0-8.0-0.5","3","3","4","3","3","3","3","2","4","3","4","4","2","4","4","4","4","4","4","4","2","4","2","2","2","2","1","2","2","0","1","0","0","1","1","1","1","0","0","0","0","1","0","1","4","2","5","1","2","3","2","4","4","4","2","766325798146936833","崔","453","","","","","","","","","","","","","","","","","","","","","","","","","","","","","","","","","","","","","","","","","",""
"775","<p style=""color:white; font-size: 35px;"">无能</p>","i","categorize-html","119","186414","0.0-6.0-0.0-8.0-1.5","3","3","4","3","3","3","3","2","4","3","4","4","2","4","4","4","4","4","4","4","2","4","2","2","2","2","1","2","2","0","1","0","0","1","1","1","1","0","0","0","0","1","0","1","4","2","5","1","2","3","2","4","4","4","2","766325798146936833","崔","453","","","","","","","","","","","","","","","","","","","true","4","4","ability","775","negative","无能","","","","","","","","","","","","","","","","",""
"null","","null","html-keyboard-response","120","186667","0.0-6.0-0.0-8.0-0.6","3","3","4","3","3","3","3","2","4","3","4","4","2","4","4","4","4","4","4","4","2","4","2","2","2","2","1","2","2","0","1","0","0","1","1","1","1","0","0","0","0","1","0","1","4","2","5","1","2","3","2","4","4","4","2","766325798146936833","崔","453","","","","","","","","","","","","","","","","","","","","","","","","","","","","","","","","","","","","","","","","","",""
"815","<p style=""color:rgb(150, 250, 100); font-size: 35px;"">别人的</p>","i","categorize-html","121","187486","0.0-6.0-0.0-8.0-1.6","3","3","4","3","3","3","3","2","4","3","4","4","2","4","4","4","4","4","4","4","2","4","2","2","2","2","1","2","2","0","1","0","0","1","1","1","1","0","0","0","0","1","0","1","4","2","5","1","2","3","2","4","4","4","2","766325798146936833","崔","453","","","","","","","","","","","","","","","","","","","true","4","4","ability","815","other","别人的","","","","","","","","","","","","","","","","",""
"null","","null","html-keyboard-response","122","187738","0.0-6.0-0.0-8.0-0.7","3","3","4","3","3","3","3","2","4","3","4","4","2","4","4","4","4","4","4","4","2","4","2","2","2","2","1","2","2","0","1","0","0","1","1","1","1","0","0","0","0","1","0","1","4","2","5","1","2","3","2","4","4","4","2","766325798146936833","崔","453","","","","","","","","","","","","","","","","","","","","","","","","","","","","","","","","","","","","","","","","","",""
"680","<p style=""color:white; font-size: 35px;"">精干</p>","e","categorize-html","123","188422","0.0-6.0-0.0-8.0-1.7","3","3","4","3","3","3","3","2","4","3","4","4","2","4","4","4","4","4","4","4","2","4","2","2","2","2","1","2","2","0","1","0","0","1","1","1","1","0","0","0","0","1","0","1","4","2","5","1","2","3","2","4","4","4","2","766325798146936833","崔","453","","","","","","","","","","","","","","","","","","","true","4","4","ability","680","positive","精干","","","","","","","","","","","","","","","","",""
"null","","null","html-keyboard-response","124","188676","0.0-6.0-0.0-8.0-0.8","3","3","4","3","3","3","3","2","4","3","4","4","2","4","4","4","4","4","4","4","2","4","2","2","2","2","1","2","2","0","1","0","0","1","1","1","1","0","0","0","0","1","0","1","4","2","5","1","2","3","2","4","4","4","2","766325798146936833","崔","453","","","","","","","","","","","","","","","","","","","","","","","","","","","","","","","","","","","","","","","","","",""
"635","<p style=""color:rgb(150, 250, 100); font-size: 35px;"">自己的</p>","e","categorize-html","125","189316","0.0-6.0-0.0-8.0-1.8","3","3","4","3","3","3","3","2","4","3","4","4","2","4","4","4","4","4","4","4","2","4","2","2","2","2","1","2","2","0","1","0","0","1","1","1","1","0","0","0","0","1","0","1","4","2","5","1","2","3","2","4","4","4","2","766325798146936833","崔","453","","","","","","","","","","","","","","","","","","","true","4","4","ability","635","self","自己的","","","","","","","","","","","","","","","","",""
"null","","null","html-keyboard-response","126","189568","0.0-6.0-0.0-8.0-0.9","3","3","4","3","3","3","3","2","4","3","4","4","2","4","4","4","4","4","4","4","2","4","2","2","2","2","1","2","2","0","1","0","0","1","1","1","1","0","0","0","0","1","0","1","4","2","5","1","2","3","2","4","4","4","2","766325798146936833","崔","453","","","","","","","","","","","","","","","","","","","","","","","","","","","","","","","","","","","","","","","","","",""
"634","<p style=""color:white; font-size: 35px;"">废物</p>","i","categorize-html","127","190207","0.0-6.0-0.0-8.0-1.9","3","3","4","3","3","3","3","2","4","3","4","4","2","4","4","4","4","4","4","4","2","4","2","2","2","2","1","2","2","0","1","0","0","1","1","1","1","0","0","0","0","1","0","1","4","2","5","1","2","3","2","4","4","4","2","766325798146936833","崔","453","","","","","","","","","","","","","","","","","","","true","4","4","ability","634","negative","废物","","","","","","","","","","","","","","","","",""
"null","","null","html-keyboard-response","128","190459","0.0-6.0-0.0-8.0-0.10","3","3","4","3","3","3","3","2","4","3","4","4","2","4","4","4","4","4","4","4","2","4","2","2","2","2","1","2","2","0","1","0","0","1","1","1","1","0","0","0","0","1","0","1","4","2","5","1","2","3","2","4","4","4","2","766325798146936833","崔","453","","","","","","","","","","","","","","","","","","","","","","","","","","","","","","","","","","","","","","","","","",""
"720","<p style=""color:rgb(150, 250, 100); font-size: 35px;"">他的</p>","i","categorize-html","129","191184","0.0-6.0-0.0-8.0-1.10","3","3","4","3","3","3","3","2","4","3","4","4","2","4","4","4","4","4","4","4","2","4","2","2","2","2","1","2","2","0","1","0","0","1","1","1","1","0","0","0","0","1","0","1","4","2","5","1","2","3","2","4","4","4","2","766325798146936833","崔","453","","","","","","","","","","","","","","","","","","","true","4","4","ability","720","other","他的","","","","","","","","","","","","","","","","",""
"null","","null","html-keyboard-response","130","191437","0.0-6.0-0.0-8.0-0.11","3","3","4","3","3","3","3","2","4","3","4","4","2","4","4","4","4","4","4","4","2","4","2","2","2","2","1","2","2","0","1","0","0","1","1","1","1","0","0","0","0","1","0","1","4","2","5","1","2","3","2","4","4","4","2","766325798146936833","崔","453","","","","","","","","","","","","","","","","","","","","","","","","","","","","","","","","","","","","","","","","","",""
"783","<p style=""color:white; font-size: 35px;"">高效</p>","e","categorize-html","131","192226","0.0-6.0-0.0-8.0-1.11","3","3","4","3","3","3","3","2","4","3","4","4","2","4","4","4","4","4","4","4","2","4","2","2","2","2","1","2","2","0","1","0","0","1","1","1","1","0","0","0","0","1","0","1","4","2","5","1","2","3","2","4","4","4","2","766325798146936833","崔","453","","","","","","","","","","","","","","","","","","","true","4","4","ability","783","positive","高效","","","","","","","","","","","","","","","","",""
"null","","null","html-keyboard-response","132","192479","0.0-6.0-0.0-8.0-0.12","3","3","4","3","3","3","3","2","4","3","4","4","2","4","4","4","4","4","4","4","2","4","2","2","2","2","1","2","2","0","1","0","0","1","1","1","1","0","0","0","0","1","0","1","4","2","5","1","2","3","2","4","4","4","2","766325798146936833","崔","453","","","","","","","","","","","","","","","","","","","","","","","","","","","","","","","","","","","","","","","","","",""
"621","<p style=""color:rgb(150, 250, 100); font-size: 35px;"">自己</p>","e","categorize-html","133","193105","0.0-6.0-0.0-8.0-1.12","3","3","4","3","3","3","3","2","4","3","4","4","2","4","4","4","4","4","4","4","2","4","2","2","2","2","1","2","2","0","1","0","0","1","1","1","1","0","0","0","0","1","0","1","4","2","5","1","2","3","2","4","4","4","2","766325798146936833","崔","453","","","","","","","","","","","","","","","","","","","true","4","4","ability","621","self","自己","","","","","","","","","","","","","","","","",""
"null","","null","html-keyboard-response","134","193356","0.0-6.0-0.0-8.0-0.13","3","3","4","3","3","3","3","2","4","3","4","4","2","4","4","4","4","4","4","4","2","4","2","2","2","2","1","2","2","0","1","0","0","1","1","1","1","0","0","0","0","1","0","1","4","2","5","1","2","3","2","4","4","4","2","766325798146936833","崔","453","","","","","","","","","","","","","","","","","","","","","","","","","","","","","","","","","","","","","","","","","",""
"722","<p style=""color:white; font-size: 35px;"">蠢笨</p>","i","categorize-html","135","194085","0.0-6.0-0.0-8.0-1.13","3","3","4","3","3","3","3","2","4","3","4","4","2","4","4","4","4","4","4","4","2","4","2","2","2","2","1","2","2","0","1","0","0","1","1","1","1","0","0","0","0","1","0","1","4","2","5","1","2","3","2","4","4","4","2","766325798146936833","崔","453","","","","","","","","","","","","","","","","","","","true","4","4","ability","722","negative","蠢笨","","","","","","","","","","","","","","","","",""
"null","","null","html-keyboard-response","136","194338","0.0-6.0-0.0-8.0-0.14","3","3","4","3","3","3","3","2","4","3","4","4","2","4","4","4","4","4","4","4","2","4","2","2","2","2","1","2","2","0","1","0","0","1","1","1","1","0","0","0","0","1","0","1","4","2","5","1","2","3","2","4","4","4","2","766325798146936833","崔","453","","","","","","","","","","","","","","","","","","","","","","","","","","","","","","","","","","","","","","","","","",""
"734","<p style=""color:rgb(150, 250, 100); font-size: 35px;"">他人</p>","i","categorize-html","137","195077","0.0-6.0-0.0-8.0-1.14","3","3","4","3","3","3","3","2","4","3","4","4","2","4","4","4","4","4","4","4","2","4","2","2","2","2","1","2","2","0","1","0","0","1","1","1","1","0","0","0","0","1","0","1","4","2","5","1","2","3","2","4","4","4","2","766325798146936833","崔","453","","","","","","","","","","","","","","","","","","","true","4","4","ability","734","other","他人","","","","","","","","","","","","","","","","",""
"null","","null","html-keyboard-response","138","195340","0.0-6.0-0.0-8.0-0.15","3","3","4","3","3","3","3","2","4","3","4","4","2","4","4","4","4","4","4","4","2","4","2","2","2","2","1","2","2","0","1","0","0","1","1","1","1","0","0","0","0","1","0","1","4","2","5","1","2","3","2","4","4","4","2","766325798146936833","崔","453","","","","","","","","","","","","","","","","","","","","","","","","","","","","","","","","","","","","","","","","","",""
"670","<p style=""color:white; font-size: 35px;"">能干</p>","e","categorize-html","139","196015","0.0-6.0-0.0-8.0-1.15","3","3","4","3","3","3","3","2","4","3","4","4","2","4","4","4","4","4","4","4","2","4","2","2","2","2","1","2","2","0","1","0","0","1","1","1","1","0","0","0","0","1","0","1","4","2","5","1","2","3","2","4","4","4","2","766325798146936833","崔","453","","","","","","","","","","","","","","","","","","","true","4","4","ability","670","positive","能干","","","","","","","","","","","","","","","","",""
"null","","null","html-keyboard-response","140","196267","0.0-6.0-0.0-8.0-0.16","3","3","4","3","3","3","3","2","4","3","4","4","2","4","4","4","4","4","4","4","2","4","2","2","2","2","1","2","2","0","1","0","0","1","1","1","1","0","0","0","0","1","0","1","4","2","5","1","2","3","2","4","4","4","2","766325798146936833","崔","453","","","","","","","","","","","","","","","","","","","","","","","","","","","","","","","","","","","","","","","","","",""
"734","<p style=""color:rgb(150, 250, 100); font-size: 35px;"">自己的</p>","e","categorize-html","141","197006","0.0-6.0-0.0-8.0-1.16","3","3","4","3","3","3","3","2","4","3","4","4","2","4","4","4","4","4","4","4","2","4","2","2","2","2","1","2","2","0","1","0","0","1","1","1","1","0","0","0","0","1","0","1","4","2","5","1","2","3","2","4","4","4","2","766325798146936833","崔","453","","","","","","","","","","","","","","","","","","","true","4","4","ability","734","self","自己的","","","","","","","","","","","","","","","","",""
"null","","null","html-keyboard-response","142","197257","0.0-6.0-0.0-8.0-0.17","3","3","4","3","3","3","3","2","4","3","4","4","2","4","4","4","4","4","4","4","2","4","2","2","2","2","1","2","2","0","1","0","0","1","1","1","1","0","0","0","0","1","0","1","4","2","5","1","2","3","2","4","4","4","2","766325798146936833","崔","453","","","","","","","","","","","","","","","","","","","","","","","","","","","","","","","","","","","","","","","","","",""
"776","<p style=""color:white; font-size: 35px;"">废物</p>","i","categorize-html","143","198038","0.0-6.0-0.0-8.0-1.17","3","3","4","3","3","3","3","2","4","3","4","4","2","4","4","4","4","4","4","4","2","4","2","2","2","2","1","2","2","0","1","0","0","1","1","1","1","0","0","0","0","1","0","1","4","2","5","1","2","3","2","4","4","4","2","766325798146936833","崔","453","","","","","","","","","","","","","","","","","","","true","4","4","ability","776","negative","废物","","","","","","","","","","","","","","","","",""
"null","","null","html-keyboard-response","144","198290","0.0-6.0-0.0-8.0-0.18","3","3","4","3","3","3","3","2","4","3","4","4","2","4","4","4","4","4","4","4","2","4","2","2","2","2","1","2","2","0","1","0","0","1","1","1","1","0","0","0","0","1","0","1","4","2","5","1","2","3","2","4","4","4","2","766325798146936833","崔","453","","","","","","","","","","","","","","","","","","","","","","","","","","","","","","","","","","","","","","","","","",""
"775","<p style=""color:rgb(150, 250, 100); font-size: 35px;"">他</p>","i","categorize-html","145","199070","0.0-6.0-0.0-8.0-1.18","3","3","4","3","3","3","3","2","4","3","4","4","2","4","4","4","4","4","4","4","2","4","2","2","2","2","1","2","2","0","1","0","0","1","1","1","1","0","0","0","0","1","0","1","4","2","5","1","2","3","2","4","4","4","2","766325798146936833","崔","453","","","","","","","","","","","","","","","","","","","true","4","4","ability","775","other","他","","","","","","","","","","","","","","","","",""
"null","","null","html-keyboard-response","146","199323","0.0-6.0-0.0-8.0-0.19","3","3","4","3","3","3","3","2","4","3","4","4","2","4","4","4","4","4","4","4","2","4","2","2","2","2","1","2","2","0","1","0","0","1","1","1","1","0","0","0","0","1","0","1","4","2","5","1","2","3","2","4","4","4","2","766325798146936833","崔","453","","","","","","","","","","","","","","","","","","","","","","","","","","","","","","","","","","","","","","","","","",""
"609","<p style=""color:white; font-size: 35px;"">全才</p>","e","categorize-html","147","199936","0.0-6.0-0.0-8.0-1.19","3","3","4","3","3","3","3","2","4","3","4","4","2","4","4","4","4","4","4","4","2","4","2","2","2","2","1","2","2","0","1","0","0","1","1","1","1","0","0","0","0","1","0","1","4","2","5","1","2","3","2","4","4","4","2","766325798146936833","崔","453","","","","","","","","","","","","","","","","","","","true","4","4","ability","609","positive","全才","","","","","","","","","","","","","","","","",""
"null","","null","html-keyboard-response","148","200188","0.0-6.0-0.0-8.0-0.20","3","3","4","3","3","3","3","2","4","3","4","4","2","4","4","4","4","4","4","4","2","4","2","2","2","2","1","2","2","0","1","0","0","1","1","1","1","0","0","0","0","1","0","1","4","2","5","1","2","3","2","4","4","4","2","766325798146936833","崔","453","","","","","","","","","","","","","","","","","","","","","","","","","","","","","","","","","","","","","","","","","",""
"767","<p style=""color:rgb(150, 250, 100); font-size: 35px;"">他人的</p>","i","categorize-html","149","200961","0.0-6.0-0.0-8.0-1.20","3","3","4","3","3","3","3","2","4","3","4","4","2","4","4","4","4","4","4","4","2","4","2","2","2","2","1","2","2","0","1","0","0","1","1","1","1","0","0","0","0","1","0","1","4","2","5","1","2","3","2","4","4","4","2","766325798146936833","崔","453","","","","","","","","","","","","","","","","","","","true","4","4","ability","767","other","他人的","","","","","","","","","","","","","","","","",""
"null","","null","html-keyboard-response","150","201215","0.0-6.0-0.0-8.0-0.21","3","3","4","3","3","3","3","2","4","3","4","4","2","4","4","4","4","4","4","4","2","4","2","2","2","2","1","2","2","0","1","0","0","1","1","1","1","0","0","0","0","1","0","1","4","2","5","1","2","3","2","4","4","4","2","766325798146936833","崔","453","","","","","","","","","","","","","","","","","","","","","","","","","","","","","","","","","","","","","","","","","",""
"729","<p style=""color:white; font-size: 35px;"">天才</p>","e","categorize-html","151","201948","0.0-6.0-0.0-8.0-1.21","3","3","4","3","3","3","3","2","4","3","4","4","2","4","4","4","4","4","4","4","2","4","2","2","2","2","1","2","2","0","1","0","0","1","1","1","1","0","0","0","0","1","0","1","4","2","5","1","2","3","2","4","4","4","2","766325798146936833","崔","453","","","","","","","","","","","","","","","","","","","true","4","4","ability","729","positive","天才","","","","","","","","","","","","","","","","",""
"null","","null","html-keyboard-response","152","202200","0.0-6.0-0.0-8.0-0.22","3","3","4","3","3","3","3","2","4","3","4","4","2","4","4","4","4","4","4","4","2","4","2","2","2","2","1","2","2","0","1","0","0","1","1","1","1","0","0","0","0","1","0","1","4","2","5","1","2","3","2","4","4","4","2","766325798146936833","崔","453","","","","","","","","","","","","","","","","","","","","","","","","","","","","","","","","","","","","","","","","","",""
"700","<p style=""color:rgb(150, 250, 100); font-size: 35px;"">我</p>","e","categorize-html","153","202905","0.0-6.0-0.0-8.0-1.22","3","3","4","3","3","3","3","2","4","3","4","4","2","4","4","4","4","4","4","4","2","4","2","2","2","2","1","2","2","0","1","0","0","1","1","1","1","0","0","0","0","1","0","1","4","2","5","1","2","3","2","4","4","4","2","766325798146936833","崔","453","","","","","","","","","","","","","","","","","","","true","4","4","ability","700","self","我","","","","","","","","","","","","","","","","",""
"null","","null","html-keyboard-response","154","203157","0.0-6.0-0.0-8.0-0.23","3","3","4","3","3","3","3","2","4","3","4","4","2","4","4","4","4","4","4","4","2","4","2","2","2","2","1","2","2","0","1","0","0","1","1","1","1","0","0","0","0","1","0","1","4","2","5","1","2","3","2","4","4","4","2","766325798146936833","崔","453","","","","","","","","","","","","","","","","","","","","","","","","","","","","","","","","","","","","","","","","","",""
"632","<p style=""color:white; font-size: 35px;"">低能</p>","i","categorize-html","155","203794","0.0-6.0-0.0-8.0-1.23","3","3","4","3","3","3","3","2","4","3","4","4","2","4","4","4","4","4","4","4","2","4","2","2","2","2","1","2","2","0","1","0","0","1","1","1","1","0","0","0","0","1","0","1","4","2","5","1","2","3","2","4","4","4","2","766325798146936833","崔","453","","","","","","","","","","","","","","","","","","","true","4","4","ability","632","negative","低能","","","","","","","","","","","","","","","","",""
"null","","null","html-keyboard-response","156","204055","0.0-6.0-0.0-8.0-0.24","3","3","4","3","3","3","3","2","4","3","4","4","2","4","4","4","4","4","4","4","2","4","2","2","2","2","1","2","2","0","1","0","0","1","1","1","1","0","0","0","0","1","0","1","4","2","5","1","2","3","2","4","4","4","2","766325798146936833","崔","453","","","","","","","","","","","","","","","","","","","","","","","","","","","","","","","","","","","","","","","","","",""
"622","<p style=""color:rgb(150, 250, 100); font-size: 35px;"">他人的</p>","i","categorize-html","157","204681","0.0-6.0-0.0-8.0-1.24","3","3","4","3","3","3","3","2","4","3","4","4","2","4","4","4","4","4","4","4","2","4","2","2","2","2","1","2","2","0","1","0","0","1","1","1","1","0","0","0","0","1","0","1","4","2","5","1","2","3","2","4","4","4","2","766325798146936833","崔","453","","","","","","","","","","","","","","","","","","","true","4","4","ability","622","other","他人的","","","","","","","","","","","","","","","","",""
"null","","null","html-keyboard-response","158","204934","0.0-6.0-0.0-8.0-0.25","3","3","4","3","3","3","3","2","4","3","4","4","2","4","4","4","4","4","4","4","2","4","2","2","2","2","1","2","2","0","1","0","0","1","1","1","1","0","0","0","0","1","0","1","4","2","5","1","2","3","2","4","4","4","2","766325798146936833","崔","453","","","","","","","","","","","","","","","","","","","","","","","","","","","","","","","","","","","","","","","","","",""
"759","<p style=""color:white; font-size: 35px;"">全能</p>","e","categorize-html","159","205698","0.0-6.0-0.0-8.0-1.25","3","3","4","3","3","3","3","2","4","3","4","4","2","4","4","4","4","4","4","4","2","4","2","2","2","2","1","2","2","0","1","0","0","1","1","1","1","0","0","0","0","1","0","1","4","2","5","1","2","3","2","4","4","4","2","766325798146936833","崔","453","","","","","","","","","","","","","","","","","","","true","4","4","ability","759","positive","全能","","","","","","","","","","","","","","","","",""
"null","","null","html-keyboard-response","160","205950","0.0-6.0-0.0-8.0-0.26","3","3","4","3","3","3","3","2","4","3","4","4","2","4","4","4","4","4","4","4","2","4","2","2","2","2","1","2","2","0","1","0","0","1","1","1","1","0","0","0","0","1","0","1","4","2","5","1","2","3","2","4","4","4","2","766325798146936833","崔","453","","","","","","","","","","","","","","","","","","","","","","","","","","","","","","","","","","","","","","","","","",""
"605","<p style=""color:rgb(150, 250, 100); font-size: 35px;"">本人的</p>","i","categorize-html","161","207387","0.0-6.0-0.0-8.0-1.26","3","3","4","3","3","3","3","2","4","3","4","4","2","4","4","4","4","4","4","4","2","4","2","2","2","2","1","2","2","0","1","0","0","1","1","1","1","0","0","0","0","1","0","1","4","2","5","1","2","3","2","4","4","4","2","766325798146936833","崔","453","","","","","","","","","","","","","","","","","","","false","4","4","ability","1331.723404255319","self","本人的","","","","","","","","","","","","","","","","",""
"null","","null","html-keyboard-response","162","207639","0.0-6.0-0.0-8.0-0.27","3","3","4","3","3","3","3","2","4","3","4","4","2","4","4","4","4","4","4","4","2","4","2","2","2","2","1","2","2","0","1","0","0","1","1","1","1","0","0","0","0","1","0","1","4","2","5","1","2","3","2","4","4","4","2","766325798146936833","崔","453","","","","","","","","","","","","","","","","","","","","","","","","","","","","","","","","","","","","","","","","","",""
"1149","<p style=""color:white; font-size: 35px;"">无能</p>","i","categorize-html","163","208793","0.0-6.0-0.0-8.0-1.27","3","3","4","3","3","3","3","2","4","3","4","4","2","4","4","4","4","4","4","4","2","4","2","2","2","2","1","2","2","0","1","0","0","1","1","1","1","0","0","0","0","1","0","1","4","2","5","1","2","3","2","4","4","4","2","766325798146936833","崔","453","","","","","","","","","","","","","","","","","","","true","4","4","ability","1149","negative","无能","","","","","","","","","","","","","","","","",""
"null","","null","html-keyboard-response","164","209046","0.0-6.0-0.0-8.0-0.28","3","3","4","3","3","3","3","2","4","3","4","4","2","4","4","4","4","4","4","4","2","4","2","2","2","2","1","2","2","0","1","0","0","1","1","1","1","0","0","0","0","1","0","1","4","2","5","1","2","3","2","4","4","4","2","766325798146936833","崔","453","","","","","","","","","","","","","","","","","","","","","","","","","","","","","","","","","","","","","","","","","",""
"770","<p style=""color:rgb(150, 250, 100); font-size: 35px;"">本人</p>","e","categorize-html","165","209820","0.0-6.0-0.0-8.0-1.28","3","3","4","3","3","3","3","2","4","3","4","4","2","4","4","4","4","4","4","4","2","4","2","2","2","2","1","2","2","0","1","0","0","1","1","1","1","0","0","0","0","1","0","1","4","2","5","1","2","3","2","4","4","4","2","766325798146936833","崔","453","","","","","","","","","","","","","","","","","","","true","4","4","ability","770","self","本人","","","","","","","","","","","","","","","","",""
"null","","null","html-keyboard-response","166","210072","0.0-6.0-0.0-8.0-0.29","3","3","4","3","3","3","3","2","4","3","4","4","2","4","4","4","4","4","4","4","2","4","2","2","2","2","1","2","2","0","1","0","0","1","1","1","1","0","0","0","0","1","0","1","4","2","5","1","2","3","2","4","4","4","2","766325798146936833","崔","453","","","","","","","","","","","","","","","","","","","","","","","","","","","","","","","","","","","","","","","","","",""
"804","<p style=""color:white; font-size: 35px;"">全能</p>","e","categorize-html","167","210881","0.0-6.0-0.0-8.0-1.29","3","3","4","3","3","3","3","2","4","3","4","4","2","4","4","4","4","4","4","4","2","4","2","2","2","2","1","2","2","0","1","0","0","1","1","1","1","0","0","0","0","1","0","1","4","2","5","1","2","3","2","4","4","4","2","766325798146936833","崔","453","","","","","","","","","","","","","","","","","","","true","4","4","ability","804","positive","全能","","","","","","","","","","","","","","","","",""
"null","","null","html-keyboard-response","168","211133","0.0-6.0-0.0-8.0-0.30","3","3","4","3","3","3","3","2","4","3","4","4","2","4","4","4","4","4","4","4","2","4","2","2","2","2","1","2","2","0","1","0","0","1","1","1","1","0","0","0","0","1","0","1","4","2","5","1","2","3","2","4","4","4","2","766325798146936833","崔","453","","","","","","","","","","","","","","","","","","","","","","","","","","","","","","","","","","","","","","","","","",""
"829","<p style=""color:rgb(150, 250, 100); font-size: 35px;"">别人</p>","i","categorize-html","169","211967","0.0-6.0-0.0-8.0-1.30","3","3","4","3","3","3","3","2","4","3","4","4","2","4","4","4","4","4","4","4","2","4","2","2","2","2","1","2","2","0","1","0","0","1","1","1","1","0","0","0","0","1","0","1","4","2","5","1","2","3","2","4","4","4","2","766325798146936833","崔","453","","","","","","","","","","","","","","","","","","","true","4","4","ability","829","other","别人","","","","","","","","","","","","","","","","",""
"null","","null","html-keyboard-response","170","212218","0.0-6.0-0.0-8.0-0.31","3","3","4","3","3","3","3","2","4","3","4","4","2","4","4","4","4","4","4","4","2","4","2","2","2","2","1","2","2","0","1","0","0","1","1","1","1","0","0","0","0","1","0","1","4","2","5","1","2","3","2","4","4","4","2","766325798146936833","崔","453","","","","","","","","","","","","","","","","","","","","","","","","","","","","","","","","","","","","","","","","","",""
"688","<p style=""color:white; font-size: 35px;"">拙笨</p>","i","categorize-html","171","212911","0.0-6.0-0.0-8.0-1.31","3","3","4","3","3","3","3","2","4","3","4","4","2","4","4","4","4","4","4","4","2","4","2","2","2","2","1","2","2","0","1","0","0","1","1","1","1","0","0","0","0","1","0","1","4","2","5","1","2","3","2","4","4","4","2","766325798146936833","崔","453","","","","","","","","","","","","","","","","","","","true","4","4","ability","688","negative","拙笨","","","","","","","","","","","","","","","","",""
"null","","null","html-keyboard-response","172","213163","0.0-6.0-0.0-8.0-0.32","3","3","4","3","3","3","3","2","4","3","4","4","2","4","4","4","4","4","4","4","2","4","2","2","2","2","1","2","2","0","1","0","0","1","1","1","1","0","0","0","0","1","0","1","4","2","5","1","2","3","2","4","4","4","2","766325798146936833","崔","453","","","","","","","","","","","","","","","","","","","","","","","","","","","","","","","","","","","","","","","","","",""
"649","<p style=""color:rgb(150, 250, 100); font-size: 35px;"">他</p>","i","categorize-html","173","213817","0.0-6.0-0.0-8.0-1.32","3","3","4","3","3","3","3","2","4","3","4","4","2","4","4","4","4","4","4","4","2","4","2","2","2","2","1","2","2","0","1","0","0","1","1","1","1","0","0","0","0","1","0","1","4","2","5","1","2","3","2","4","4","4","2","766325798146936833","崔","453","","","","","","","","","","","","","","","","","","","true","4","4","ability","649","other","他","","","","","","","","","","","","","","","","",""
"null","","null","html-keyboard-response","174","214070","0.0-6.0-0.0-8.0-0.33","3","3","4","3","3","3","3","2","4","3","4","4","2","4","4","4","4","4","4","4","2","4","2","2","2","2","1","2","2","0","1","0","0","1","1","1","1","0","0","0","0","1","0","1","4","2","5","1","2","3","2","4","4","4","2","766325798146936833","崔","453","","","","","","","","","","","","","","","","","","","","","","","","","","","","","","","","","","","","","","","","","",""
"658","<p style=""color:white; font-size: 35px;"">高效</p>","e","categorize-html","175","214734","0.0-6.0-0.0-8.0-1.33","3","3","4","3","3","3","3","2","4","3","4","4","2","4","4","4","4","4","4","4","2","4","2","2","2","2","1","2","2","0","1","0","0","1","1","1","1","0","0","0","0","1","0","1","4","2","5","1","2","3","2","4","4","4","2","766325798146936833","崔","453","","","","","","","","","","","","","","","","","","","true","4","4","ability","658","positive","高效","","","","","","","","","","","","","","","","",""
"null","","null","html-keyboard-response","176","214987","0.0-6.0-0.0-8.0-0.34","3","3","4","3","3","3","3","2","4","3","4","4","2","4","4","4","4","4","4","4","2","4","2","2","2","2","1","2","2","0","1","0","0","1","1","1","1","0","0","0","0","1","0","1","4","2","5","1","2","3","2","4","4","4","2","766325798146936833","崔","453","","","","","","","","","","","","","","","","","","","","","","","","","","","","","","","","","","","","","","","","","",""
"585","<p style=""color:rgb(150, 250, 100); font-size: 35px;"">我的</p>","e","categorize-html","177","215579","0.0-6.0-0.0-8.0-1.34","3","3","4","3","3","3","3","2","4","3","4","4","2","4","4","4","4","4","4","4","2","4","2","2","2","2","1","2","2","0","1","0","0","1","1","1","1","0","0","0","0","1","0","1","4","2","5","1","2","3","2","4","4","4","2","766325798146936833","崔","453","","","","","","","","","","","","","","","","","","","true","4","4","ability","585","self","我的","","","","","","","","","","","","","","","","",""
"null","","null","html-keyboard-response","178","215832","0.0-6.0-0.0-8.0-0.35","3","3","4","3","3","3","3","2","4","3","4","4","2","4","4","4","4","4","4","4","2","4","2","2","2","2","1","2","2","0","1","0","0","1","1","1","1","0","0","0","0","1","0","1","4","2","5","1","2","3","2","4","4","4","2","766325798146936833","崔","453","","","","","","","","","","","","","","","","","","","","","","","","","","","","","","","","","","","","","","","","","",""
"731","<p style=""color:white; font-size: 35px;"">低能</p>","i","categorize-html","179","216568","0.0-6.0-0.0-8.0-1.35","3","3","4","3","3","3","3","2","4","3","4","4","2","4","4","4","4","4","4","4","2","4","2","2","2","2","1","2","2","0","1","0","0","1","1","1","1","0","0","0","0","1","0","1","4","2","5","1","2","3","2","4","4","4","2","766325798146936833","崔","453","","","","","","","","","","","","","","","","","","","true","4","4","ability","731","negative","低能","","","","","","","","","","","","","","","","",""
"null","","null","html-keyboard-response","180","216824","0.0-6.0-0.0-8.0-0.36","3","3","4","3","3","3","3","2","4","3","4","4","2","4","4","4","4","4","4","4","2","4","2","2","2","2","1","2","2","0","1","0","0","1","1","1","1","0","0","0","0","1","0","1","4","2","5","1","2","3","2","4","4","4","2","766325798146936833","崔","453","","","","","","","","","","","","","","","","","","","","","","","","","","","","","","","","","","","","","","","","","",""
"579","<p style=""color:rgb(150, 250, 100); font-size: 35px;"">他的</p>","i","categorize-html","181","217407","0.0-6.0-0.0-8.0-1.36","3","3","4","3","3","3","3","2","4","3","4","4","2","4","4","4","4","4","4","4","2","4","2","2","2","2","1","2","2","0","1","0","0","1","1","1","1","0","0","0","0","1","0","1","4","2","5","1","2","3","2","4","4","4","2","766325798146936833","崔","453","","","","","","","","","","","","","","","","","","","true","4","4","ability","579","other","他的","","","","","","","","","","","","","","","","",""
"null","","null","html-keyboard-response","182","217660","0.0-6.0-0.0-8.0-0.37","3","3","4","3","3","3","3","2","4","3","4","4","2","4","4","4","4","4","4","4","2","4","2","2","2","2","1","2","2","0","1","0","0","1","1","1","1","0","0","0","0","1","0","1","4","2","5","1","2","3","2","4","4","4","2","766325798146936833","崔","453","","","","","","","","","","","","","","","","","","","","","","","","","","","","","","","","","","","","","","","","","",""
"730","<p style=""color:white; font-size: 35px;"">愚钝</p>","i","categorize-html","183","218395","0.0-6.0-0.0-8.0-1.37","3","3","4","3","3","3","3","2","4","3","4","4","2","4","4","4","4","4","4","4","2","4","2","2","2","2","1","2","2","0","1","0","0","1","1","1","1","0","0","0","0","1","0","1","4","2","5","1","2","3","2","4","4","4","2","766325798146936833","崔","453","","","","","","","","","","","","","","","","","","","true","4","4","ability","730","negative","愚钝","","","","","","","","","","","","","","","","",""
"null","","null","html-keyboard-response","184","218647","0.0-6.0-0.0-8.0-0.38","3","3","4","3","3","3","3","2","4","3","4","4","2","4","4","4","4","4","4","4","2","4","2","2","2","2","1","2","2","0","1","0","0","1","1","1","1","0","0","0","0","1","0","1","4","2","5","1","2","3","2","4","4","4","2","766325798146936833","崔","453","","","","","","","","","","","","","","","","","","","","","","","","","","","","","","","","","","","","","","","","","",""
"795","<p style=""color:rgb(150, 250, 100); font-size: 35px;"">我的</p>","e","categorize-html","185","219448","0.0-6.0-0.0-8.0-1.38","3","3","4","3","3","3","3","2","4","3","4","4","2","4","4","4","4","4","4","4","2","4","2","2","2","2","1","2","2","0","1","0","0","1","1","1","1","0","0","0","0","1","0","1","4","2","5","1","2","3","2","4","4","4","2","766325798146936833","崔","453","","","","","","","","","","","","","","","","","","","true","4","4","ability","795","self","我的","","","","","","","","","","","","","","","","",""
"null","","null","html-keyboard-response","186","219700","0.0-6.0-0.0-8.0-0.39","3","3","4","3","3","3","3","2","4","3","4","4","2","4","4","4","4","4","4","4","2","4","2","2","2","2","1","2","2","0","1","0","0","1","1","1","1","0","0","0","0","1","0","1","4","2","5","1","2","3","2","4","4","4","2","766325798146936833","崔","453","","","","","","","","","","","","","","","","","","","","","","","","","","","","","","","","","","","","","","","","","",""
"673","<p style=""color:white; font-size: 35px;"">精干</p>","e","categorize-html","187","220377","0.0-6.0-0.0-8.0-1.39","3","3","4","3","3","3","3","2","4","3","4","4","2","4","4","4","4","4","4","4","2","4","2","2","2","2","1","2","2","0","1","0","0","1","1","1","1","0","0","0","0","1","0","1","4","2","5","1","2","3","2","4","4","4","2","766325798146936833","崔","453","","","","","","","","","","","","","","","","","","","true","4","4","ability","673","positive","精干","","","","","","","","","","","","","","","","",""
"null","","null","html-keyboard-response","188","220644","0.0-6.0-0.0-8.0-0.40","3","3","4","3","3","3","3","2","4","3","4","4","2","4","4","4","4","4","4","4","2","4","2","2","2","2","1","2","2","0","1","0","0","1","1","1","1","0","0","0","0","1","0","1","4","2","5","1","2","3","2","4","4","4","2","766325798146936833","崔","453","","","","","","","","","","","","","","","","","","","","","","","","","","","","","","","","","","","","","","","","","",""
"674","<p style=""color:rgb(150, 250, 100); font-size: 35px;"">本人</p>","e","categorize-html","189","221325","0.0-6.0-0.0-8.0-1.40","3","3","4","3","3","3","3","2","4","3","4","4","2","4","4","4","4","4","4","4","2","4","2","2","2","2","1","2","2","0","1","0","0","1","1","1","1","0","0","0","0","1","0","1","4","2","5","1","2","3","2","4","4","4","2","766325798146936833","崔","453","","","","","","","","","","","","","","","","","","","true","4","4","ability","674","self","本人","","","","","","","","","","","","","","","","",""
"null","","null","html-keyboard-response","190","221578","0.0-6.0-0.0-8.0-0.41","3","3","4","3","3","3","3","2","4","3","4","4","2","4","4","4","4","4","4","4","2","4","2","2","2","2","1","2","2","0","1","0","0","1","1","1","1","0","0","0","0","1","0","1","4","2","5","1","2","3","2","4","4","4","2","766325798146936833","崔","453","","","","","","","","","","","","","","","","","","","","","","","","","","","","","","","","","","","","","","","","","",""
"751","<p style=""color:white; font-size: 35px;"">拙笨</p>","i","categorize-html","191","222335","0.0-6.0-0.0-8.0-1.41","3","3","4","3","3","3","3","2","4","3","4","4","2","4","4","4","4","4","4","4","2","4","2","2","2","2","1","2","2","0","1","0","0","1","1","1","1","0","0","0","0","1","0","1","4","2","5","1","2","3","2","4","4","4","2","766325798146936833","崔","453","","","","","","","","","","","","","","","","","","","true","4","4","ability","751","negative","拙笨","","","","","","","","","","","","","","","","",""
"null","","null","html-keyboard-response","192","222588","0.0-6.0-0.0-8.0-0.42","3","3","4","3","3","3","3","2","4","3","4","4","2","4","4","4","4","4","4","4","2","4","2","2","2","2","1","2","2","0","1","0","0","1","1","1","1","0","0","0","0","1","0","1","4","2","5","1","2","3","2","4","4","4","2","766325798146936833","崔","453","","","","","","","","","","","","","","","","","","","","","","","","","","","","","","","","","","","","","","","","","",""
