"rt","stimulus","response","trial_type","trial_index","time_elapsed","internal_node_id","ses_1","ses_2","ses_3","ses_4","ses_5","ses_6","ses_7","ses_8","ses_9","ses_10","coreself_1","coreself_2","coreself_3","coreself_4","coreself_5","coreself_6","coreself_7","coreself_8","coreself_9","coreself_10","SGPS_1","SGPS_2","SGPS_3","SGPS_4","SGPS_5","SGPS_6","SGPS_7","SGPS_8","SGPS_9","NPI1","NPI2","NPI3","NPI4","NPI5","NPI6","NPI7","NPI8","NPI9","NPI10","NPI11","NPI12","NPI13","NPI14","NPI15","hsns_1","hsns_2","hsns_3","hsns_4","hsns_5","hsns_6","hsns_7","hsns_8","hsns_9","hsns_10","subj_idx","friend_name","ParticipantID","value","success","user_agent","responses","item_order","radio_event_ids","radio_event_times","key_event_times","mouse_event_times","straightlining","zigzagging","honeypot","timeout","failed_images","failed_audio","failed_video","version_attrib2","version_target2","correct","IAT","screen_id","task_id","RT","condition","word","varname","summary","version_attrib","version_target","time_stamp","view_history","response_type","key_press","avg_frame_time","center_x","center_y","correct_response","identity","Image","question_order"
"22330","
   <p><div style = ""color: white;font-size:25px;"">您好，欢迎参加本次实验。</div> </p>
   <p><div style = ""color: white;font-size:25px;"">为充分保障您的权利，请确保您已经知晓并同意《参与实验同意书》以及《数据公开知情同意书》。</div></p>
   <p><div style = ""color: white;font-size:25px;"">如果您未见过上述内容，请咨询实验员。</div></p>
   <p><div style = ""color: white;font-size:25px;"">如果您选择继续实验，则表示您已经清楚两份知情同意书的内容并同意。</div></p>
   <p><div style = ""color: red;font-size:30px;"">请确保您记得day0的实验编号，您将在本次实验输入该编号，若您忘记，请咨询实验员后作答。</div></p>
   <p> <div style = ""color: green;font-size:25px;""><按空格键至下页></div> </p>
   "," ","html-keyboard-response","0","22333","0.0-0.0","4","3","4","4","3","4","4","4","4","4","5","5","5","4","5","4","5","4","5","5","1","2","1","2","1","2","1","1","1","0","1","0","0","1","0","0","1","0","0","1","0","1","0","0","5","1","3","1","1","2","4","3","3","1","673561434503774208","王","695","","","","","","","","","","","","","","","","","","","","","","","","","","","","","","","","","","","","","","","",""
"","","","call-function","1","22339","0.0-1.0-0.0","4","3","4","4","3","4","4","4","4","4","5","5","5","4","5","4","5","4","5","5","1","2","1","2","1","2","1","1","1","0","1","0","0","1","0","0","1","0","0","1","0","1","0","0","5","1","3","1","1","2","4","3","3","1","673561434503774208","王","695","","","","","","","","","","","","","","","","","","","","","","","","","","","","","","","","","","","","","","","",""
"37673","","{""friend_name"":""王"",""ParticipantID"":""695""}","survey-html-form","2","60013","0.0-1.0-1.0","4","3","4","4","3","4","4","4","4","4","5","5","5","4","5","4","5","4","5","5","1","2","1","2","1","2","1","1","1","0","1","0","0","1","0","0","1","0","0","1","0","1","0","0","5","1","3","1","1","2","4","3","3","1","673561434503774208","王","695","","","","","","","","","","","","","","","","","","","","","","","","","","","","","","","","","","","","","","","",""
"","","","fullscreen","3","97295","0.0-2.0","4","3","4","4","3","4","4","4","4","4","5","5","5","4","5","4","5","4","5","5","1","2","1","2","1","2","1","1","1","0","1","0","0","1","0","0","1","0","0","1","0","1","0","0","5","1","3","1","1","2","4","3","3","1","673561434503774208","王","695","","true","{}","","","","","","","","","","","","","","","","","","","","","","","","","","","","","","","","","","","","",""
"36852.799999952316","","{""Q01"":""4"",""Q02"":""3"",""Q03"":""4"",""Q04"":""4"",""Q05"":""3"",""Q06"":""4"",""Q07"":""4"",""Q08"":""4"",""Q09"":""4"",""Q10"":""4""}","survey-template","4","134151","0.0-3.0","4","3","4","4","3","4","4","4","4","4","5","5","5","4","5","4","5","4","5","5","1","2","1","2","1","2","1","1","1","0","1","0","0","1","0","0","1","0","0","1","0","1","0","0","5","1","3","1","1","2","4","3","3","1","673561434503774208","王","695","","","","{""Q01"":""4"",""Q02"":""3"",""Q03"":""4"",""Q04"":""4"",""Q05"":""3"",""Q06"":""4"",""Q07"":""4"",""Q08"":""4"",""Q09"":""4"",""Q10"":""4""}","[0,1,2,3,4,5,6,7,8,9]","[""Q01"",""Q02"",""Q03"",""Q04"",""Q05"",""Q06"",""Q07"",""Q08"",""Q09"",""Q10""]","[9564,12019.899999856949,14876.099999904633,19507.799999952316,23643.89999985695,25635.799999952316,28315.299999952316,32163.699999809265,33683.59999990463,35483.799999952316]","[]","[9564,12019.899999856949,14876.099999904633,19507.799999952316,23643.89999985695,25635.799999952316,28315.299999952316,32163.699999809265,33683.59999990463,35483.799999952316,36851.39999985695]","0.4","0.3333333333333333","0","","","","","","","","","","","","","","","","","","","","","","","","","","","",""
"34640.200000047684","","{""Q01"":""5"",""Q02"":""5"",""Q03"":""5"",""Q04"":""4"",""Q05"":""5"",""Q06"":""4"",""Q07"":""5"",""Q08"":""4"",""Q09"":""5"",""Q10"":""5""}","survey-template","5","168798","0.0-4.0","4","3","4","4","3","4","4","4","4","4","5","5","5","4","5","4","5","4","5","5","1","2","1","2","1","2","1","1","1","0","1","0","0","1","0","0","1","0","0","1","0","1","0","0","5","1","3","1","1","2","4","3","3","1","673561434503774208","王","695","","","","{""Q01"":""5"",""Q02"":""5"",""Q03"":""5"",""Q04"":""4"",""Q05"":""5"",""Q06"":""4"",""Q07"":""5"",""Q08"":""4"",""Q09"":""5"",""Q10"":""5""}","[0,1,2,3,4,5,6,7,8,9]","[""Q01"",""Q02"",""Q03"",""Q04"",""Q05"",""Q06"",""Q07"",""Q08"",""Q09"",""Q10""]","[7510.799999952316,8839,10534.900000095367,13446.799999952316,16086.799999952316,20798.700000047684,22598.700000047684,26710.700000047684,29950.700000047684,33318.700000047684]","[]","[7510.799999952316,8839,10534.900000095367,13446.799999952316,16086.799999952316,20798.700000047684,22598.700000047684,26710.700000047684,29950.700000047684,33318.700000047684,34639]","0.5","0.3333333333333333","0","","","","","","","","","","","","","","","","","","","","","","","","","","","",""
"","","","preload","6","169238","0.0-5.0","4","3","4","4","3","4","4","4","4","4","5","5","5","4","5","4","5","4","5","5","1","2","1","2","1","2","1","1","1","0","1","0","0","1","0","0","1","0","0","1","0","1","0","0","5","1","3","1","1","2","4","3","3","1","673561434503774208","王","695","","true","","","","","","","","","","","false","[]","[]","[]","","","","","","","","","","","","","","","","","","","","","","","",""
"27012","
    <h3>词语分类任务</h3>
    <p>在接下来的任务中，你需要对一系列词语进行分类。<p/>
    请先熟悉这些词语，这有利于你完成接下来的任务。</p>
    <table align=""center"" border=1 cellpadding=3 cellspacing=0>
    <tr> <th>类别</th> <th>词语</th> </tr>
    <tr> <td>&emsp;积极&emsp;</td> <td>&emsp;高尚、诚信、善良、君子、廉正、正直&emsp;</td> </tr>
    <tr> <td>&emsp;消极&emsp;</td> <td>&emsp;缺德、卑鄙、不孝、不仁、小人、黑心&emsp;</td> </tr>
    <tr> <td>&emsp;自我&emsp;</td> <td>&emsp;我、我的、自己、自己的、本人、本人的&emsp;</td> </tr>
    <tr> <td>&emsp;他人&emsp;</td> <td>&emsp;他、他的、别人、别人的、他人、他人的&emsp;</td> </tr>
    </table><br/>","0","html-button-response","7","196253","0.0-6.0-1.0-0.0","4","3","4","4","3","4","4","4","4","4","5","5","5","4","5","4","5","4","5","5","1","2","1","2","1","2","1","1","1","0","1","0","0","1","0","0","1","0","0","1","0","1","0","0","5","1","3","1","1","2","4","3","3","1","673561434503774208","王","695","","","","","","","","","","","","","","","","","1","1","","","","","","","","","","","","","","","","","","","","","",""
"21559","
    <div class=""tag-bottom""><p>
    —— 任务1：对“自我”词和“他人”词分类 ——<p/>
    不同词语会出现在屏幕中央，类别标签将始终显示在屏幕上方<p/>   
    <span style=""color:#FFD866""><b>请根据上方标签的提示，尽可能正确并且快速地做出按键反应</b></span><p/>
    当按键错误时屏幕中会出现<span style=""color:red""> X </span>，需要按另一个键纠正才能继续<br/><p/>
    请把双手食指分别放在键盘的“E”键和“I”键上<p/>
    按<空格键>开始
    </p></div>"," ","html-keyboard-response","8","217815","0.0-6.0-1.0-1.0","4","3","4","4","3","4","4","4","4","4","5","5","5","4","5","4","5","4","5","5","1","2","1","2","1","2","1","1","1","0","1","0","0","1","0","0","1","0","0","1","0","1","0","0","5","1","3","1","1","2","4","3","3","1","673561434503774208","王","695","","","","","","","","","","","","","","","","","","","","","","","","","","","","","","","","","","","","","","","",""
"null","","null","html-keyboard-response","9","218068","0.0-6.0-1.0-2.0-0.0","4","3","4","4","3","4","4","4","4","4","5","5","5","4","5","4","5","4","5","5","1","2","1","2","1","2","1","1","1","0","1","0","0","1","0","0","1","0","0","1","0","1","0","0","5","1","3","1","1","2","4","3","3","1","673561434503774208","王","695","","","","","","","","","","","","","","","","","","","","","","","","","","","","","","","","","","","","","","","",""
"1188","<p style=""color:rgb(150, 250, 100); font-size: 35px;"">本人的</p>","e","categorize-html","10","219265","0.0-6.0-1.0-2.0-1.0","4","3","4","4","3","4","4","4","4","4","5","5","5","4","5","4","5","4","5","5","1","2","1","2","1","2","1","1","1","0","1","0","0","1","0","0","1","0","0","1","0","1","0","0","5","1","3","1","1","2","4","3","3","1","673561434503774208","王","695","","","","","","","","","","","","","","","","","","","true","11","1","moral","1188","self","本人的","","","","","","","","","","","","","","",""
"null","","null","html-keyboard-response","11","219518","0.0-6.0-1.0-2.0-0.1","4","3","4","4","3","4","4","4","4","4","5","5","5","4","5","4","5","4","5","5","1","2","1","2","1","2","1","1","1","0","1","0","0","1","0","0","1","0","0","1","0","1","0","0","5","1","3","1","1","2","4","3","3","1","673561434503774208","王","695","","","","","","","","","","","","","","","","","","","","","","","","","","","","","","","","","","","","","","","",""
"886","<p style=""color:rgb(150, 250, 100); font-size: 35px;"">别人</p>","i","categorize-html","12","220409","0.0-6.0-1.0-2.0-1.1","4","3","4","4","3","4","4","4","4","4","5","5","5","4","5","4","5","4","5","5","1","2","1","2","1","2","1","1","1","0","1","0","0","1","0","0","1","0","0","1","0","1","0","0","5","1","3","1","1","2","4","3","3","1","673561434503774208","王","695","","","","","","","","","","","","","","","","","","","true","11","1","moral","886","other","别人","","","","","","","","","","","","","","",""
"null","","null","html-keyboard-response","13","220661","0.0-6.0-1.0-2.0-0.2","4","3","4","4","3","4","4","4","4","4","5","5","5","4","5","4","5","4","5","5","1","2","1","2","1","2","1","1","1","0","1","0","0","1","0","0","1","0","0","1","0","1","0","0","5","1","3","1","1","2","4","3","3","1","673561434503774208","王","695","","","","","","","","","","","","","","","","","","","","","","","","","","","","","","","","","","","","","","","",""
"599","<p style=""color:rgb(150, 250, 100); font-size: 35px;"">自己的</p>","e","categorize-html","14","221265","0.0-6.0-1.0-2.0-1.2","4","3","4","4","3","4","4","4","4","4","5","5","5","4","5","4","5","4","5","5","1","2","1","2","1","2","1","1","1","0","1","0","0","1","0","0","1","0","0","1","0","1","0","0","5","1","3","1","1","2","4","3","3","1","673561434503774208","王","695","","","","","","","","","","","","","","","","","","","true","11","1","moral","599","self","自己的","","","","","","","","","","","","","","",""
"null","","null","html-keyboard-response","15","221517","0.0-6.0-1.0-2.0-0.3","4","3","4","4","3","4","4","4","4","4","5","5","5","4","5","4","5","4","5","5","1","2","1","2","1","2","1","1","1","0","1","0","0","1","0","0","1","0","0","1","0","1","0","0","5","1","3","1","1","2","4","3","3","1","673561434503774208","王","695","","","","","","","","","","","","","","","","","","","","","","","","","","","","","","","","","","","","","","","",""
"958","<p style=""color:rgb(150, 250, 100); font-size: 35px;"">别人的</p>","i","categorize-html","16","222479","0.0-6.0-1.0-2.0-1.3","4","3","4","4","3","4","4","4","4","4","5","5","5","4","5","4","5","4","5","5","1","2","1","2","1","2","1","1","1","0","1","0","0","1","0","0","1","0","0","1","0","1","0","0","5","1","3","1","1","2","4","3","3","1","673561434503774208","王","695","","","","","","","","","","","","","","","","","","","true","11","1","moral","958","other","别人的","","","","","","","","","","","","","","",""
"null","","null","html-keyboard-response","17","222731","0.0-6.0-1.0-2.0-0.4","4","3","4","4","3","4","4","4","4","4","5","5","5","4","5","4","5","4","5","5","1","2","1","2","1","2","1","1","1","0","1","0","0","1","0","0","1","0","0","1","0","1","0","0","5","1","3","1","1","2","4","3","3","1","673561434503774208","王","695","","","","","","","","","","","","","","","","","","","","","","","","","","","","","","","","","","","","","","","",""
"632","<p style=""color:rgb(150, 250, 100); font-size: 35px;"">本人</p>","e","categorize-html","18","223365","0.0-6.0-1.0-2.0-1.4","4","3","4","4","3","4","4","4","4","4","5","5","5","4","5","4","5","4","5","5","1","2","1","2","1","2","1","1","1","0","1","0","0","1","0","0","1","0","0","1","0","1","0","0","5","1","3","1","1","2","4","3","3","1","673561434503774208","王","695","","","","","","","","","","","","","","","","","","","true","11","1","moral","632","self","本人","","","","","","","","","","","","","","",""
"null","","null","html-keyboard-response","19","223617","0.0-6.0-1.0-2.0-0.5","4","3","4","4","3","4","4","4","4","4","5","5","5","4","5","4","5","4","5","5","1","2","1","2","1","2","1","1","1","0","1","0","0","1","0","0","1","0","0","1","0","1","0","0","5","1","3","1","1","2","4","3","3","1","673561434503774208","王","695","","","","","","","","","","","","","","","","","","","","","","","","","","","","","","","","","","","","","","","",""
"787","<p style=""color:rgb(150, 250, 100); font-size: 35px;"">他人</p>","i","categorize-html","20","224409","0.0-6.0-1.0-2.0-1.5","4","3","4","4","3","4","4","4","4","4","5","5","5","4","5","4","5","4","5","5","1","2","1","2","1","2","1","1","1","0","1","0","0","1","0","0","1","0","0","1","0","1","0","0","5","1","3","1","1","2","4","3","3","1","673561434503774208","王","695","","","","","","","","","","","","","","","","","","","true","11","1","moral","787","other","他人","","","","","","","","","","","","","","",""
"null","","null","html-keyboard-response","21","224662","0.0-6.0-1.0-2.0-0.6","4","3","4","4","3","4","4","4","4","4","5","5","5","4","5","4","5","4","5","5","1","2","1","2","1","2","1","1","1","0","1","0","0","1","0","0","1","0","0","1","0","1","0","0","5","1","3","1","1","2","4","3","3","1","673561434503774208","王","695","","","","","","","","","","","","","","","","","","","","","","","","","","","","","","","","","","","","","","","",""
"614","<p style=""color:rgb(150, 250, 100); font-size: 35px;"">我的</p>","e","categorize-html","22","225280","0.0-6.0-1.0-2.0-1.6","4","3","4","4","3","4","4","4","4","4","5","5","5","4","5","4","5","4","5","5","1","2","1","2","1","2","1","1","1","0","1","0","0","1","0","0","1","0","0","1","0","1","0","0","5","1","3","1","1","2","4","3","3","1","673561434503774208","王","695","","","","","","","","","","","","","","","","","","","true","11","1","moral","614","self","我的","","","","","","","","","","","","","","",""
"null","","null","html-keyboard-response","23","225533","0.0-6.0-1.0-2.0-0.7","4","3","4","4","3","4","4","4","4","4","5","5","5","4","5","4","5","4","5","5","1","2","1","2","1","2","1","1","1","0","1","0","0","1","0","0","1","0","0","1","0","1","0","0","5","1","3","1","1","2","4","3","3","1","673561434503774208","王","695","","","","","","","","","","","","","","","","","","","","","","","","","","","","","","","","","","","","","","","",""
"639","<p style=""color:rgb(150, 250, 100); font-size: 35px;"">他人的</p>","i","categorize-html","24","226177","0.0-6.0-1.0-2.0-1.7","4","3","4","4","3","4","4","4","4","4","5","5","5","4","5","4","5","4","5","5","1","2","1","2","1","2","1","1","1","0","1","0","0","1","0","0","1","0","0","1","0","1","0","0","5","1","3","1","1","2","4","3","3","1","673561434503774208","王","695","","","","","","","","","","","","","","","","","","","true","11","1","moral","639","other","他人的","","","","","","","","","","","","","","",""
"null","","null","html-keyboard-response","25","226428","0.0-6.0-1.0-2.0-0.8","4","3","4","4","3","4","4","4","4","4","5","5","5","4","5","4","5","4","5","5","1","2","1","2","1","2","1","1","1","0","1","0","0","1","0","0","1","0","0","1","0","1","0","0","5","1","3","1","1","2","4","3","3","1","673561434503774208","王","695","","","","","","","","","","","","","","","","","","","","","","","","","","","","","","","","","","","","","","","",""
"551","<p style=""color:rgb(150, 250, 100); font-size: 35px;"">我</p>","e","categorize-html","26","226985","0.0-6.0-1.0-2.0-1.8","4","3","4","4","3","4","4","4","4","4","5","5","5","4","5","4","5","4","5","5","1","2","1","2","1","2","1","1","1","0","1","0","0","1","0","0","1","0","0","1","0","1","0","0","5","1","3","1","1","2","4","3","3","1","673561434503774208","王","695","","","","","","","","","","","","","","","","","","","true","11","1","moral","551","self","我","","","","","","","","","","","","","","",""
"null","","null","html-keyboard-response","27","227237","0.0-6.0-1.0-2.0-0.9","4","3","4","4","3","4","4","4","4","4","5","5","5","4","5","4","5","4","5","5","1","2","1","2","1","2","1","1","1","0","1","0","0","1","0","0","1","0","0","1","0","1","0","0","5","1","3","1","1","2","4","3","3","1","673561434503774208","王","695","","","","","","","","","","","","","","","","","","","","","","","","","","","","","","","","","","","","","","","",""
"888","<p style=""color:rgb(150, 250, 100); font-size: 35px;"">他的</p>","i","categorize-html","28","228129","0.0-6.0-1.0-2.0-1.9","4","3","4","4","3","4","4","4","4","4","5","5","5","4","5","4","5","4","5","5","1","2","1","2","1","2","1","1","1","0","1","0","0","1","0","0","1","0","0","1","0","1","0","0","5","1","3","1","1","2","4","3","3","1","673561434503774208","王","695","","","","","","","","","","","","","","","","","","","true","11","1","moral","888","other","他的","","","","","","","","","","","","","","",""
"null","","null","html-keyboard-response","29","228381","0.0-6.0-1.0-2.0-0.10","4","3","4","4","3","4","4","4","4","4","5","5","5","4","5","4","5","4","5","5","1","2","1","2","1","2","1","1","1","0","1","0","0","1","0","0","1","0","0","1","0","1","0","0","5","1","3","1","1","2","4","3","3","1","673561434503774208","王","695","","","","","","","","","","","","","","","","","","","","","","","","","","","","","","","","","","","","","","","",""
"702","<p style=""color:rgb(150, 250, 100); font-size: 35px;"">自己</p>","e","categorize-html","30","229089","0.0-6.0-1.0-2.0-1.10","4","3","4","4","3","4","4","4","4","4","5","5","5","4","5","4","5","4","5","5","1","2","1","2","1","2","1","1","1","0","1","0","0","1","0","0","1","0","0","1","0","1","0","0","5","1","3","1","1","2","4","3","3","1","673561434503774208","王","695","","","","","","","","","","","","","","","","","","","true","11","1","moral","702","self","自己","","","","","","","","","","","","","","",""
"null","","null","html-keyboard-response","31","229341","0.0-6.0-1.0-2.0-0.11","4","3","4","4","3","4","4","4","4","4","5","5","5","4","5","4","5","4","5","5","1","2","1","2","1","2","1","1","1","0","1","0","0","1","0","0","1","0","0","1","0","1","0","0","5","1","3","1","1","2","4","3","3","1","673561434503774208","王","695","","","","","","","","","","","","","","","","","","","","","","","","","","","","","","","","","","","","","","","",""
"583","<p style=""color:rgb(150, 250, 100); font-size: 35px;"">他</p>","i","categorize-html","32","229928","0.0-6.0-1.0-2.0-1.11","4","3","4","4","3","4","4","4","4","4","5","5","5","4","5","4","5","4","5","5","1","2","1","2","1","2","1","1","1","0","1","0","0","1","0","0","1","0","0","1","0","1","0","0","5","1","3","1","1","2","4","3","3","1","673561434503774208","王","695","","","","","","","","","","","","","","","","","","","true","11","1","moral","583","other","他","","","","","","","","","","","","","","",""
"4875","
    <div class=""tag-bottom""><p>
    —— 任务2：对“积极”词和“消极”词分类 ——<p/>   
    <span style=""color:#78DCE8""><b>注意上方，类别标签和需要分类的词语都已经改变</b></span><p/>
    <span style=""color:#FFD866""><b>请根据上方标签的提示，尽可能正确并且快速地做出按键反应</b></span><p/>
    当按键错误时屏幕中会出现<span style=""color:red""> X </span>，需要按另一个键纠正才能继续<br/><p/>
    请把双手食指分别放在键盘的“E”键和“I”键上<p/>
    按<空格键>开始
    </p></div>"," ","html-keyboard-response","33","234805","0.0-6.0-1.0-3.0","4","3","4","4","3","4","4","4","4","4","5","5","5","4","5","4","5","4","5","5","1","2","1","2","1","2","1","1","1","0","1","0","0","1","0","0","1","0","0","1","0","1","0","0","5","1","3","1","1","2","4","3","3","1","673561434503774208","王","695","","","","","","","","","","","","","","","","","","","","","","","","","","","","","","","","","","","","","","","",""
"null","","null","html-keyboard-response","34","235057","0.0-6.0-1.0-4.0-0.0","4","3","4","4","3","4","4","4","4","4","5","5","5","4","5","4","5","4","5","5","1","2","1","2","1","2","1","1","1","0","1","0","0","1","0","0","1","0","0","1","0","1","0","0","5","1","3","1","1","2","4","3","3","1","673561434503774208","王","695","","","","","","","","","","","","","","","","","","","","","","","","","","","","","","","","","","","","","","","",""
"689","<p style=""color:white; font-size: 35px;"">不仁</p>","i","categorize-html","35","235749","0.0-6.0-1.0-4.0-1.0","4","3","4","4","3","4","4","4","4","4","5","5","5","4","5","4","5","4","5","5","1","2","1","2","1","2","1","1","1","0","1","0","0","1","0","0","1","0","0","1","0","1","0","0","5","1","3","1","1","2","4","3","3","1","673561434503774208","王","695","","","","","","","","","","","","","","","","","","","true","12","2","moral","689","negative","不仁","","","","","","","","","","","","","","",""
"null","","null","html-keyboard-response","36","236008","0.0-6.0-1.0-4.0-0.1","4","3","4","4","3","4","4","4","4","4","5","5","5","4","5","4","5","4","5","5","1","2","1","2","1","2","1","1","1","0","1","0","0","1","0","0","1","0","0","1","0","1","0","0","5","1","3","1","1","2","4","3","3","1","673561434503774208","王","695","","","","","","","","","","","","","","","","","","","","","","","","","","","","","","","","","","","","","","","",""
"508","<p style=""color:white; font-size: 35px;"">高尚</p>","e","categorize-html","37","236521","0.0-6.0-1.0-4.0-1.1","4","3","4","4","3","4","4","4","4","4","5","5","5","4","5","4","5","4","5","5","1","2","1","2","1","2","1","1","1","0","1","0","0","1","0","0","1","0","0","1","0","1","0","0","5","1","3","1","1","2","4","3","3","1","673561434503774208","王","695","","","","","","","","","","","","","","","","","","","true","12","2","moral","508","positive","高尚","","","","","","","","","","","","","","",""
"null","","null","html-keyboard-response","38","236773","0.0-6.0-1.0-4.0-0.2","4","3","4","4","3","4","4","4","4","4","5","5","5","4","5","4","5","4","5","5","1","2","1","2","1","2","1","1","1","0","1","0","0","1","0","0","1","0","0","1","0","1","0","0","5","1","3","1","1","2","4","3","3","1","673561434503774208","王","695","","","","","","","","","","","","","","","","","","","","","","","","","","","","","","","","","","","","","","","",""
"579","<p style=""color:white; font-size: 35px;"">正直</p>","e","categorize-html","39","237356","0.0-6.0-1.0-4.0-1.2","4","3","4","4","3","4","4","4","4","4","5","5","5","4","5","4","5","4","5","5","1","2","1","2","1","2","1","1","1","0","1","0","0","1","0","0","1","0","0","1","0","1","0","0","5","1","3","1","1","2","4","3","3","1","673561434503774208","王","695","","","","","","","","","","","","","","","","","","","true","12","2","moral","579","positive","正直","","","","","","","","","","","","","","",""
"null","","null","html-keyboard-response","40","237608","0.0-6.0-1.0-4.0-0.3","4","3","4","4","3","4","4","4","4","4","5","5","5","4","5","4","5","4","5","5","1","2","1","2","1","2","1","1","1","0","1","0","0","1","0","0","1","0","0","1","0","1","0","0","5","1","3","1","1","2","4","3","3","1","673561434503774208","王","695","","","","","","","","","","","","","","","","","","","","","","","","","","","","","","","","","","","","","","","",""
"580","<p style=""color:white; font-size: 35px;"">廉正</p>","e","categorize-html","41","238193","0.0-6.0-1.0-4.0-1.3","4","3","4","4","3","4","4","4","4","4","5","5","5","4","5","4","5","4","5","5","1","2","1","2","1","2","1","1","1","0","1","0","0","1","0","0","1","0","0","1","0","1","0","0","5","1","3","1","1","2","4","3","3","1","673561434503774208","王","695","","","","","","","","","","","","","","","","","","","true","12","2","moral","580","positive","廉正","","","","","","","","","","","","","","",""
"null","","null","html-keyboard-response","42","238445","0.0-6.0-1.0-4.0-0.4","4","3","4","4","3","4","4","4","4","4","5","5","5","4","5","4","5","4","5","5","1","2","1","2","1","2","1","1","1","0","1","0","0","1","0","0","1","0","0","1","0","1","0","0","5","1","3","1","1","2","4","3","3","1","673561434503774208","王","695","","","","","","","","","","","","","","","","","","","","","","","","","","","","","","","","","","","","","","","",""
"550","<p style=""color:white; font-size: 35px;"">善良</p>","e","categorize-html","43","238999","0.0-6.0-1.0-4.0-1.4","4","3","4","4","3","4","4","4","4","4","5","5","5","4","5","4","5","4","5","5","1","2","1","2","1","2","1","1","1","0","1","0","0","1","0","0","1","0","0","1","0","1","0","0","5","1","3","1","1","2","4","3","3","1","673561434503774208","王","695","","","","","","","","","","","","","","","","","","","true","12","2","moral","550","positive","善良","","","","","","","","","","","","","","",""
"null","","null","html-keyboard-response","44","239251","0.0-6.0-1.0-4.0-0.5","4","3","4","4","3","4","4","4","4","4","5","5","5","4","5","4","5","4","5","5","1","2","1","2","1","2","1","1","1","0","1","0","0","1","0","0","1","0","0","1","0","1","0","0","5","1","3","1","1","2","4","3","3","1","673561434503774208","王","695","","","","","","","","","","","","","","","","","","","","","","","","","","","","","","","","","","","","","","","",""
"553","<p style=""color:white; font-size: 35px;"">诚信</p>","e","categorize-html","45","239809","0.0-6.0-1.0-4.0-1.5","4","3","4","4","3","4","4","4","4","4","5","5","5","4","5","4","5","4","5","5","1","2","1","2","1","2","1","1","1","0","1","0","0","1","0","0","1","0","0","1","0","1","0","0","5","1","3","1","1","2","4","3","3","1","673561434503774208","王","695","","","","","","","","","","","","","","","","","","","true","12","2","moral","553","positive","诚信","","","","","","","","","","","","","","",""
"null","","null","html-keyboard-response","46","240060","0.0-6.0-1.0-4.0-0.6","4","3","4","4","3","4","4","4","4","4","5","5","5","4","5","4","5","4","5","5","1","2","1","2","1","2","1","1","1","0","1","0","0","1","0","0","1","0","0","1","0","1","0","0","5","1","3","1","1","2","4","3","3","1","673561434503774208","王","695","","","","","","","","","","","","","","","","","","","","","","","","","","","","","","","","","","","","","","","",""
"752","<p style=""color:white; font-size: 35px;"">缺德</p>","i","categorize-html","47","240817","0.0-6.0-1.0-4.0-1.6","4","3","4","4","3","4","4","4","4","4","5","5","5","4","5","4","5","4","5","5","1","2","1","2","1","2","1","1","1","0","1","0","0","1","0","0","1","0","0","1","0","1","0","0","5","1","3","1","1","2","4","3","3","1","673561434503774208","王","695","","","","","","","","","","","","","","","","","","","true","12","2","moral","752","negative","缺德","","","","","","","","","","","","","","",""
"null","","null","html-keyboard-response","48","241069","0.0-6.0-1.0-4.0-0.7","4","3","4","4","3","4","4","4","4","4","5","5","5","4","5","4","5","4","5","5","1","2","1","2","1","2","1","1","1","0","1","0","0","1","0","0","1","0","0","1","0","1","0","0","5","1","3","1","1","2","4","3","3","1","673561434503774208","王","695","","","","","","","","","","","","","","","","","","","","","","","","","","","","","","","","","","","","","","","",""
"511","<p style=""color:white; font-size: 35px;"">黑心</p>","i","categorize-html","49","241584","0.0-6.0-1.0-4.0-1.7","4","3","4","4","3","4","4","4","4","4","5","5","5","4","5","4","5","4","5","5","1","2","1","2","1","2","1","1","1","0","1","0","0","1","0","0","1","0","0","1","0","1","0","0","5","1","3","1","1","2","4","3","3","1","673561434503774208","王","695","","","","","","","","","","","","","","","","","","","true","12","2","moral","511","negative","黑心","","","","","","","","","","","","","","",""
"null","","null","html-keyboard-response","50","241837","0.0-6.0-1.0-4.0-0.8","4","3","4","4","3","4","4","4","4","4","5","5","5","4","5","4","5","4","5","5","1","2","1","2","1","2","1","1","1","0","1","0","0","1","0","0","1","0","0","1","0","1","0","0","5","1","3","1","1","2","4","3","3","1","673561434503774208","王","695","","","","","","","","","","","","","","","","","","","","","","","","","","","","","","","","","","","","","","","",""
"598","<p style=""color:white; font-size: 35px;"">不孝</p>","i","categorize-html","51","242440","0.0-6.0-1.0-4.0-1.8","4","3","4","4","3","4","4","4","4","4","5","5","5","4","5","4","5","4","5","5","1","2","1","2","1","2","1","1","1","0","1","0","0","1","0","0","1","0","0","1","0","1","0","0","5","1","3","1","1","2","4","3","3","1","673561434503774208","王","695","","","","","","","","","","","","","","","","","","","true","12","2","moral","598","negative","不孝","","","","","","","","","","","","","","",""
"null","","null","html-keyboard-response","52","242692","0.0-6.0-1.0-4.0-0.9","4","3","4","4","3","4","4","4","4","4","5","5","5","4","5","4","5","4","5","5","1","2","1","2","1","2","1","1","1","0","1","0","0","1","0","0","1","0","0","1","0","1","0","0","5","1","3","1","1","2","4","3","3","1","673561434503774208","王","695","","","","","","","","","","","","","","","","","","","","","","","","","","","","","","","","","","","","","","","",""
"647","<p style=""color:white; font-size: 35px;"">君子</p>","e","categorize-html","53","243344","0.0-6.0-1.0-4.0-1.9","4","3","4","4","3","4","4","4","4","4","5","5","5","4","5","4","5","4","5","5","1","2","1","2","1","2","1","1","1","0","1","0","0","1","0","0","1","0","0","1","0","1","0","0","5","1","3","1","1","2","4","3","3","1","673561434503774208","王","695","","","","","","","","","","","","","","","","","","","true","12","2","moral","647","positive","君子","","","","","","","","","","","","","","",""
"null","","null","html-keyboard-response","54","243597","0.0-6.0-1.0-4.0-0.10","4","3","4","4","3","4","4","4","4","4","5","5","5","4","5","4","5","4","5","5","1","2","1","2","1","2","1","1","1","0","1","0","0","1","0","0","1","0","0","1","0","1","0","0","5","1","3","1","1","2","4","3","3","1","673561434503774208","王","695","","","","","","","","","","","","","","","","","","","","","","","","","","","","","","","","","","","","","","","",""
"878","<p style=""color:white; font-size: 35px;"">卑鄙</p>","i","categorize-html","55","244478","0.0-6.0-1.0-4.0-1.10","4","3","4","4","3","4","4","4","4","4","5","5","5","4","5","4","5","4","5","5","1","2","1","2","1","2","1","1","1","0","1","0","0","1","0","0","1","0","0","1","0","1","0","0","5","1","3","1","1","2","4","3","3","1","673561434503774208","王","695","","","","","","","","","","","","","","","","","","","true","12","2","moral","878","negative","卑鄙","","","","","","","","","","","","","","",""
"null","","null","html-keyboard-response","56","244730","0.0-6.0-1.0-4.0-0.11","4","3","4","4","3","4","4","4","4","4","5","5","5","4","5","4","5","4","5","5","1","2","1","2","1","2","1","1","1","0","1","0","0","1","0","0","1","0","0","1","0","1","0","0","5","1","3","1","1","2","4","3","3","1","673561434503774208","王","695","","","","","","","","","","","","","","","","","","","","","","","","","","","","","","","","","","","","","","","",""
"690","<p style=""color:white; font-size: 35px;"">小人</p>","i","categorize-html","57","245425","0.0-6.0-1.0-4.0-1.11","4","3","4","4","3","4","4","4","4","4","5","5","5","4","5","4","5","4","5","5","1","2","1","2","1","2","1","1","1","0","1","0","0","1","0","0","1","0","0","1","0","1","0","0","5","1","3","1","1","2","4","3","3","1","673561434503774208","王","695","","","","","","","","","","","","","","","","","","","true","12","2","moral","690","negative","小人","","","","","","","","","","","","","","",""
"5027","
    <div class=""tag-bottom""><p>
    —— 任务3：对“自我/积极”词和“他人/消极”词分类 ——<p/>
    <span style=""color:#78DCE8""><b>注意上方，之前的四类词语将混合在一起交替呈现</b></span><p/>
    <span style=""color:#FFD866""><b>请根据上方标签的提示，尽可能正确并且快速地做出按键反应</b></span><p/>
    当按键错误时屏幕中会出现<span style=""color:red""> X </span>，需要按另一个键纠正才能继续<br/><p/>
    请把双手食指分别放在键盘的“E”键和“I”键上<p/>
    按<空格键>开始
    </p></div>"," ","html-keyboard-response","58","250453","0.0-6.0-1.0-5.0","4","3","4","4","3","4","4","4","4","4","5","5","5","4","5","4","5","4","5","5","1","2","1","2","1","2","1","1","1","0","1","0","0","1","0","0","1","0","0","1","0","1","0","0","5","1","3","1","1","2","4","3","3","1","673561434503774208","王","695","","","","","","","","","","","","","","","","","","","","","","","","","","","","","","","","","","","","","","","",""
"null","","null","html-keyboard-response","59","250705","0.0-6.0-1.0-6.0-0.0","4","3","4","4","3","4","4","4","4","4","5","5","5","4","5","4","5","4","5","5","1","2","1","2","1","2","1","1","1","0","1","0","0","1","0","0","1","0","0","1","0","1","0","0","5","1","3","1","1","2","4","3","3","1","673561434503774208","王","695","","","","","","","","","","","","","","","","","","","","","","","","","","","","","","","","","","","","","","","",""
"785","<p style=""color:rgb(150, 250, 100); font-size: 35px;"">他</p>","i","categorize-html","60","251495","0.0-6.0-1.0-6.0-1.0","4","3","4","4","3","4","4","4","4","4","5","5","5","4","5","4","5","4","5","5","1","2","1","2","1","2","1","1","1","0","1","0","0","1","0","0","1","0","0","1","0","1","0","0","5","1","3","1","1","2","4","3","3","1","673561434503774208","王","695","","","","","","","","","","","","","","","","","","","true","13","3","moral","785","other","他","","","","","","","","","","","","","","",""
"null","","null","html-keyboard-response","61","251747","0.0-6.0-1.0-6.0-0.1","4","3","4","4","3","4","4","4","4","4","5","5","5","4","5","4","5","4","5","5","1","2","1","2","1","2","1","1","1","0","1","0","0","1","0","0","1","0","0","1","0","1","0","0","5","1","3","1","1","2","4","3","3","1","673561434503774208","王","695","","","","","","","","","","","","","","","","","","","","","","","","","","","","","","","","","","","","","","","",""
"664","<p style=""color:white; font-size: 35px;"">正直</p>","e","categorize-html","62","252415","0.0-6.0-1.0-6.0-1.1","4","3","4","4","3","4","4","4","4","4","5","5","5","4","5","4","5","4","5","5","1","2","1","2","1","2","1","1","1","0","1","0","0","1","0","0","1","0","0","1","0","1","0","0","5","1","3","1","1","2","4","3","3","1","673561434503774208","王","695","","","","","","","","","","","","","","","","","","","true","13","3","moral","664","positive","正直","","","","","","","","","","","","","","",""
"null","","null","html-keyboard-response","63","252668","0.0-6.0-1.0-6.0-0.2","4","3","4","4","3","4","4","4","4","4","5","5","5","4","5","4","5","4","5","5","1","2","1","2","1","2","1","1","1","0","1","0","0","1","0","0","1","0","0","1","0","1","0","0","5","1","3","1","1","2","4","3","3","1","673561434503774208","王","695","","","","","","","","","","","","","","","","","","","","","","","","","","","","","","","","","","","","","","","",""
"691","<p style=""color:rgb(150, 250, 100); font-size: 35px;"">自己</p>","e","categorize-html","64","253364","0.0-6.0-1.0-6.0-1.2","4","3","4","4","3","4","4","4","4","4","5","5","5","4","5","4","5","4","5","5","1","2","1","2","1","2","1","1","1","0","1","0","0","1","0","0","1","0","0","1","0","1","0","0","5","1","3","1","1","2","4","3","3","1","673561434503774208","王","695","","","","","","","","","","","","","","","","","","","true","13","3","moral","691","self","自己","","","","","","","","","","","","","","",""
"null","","null","html-keyboard-response","65","253615","0.0-6.0-1.0-6.0-0.3","4","3","4","4","3","4","4","4","4","4","5","5","5","4","5","4","5","4","5","5","1","2","1","2","1","2","1","1","1","0","1","0","0","1","0","0","1","0","0","1","0","1","0","0","5","1","3","1","1","2","4","3","3","1","673561434503774208","王","695","","","","","","","","","","","","","","","","","","","","","","","","","","","","","","","","","","","","","","","",""
"820","<p style=""color:white; font-size: 35px;"">不仁</p>","i","categorize-html","66","254439","0.0-6.0-1.0-6.0-1.3","4","3","4","4","3","4","4","4","4","4","5","5","5","4","5","4","5","4","5","5","1","2","1","2","1","2","1","1","1","0","1","0","0","1","0","0","1","0","0","1","0","1","0","0","5","1","3","1","1","2","4","3","3","1","673561434503774208","王","695","","","","","","","","","","","","","","","","","","","true","13","3","moral","820","negative","不仁","","","","","","","","","","","","","","",""
"null","","null","html-keyboard-response","67","254690","0.0-6.0-1.0-6.0-0.4","4","3","4","4","3","4","4","4","4","4","5","5","5","4","5","4","5","4","5","5","1","2","1","2","1","2","1","1","1","0","1","0","0","1","0","0","1","0","0","1","0","1","0","0","5","1","3","1","1","2","4","3","3","1","673561434503774208","王","695","","","","","","","","","","","","","","","","","","","","","","","","","","","","","","","","","","","","","","","",""
"913","<p style=""color:rgb(150, 250, 100); font-size: 35px;"">他的</p>","i","categorize-html","68","255609","0.0-6.0-1.0-6.0-1.4","4","3","4","4","3","4","4","4","4","4","5","5","5","4","5","4","5","4","5","5","1","2","1","2","1","2","1","1","1","0","1","0","0","1","0","0","1","0","0","1","0","1","0","0","5","1","3","1","1","2","4","3","3","1","673561434503774208","王","695","","","","","","","","","","","","","","","","","","","true","13","3","moral","913","other","他的","","","","","","","","","","","","","","",""
"null","","null","html-keyboard-response","69","255861","0.0-6.0-1.0-6.0-0.5","4","3","4","4","3","4","4","4","4","4","5","5","5","4","5","4","5","4","5","5","1","2","1","2","1","2","1","1","1","0","1","0","0","1","0","0","1","0","0","1","0","1","0","0","5","1","3","1","1","2","4","3","3","1","673561434503774208","王","695","","","","","","","","","","","","","","","","","","","","","","","","","","","","","","","","","","","","","","","",""
"662","<p style=""color:white; font-size: 35px;"">高尚</p>","e","categorize-html","70","256530","0.0-6.0-1.0-6.0-1.5","4","3","4","4","3","4","4","4","4","4","5","5","5","4","5","4","5","4","5","5","1","2","1","2","1","2","1","1","1","0","1","0","0","1","0","0","1","0","0","1","0","1","0","0","5","1","3","1","1","2","4","3","3","1","673561434503774208","王","695","","","","","","","","","","","","","","","","","","","true","13","3","moral","662","positive","高尚","","","","","","","","","","","","","","",""
"null","","null","html-keyboard-response","71","256783","0.0-6.0-1.0-6.0-0.6","4","3","4","4","3","4","4","4","4","4","5","5","5","4","5","4","5","4","5","5","1","2","1","2","1","2","1","1","1","0","1","0","0","1","0","0","1","0","0","1","0","1","0","0","5","1","3","1","1","2","4","3","3","1","673561434503774208","王","695","","","","","","","","","","","","","","","","","","","","","","","","","","","","","","","","","","","","","","","",""
"629","<p style=""color:rgb(150, 250, 100); font-size: 35px;"">我的</p>","e","categorize-html","72","257415","0.0-6.0-1.0-6.0-1.6","4","3","4","4","3","4","4","4","4","4","5","5","5","4","5","4","5","4","5","5","1","2","1","2","1","2","1","1","1","0","1","0","0","1","0","0","1","0","0","1","0","1","0","0","5","1","3","1","1","2","4","3","3","1","673561434503774208","王","695","","","","","","","","","","","","","","","","","","","true","13","3","moral","629","self","我的","","","","","","","","","","","","","","",""
"null","","null","html-keyboard-response","73","257668","0.0-6.0-1.0-6.0-0.7","4","3","4","4","3","4","4","4","4","4","5","5","5","4","5","4","5","4","5","5","1","2","1","2","1","2","1","1","1","0","1","0","0","1","0","0","1","0","0","1","0","1","0","0","5","1","3","1","1","2","4","3","3","1","673561434503774208","王","695","","","","","","","","","","","","","","","","","","","","","","","","","","","","","","","","","","","","","","","",""
"672","<p style=""color:white; font-size: 35px;"">黑心</p>","i","categorize-html","74","258345","0.0-6.0-1.0-6.0-1.7","4","3","4","4","3","4","4","4","4","4","5","5","5","4","5","4","5","4","5","5","1","2","1","2","1","2","1","1","1","0","1","0","0","1","0","0","1","0","0","1","0","1","0","0","5","1","3","1","1","2","4","3","3","1","673561434503774208","王","695","","","","","","","","","","","","","","","","","","","true","13","3","moral","672","negative","黑心","","","","","","","","","","","","","","",""
"null","","null","html-keyboard-response","75","258599","0.0-6.0-1.0-6.0-0.8","4","3","4","4","3","4","4","4","4","4","5","5","5","4","5","4","5","4","5","5","1","2","1","2","1","2","1","1","1","0","1","0","0","1","0","0","1","0","0","1","0","1","0","0","5","1","3","1","1","2","4","3","3","1","673561434503774208","王","695","","","","","","","","","","","","","","","","","","","","","","","","","","","","","","","","","","","","","","","",""
"700","<p style=""color:rgb(150, 250, 100); font-size: 35px;"">本人</p>","e","categorize-html","76","259305","0.0-6.0-1.0-6.0-1.8","4","3","4","4","3","4","4","4","4","4","5","5","5","4","5","4","5","4","5","5","1","2","1","2","1","2","1","1","1","0","1","0","0","1","0","0","1","0","0","1","0","1","0","0","5","1","3","1","1","2","4","3","3","1","673561434503774208","王","695","","","","","","","","","","","","","","","","","","","true","13","3","moral","700","self","本人","","","","","","","","","","","","","","",""
"null","","null","html-keyboard-response","77","259567","0.0-6.0-1.0-6.0-0.9","4","3","4","4","3","4","4","4","4","4","5","5","5","4","5","4","5","4","5","5","1","2","1","2","1","2","1","1","1","0","1","0","0","1","0","0","1","0","0","1","0","1","0","0","5","1","3","1","1","2","4","3","3","1","673561434503774208","王","695","","","","","","","","","","","","","","","","","","","","","","","","","","","","","","","","","","","","","","","",""
"756","<p style=""color:white; font-size: 35px;"">小人</p>","i","categorize-html","78","260327","0.0-6.0-1.0-6.0-1.9","4","3","4","4","3","4","4","4","4","4","5","5","5","4","5","4","5","4","5","5","1","2","1","2","1","2","1","1","1","0","1","0","0","1","0","0","1","0","0","1","0","1","0","0","5","1","3","1","1","2","4","3","3","1","673561434503774208","王","695","","","","","","","","","","","","","","","","","","","true","13","3","moral","756","negative","小人","","","","","","","","","","","","","","",""
"null","","null","html-keyboard-response","79","260579","0.0-6.0-1.0-6.0-0.10","4","3","4","4","3","4","4","4","4","4","5","5","5","4","5","4","5","4","5","5","1","2","1","2","1","2","1","1","1","0","1","0","0","1","0","0","1","0","0","1","0","1","0","0","5","1","3","1","1","2","4","3","3","1","673561434503774208","王","695","","","","","","","","","","","","","","","","","","","","","","","","","","","","","","","","","","","","","","","",""
"617","<p style=""color:rgb(150, 250, 100); font-size: 35px;"">他人</p>","i","categorize-html","80","261201","0.0-6.0-1.0-6.0-1.10","4","3","4","4","3","4","4","4","4","4","5","5","5","4","5","4","5","4","5","5","1","2","1","2","1","2","1","1","1","0","1","0","0","1","0","0","1","0","0","1","0","1","0","0","5","1","3","1","1","2","4","3","3","1","673561434503774208","王","695","","","","","","","","","","","","","","","","","","","true","13","3","moral","617","other","他人","","","","","","","","","","","","","","",""
"null","","null","html-keyboard-response","81","261453","0.0-6.0-1.0-6.0-0.11","4","3","4","4","3","4","4","4","4","4","5","5","5","4","5","4","5","4","5","5","1","2","1","2","1","2","1","1","1","0","1","0","0","1","0","0","1","0","0","1","0","1","0","0","5","1","3","1","1","2","4","3","3","1","673561434503774208","王","695","","","","","","","","","","","","","","","","","","","","","","","","","","","","","","","","","","","","","","","",""
"599","<p style=""color:white; font-size: 35px;"">君子</p>","e","categorize-html","82","262057","0.0-6.0-1.0-6.0-1.11","4","3","4","4","3","4","4","4","4","4","5","5","5","4","5","4","5","4","5","5","1","2","1","2","1","2","1","1","1","0","1","0","0","1","0","0","1","0","0","1","0","1","0","0","5","1","3","1","1","2","4","3","3","1","673561434503774208","王","695","","","","","","","","","","","","","","","","","","","true","13","3","moral","599","positive","君子","","","","","","","","","","","","","","",""
"null","","null","html-keyboard-response","83","262308","0.0-6.0-1.0-6.0-0.12","4","3","4","4","3","4","4","4","4","4","5","5","5","4","5","4","5","4","5","5","1","2","1","2","1","2","1","1","1","0","1","0","0","1","0","0","1","0","0","1","0","1","0","0","5","1","3","1","1","2","4","3","3","1","673561434503774208","王","695","","","","","","","","","","","","","","","","","","","","","","","","","","","","","","","","","","","","","","","",""
"639","<p style=""color:rgb(150, 250, 100); font-size: 35px;"">自己的</p>","e","categorize-html","84","262949","0.0-6.0-1.0-6.0-1.12","4","3","4","4","3","4","4","4","4","4","5","5","5","4","5","4","5","4","5","5","1","2","1","2","1","2","1","1","1","0","1","0","0","1","0","0","1","0","0","1","0","1","0","0","5","1","3","1","1","2","4","3","3","1","673561434503774208","王","695","","","","","","","","","","","","","","","","","","","true","13","3","moral","639","self","自己的","","","","","","","","","","","","","","",""
"null","","null","html-keyboard-response","85","263209","0.0-6.0-1.0-6.0-0.13","4","3","4","4","3","4","4","4","4","4","5","5","5","4","5","4","5","4","5","5","1","2","1","2","1","2","1","1","1","0","1","0","0","1","0","0","1","0","0","1","0","1","0","0","5","1","3","1","1","2","4","3","3","1","673561434503774208","王","695","","","","","","","","","","","","","","","","","","","","","","","","","","","","","","","","","","","","","","","",""
"619","<p style=""color:white; font-size: 35px;"">善良</p>","e","categorize-html","86","263833","0.0-6.0-1.0-6.0-1.13","4","3","4","4","3","4","4","4","4","4","5","5","5","4","5","4","5","4","5","5","1","2","1","2","1","2","1","1","1","0","1","0","0","1","0","0","1","0","0","1","0","1","0","0","5","1","3","1","1","2","4","3","3","1","673561434503774208","王","695","","","","","","","","","","","","","","","","","","","true","13","3","moral","619","positive","善良","","","","","","","","","","","","","","",""
"null","","null","html-keyboard-response","87","264085","0.0-6.0-1.0-6.0-0.14","4","3","4","4","3","4","4","4","4","4","5","5","5","4","5","4","5","4","5","5","1","2","1","2","1","2","1","1","1","0","1","0","0","1","0","0","1","0","0","1","0","1","0","0","5","1","3","1","1","2","4","3","3","1","673561434503774208","王","695","","","","","","","","","","","","","","","","","","","","","","","","","","","","","","","","","","","","","","","",""
"694","<p style=""color:rgb(150, 250, 100); font-size: 35px;"">别人</p>","i","categorize-html","88","264785","0.0-6.0-1.0-6.0-1.14","4","3","4","4","3","4","4","4","4","4","5","5","5","4","5","4","5","4","5","5","1","2","1","2","1","2","1","1","1","0","1","0","0","1","0","0","1","0","0","1","0","1","0","0","5","1","3","1","1","2","4","3","3","1","673561434503774208","王","695","","","","","","","","","","","","","","","","","","","true","13","3","moral","694","other","别人","","","","","","","","","","","","","","",""
"null","","null","html-keyboard-response","89","265037","0.0-6.0-1.0-6.0-0.15","4","3","4","4","3","4","4","4","4","4","5","5","5","4","5","4","5","4","5","5","1","2","1","2","1","2","1","1","1","0","1","0","0","1","0","0","1","0","0","1","0","1","0","0","5","1","3","1","1","2","4","3","3","1","673561434503774208","王","695","","","","","","","","","","","","","","","","","","","","","","","","","","","","","","","","","","","","","","","",""
"983","<p style=""color:white; font-size: 35px;"">不孝</p>","i","categorize-html","90","266023","0.0-6.0-1.0-6.0-1.15","4","3","4","4","3","4","4","4","4","4","5","5","5","4","5","4","5","4","5","5","1","2","1","2","1","2","1","1","1","0","1","0","0","1","0","0","1","0","0","1","0","1","0","0","5","1","3","1","1","2","4","3","3","1","673561434503774208","王","695","","","","","","","","","","","","","","","","","","","true","13","3","moral","983","negative","不孝","","","","","","","","","","","","","","",""
"null","","null","html-keyboard-response","91","266274","0.0-6.0-1.0-6.0-0.16","4","3","4","4","3","4","4","4","4","4","5","5","5","4","5","4","5","4","5","5","1","2","1","2","1","2","1","1","1","0","1","0","0","1","0","0","1","0","0","1","0","1","0","0","5","1","3","1","1","2","4","3","3","1","673561434503774208","王","695","","","","","","","","","","","","","","","","","","","","","","","","","","","","","","","","","","","","","","","",""
"633","<p style=""color:rgb(150, 250, 100); font-size: 35px;"">他人的</p>","i","categorize-html","92","266910","0.0-6.0-1.0-6.0-1.16","4","3","4","4","3","4","4","4","4","4","5","5","5","4","5","4","5","4","5","5","1","2","1","2","1","2","1","1","1","0","1","0","0","1","0","0","1","0","0","1","0","1","0","0","5","1","3","1","1","2","4","3","3","1","673561434503774208","王","695","","","","","","","","","","","","","","","","","","","true","13","3","moral","633","other","他人的","","","","","","","","","","","","","","",""
"null","","null","html-keyboard-response","93","267175","0.0-6.0-1.0-6.0-0.17","4","3","4","4","3","4","4","4","4","4","5","5","5","4","5","4","5","4","5","5","1","2","1","2","1","2","1","1","1","0","1","0","0","1","0","0","1","0","0","1","0","1","0","0","5","1","3","1","1","2","4","3","3","1","673561434503774208","王","695","","","","","","","","","","","","","","","","","","","","","","","","","","","","","","","","","","","","","","","",""
"757","<p style=""color:white; font-size: 35px;"">廉正</p>","e","categorize-html","94","267937","0.0-6.0-1.0-6.0-1.17","4","3","4","4","3","4","4","4","4","4","5","5","5","4","5","4","5","4","5","5","1","2","1","2","1","2","1","1","1","0","1","0","0","1","0","0","1","0","0","1","0","1","0","0","5","1","3","1","1","2","4","3","3","1","673561434503774208","王","695","","","","","","","","","","","","","","","","","","","true","13","3","moral","757","positive","廉正","","","","","","","","","","","","","","",""
"null","","null","html-keyboard-response","95","268190","0.0-6.0-1.0-6.0-0.18","4","3","4","4","3","4","4","4","4","4","5","5","5","4","5","4","5","4","5","5","1","2","1","2","1","2","1","1","1","0","1","0","0","1","0","0","1","0","0","1","0","1","0","0","5","1","3","1","1","2","4","3","3","1","673561434503774208","王","695","","","","","","","","","","","","","","","","","","","","","","","","","","","","","","","","","","","","","","","",""
"645","<p style=""color:rgb(150, 250, 100); font-size: 35px;"">本人的</p>","e","categorize-html","96","268837","0.0-6.0-1.0-6.0-1.18","4","3","4","4","3","4","4","4","4","4","5","5","5","4","5","4","5","4","5","5","1","2","1","2","1","2","1","1","1","0","1","0","0","1","0","0","1","0","0","1","0","1","0","0","5","1","3","1","1","2","4","3","3","1","673561434503774208","王","695","","","","","","","","","","","","","","","","","","","true","13","3","moral","645","self","本人的","","","","","","","","","","","","","","",""
"null","","null","html-keyboard-response","97","269089","0.0-6.0-1.0-6.0-0.19","4","3","4","4","3","4","4","4","4","4","5","5","5","4","5","4","5","4","5","5","1","2","1","2","1","2","1","1","1","0","1","0","0","1","0","0","1","0","0","1","0","1","0","0","5","1","3","1","1","2","4","3","3","1","673561434503774208","王","695","","","","","","","","","","","","","","","","","","","","","","","","","","","","","","","","","","","","","","","",""
"723","<p style=""color:white; font-size: 35px;"">缺德</p>","i","categorize-html","98","269817","0.0-6.0-1.0-6.0-1.19","4","3","4","4","3","4","4","4","4","4","5","5","5","4","5","4","5","4","5","5","1","2","1","2","1","2","1","1","1","0","1","0","0","1","0","0","1","0","0","1","0","1","0","0","5","1","3","1","1","2","4","3","3","1","673561434503774208","王","695","","","","","","","","","","","","","","","","","","","true","13","3","moral","723","negative","缺德","","","","","","","","","","","","","","",""
"null","","null","html-keyboard-response","99","270069","0.0-6.0-1.0-6.0-0.20","4","3","4","4","3","4","4","4","4","4","5","5","5","4","5","4","5","4","5","5","1","2","1","2","1","2","1","1","1","0","1","0","0","1","0","0","1","0","0","1","0","1","0","0","5","1","3","1","1","2","4","3","3","1","673561434503774208","王","695","","","","","","","","","","","","","","","","","","","","","","","","","","","","","","","","","","","","","","","",""
"759","<p style=""color:rgb(150, 250, 100); font-size: 35px;"">别人的</p>","i","categorize-html","100","270833","0.0-6.0-1.0-6.0-1.20","4","3","4","4","3","4","4","4","4","4","5","5","5","4","5","4","5","4","5","5","1","2","1","2","1","2","1","1","1","0","1","0","0","1","0","0","1","0","0","1","0","1","0","0","5","1","3","1","1","2","4","3","3","1","673561434503774208","王","695","","","","","","","","","","","","","","","","","","","true","13","3","moral","759","other","别人的","","","","","","","","","","","","","","",""
"null","","null","html-keyboard-response","101","271092","0.0-6.0-1.0-6.0-0.21","4","3","4","4","3","4","4","4","4","4","5","5","5","4","5","4","5","4","5","5","1","2","1","2","1","2","1","1","1","0","1","0","0","1","0","0","1","0","0","1","0","1","0","0","5","1","3","1","1","2","4","3","3","1","673561434503774208","王","695","","","","","","","","","","","","","","","","","","","","","","","","","","","","","","","","","","","","","","","",""
"640","<p style=""color:white; font-size: 35px;"">诚信</p>","e","categorize-html","102","271737","0.0-6.0-1.0-6.0-1.21","4","3","4","4","3","4","4","4","4","4","5","5","5","4","5","4","5","4","5","5","1","2","1","2","1","2","1","1","1","0","1","0","0","1","0","0","1","0","0","1","0","1","0","0","5","1","3","1","1","2","4","3","3","1","673561434503774208","王","695","","","","","","","","","","","","","","","","","","","true","13","3","moral","640","positive","诚信","","","","","","","","","","","","","","",""
"null","","null","html-keyboard-response","103","271989","0.0-6.0-1.0-6.0-0.22","4","3","4","4","3","4","4","4","4","4","5","5","5","4","5","4","5","4","5","5","1","2","1","2","1","2","1","1","1","0","1","0","0","1","0","0","1","0","0","1","0","1","0","0","5","1","3","1","1","2","4","3","3","1","673561434503774208","王","695","","","","","","","","","","","","","","","","","","","","","","","","","","","","","","","","","","","","","","","",""
"559","<p style=""color:rgb(150, 250, 100); font-size: 35px;"">我</p>","e","categorize-html","104","272551","0.0-6.0-1.0-6.0-1.22","4","3","4","4","3","4","4","4","4","4","5","5","5","4","5","4","5","4","5","5","1","2","1","2","1","2","1","1","1","0","1","0","0","1","0","0","1","0","0","1","0","1","0","0","5","1","3","1","1","2","4","3","3","1","673561434503774208","王","695","","","","","","","","","","","","","","","","","","","true","13","3","moral","559","self","我","","","","","","","","","","","","","","",""
"null","","null","html-keyboard-response","105","272803","0.0-6.0-1.0-6.0-0.23","4","3","4","4","3","4","4","4","4","4","5","5","5","4","5","4","5","4","5","5","1","2","1","2","1","2","1","1","1","0","1","0","0","1","0","0","1","0","0","1","0","1","0","0","5","1","3","1","1","2","4","3","3","1","673561434503774208","王","695","","","","","","","","","","","","","","","","","","","","","","","","","","","","","","","","","","","","","","","",""
"688","<p style=""color:white; font-size: 35px;"">卑鄙</p>","i","categorize-html","106","273494","0.0-6.0-1.0-6.0-1.23","4","3","4","4","3","4","4","4","4","4","5","5","5","4","5","4","5","4","5","5","1","2","1","2","1","2","1","1","1","0","1","0","0","1","0","0","1","0","0","1","0","1","0","0","5","1","3","1","1","2","4","3","3","1","673561434503774208","王","695","","","","","","","","","","","","","","","","","","","true","13","3","moral","688","negative","卑鄙","","","","","","","","","","","","","","",""
"13102","
    <div class=""tag-bottom""><p>
    —— 任务4：对“自我/积极”词和“他人/消极”词分类 ——<p/>
    <span style=""color:#78DCE8""><b>与刚才的任务完全相同，请再次对这四类词语分类</b></span><p/>
    <span style=""color:#FFD866""><b>请根据上方标签的提示，尽可能正确并且快速地做出按键反应</b></span><p/>
    当按键错误时屏幕中会出现<span style=""color:red""> X </span>，需要按另一个键纠正才能继续<br/><p/>
    请把双手食指分别放在键盘的“E”键和“I”键上<p/>
    按<空格键>开始
    </p></div>"," ","html-keyboard-response","107","286598","0.0-6.0-1.0-7.0","4","3","4","4","3","4","4","4","4","4","5","5","5","4","5","4","5","4","5","5","1","2","1","2","1","2","1","1","1","0","1","0","0","1","0","0","1","0","0","1","0","1","0","0","5","1","3","1","1","2","4","3","3","1","673561434503774208","王","695","","","","","","","","","","","","","","","","","","","","","","","","","","","","","","","","","","","","","","","",""
"null","","null","html-keyboard-response","108","286850","0.0-6.0-1.0-8.0-0.0","4","3","4","4","3","4","4","4","4","4","5","5","5","4","5","4","5","4","5","5","1","2","1","2","1","2","1","1","1","0","1","0","0","1","0","0","1","0","0","1","0","1","0","0","5","1","3","1","1","2","4","3","3","1","673561434503774208","王","695","","","","","","","","","","","","","","","","","","","","","","","","","","","","","","","","","","","","","","","",""
"487","<p style=""color:rgb(150, 250, 100); font-size: 35px;"">自己</p>","e","categorize-html","109","287341","0.0-6.0-1.0-8.0-1.0","4","3","4","4","3","4","4","4","4","4","5","5","5","4","5","4","5","4","5","5","1","2","1","2","1","2","1","1","1","0","1","0","0","1","0","0","1","0","0","1","0","1","0","0","5","1","3","1","1","2","4","3","3","1","673561434503774208","王","695","","","","","","","","","","","","","","","","","","","true","14","4","moral","487","self","自己","","","","","","","","","","","","","","",""
"null","","null","html-keyboard-response","110","287593","0.0-6.0-1.0-8.0-0.1","4","3","4","4","3","4","4","4","4","4","5","5","5","4","5","4","5","4","5","5","1","2","1","2","1","2","1","1","1","0","1","0","0","1","0","0","1","0","0","1","0","1","0","0","5","1","3","1","1","2","4","3","3","1","673561434503774208","王","695","","","","","","","","","","","","","","","","","","","","","","","","","","","","","","","","","","","","","","","",""
"618","<p style=""color:white; font-size: 35px;"">善良</p>","e","categorize-html","111","288213","0.0-6.0-1.0-8.0-1.1","4","3","4","4","3","4","4","4","4","4","5","5","5","4","5","4","5","4","5","5","1","2","1","2","1","2","1","1","1","0","1","0","0","1","0","0","1","0","0","1","0","1","0","0","5","1","3","1","1","2","4","3","3","1","673561434503774208","王","695","","","","","","","","","","","","","","","","","","","true","14","4","moral","618","positive","善良","","","","","","","","","","","","","","",""
"null","","null","html-keyboard-response","112","288465","0.0-6.0-1.0-8.0-0.2","4","3","4","4","3","4","4","4","4","4","5","5","5","4","5","4","5","4","5","5","1","2","1","2","1","2","1","1","1","0","1","0","0","1","0","0","1","0","0","1","0","1","0","0","5","1","3","1","1","2","4","3","3","1","673561434503774208","王","695","","","","","","","","","","","","","","","","","","","","","","","","","","","","","","","","","","","","","","","",""
"668","<p style=""color:rgb(150, 250, 100); font-size: 35px;"">他的</p>","i","categorize-html","113","289137","0.0-6.0-1.0-8.0-1.2","4","3","4","4","3","4","4","4","4","4","5","5","5","4","5","4","5","4","5","5","1","2","1","2","1","2","1","1","1","0","1","0","0","1","0","0","1","0","0","1","0","1","0","0","5","1","3","1","1","2","4","3","3","1","673561434503774208","王","695","","","","","","","","","","","","","","","","","","","true","14","4","moral","668","other","他的","","","","","","","","","","","","","","",""
"null","","null","html-keyboard-response","114","289390","0.0-6.0-1.0-8.0-0.3","4","3","4","4","3","4","4","4","4","4","5","5","5","4","5","4","5","4","5","5","1","2","1","2","1","2","1","1","1","0","1","0","0","1","0","0","1","0","0","1","0","1","0","0","5","1","3","1","1","2","4","3","3","1","673561434503774208","王","695","","","","","","","","","","","","","","","","","","","","","","","","","","","","","","","","","","","","","","","",""
"636","<p style=""color:white; font-size: 35px;"">黑心</p>","i","categorize-html","115","290029","0.0-6.0-1.0-8.0-1.3","4","3","4","4","3","4","4","4","4","4","5","5","5","4","5","4","5","4","5","5","1","2","1","2","1","2","1","1","1","0","1","0","0","1","0","0","1","0","0","1","0","1","0","0","5","1","3","1","1","2","4","3","3","1","673561434503774208","王","695","","","","","","","","","","","","","","","","","","","true","14","4","moral","636","negative","黑心","","","","","","","","","","","","","","",""
"null","","null","html-keyboard-response","116","290280","0.0-6.0-1.0-8.0-0.4","4","3","4","4","3","4","4","4","4","4","5","5","5","4","5","4","5","4","5","5","1","2","1","2","1","2","1","1","1","0","1","0","0","1","0","0","1","0","0","1","0","1","0","0","5","1","3","1","1","2","4","3","3","1","673561434503774208","王","695","","","","","","","","","","","","","","","","","","","","","","","","","","","","","","","","","","","","","","","",""
"669","<p style=""color:rgb(150, 250, 100); font-size: 35px;"">本人的</p>","e","categorize-html","117","290954","0.0-6.0-1.0-8.0-1.4","4","3","4","4","3","4","4","4","4","4","5","5","5","4","5","4","5","4","5","5","1","2","1","2","1","2","1","1","1","0","1","0","0","1","0","0","1","0","0","1","0","1","0","0","5","1","3","1","1","2","4","3","3","1","673561434503774208","王","695","","","","","","","","","","","","","","","","","","","true","14","4","moral","669","self","本人的","","","","","","","","","","","","","","",""
"null","","null","html-keyboard-response","118","291205","0.0-6.0-1.0-8.0-0.5","4","3","4","4","3","4","4","4","4","4","5","5","5","4","5","4","5","4","5","5","1","2","1","2","1","2","1","1","1","0","1","0","0","1","0","0","1","0","0","1","0","1","0","0","5","1","3","1","1","2","4","3","3","1","673561434503774208","王","695","","","","","","","","","","","","","","","","","","","","","","","","","","","","","","","","","","","","","","","",""
"806","<p style=""color:white; font-size: 35px;"">小人</p>","i","categorize-html","119","292014","0.0-6.0-1.0-8.0-1.5","4","3","4","4","3","4","4","4","4","4","5","5","5","4","5","4","5","4","5","5","1","2","1","2","1","2","1","1","1","0","1","0","0","1","0","0","1","0","0","1","0","1","0","0","5","1","3","1","1","2","4","3","3","1","673561434503774208","王","695","","","","","","","","","","","","","","","","","","","true","14","4","moral","806","negative","小人","","","","","","","","","","","","","","",""
"null","","null","html-keyboard-response","120","292265","0.0-6.0-1.0-8.0-0.6","4","3","4","4","3","4","4","4","4","4","5","5","5","4","5","4","5","4","5","5","1","2","1","2","1","2","1","1","1","0","1","0","0","1","0","0","1","0","0","1","0","1","0","0","5","1","3","1","1","2","4","3","3","1","673561434503774208","王","695","","","","","","","","","","","","","","","","","","","","","","","","","","","","","","","","","","","","","","","",""
"689","<p style=""color:rgb(150, 250, 100); font-size: 35px;"">别人</p>","i","categorize-html","121","292957","0.0-6.0-1.0-8.0-1.6","4","3","4","4","3","4","4","4","4","4","5","5","5","4","5","4","5","4","5","5","1","2","1","2","1","2","1","1","1","0","1","0","0","1","0","0","1","0","0","1","0","1","0","0","5","1","3","1","1","2","4","3","3","1","673561434503774208","王","695","","","","","","","","","","","","","","","","","","","true","14","4","moral","689","other","别人","","","","","","","","","","","","","","",""
"null","","null","html-keyboard-response","122","293208","0.0-6.0-1.0-8.0-0.7","4","3","4","4","3","4","4","4","4","4","5","5","5","4","5","4","5","4","5","5","1","2","1","2","1","2","1","1","1","0","1","0","0","1","0","0","1","0","0","1","0","1","0","0","5","1","3","1","1","2","4","3","3","1","673561434503774208","王","695","","","","","","","","","","","","","","","","","","","","","","","","","","","","","","","","","","","","","","","",""
"627","<p style=""color:white; font-size: 35px;"">诚信</p>","e","categorize-html","123","293841","0.0-6.0-1.0-8.0-1.7","4","3","4","4","3","4","4","4","4","4","5","5","5","4","5","4","5","4","5","5","1","2","1","2","1","2","1","1","1","0","1","0","0","1","0","0","1","0","0","1","0","1","0","0","5","1","3","1","1","2","4","3","3","1","673561434503774208","王","695","","","","","","","","","","","","","","","","","","","true","14","4","moral","627","positive","诚信","","","","","","","","","","","","","","",""
"null","","null","html-keyboard-response","124","294093","0.0-6.0-1.0-8.0-0.8","4","3","4","4","3","4","4","4","4","4","5","5","5","4","5","4","5","4","5","5","1","2","1","2","1","2","1","1","1","0","1","0","0","1","0","0","1","0","0","1","0","1","0","0","5","1","3","1","1","2","4","3","3","1","673561434503774208","王","695","","","","","","","","","","","","","","","","","","","","","","","","","","","","","","","","","","","","","","","",""
"719","<p style=""color:rgb(150, 250, 100); font-size: 35px;"">别人的</p>","i","categorize-html","125","294817","0.0-6.0-1.0-8.0-1.8","4","3","4","4","3","4","4","4","4","4","5","5","5","4","5","4","5","4","5","5","1","2","1","2","1","2","1","1","1","0","1","0","0","1","0","0","1","0","0","1","0","1","0","0","5","1","3","1","1","2","4","3","3","1","673561434503774208","王","695","","","","","","","","","","","","","","","","","","","true","14","4","moral","719","other","别人的","","","","","","","","","","","","","","",""
"null","","null","html-keyboard-response","126","295069","0.0-6.0-1.0-8.0-0.9","4","3","4","4","3","4","4","4","4","4","5","5","5","4","5","4","5","4","5","5","1","2","1","2","1","2","1","1","1","0","1","0","0","1","0","0","1","0","0","1","0","1","0","0","5","1","3","1","1","2","4","3","3","1","673561434503774208","王","695","","","","","","","","","","","","","","","","","","","","","","","","","","","","","","","","","","","","","","","",""
"616","<p style=""color:white; font-size: 35px;"">卑鄙</p>","i","categorize-html","127","295689","0.0-6.0-1.0-8.0-1.9","4","3","4","4","3","4","4","4","4","4","5","5","5","4","5","4","5","4","5","5","1","2","1","2","1","2","1","1","1","0","1","0","0","1","0","0","1","0","0","1","0","1","0","0","5","1","3","1","1","2","4","3","3","1","673561434503774208","王","695","","","","","","","","","","","","","","","","","","","true","14","4","moral","616","negative","卑鄙","","","","","","","","","","","","","","",""
"null","","null","html-keyboard-response","128","295942","0.0-6.0-1.0-8.0-0.10","4","3","4","4","3","4","4","4","4","4","5","5","5","4","5","4","5","4","5","5","1","2","1","2","1","2","1","1","1","0","1","0","0","1","0","0","1","0","0","1","0","1","0","0","5","1","3","1","1","2","4","3","3","1","673561434503774208","王","695","","","","","","","","","","","","","","","","","","","","","","","","","","","","","","","","","","","","","","","",""
"614","<p style=""color:rgb(150, 250, 100); font-size: 35px;"">本人的</p>","e","categorize-html","129","296561","0.0-6.0-1.0-8.0-1.10","4","3","4","4","3","4","4","4","4","4","5","5","5","4","5","4","5","4","5","5","1","2","1","2","1","2","1","1","1","0","1","0","0","1","0","0","1","0","0","1","0","1","0","0","5","1","3","1","1","2","4","3","3","1","673561434503774208","王","695","","","","","","","","","","","","","","","","","","","true","14","4","moral","614","self","本人的","","","","","","","","","","","","","","",""
"null","","null","html-keyboard-response","130","296813","0.0-6.0-1.0-8.0-0.11","4","3","4","4","3","4","4","4","4","4","5","5","5","4","5","4","5","4","5","5","1","2","1","2","1","2","1","1","1","0","1","0","0","1","0","0","1","0","0","1","0","1","0","0","5","1","3","1","1","2","4","3","3","1","673561434503774208","王","695","","","","","","","","","","","","","","","","","","","","","","","","","","","","","","","","","","","","","","","",""
"702","<p style=""color:white; font-size: 35px;"">廉正</p>","e","categorize-html","131","297519","0.0-6.0-1.0-8.0-1.11","4","3","4","4","3","4","4","4","4","4","5","5","5","4","5","4","5","4","5","5","1","2","1","2","1","2","1","1","1","0","1","0","0","1","0","0","1","0","0","1","0","1","0","0","5","1","3","1","1","2","4","3","3","1","673561434503774208","王","695","","","","","","","","","","","","","","","","","","","true","14","4","moral","702","positive","廉正","","","","","","","","","","","","","","",""
"null","","null","html-keyboard-response","132","297771","0.0-6.0-1.0-8.0-0.12","4","3","4","4","3","4","4","4","4","4","5","5","5","4","5","4","5","4","5","5","1","2","1","2","1","2","1","1","1","0","1","0","0","1","0","0","1","0","0","1","0","1","0","0","5","1","3","1","1","2","4","3","3","1","673561434503774208","王","695","","","","","","","","","","","","","","","","","","","","","","","","","","","","","","","","","","","","","","","",""
"856","<p style=""color:rgb(150, 250, 100); font-size: 35px;"">他的</p>","i","categorize-html","133","298633","0.0-6.0-1.0-8.0-1.12","4","3","4","4","3","4","4","4","4","4","5","5","5","4","5","4","5","4","5","5","1","2","1","2","1","2","1","1","1","0","1","0","0","1","0","0","1","0","0","1","0","1","0","0","5","1","3","1","1","2","4","3","3","1","673561434503774208","王","695","","","","","","","","","","","","","","","","","","","true","14","4","moral","856","other","他的","","","","","","","","","","","","","","",""
"null","","null","html-keyboard-response","134","298891","0.0-6.0-1.0-8.0-0.13","4","3","4","4","3","4","4","4","4","4","5","5","5","4","5","4","5","4","5","5","1","2","1","2","1","2","1","1","1","0","1","0","0","1","0","0","1","0","0","1","0","1","0","0","5","1","3","1","1","2","4","3","3","1","673561434503774208","王","695","","","","","","","","","","","","","","","","","","","","","","","","","","","","","","","","","","","","","","","",""
"665","<p style=""color:white; font-size: 35px;"">不孝</p>","i","categorize-html","135","299561","0.0-6.0-1.0-8.0-1.13","4","3","4","4","3","4","4","4","4","4","5","5","5","4","5","4","5","4","5","5","1","2","1","2","1","2","1","1","1","0","1","0","0","1","0","0","1","0","0","1","0","1","0","0","5","1","3","1","1","2","4","3","3","1","673561434503774208","王","695","","","","","","","","","","","","","","","","","","","true","14","4","moral","665","negative","不孝","","","","","","","","","","","","","","",""
"null","","null","html-keyboard-response","136","299813","0.0-6.0-1.0-8.0-0.14","4","3","4","4","3","4","4","4","4","4","5","5","5","4","5","4","5","4","5","5","1","2","1","2","1","2","1","1","1","0","1","0","0","1","0","0","1","0","0","1","0","1","0","0","5","1","3","1","1","2","4","3","3","1","673561434503774208","王","695","","","","","","","","","","","","","","","","","","","","","","","","","","","","","","","","","","","","","","","",""
"607","<p style=""color:rgb(150, 250, 100); font-size: 35px;"">我</p>","e","categorize-html","137","300425","0.0-6.0-1.0-8.0-1.14","4","3","4","4","3","4","4","4","4","4","5","5","5","4","5","4","5","4","5","5","1","2","1","2","1","2","1","1","1","0","1","0","0","1","0","0","1","0","0","1","0","1","0","0","5","1","3","1","1","2","4","3","3","1","673561434503774208","王","695","","","","","","","","","","","","","","","","","","","true","14","4","moral","607","self","我","","","","","","","","","","","","","","",""
"null","","null","html-keyboard-response","138","300679","0.0-6.0-1.0-8.0-0.15","4","3","4","4","3","4","4","4","4","4","5","5","5","4","5","4","5","4","5","5","1","2","1","2","1","2","1","1","1","0","1","0","0","1","0","0","1","0","0","1","0","1","0","0","5","1","3","1","1","2","4","3","3","1","673561434503774208","王","695","","","","","","","","","","","","","","","","","","","","","","","","","","","","","","","","","","","","","","","",""
"757","<p style=""color:white; font-size: 35px;"">君子</p>","e","categorize-html","139","301439","0.0-6.0-1.0-8.0-1.15","4","3","4","4","3","4","4","4","4","4","5","5","5","4","5","4","5","4","5","5","1","2","1","2","1","2","1","1","1","0","1","0","0","1","0","0","1","0","0","1","0","1","0","0","5","1","3","1","1","2","4","3","3","1","673561434503774208","王","695","","","","","","","","","","","","","","","","","","","true","14","4","moral","757","positive","君子","","","","","","","","","","","","","","",""
"null","","null","html-keyboard-response","140","301691","0.0-6.0-1.0-8.0-0.16","4","3","4","4","3","4","4","4","4","4","5","5","5","4","5","4","5","4","5","5","1","2","1","2","1","2","1","1","1","0","1","0","0","1","0","0","1","0","0","1","0","1","0","0","5","1","3","1","1","2","4","3","3","1","673561434503774208","王","695","","","","","","","","","","","","","","","","","","","","","","","","","","","","","","","","","","","","","","","",""
"689","<p style=""color:rgb(150, 250, 100); font-size: 35px;"">他</p>","i","categorize-html","141","302384","0.0-6.0-1.0-8.0-1.16","4","3","4","4","3","4","4","4","4","4","5","5","5","4","5","4","5","4","5","5","1","2","1","2","1","2","1","1","1","0","1","0","0","1","0","0","1","0","0","1","0","1","0","0","5","1","3","1","1","2","4","3","3","1","673561434503774208","王","695","","","","","","","","","","","","","","","","","","","true","14","4","moral","689","other","他","","","","","","","","","","","","","","",""
"null","","null","html-keyboard-response","142","302635","0.0-6.0-1.0-8.0-0.17","4","3","4","4","3","4","4","4","4","4","5","5","5","4","5","4","5","4","5","5","1","2","1","2","1","2","1","1","1","0","1","0","0","1","0","0","1","0","0","1","0","1","0","0","5","1","3","1","1","2","4","3","3","1","673561434503774208","王","695","","","","","","","","","","","","","","","","","","","","","","","","","","","","","","","","","","","","","","","",""
"753","<p style=""color:white; font-size: 35px;"">正直</p>","e","categorize-html","143","303393","0.0-6.0-1.0-8.0-1.17","4","3","4","4","3","4","4","4","4","4","5","5","5","4","5","4","5","4","5","5","1","2","1","2","1","2","1","1","1","0","1","0","0","1","0","0","1","0","0","1","0","1","0","0","5","1","3","1","1","2","4","3","3","1","673561434503774208","王","695","","","","","","","","","","","","","","","","","","","true","14","4","moral","753","positive","正直","","","","","","","","","","","","","","",""
"null","","null","html-keyboard-response","144","303645","0.0-6.0-1.0-8.0-0.18","4","3","4","4","3","4","4","4","4","4","5","5","5","4","5","4","5","4","5","5","1","2","1","2","1","2","1","1","1","0","1","0","0","1","0","0","1","0","0","1","0","1","0","0","5","1","3","1","1","2","4","3","3","1","673561434503774208","王","695","","","","","","","","","","","","","","","","","","","","","","","","","","","","","","","","","","","","","","","",""
"629","<p style=""color:rgb(150, 250, 100); font-size: 35px;"">本人</p>","e","categorize-html","145","304278","0.0-6.0-1.0-8.0-1.18","4","3","4","4","3","4","4","4","4","4","5","5","5","4","5","4","5","4","5","5","1","2","1","2","1","2","1","1","1","0","1","0","0","1","0","0","1","0","0","1","0","1","0","0","5","1","3","1","1","2","4","3","3","1","673561434503774208","王","695","","","","","","","","","","","","","","","","","","","true","14","4","moral","629","self","本人","","","","","","","","","","","","","","",""
"null","","null","html-keyboard-response","146","304529","0.0-6.0-1.0-8.0-0.19","4","3","4","4","3","4","4","4","4","4","5","5","5","4","5","4","5","4","5","5","1","2","1","2","1","2","1","1","1","0","1","0","0","1","0","0","1","0","0","1","0","1","0","0","5","1","3","1","1","2","4","3","3","1","673561434503774208","王","695","","","","","","","","","","","","","","","","","","","","","","","","","","","","","","","","","","","","","","","",""
"707","<p style=""color:white; font-size: 35px;"">卑鄙</p>","i","categorize-html","147","305241","0.0-6.0-1.0-8.0-1.19","4","3","4","4","3","4","4","4","4","4","5","5","5","4","5","4","5","4","5","5","1","2","1","2","1","2","1","1","1","0","1","0","0","1","0","0","1","0","0","1","0","1","0","0","5","1","3","1","1","2","4","3","3","1","673561434503774208","王","695","","","","","","","","","","","","","","","","","","","true","14","4","moral","707","negative","卑鄙","","","","","","","","","","","","","","",""
"null","","null","html-keyboard-response","148","305492","0.0-6.0-1.0-8.0-0.20","4","3","4","4","3","4","4","4","4","4","5","5","5","4","5","4","5","4","5","5","1","2","1","2","1","2","1","1","1","0","1","0","0","1","0","0","1","0","0","1","0","1","0","0","5","1","3","1","1","2","4","3","3","1","673561434503774208","王","695","","","","","","","","","","","","","","","","","","","","","","","","","","","","","","","","","","","","","","","",""
"631","<p style=""color:rgb(150, 250, 100); font-size: 35px;"">自己的</p>","e","categorize-html","149","306129","0.0-6.0-1.0-8.0-1.20","4","3","4","4","3","4","4","4","4","4","5","5","5","4","5","4","5","4","5","5","1","2","1","2","1","2","1","1","1","0","1","0","0","1","0","0","1","0","0","1","0","1","0","0","5","1","3","1","1","2","4","3","3","1","673561434503774208","王","695","","","","","","","","","","","","","","","","","","","true","14","4","moral","631","self","自己的","","","","","","","","","","","","","","",""
"null","","null","html-keyboard-response","150","306382","0.0-6.0-1.0-8.0-0.21","4","3","4","4","3","4","4","4","4","4","5","5","5","4","5","4","5","4","5","5","1","2","1","2","1","2","1","1","1","0","1","0","0","1","0","0","1","0","0","1","0","1","0","0","5","1","3","1","1","2","4","3","3","1","673561434503774208","王","695","","","","","","","","","","","","","","","","","","","","","","","","","","","","","","","","","","","","","","","",""
"718","<p style=""color:white; font-size: 35px;"">正直</p>","e","categorize-html","151","307105","0.0-6.0-1.0-8.0-1.21","4","3","4","4","3","4","4","4","4","4","5","5","5","4","5","4","5","4","5","5","1","2","1","2","1","2","1","1","1","0","1","0","0","1","0","0","1","0","0","1","0","1","0","0","5","1","3","1","1","2","4","3","3","1","673561434503774208","王","695","","","","","","","","","","","","","","","","","","","true","14","4","moral","718","positive","正直","","","","","","","","","","","","","","",""
"null","","null","html-keyboard-response","152","307357","0.0-6.0-1.0-8.0-0.22","4","3","4","4","3","4","4","4","4","4","5","5","5","4","5","4","5","4","5","5","1","2","1","2","1","2","1","1","1","0","1","0","0","1","0","0","1","0","0","1","0","1","0","0","5","1","3","1","1","2","4","3","3","1","673561434503774208","王","695","","","","","","","","","","","","","","","","","","","","","","","","","","","","","","","","","","","","","","","",""
"784","<p style=""color:rgb(150, 250, 100); font-size: 35px;"">他人</p>","i","categorize-html","153","308146","0.0-6.0-1.0-8.0-1.22","4","3","4","4","3","4","4","4","4","4","5","5","5","4","5","4","5","4","5","5","1","2","1","2","1","2","1","1","1","0","1","0","0","1","0","0","1","0","0","1","0","1","0","0","5","1","3","1","1","2","4","3","3","1","673561434503774208","王","695","","","","","","","","","","","","","","","","","","","true","14","4","moral","784","other","他人","","","","","","","","","","","","","","",""
"null","","null","html-keyboard-response","154","308398","0.0-6.0-1.0-8.0-0.23","4","3","4","4","3","4","4","4","4","4","5","5","5","4","5","4","5","4","5","5","1","2","1","2","1","2","1","1","1","0","1","0","0","1","0","0","1","0","0","1","0","1","0","0","5","1","3","1","1","2","4","3","3","1","673561434503774208","王","695","","","","","","","","","","","","","","","","","","","","","","","","","","","","","","","","","","","","","","","",""
"789","<p style=""color:white; font-size: 35px;"">缺德</p>","i","categorize-html","155","309193","0.0-6.0-1.0-8.0-1.23","4","3","4","4","3","4","4","4","4","4","5","5","5","4","5","4","5","4","5","5","1","2","1","2","1","2","1","1","1","0","1","0","0","1","0","0","1","0","0","1","0","1","0","0","5","1","3","1","1","2","4","3","3","1","673561434503774208","王","695","","","","","","","","","","","","","","","","","","","true","14","4","moral","789","negative","缺德","","","","","","","","","","","","","","",""
"null","","null","html-keyboard-response","156","309446","0.0-6.0-1.0-8.0-0.24","4","3","4","4","3","4","4","4","4","4","5","5","5","4","5","4","5","4","5","5","1","2","1","2","1","2","1","1","1","0","1","0","0","1","0","0","1","0","0","1","0","1","0","0","5","1","3","1","1","2","4","3","3","1","673561434503774208","王","695","","","","","","","","","","","","","","","","","","","","","","","","","","","","","","","","","","","","","","","",""
"726","<p style=""color:rgb(150, 250, 100); font-size: 35px;"">他人的</p>","i","categorize-html","157","310177","0.0-6.0-1.0-8.0-1.24","4","3","4","4","3","4","4","4","4","4","5","5","5","4","5","4","5","4","5","5","1","2","1","2","1","2","1","1","1","0","1","0","0","1","0","0","1","0","0","1","0","1","0","0","5","1","3","1","1","2","4","3","3","1","673561434503774208","王","695","","","","","","","","","","","","","","","","","","","true","14","4","moral","726","other","他人的","","","","","","","","","","","","","","",""
"null","","null","html-keyboard-response","158","310430","0.0-6.0-1.0-8.0-0.25","4","3","4","4","3","4","4","4","4","4","5","5","5","4","5","4","5","4","5","5","1","2","1","2","1","2","1","1","1","0","1","0","0","1","0","0","1","0","0","1","0","1","0","0","5","1","3","1","1","2","4","3","3","1","673561434503774208","王","695","","","","","","","","","","","","","","","","","","","","","","","","","","","","","","","","","","","","","","","",""
"654","<p style=""color:white; font-size: 35px;"">缺德</p>","i","categorize-html","159","311089","0.0-6.0-1.0-8.0-1.25","4","3","4","4","3","4","4","4","4","4","5","5","5","4","5","4","5","4","5","5","1","2","1","2","1","2","1","1","1","0","1","0","0","1","0","0","1","0","0","1","0","1","0","0","5","1","3","1","1","2","4","3","3","1","673561434503774208","王","695","","","","","","","","","","","","","","","","","","","true","14","4","moral","654","negative","缺德","","","","","","","","","","","","","","",""
"null","","null","html-keyboard-response","160","311341","0.0-6.0-1.0-8.0-0.26","4","3","4","4","3","4","4","4","4","4","5","5","5","4","5","4","5","4","5","5","1","2","1","2","1","2","1","1","1","0","1","0","0","1","0","0","1","0","0","1","0","1","0","0","5","1","3","1","1","2","4","3","3","1","673561434503774208","王","695","","","","","","","","","","","","","","","","","","","","","","","","","","","","","","","","","","","","","","","",""
"655","<p style=""color:rgb(150, 250, 100); font-size: 35px;"">我的</p>","e","categorize-html","161","311997","0.0-6.0-1.0-8.0-1.26","4","3","4","4","3","4","4","4","4","4","5","5","5","4","5","4","5","4","5","5","1","2","1","2","1","2","1","1","1","0","1","0","0","1","0","0","1","0","0","1","0","1","0","0","5","1","3","1","1","2","4","3","3","1","673561434503774208","王","695","","","","","","","","","","","","","","","","","","","true","14","4","moral","655","self","我的","","","","","","","","","","","","","","",""
"null","","null","html-keyboard-response","162","312249","0.0-6.0-1.0-8.0-0.27","4","3","4","4","3","4","4","4","4","4","5","5","5","4","5","4","5","4","5","5","1","2","1","2","1","2","1","1","1","0","1","0","0","1","0","0","1","0","0","1","0","1","0","0","5","1","3","1","1","2","4","3","3","1","673561434503774208","王","695","","","","","","","","","","","","","","","","","","","","","","","","","","","","","","","","","","","","","","","",""
"666","<p style=""color:white; font-size: 35px;"">高尚</p>","e","categorize-html","163","312917","0.0-6.0-1.0-8.0-1.27","4","3","4","4","3","4","4","4","4","4","5","5","5","4","5","4","5","4","5","5","1","2","1","2","1","2","1","1","1","0","1","0","0","1","0","0","1","0","0","1","0","1","0","0","5","1","3","1","1","2","4","3","3","1","673561434503774208","王","695","","","","","","","","","","","","","","","","","","","true","14","4","moral","666","positive","高尚","","","","","","","","","","","","","","",""
"null","","null","html-keyboard-response","164","313169","0.0-6.0-1.0-8.0-0.28","4","3","4","4","3","4","4","4","4","4","5","5","5","4","5","4","5","4","5","5","1","2","1","2","1","2","1","1","1","0","1","0","0","1","0","0","1","0","0","1","0","1","0","0","5","1","3","1","1","2","4","3","3","1","673561434503774208","王","695","","","","","","","","","","","","","","","","","","","","","","","","","","","","","","","","","","","","","","","",""
"771","<p style=""color:rgb(150, 250, 100); font-size: 35px;"">别人</p>","i","categorize-html","165","313945","0.0-6.0-1.0-8.0-1.28","4","3","4","4","3","4","4","4","4","4","5","5","5","4","5","4","5","4","5","5","1","2","1","2","1","2","1","1","1","0","1","0","0","1","0","0","1","0","0","1","0","1","0","0","5","1","3","1","1","2","4","3","3","1","673561434503774208","王","695","","","","","","","","","","","","","","","","","","","true","14","4","moral","771","other","别人","","","","","","","","","","","","","","",""
"null","","null","html-keyboard-response","166","314197","0.0-6.0-1.0-8.0-0.29","4","3","4","4","3","4","4","4","4","4","5","5","5","4","5","4","5","4","5","5","1","2","1","2","1","2","1","1","1","0","1","0","0","1","0","0","1","0","0","1","0","1","0","0","5","1","3","1","1","2","4","3","3","1","673561434503774208","王","695","","","","","","","","","","","","","","","","","","","","","","","","","","","","","","","","","","","","","","","",""
"583","<p style=""color:white; font-size: 35px;"">君子</p>","e","categorize-html","167","314785","0.0-6.0-1.0-8.0-1.29","4","3","4","4","3","4","4","4","4","4","5","5","5","4","5","4","5","4","5","5","1","2","1","2","1","2","1","1","1","0","1","0","0","1","0","0","1","0","0","1","0","1","0","0","5","1","3","1","1","2","4","3","3","1","673561434503774208","王","695","","","","","","","","","","","","","","","","","","","true","14","4","moral","583","positive","君子","","","","","","","","","","","","","","",""
"null","","null","html-keyboard-response","168","315037","0.0-6.0-1.0-8.0-0.30","4","3","4","4","3","4","4","4","4","4","5","5","5","4","5","4","5","4","5","5","1","2","1","2","1","2","1","1","1","0","1","0","0","1","0","0","1","0","0","1","0","1","0","0","5","1","3","1","1","2","4","3","3","1","673561434503774208","王","695","","","","","","","","","","","","","","","","","","","","","","","","","","","","","","","","","","","","","","","",""
"559","<p style=""color:rgb(150, 250, 100); font-size: 35px;"">我</p>","e","categorize-html","169","315601","0.0-6.0-1.0-8.0-1.30","4","3","4","4","3","4","4","4","4","4","5","5","5","4","5","4","5","4","5","5","1","2","1","2","1","2","1","1","1","0","1","0","0","1","0","0","1","0","0","1","0","1","0","0","5","1","3","1","1","2","4","3","3","1","673561434503774208","王","695","","","","","","","","","","","","","","","","","","","true","14","4","moral","559","self","我","","","","","","","","","","","","","","",""
"null","","null","html-keyboard-response","170","315853","0.0-6.0-1.0-8.0-0.31","4","3","4","4","3","4","4","4","4","4","5","5","5","4","5","4","5","4","5","5","1","2","1","2","1","2","1","1","1","0","1","0","0","1","0","0","1","0","0","1","0","1","0","0","5","1","3","1","1","2","4","3","3","1","673561434503774208","王","695","","","","","","","","","","","","","","","","","","","","","","","","","","","","","","","","","","","","","","","",""
"558","<p style=""color:white; font-size: 35px;"">不仁</p>","i","categorize-html","171","316413","0.0-6.0-1.0-8.0-1.31","4","3","4","4","3","4","4","4","4","4","5","5","5","4","5","4","5","4","5","5","1","2","1","2","1","2","1","1","1","0","1","0","0","1","0","0","1","0","0","1","0","1","0","0","5","1","3","1","1","2","4","3","3","1","673561434503774208","王","695","","","","","","","","","","","","","","","","","","","true","14","4","moral","558","negative","不仁","","","","","","","","","","","","","","",""
"null","","null","html-keyboard-response","172","316665","0.0-6.0-1.0-8.0-0.32","4","3","4","4","3","4","4","4","4","4","5","5","5","4","5","4","5","4","5","5","1","2","1","2","1","2","1","1","1","0","1","0","0","1","0","0","1","0","0","1","0","1","0","0","5","1","3","1","1","2","4","3","3","1","673561434503774208","王","695","","","","","","","","","","","","","","","","","","","","","","","","","","","","","","","","","","","","","","","",""
"507","<p style=""color:rgb(150, 250, 100); font-size: 35px;"">本人</p>","e","categorize-html","173","317175","0.0-6.0-1.0-8.0-1.32","4","3","4","4","3","4","4","4","4","4","5","5","5","4","5","4","5","4","5","5","1","2","1","2","1","2","1","1","1","0","1","0","0","1","0","0","1","0","0","1","0","1","0","0","5","1","3","1","1","2","4","3","3","1","673561434503774208","王","695","","","","","","","","","","","","","","","","","","","true","14","4","moral","507","self","本人","","","","","","","","","","","","","","",""
"null","","null","html-keyboard-response","174","317428","0.0-6.0-1.0-8.0-0.33","4","3","4","4","3","4","4","4","4","4","5","5","5","4","5","4","5","4","5","5","1","2","1","2","1","2","1","1","1","0","1","0","0","1","0","0","1","0","0","1","0","1","0","0","5","1","3","1","1","2","4","3","3","1","673561434503774208","王","695","","","","","","","","","","","","","","","","","","","","","","","","","","","","","","","","","","","","","","","",""
"616","<p style=""color:white; font-size: 35px;"">小人</p>","i","categorize-html","175","318049","0.0-6.0-1.0-8.0-1.33","4","3","4","4","3","4","4","4","4","4","5","5","5","4","5","4","5","4","5","5","1","2","1","2","1","2","1","1","1","0","1","0","0","1","0","0","1","0","0","1","0","1","0","0","5","1","3","1","1","2","4","3","3","1","673561434503774208","王","695","","","","","","","","","","","","","","","","","","","true","14","4","moral","616","negative","小人","","","","","","","","","","","","","","",""
"null","","null","html-keyboard-response","176","318300","0.0-6.0-1.0-8.0-0.34","4","3","4","4","3","4","4","4","4","4","5","5","5","4","5","4","5","4","5","5","1","2","1","2","1","2","1","1","1","0","1","0","0","1","0","0","1","0","0","1","0","1","0","0","5","1","3","1","1","2","4","3","3","1","673561434503774208","王","695","","","","","","","","","","","","","","","","","","","","","","","","","","","","","","","","","","","","","","","",""
"608","<p style=""color:rgb(150, 250, 100); font-size: 35px;"">别人的</p>","i","categorize-html","177","318912","0.0-6.0-1.0-8.0-1.34","4","3","4","4","3","4","4","4","4","4","5","5","5","4","5","4","5","4","5","5","1","2","1","2","1","2","1","1","1","0","1","0","0","1","0","0","1","0","0","1","0","1","0","0","5","1","3","1","1","2","4","3","3","1","673561434503774208","王","695","","","","","","","","","","","","","","","","","","","true","14","4","moral","608","other","别人的","","","","","","","","","","","","","","",""
"null","","null","html-keyboard-response","178","319164","0.0-6.0-1.0-8.0-0.35","4","3","4","4","3","4","4","4","4","4","5","5","5","4","5","4","5","4","5","5","1","2","1","2","1","2","1","1","1","0","1","0","0","1","0","0","1","0","0","1","0","1","0","0","5","1","3","1","1","2","4","3","3","1","673561434503774208","王","695","","","","","","","","","","","","","","","","","","","","","","","","","","","","","","","","","","","","","","","",""
"503","<p style=""color:white; font-size: 35px;"">诚信</p>","e","categorize-html","179","319673","0.0-6.0-1.0-8.0-1.35","4","3","4","4","3","4","4","4","4","4","5","5","5","4","5","4","5","4","5","5","1","2","1","2","1","2","1","1","1","0","1","0","0","1","0","0","1","0","0","1","0","1","0","0","5","1","3","1","1","2","4","3","3","1","673561434503774208","王","695","","","","","","","","","","","","","","","","","","","true","14","4","moral","503","positive","诚信","","","","","","","","","","","","","","",""
"null","","null","html-keyboard-response","180","319924","0.0-6.0-1.0-8.0-0.36","4","3","4","4","3","4","4","4","4","4","5","5","5","4","5","4","5","4","5","5","1","2","1","2","1","2","1","1","1","0","1","0","0","1","0","0","1","0","0","1","0","1","0","0","5","1","3","1","1","2","4","3","3","1","673561434503774208","王","695","","","","","","","","","","","","","","","","","","","","","","","","","","","","","","","","","","","","","","","",""
"574","<p style=""color:rgb(150, 250, 100); font-size: 35px;"">我的</p>","e","categorize-html","181","320502","0.0-6.0-1.0-8.0-1.36","4","3","4","4","3","4","4","4","4","4","5","5","5","4","5","4","5","4","5","5","1","2","1","2","1","2","1","1","1","0","1","0","0","1","0","0","1","0","0","1","0","1","0","0","5","1","3","1","1","2","4","3","3","1","673561434503774208","王","695","","","","","","","","","","","","","","","","","","","true","14","4","moral","574","self","我的","","","","","","","","","","","","","","",""
"null","","null","html-keyboard-response","182","320754","0.0-6.0-1.0-8.0-0.37","4","3","4","4","3","4","4","4","4","4","5","5","5","4","5","4","5","4","5","5","1","2","1","2","1","2","1","1","1","0","1","0","0","1","0","0","1","0","0","1","0","1","0","0","5","1","3","1","1","2","4","3","3","1","673561434503774208","王","695","","","","","","","","","","","","","","","","","","","","","","","","","","","","","","","","","","","","","","","",""
"570","<p style=""color:white; font-size: 35px;"">黑心</p>","i","categorize-html","183","321329","0.0-6.0-1.0-8.0-1.37","4","3","4","4","3","4","4","4","4","4","5","5","5","4","5","4","5","4","5","5","1","2","1","2","1","2","1","1","1","0","1","0","0","1","0","0","1","0","0","1","0","1","0","0","5","1","3","1","1","2","4","3","3","1","673561434503774208","王","695","","","","","","","","","","","","","","","","","","","true","14","4","moral","570","negative","黑心","","","","","","","","","","","","","","",""
"null","","null","html-keyboard-response","184","321580","0.0-6.0-1.0-8.0-0.38","4","3","4","4","3","4","4","4","4","4","5","5","5","4","5","4","5","4","5","5","1","2","1","2","1","2","1","1","1","0","1","0","0","1","0","0","1","0","0","1","0","1","0","0","5","1","3","1","1","2","4","3","3","1","673561434503774208","王","695","","","","","","","","","","","","","","","","","","","","","","","","","","","","","","","","","","","","","","","",""
"646","<p style=""color:rgb(150, 250, 100); font-size: 35px;"">他</p>","i","categorize-html","185","322230","0.0-6.0-1.0-8.0-1.38","4","3","4","4","3","4","4","4","4","4","5","5","5","4","5","4","5","4","5","5","1","2","1","2","1","2","1","1","1","0","1","0","0","1","0","0","1","0","0","1","0","1","0","0","5","1","3","1","1","2","4","3","3","1","673561434503774208","王","695","","","","","","","","","","","","","","","","","","","true","14","4","moral","646","other","他","","","","","","","","","","","","","","",""
"null","","null","html-keyboard-response","186","322482","0.0-6.0-1.0-8.0-0.39","4","3","4","4","3","4","4","4","4","4","5","5","5","4","5","4","5","4","5","5","1","2","1","2","1","2","1","1","1","0","1","0","0","1","0","0","1","0","0","1","0","1","0","0","5","1","3","1","1","2","4","3","3","1","673561434503774208","王","695","","","","","","","","","","","","","","","","","","","","","","","","","","","","","","","","","","","","","","","",""
"626","<p style=""color:white; font-size: 35px;"">高尚</p>","e","categorize-html","187","323113","0.0-6.0-1.0-8.0-1.39","4","3","4","4","3","4","4","4","4","4","5","5","5","4","5","4","5","4","5","5","1","2","1","2","1","2","1","1","1","0","1","0","0","1","0","0","1","0","0","1","0","1","0","0","5","1","3","1","1","2","4","3","3","1","673561434503774208","王","695","","","","","","","","","","","","","","","","","","","true","14","4","moral","626","positive","高尚","","","","","","","","","","","","","","",""
"null","","null","html-keyboard-response","188","323366","0.0-6.0-1.0-8.0-0.40","4","3","4","4","3","4","4","4","4","4","5","5","5","4","5","4","5","4","5","5","1","2","1","2","1","2","1","1","1","0","1","0","0","1","0","0","1","0","0","1","0","1","0","0","5","1","3","1","1","2","4","3","3","1","673561434503774208","王","695","","","","","","","","","","","","","","","","","","","","","","","","","","","","","","","","","","","","","","","",""
"613","<p style=""color:rgb(150, 250, 100); font-size: 35px;"">自己的</p>","e","categorize-html","189","323981","0.0-6.0-1.0-8.0-1.40","4","3","4","4","3","4","4","4","4","4","5","5","5","4","5","4","5","4","5","5","1","2","1","2","1","2","1","1","1","0","1","0","0","1","0","0","1","0","0","1","0","1","0","0","5","1","3","1","1","2","4","3","3","1","673561434503774208","王","695","","","","","","","","","","","","","","","","","","","true","14","4","moral","613","self","自己的","","","","","","","","","","","","","","",""
"null","","null","html-keyboard-response","190","324248","0.0-6.0-1.0-8.0-0.41","4","3","4","4","3","4","4","4","4","4","5","5","5","4","5","4","5","4","5","5","1","2","1","2","1","2","1","1","1","0","1","0","0","1","0","0","1","0","0","1","0","1","0","0","5","1","3","1","1","2","4","3","3","1","673561434503774208","王","695","","","","","","","","","","","","","","","","","","","","","","","","","","","","","","","","","","","","","","","",""
"899","<p style=""color:white; font-size: 35px;"">善良</p>","e","categorize-html","191","325149","0.0-6.0-1.0-8.0-1.41","4","3","4","4","3","4","4","4","4","4","5","5","5","4","5","4","5","4","5","5","1","2","1","2","1","2","1","1","1","0","1","0","0","1","0","0","1","0","0","1","0","1","0","0","5","1","3","1","1","2","4","3","3","1","673561434503774208","王","695","","","","","","","","","","","","","","","","","","","true","14","4","moral","899","positive","善良","","","","","","","","","","","","","","",""
"null","","null","html-keyboard-response","192","325401","0.0-6.0-1.0-8.0-0.42","4","3","4","4","3","4","4","4","4","4","5","5","5","4","5","4","5","4","5","5","1","2","1","2","1","2","1","1","1","0","1","0","0","1","0","0","1","0","0","1","0","1","0","0","5","1","3","1","1","2","4","3","3","1","673561434503774208","王","695","","","","","","","","","","","","","","","","","","","","","","","","","","","","","","","","","","","","","","","",""
"641","<p style=""color:rgb(150, 250, 100); font-size: 35px;"">他人</p>","i","categorize-html","193","326045","0.0-6.0-1.0-8.0-1.42","4","3","4","4","3","4","4","4","4","4","5","5","5","4","5","4","5","4","5","5","1","2","1","2","1","2","1","1","1","0","1","0","0","1","0","0","1","0","0","1","0","1","0","0","5","1","3","1","1","2","4","3","3","1","673561434503774208","王","695","","","","","","","","","","","","","","","","","","","true","14","4","moral","641","other","他人","","","","","","","","","","","","","","",""
"null","","null","html-keyboard-response","194","326296","0.0-6.0-1.0-8.0-0.43","4","3","4","4","3","4","4","4","4","4","5","5","5","4","5","4","5","4","5","5","1","2","1","2","1","2","1","1","1","0","1","0","0","1","0","0","1","0","0","1","0","1","0","0","5","1","3","1","1","2","4","3","3","1","673561434503774208","王","695","","","","","","","","","","","","","","","","","","","","","","","","","","","","","","","","","","","","","","","",""
"539","<p style=""color:white; font-size: 35px;"">不仁</p>","i","categorize-html","195","326840","0.0-6.0-1.0-8.0-1.43","4","3","4","4","3","4","4","4","4","4","5","5","5","4","5","4","5","4","5","5","1","2","1","2","1","2","1","1","1","0","1","0","0","1","0","0","1","0","0","1","0","1","0","0","5","1","3","1","1","2","4","3","3","1","673561434503774208","王","695","","","","","","","","","","","","","","","","","","","true","14","4","moral","539","negative","不仁","","","","","","","","","","","","","","",""
"null","","null","html-keyboard-response","196","327091","0.0-6.0-1.0-8.0-0.44","4","3","4","4","3","4","4","4","4","4","5","5","5","4","5","4","5","4","5","5","1","2","1","2","1","2","1","1","1","0","1","0","0","1","0","0","1","0","0","1","0","1","0","0","5","1","3","1","1","2","4","3","3","1","673561434503774208","王","695","","","","","","","","","","","","","","","","","","","","","","","","","","","","","","","","","","","","","","","",""
"872","<p style=""color:rgb(150, 250, 100); font-size: 35px;"">他人的</p>","i","categorize-html","197","327969","0.0-6.0-1.0-8.0-1.44","4","3","4","4","3","4","4","4","4","4","5","5","5","4","5","4","5","4","5","5","1","2","1","2","1","2","1","1","1","0","1","0","0","1","0","0","1","0","0","1","0","1","0","0","5","1","3","1","1","2","4","3","3","1","673561434503774208","王","695","","","","","","","","","","","","","","","","","","","true","14","4","moral","872","other","他人的","","","","","","","","","","","","","","",""
