"rt","stimulus","response","trial_type","trial_index","time_elapsed","internal_node_id","ses_1","ses_2","ses_3","ses_4","ses_5","ses_6","ses_7","ses_8","ses_9","ses_10","coreself_1","coreself_2","coreself_3","coreself_4","coreself_5","coreself_6","coreself_7","coreself_8","coreself_9","coreself_10","SGPS_1","SGPS_2","SGPS_3","SGPS_4","SGPS_5","SGPS_6","SGPS_7","SGPS_8","SGPS_9","NPI1","NPI2","NPI3","NPI4","NPI5","NPI6","NPI7","NPI8","NPI9","NPI10","NPI11","NPI12","NPI13","NPI14","NPI15","hsns_1","hsns_2","hsns_3","hsns_4","hsns_5","hsns_6","hsns_7","hsns_8","hsns_9","hsns_10","subj_idx","friend_name","ParticipantID","value","success","user_agent","responses","item_order","radio_event_ids","radio_event_times","key_event_times","mouse_event_times","straightlining","zigzagging","honeypot","timeout","failed_images","failed_audio","failed_video","version_attrib","version_target","correct","IAT","screen_id","task_id","RT","condition","word","varname","summary","version_attrib2","version_target2","time_stamp","view_history","response_type","key_press","avg_frame_time","center_x","center_y","correct_response","identity","Image","question_order"
"8264","
   <p><div style = ""color: white;font-size:25px;"">您好，欢迎参加本次实验。</div> </p>
   <p><div style = ""color: white;font-size:25px;"">为充分保障您的权利，请确保您已经知晓并同意《参与实验同意书》以及《数据公开知情同意书》。</div></p>
   <p><div style = ""color: white;font-size:25px;"">如果您未见过上述内容，请咨询实验员。</div></p>
   <p><div style = ""color: white;font-size:25px;"">如果您选择继续实验，则表示您已经清楚两份知情同意书的内容并同意。</div></p>
   <p><div style = ""color: red;font-size:30px;"">请确保您记得day0的实验编号，您将在本次实验输入该编号，若您忘记，请咨询实验员后作答。</div></p>
   <p> <div style = ""color: green;font-size:25px;""><按空格键至下页></div> </p>
   "," ","html-keyboard-response","0","8265","0.0-0.0","4","3","4","3","3","4","3","3","4","4","5","4","2","4","3","5","4","3","4","5","4","3","4","3","4","4","3","4","2","0","0","1","1","0","1","1","1","0","1","0","0","0","0","1","5","2","4","1","2","2","2","4","1","3","732578051896119298","王","649","","","","","","","","","","","","","","","","","","","","","","","","","","","","","","","","","","","","","","","",""
"","","","call-function","1","8266","0.0-1.0-0.0","4","3","4","3","3","4","3","3","4","4","5","4","2","4","3","5","4","3","4","5","4","3","4","3","4","4","3","4","2","0","0","1","1","0","1","1","1","0","1","0","0","0","0","1","5","2","4","1","2","2","2","4","1","3","732578051896119298","王","649","","","","","","","","","","","","","","","","","","","","","","","","","","","","","","","","","","","","","","","",""
"63464","","{""friend_name"":""王"",""ParticipantID"":""649""}","survey-html-form","2","71731","0.0-1.0-1.0","4","3","4","3","3","4","3","3","4","4","5","4","2","4","3","5","4","3","4","5","4","3","4","3","4","4","3","4","2","0","0","1","1","0","1","1","1","0","1","0","0","0","0","1","5","2","4","1","2","2","2","4","1","3","732578051896119298","王","649","","","","","","","","","","","","","","","","","","","","","","","","","","","","","","","","","","","","","","","",""
"","","","fullscreen","3","97938","0.0-2.0","4","3","4","3","3","4","3","3","4","4","5","4","2","4","3","5","4","3","4","5","4","3","4","3","4","4","3","4","2","0","0","1","1","0","1","1","1","0","1","0","0","0","0","1","5","2","4","1","2","2","2","4","1","3","732578051896119298","王","649","","true","{}","","","","","","","","","","","","","","","","","","","","","","","","","","","","","","","","","","","","",""
"21881.399999999965","","{""Q01"":""4"",""Q02"":""3"",""Q03"":""4"",""Q04"":""3"",""Q05"":""3"",""Q06"":""4"",""Q07"":""3"",""Q08"":""3"",""Q09"":""4"",""Q10"":""4""}","survey-template","4","119823","0.0-3.0","4","3","4","3","3","4","3","3","4","4","5","4","2","4","3","5","4","3","4","5","4","3","4","3","4","4","3","4","2","0","0","1","1","0","1","1","1","0","1","0","0","0","0","1","5","2","4","1","2","2","2","4","1","3","732578051896119298","王","649","","","","{""Q01"":""4"",""Q02"":""3"",""Q03"":""4"",""Q04"":""3"",""Q05"":""3"",""Q06"":""4"",""Q07"":""3"",""Q08"":""3"",""Q09"":""4"",""Q10"":""4""}","[0,1,2,3,4,5,6,7,8,9]","[""Q01"",""Q02"",""Q03"",""Q04"",""Q05"",""Q06"",""Q07"",""Q08"",""Q09"",""Q10""]","[4772.5,7916.399999999965,8944.599999999977,10266.699999999953,11982.199999999953,13994.899999999965,15258.399999999965,17118,19632.599999999977,21012.5]","[]","[4772.5,6160.699999999953,7916.399999999965,8944.599999999977,10266.699999999953,11982.199999999953,13994.899999999965,15258.399999999965,17118,18800.599999999977,19632.599999999977,21012.5,21880.29999999999]","0.3","0.5555555555555556","0","","","","","","","","","","","","","","","","","","","","","","","","","","","",""
"44628.09999999998","","{""Q01"":""5"",""Q02"":""4"",""Q03"":""2"",""Q04"":""4"",""Q05"":""3"",""Q06"":""5"",""Q07"":""4"",""Q08"":""3"",""Q09"":""4"",""Q10"":""5""}","survey-template","5","164454","0.0-4.0","4","3","4","3","3","4","3","3","4","4","5","4","2","4","3","5","4","3","4","5","4","3","4","3","4","4","3","4","2","0","0","1","1","0","1","1","1","0","1","0","0","0","0","1","5","2","4","1","2","2","2","4","1","3","732578051896119298","王","649","","","","{""Q01"":""5"",""Q02"":""4"",""Q03"":""2"",""Q04"":""4"",""Q05"":""3"",""Q06"":""5"",""Q07"":""4"",""Q08"":""3"",""Q09"":""4"",""Q10"":""5""}","[0,1,2,3,4,5,6,7,8,9]","[""Q01"",""Q02"",""Q03"",""Q01"",""Q04"",""Q05"",""Q06"",""Q07"",""Q08"",""Q09"",""Q10""]","[19561.599999999977,23033,24616.900000000023,25579.20000000001,28243.5,29987.5,33301.29999999999,34729.20000000001,37909,40451.20000000001,42651]","[]","[3369.2000000000116,4189.200000000012,18529.099999999977,19561.599999999977,21877.20000000001,23033,24616.900000000023,25579.20000000001,28243.5,29987.5,31075.099999999977,32740.79999999999,33301.29999999999,34729.20000000001,37909,40451.20000000001,42651,43927.20000000001,44627.20000000001]","0.3","0.3333333333333333","0","","","","","","","","","","","","","","","","","","","","","","","","","","","",""
"","","","preload","6","164834","0.0-5.0","4","3","4","3","3","4","3","3","4","4","5","4","2","4","3","5","4","3","4","5","4","3","4","3","4","4","3","4","2","0","0","1","1","0","1","1","1","0","1","0","0","0","0","1","5","2","4","1","2","2","2","4","1","3","732578051896119298","王","649","","true","","","","","","","","","","","false","[]","[]","[]","","","","","","","","","","","","","","","","","","","","","","","",""
"13418","
    <h3>词语分类任务</h3>
    <p>在接下来的任务中，你需要对一系列词语进行分类。</p>
    <p>请先熟悉这些词语，这有利于你完成接下来的任务。</p>
    <table align=""center"" border=1 cellpadding=3 cellspacing=0>
    <tr> <th>类别</th> <th>词语</th> </tr>
    <tr> <td>&emsp;积极&emsp;</td> <td>&emsp;能干、全能、全才、高效、精干、天才&emsp;</td> </tr>
    <tr> <td>&emsp;消极&emsp;</td> <td>&emsp;无能、低能、废物、拙笨、愚钝、蠢笨&emsp;</td> </tr>
    <tr> <td>&emsp;自我&emsp;</td> <td>&emsp;我、我的、自己、自己的、本人、本人的&emsp;</td> </tr>
    <tr> <td>&emsp;他人&emsp;</td> <td>&emsp;他、他的、别人、别人的、他人、他人的&emsp;</td> </tr>
    </table><br/>","0","html-button-response","7","178253","0.0-6.0-0.0-0.0","4","3","4","3","3","4","3","3","4","4","5","4","2","4","3","5","4","3","4","5","4","3","4","3","4","4","3","4","2","0","0","1","1","0","1","1","1","0","1","0","0","0","0","1","5","2","4","1","2","2","2","4","1","3","732578051896119298","王","649","","","","","","","","","","","","","","","","","1","1","","","","","","","","","","","","","","","","","","","","","",""
"14405","
    <div class=""tag-bottom"">
    <p> —— 任务1：对“自我”词和“他人”词分类 ——<p/>
    不同词语会出现在屏幕中央，类别标签将始终显示在屏幕上方<p/>   
    <span style=""color:#FFD866""><b>请根据上方标签的提示，尽可能正确并且快速地做出按键反应</b></span><p/>
    当按键错误时屏幕中会出现<span style=""color:red""> X </span>，需要按另一个键纠正才能继续<br/><p/>
    请把双手食指分别放在键盘的“E”键和“I”键上<p/>
    按<空格键>开始
    </p></div>"," ","html-keyboard-response","8","192659","0.0-6.0-0.0-1.0","4","3","4","3","3","4","3","3","4","4","5","4","2","4","3","5","4","3","4","5","4","3","4","3","4","4","3","4","2","0","0","1","1","0","1","1","1","0","1","0","0","0","0","1","5","2","4","1","2","2","2","4","1","3","732578051896119298","王","649","","","","","","","","","","","","","","","","","","","","","","","","","","","","","","","","","","","","","","","",""
"null","","null","html-keyboard-response","9","192910","0.0-6.0-0.0-2.0-0.0","4","3","4","3","3","4","3","3","4","4","5","4","2","4","3","5","4","3","4","5","4","3","4","3","4","4","3","4","2","0","0","1","1","0","1","1","1","0","1","0","0","0","0","1","5","2","4","1","2","2","2","4","1","3","732578051896119298","王","649","","","","","","","","","","","","","","","","","","","","","","","","","","","","","","","","","","","","","","","",""
"950","<p style=""color:rgb(150, 250, 100); font-size: 35px;"">我的</p>","e","categorize-html","10","193866","0.0-6.0-0.0-2.0-1.0","4","3","4","3","3","4","3","3","4","4","5","4","2","4","3","5","4","3","4","5","4","3","4","3","4","4","3","4","2","0","0","1","1","0","1","1","1","0","1","0","0","0","0","1","5","2","4","1","2","2","2","4","1","3","732578051896119298","王","649","","","","","","","","","","","","","","","","","","","true","1","1","ability","950","self","我的","","","","","","","","","","","","","","",""
"null","","null","html-keyboard-response","11","194118","0.0-6.0-0.0-2.0-0.1","4","3","4","3","3","4","3","3","4","4","5","4","2","4","3","5","4","3","4","5","4","3","4","3","4","4","3","4","2","0","0","1","1","0","1","1","1","0","1","0","0","0","0","1","5","2","4","1","2","2","2","4","1","3","732578051896119298","王","649","","","","","","","","","","","","","","","","","","","","","","","","","","","","","","","","","","","","","","","",""
"734","<p style=""color:rgb(150, 250, 100); font-size: 35px;"">别人的</p>","i","categorize-html","12","194852","0.0-6.0-0.0-2.0-1.1","4","3","4","3","3","4","3","3","4","4","5","4","2","4","3","5","4","3","4","5","4","3","4","3","4","4","3","4","2","0","0","1","1","0","1","1","1","0","1","0","0","0","0","1","5","2","4","1","2","2","2","4","1","3","732578051896119298","王","649","","","","","","","","","","","","","","","","","","","true","1","1","ability","734","other","别人的","","","","","","","","","","","","","","",""
"null","","null","html-keyboard-response","13","195103","0.0-6.0-0.0-2.0-0.2","4","3","4","3","3","4","3","3","4","4","5","4","2","4","3","5","4","3","4","5","4","3","4","3","4","4","3","4","2","0","0","1","1","0","1","1","1","0","1","0","0","0","0","1","5","2","4","1","2","2","2","4","1","3","732578051896119298","王","649","","","","","","","","","","","","","","","","","","","","","","","","","","","","","","","","","","","","","","","",""
"696","<p style=""color:rgb(150, 250, 100); font-size: 35px;"">他人的</p>","i","categorize-html","14","195800","0.0-6.0-0.0-2.0-1.2","4","3","4","3","3","4","3","3","4","4","5","4","2","4","3","5","4","3","4","5","4","3","4","3","4","4","3","4","2","0","0","1","1","0","1","1","1","0","1","0","0","0","0","1","5","2","4","1","2","2","2","4","1","3","732578051896119298","王","649","","","","","","","","","","","","","","","","","","","true","1","1","ability","696","other","他人的","","","","","","","","","","","","","","",""
"null","","null","html-keyboard-response","15","196052","0.0-6.0-0.0-2.0-0.3","4","3","4","3","3","4","3","3","4","4","5","4","2","4","3","5","4","3","4","5","4","3","4","3","4","4","3","4","2","0","0","1","1","0","1","1","1","0","1","0","0","0","0","1","5","2","4","1","2","2","2","4","1","3","732578051896119298","王","649","","","","","","","","","","","","","","","","","","","","","","","","","","","","","","","","","","","","","","","",""
"488","<p style=""color:rgb(150, 250, 100); font-size: 35px;"">本人的</p>","e","categorize-html","16","196541","0.0-6.0-0.0-2.0-1.3","4","3","4","3","3","4","3","3","4","4","5","4","2","4","3","5","4","3","4","5","4","3","4","3","4","4","3","4","2","0","0","1","1","0","1","1","1","0","1","0","0","0","0","1","5","2","4","1","2","2","2","4","1","3","732578051896119298","王","649","","","","","","","","","","","","","","","","","","","true","1","1","ability","488","self","本人的","","","","","","","","","","","","","","",""
"null","","null","html-keyboard-response","17","196792","0.0-6.0-0.0-2.0-0.4","4","3","4","3","3","4","3","3","4","4","5","4","2","4","3","5","4","3","4","5","4","3","4","3","4","4","3","4","2","0","0","1","1","0","1","1","1","0","1","0","0","0","0","1","5","2","4","1","2","2","2","4","1","3","732578051896119298","王","649","","","","","","","","","","","","","","","","","","","","","","","","","","","","","","","","","","","","","","","",""
"391","<p style=""color:rgb(150, 250, 100); font-size: 35px;"">本人</p>","e","categorize-html","18","197186","0.0-6.0-0.0-2.0-1.4","4","3","4","3","3","4","3","3","4","4","5","4","2","4","3","5","4","3","4","5","4","3","4","3","4","4","3","4","2","0","0","1","1","0","1","1","1","0","1","0","0","0","0","1","5","2","4","1","2","2","2","4","1","3","732578051896119298","王","649","","","","","","","","","","","","","","","","","","","true","1","1","ability","391","self","本人","","","","","","","","","","","","","","",""
"null","","null","html-keyboard-response","19","197437","0.0-6.0-0.0-2.0-0.5","4","3","4","3","3","4","3","3","4","4","5","4","2","4","3","5","4","3","4","5","4","3","4","3","4","4","3","4","2","0","0","1","1","0","1","1","1","0","1","0","0","0","0","1","5","2","4","1","2","2","2","4","1","3","732578051896119298","王","649","","","","","","","","","","","","","","","","","","","","","","","","","","","","","","","","","","","","","","","",""
"395","<p style=""color:rgb(150, 250, 100); font-size: 35px;"">自己的</p>","e","categorize-html","20","197833","0.0-6.0-0.0-2.0-1.5","4","3","4","3","3","4","3","3","4","4","5","4","2","4","3","5","4","3","4","5","4","3","4","3","4","4","3","4","2","0","0","1","1","0","1","1","1","0","1","0","0","0","0","1","5","2","4","1","2","2","2","4","1","3","732578051896119298","王","649","","","","","","","","","","","","","","","","","","","true","1","1","ability","395","self","自己的","","","","","","","","","","","","","","",""
"null","","null","html-keyboard-response","21","198085","0.0-6.0-0.0-2.0-0.6","4","3","4","3","3","4","3","3","4","4","5","4","2","4","3","5","4","3","4","5","4","3","4","3","4","4","3","4","2","0","0","1","1","0","1","1","1","0","1","0","0","0","0","1","5","2","4","1","2","2","2","4","1","3","732578051896119298","王","649","","","","","","","","","","","","","","","","","","","","","","","","","","","","","","","","","","","","","","","",""
"587","<p style=""color:rgb(150, 250, 100); font-size: 35px;"">他的</p>","i","categorize-html","22","198673","0.0-6.0-0.0-2.0-1.6","4","3","4","3","3","4","3","3","4","4","5","4","2","4","3","5","4","3","4","5","4","3","4","3","4","4","3","4","2","0","0","1","1","0","1","1","1","0","1","0","0","0","0","1","5","2","4","1","2","2","2","4","1","3","732578051896119298","王","649","","","","","","","","","","","","","","","","","","","true","1","1","ability","587","other","他的","","","","","","","","","","","","","","",""
"null","","null","html-keyboard-response","23","198924","0.0-6.0-0.0-2.0-0.7","4","3","4","3","3","4","3","3","4","4","5","4","2","4","3","5","4","3","4","5","4","3","4","3","4","4","3","4","2","0","0","1","1","0","1","1","1","0","1","0","0","0","0","1","5","2","4","1","2","2","2","4","1","3","732578051896119298","王","649","","","","","","","","","","","","","","","","","","","","","","","","","","","","","","","","","","","","","","","",""
"552","<p style=""color:rgb(150, 250, 100); font-size: 35px;"">他</p>","i","categorize-html","24","199477","0.0-6.0-0.0-2.0-1.7","4","3","4","3","3","4","3","3","4","4","5","4","2","4","3","5","4","3","4","5","4","3","4","3","4","4","3","4","2","0","0","1","1","0","1","1","1","0","1","0","0","0","0","1","5","2","4","1","2","2","2","4","1","3","732578051896119298","王","649","","","","","","","","","","","","","","","","","","","true","1","1","ability","552","other","他","","","","","","","","","","","","","","",""
"null","","null","html-keyboard-response","25","199743","0.0-6.0-0.0-2.0-0.8","4","3","4","3","3","4","3","3","4","4","5","4","2","4","3","5","4","3","4","5","4","3","4","3","4","4","3","4","2","0","0","1","1","0","1","1","1","0","1","0","0","0","0","1","5","2","4","1","2","2","2","4","1","3","732578051896119298","王","649","","","","","","","","","","","","","","","","","","","","","","","","","","","","","","","","","","","","","","","",""
"484","<p style=""color:rgb(150, 250, 100); font-size: 35px;"">自己</p>","e","categorize-html","26","200228","0.0-6.0-0.0-2.0-1.8","4","3","4","3","3","4","3","3","4","4","5","4","2","4","3","5","4","3","4","5","4","3","4","3","4","4","3","4","2","0","0","1","1","0","1","1","1","0","1","0","0","0","0","1","5","2","4","1","2","2","2","4","1","3","732578051896119298","王","649","","","","","","","","","","","","","","","","","","","true","1","1","ability","484","self","自己","","","","","","","","","","","","","","",""
"null","","null","html-keyboard-response","27","200480","0.0-6.0-0.0-2.0-0.9","4","3","4","3","3","4","3","3","4","4","5","4","2","4","3","5","4","3","4","5","4","3","4","3","4","4","3","4","2","0","0","1","1","0","1","1","1","0","1","0","0","0","0","1","5","2","4","1","2","2","2","4","1","3","732578051896119298","王","649","","","","","","","","","","","","","","","","","","","","","","","","","","","","","","","","","","","","","","","",""
"416","<p style=""color:rgb(150, 250, 100); font-size: 35px;"">他人</p>","i","categorize-html","28","200898","0.0-6.0-0.0-2.0-1.9","4","3","4","3","3","4","3","3","4","4","5","4","2","4","3","5","4","3","4","5","4","3","4","3","4","4","3","4","2","0","0","1","1","0","1","1","1","0","1","0","0","0","0","1","5","2","4","1","2","2","2","4","1","3","732578051896119298","王","649","","","","","","","","","","","","","","","","","","","true","1","1","ability","416","other","他人","","","","","","","","","","","","","","",""
"null","","null","html-keyboard-response","29","201155","0.0-6.0-0.0-2.0-0.10","4","3","4","3","3","4","3","3","4","4","5","4","2","4","3","5","4","3","4","5","4","3","4","3","4","4","3","4","2","0","0","1","1","0","1","1","1","0","1","0","0","0","0","1","5","2","4","1","2","2","2","4","1","3","732578051896119298","王","649","","","","","","","","","","","","","","","","","","","","","","","","","","","","","","","","","","","","","","","",""
"372","<p style=""color:rgb(150, 250, 100); font-size: 35px;"">我</p>","e","categorize-html","30","201528","0.0-6.0-0.0-2.0-1.10","4","3","4","3","3","4","3","3","4","4","5","4","2","4","3","5","4","3","4","5","4","3","4","3","4","4","3","4","2","0","0","1","1","0","1","1","1","0","1","0","0","0","0","1","5","2","4","1","2","2","2","4","1","3","732578051896119298","王","649","","","","","","","","","","","","","","","","","","","true","1","1","ability","372","self","我","","","","","","","","","","","","","","",""
"null","","null","html-keyboard-response","31","201779","0.0-6.0-0.0-2.0-0.11","4","3","4","3","3","4","3","3","4","4","5","4","2","4","3","5","4","3","4","5","4","3","4","3","4","4","3","4","2","0","0","1","1","0","1","1","1","0","1","0","0","0","0","1","5","2","4","1","2","2","2","4","1","3","732578051896119298","王","649","","","","","","","","","","","","","","","","","","","","","","","","","","","","","","","","","","","","","","","",""
"355","<p style=""color:rgb(150, 250, 100); font-size: 35px;"">别人</p>","i","categorize-html","32","202136","0.0-6.0-0.0-2.0-1.11","4","3","4","3","3","4","3","3","4","4","5","4","2","4","3","5","4","3","4","5","4","3","4","3","4","4","3","4","2","0","0","1","1","0","1","1","1","0","1","0","0","0","0","1","5","2","4","1","2","2","2","4","1","3","732578051896119298","王","649","","","","","","","","","","","","","","","","","","","true","1","1","ability","355","other","别人","","","","","","","","","","","","","","",""
"8804","
    <div class=""tag-bottom""><p>
    —— 任务2：对“积极”词和“消极”词分类 ——<p/>   
    <span style=""color:#78DCE8""><b>注意上方，类别标签和需要分类的词语都已经改变</b></span><p/>
    <span style=""color:#FFD866""><b>请根据上方标签的提示，尽可能正确并且快速地做出按键反应</b></span><p/>
    当按键错误时屏幕中会出现<span style=""color:red""> X </span>，需要按另一个键纠正才能继续<br/><p/>
    请把双手食指分别放在键盘的“E”键和“I”键上<p/>
    按<空格键>开始
    </p></div>"," ","html-keyboard-response","33","210940","0.0-6.0-0.0-3.0","4","3","4","3","3","4","3","3","4","4","5","4","2","4","3","5","4","3","4","5","4","3","4","3","4","4","3","4","2","0","0","1","1","0","1","1","1","0","1","0","0","0","0","1","5","2","4","1","2","2","2","4","1","3","732578051896119298","王","649","","","","","","","","","","","","","","","","","","","","","","","","","","","","","","","","","","","","","","","",""
"null","","null","html-keyboard-response","34","211191","0.0-6.0-0.0-4.0-0.0","4","3","4","3","3","4","3","3","4","4","5","4","2","4","3","5","4","3","4","5","4","3","4","3","4","4","3","4","2","0","0","1","1","0","1","1","1","0","1","0","0","0","0","1","5","2","4","1","2","2","2","4","1","3","732578051896119298","王","649","","","","","","","","","","","","","","","","","","","","","","","","","","","","","","","","","","","","","","","",""
"751","<p style=""color:white; font-size: 35px;"">蠢笨</p>","i","categorize-html","35","211944","0.0-6.0-0.0-4.0-1.0","4","3","4","3","3","4","3","3","4","4","5","4","2","4","3","5","4","3","4","5","4","3","4","3","4","4","3","4","2","0","0","1","1","0","1","1","1","0","1","0","0","0","0","1","5","2","4","1","2","2","2","4","1","3","732578051896119298","王","649","","","","","","","","","","","","","","","","","","","true","2","2","ability","751","negative","蠢笨","","","","","","","","","","","","","","",""
"null","","null","html-keyboard-response","36","212196","0.0-6.0-0.0-4.0-0.1","4","3","4","3","3","4","3","3","4","4","5","4","2","4","3","5","4","3","4","5","4","3","4","3","4","4","3","4","2","0","0","1","1","0","1","1","1","0","1","0","0","0","0","1","5","2","4","1","2","2","2","4","1","3","732578051896119298","王","649","","","","","","","","","","","","","","","","","","","","","","","","","","","","","","","","","","","","","","","",""
"382","<p style=""color:white; font-size: 35px;"">天才</p>","e","categorize-html","37","212579","0.0-6.0-0.0-4.0-1.1","4","3","4","3","3","4","3","3","4","4","5","4","2","4","3","5","4","3","4","5","4","3","4","3","4","4","3","4","2","0","0","1","1","0","1","1","1","0","1","0","0","0","0","1","5","2","4","1","2","2","2","4","1","3","732578051896119298","王","649","","","","","","","","","","","","","","","","","","","true","2","2","ability","382","positive","天才","","","","","","","","","","","","","","",""
"null","","null","html-keyboard-response","38","212830","0.0-6.0-0.0-4.0-0.2","4","3","4","3","3","4","3","3","4","4","5","4","2","4","3","5","4","3","4","5","4","3","4","3","4","4","3","4","2","0","0","1","1","0","1","1","1","0","1","0","0","0","0","1","5","2","4","1","2","2","2","4","1","3","732578051896119298","王","649","","","","","","","","","","","","","","","","","","","","","","","","","","","","","","","","","","","","","","","",""
"466","<p style=""color:white; font-size: 35px;"">高效</p>","e","categorize-html","39","213296","0.0-6.0-0.0-4.0-1.2","4","3","4","3","3","4","3","3","4","4","5","4","2","4","3","5","4","3","4","5","4","3","4","3","4","4","3","4","2","0","0","1","1","0","1","1","1","0","1","0","0","0","0","1","5","2","4","1","2","2","2","4","1","3","732578051896119298","王","649","","","","","","","","","","","","","","","","","","","true","2","2","ability","466","positive","高效","","","","","","","","","","","","","","",""
"null","","null","html-keyboard-response","40","213548","0.0-6.0-0.0-4.0-0.3","4","3","4","3","3","4","3","3","4","4","5","4","2","4","3","5","4","3","4","5","4","3","4","3","4","4","3","4","2","0","0","1","1","0","1","1","1","0","1","0","0","0","0","1","5","2","4","1","2","2","2","4","1","3","732578051896119298","王","649","","","","","","","","","","","","","","","","","","","","","","","","","","","","","","","","","","","","","","","",""
"419","<p style=""color:white; font-size: 35px;"">能干</p>","e","categorize-html","41","213967","0.0-6.0-0.0-4.0-1.3","4","3","4","3","3","4","3","3","4","4","5","4","2","4","3","5","4","3","4","5","4","3","4","3","4","4","3","4","2","0","0","1","1","0","1","1","1","0","1","0","0","0","0","1","5","2","4","1","2","2","2","4","1","3","732578051896119298","王","649","","","","","","","","","","","","","","","","","","","true","2","2","ability","419","positive","能干","","","","","","","","","","","","","","",""
"null","","null","html-keyboard-response","42","214218","0.0-6.0-0.0-4.0-0.4","4","3","4","3","3","4","3","3","4","4","5","4","2","4","3","5","4","3","4","5","4","3","4","3","4","4","3","4","2","0","0","1","1","0","1","1","1","0","1","0","0","0","0","1","5","2","4","1","2","2","2","4","1","3","732578051896119298","王","649","","","","","","","","","","","","","","","","","","","","","","","","","","","","","","","","","","","","","","","",""
"405","<p style=""color:white; font-size: 35px;"">愚钝</p>","i","categorize-html","43","214623","0.0-6.0-0.0-4.0-1.4","4","3","4","3","3","4","3","3","4","4","5","4","2","4","3","5","4","3","4","5","4","3","4","3","4","4","3","4","2","0","0","1","1","0","1","1","1","0","1","0","0","0","0","1","5","2","4","1","2","2","2","4","1","3","732578051896119298","王","649","","","","","","","","","","","","","","","","","","","true","2","2","ability","405","negative","愚钝","","","","","","","","","","","","","","",""
"null","","null","html-keyboard-response","44","214875","0.0-6.0-0.0-4.0-0.5","4","3","4","3","3","4","3","3","4","4","5","4","2","4","3","5","4","3","4","5","4","3","4","3","4","4","3","4","2","0","0","1","1","0","1","1","1","0","1","0","0","0","0","1","5","2","4","1","2","2","2","4","1","3","732578051896119298","王","649","","","","","","","","","","","","","","","","","","","","","","","","","","","","","","","","","","","","","","","",""
"535","<p style=""color:white; font-size: 35px;"">废物</p>","i","categorize-html","45","215411","0.0-6.0-0.0-4.0-1.5","4","3","4","3","3","4","3","3","4","4","5","4","2","4","3","5","4","3","4","5","4","3","4","3","4","4","3","4","2","0","0","1","1","0","1","1","1","0","1","0","0","0","0","1","5","2","4","1","2","2","2","4","1","3","732578051896119298","王","649","","","","","","","","","","","","","","","","","","","true","2","2","ability","535","negative","废物","","","","","","","","","","","","","","",""
"null","","null","html-keyboard-response","46","215662","0.0-6.0-0.0-4.0-0.6","4","3","4","3","3","4","3","3","4","4","5","4","2","4","3","5","4","3","4","5","4","3","4","3","4","4","3","4","2","0","0","1","1","0","1","1","1","0","1","0","0","0","0","1","5","2","4","1","2","2","2","4","1","3","732578051896119298","王","649","","","","","","","","","","","","","","","","","","","","","","","","","","","","","","","","","","","","","","","",""
"453","<p style=""color:white; font-size: 35px;"">精干</p>","e","categorize-html","47","216116","0.0-6.0-0.0-4.0-1.6","4","3","4","3","3","4","3","3","4","4","5","4","2","4","3","5","4","3","4","5","4","3","4","3","4","4","3","4","2","0","0","1","1","0","1","1","1","0","1","0","0","0","0","1","5","2","4","1","2","2","2","4","1","3","732578051896119298","王","649","","","","","","","","","","","","","","","","","","","true","2","2","ability","453","positive","精干","","","","","","","","","","","","","","",""
"null","","null","html-keyboard-response","48","216367","0.0-6.0-0.0-4.0-0.7","4","3","4","3","3","4","3","3","4","4","5","4","2","4","3","5","4","3","4","5","4","3","4","3","4","4","3","4","2","0","0","1","1","0","1","1","1","0","1","0","0","0","0","1","5","2","4","1","2","2","2","4","1","3","732578051896119298","王","649","","","","","","","","","","","","","","","","","","","","","","","","","","","","","","","","","","","","","","","",""
"480","<p style=""color:white; font-size: 35px;"">无能</p>","i","categorize-html","49","216849","0.0-6.0-0.0-4.0-1.7","4","3","4","3","3","4","3","3","4","4","5","4","2","4","3","5","4","3","4","5","4","3","4","3","4","4","3","4","2","0","0","1","1","0","1","1","1","0","1","0","0","0","0","1","5","2","4","1","2","2","2","4","1","3","732578051896119298","王","649","","","","","","","","","","","","","","","","","","","true","2","2","ability","480","negative","无能","","","","","","","","","","","","","","",""
"null","","null","html-keyboard-response","50","217100","0.0-6.0-0.0-4.0-0.8","4","3","4","3","3","4","3","3","4","4","5","4","2","4","3","5","4","3","4","5","4","3","4","3","4","4","3","4","2","0","0","1","1","0","1","1","1","0","1","0","0","0","0","1","5","2","4","1","2","2","2","4","1","3","732578051896119298","王","649","","","","","","","","","","","","","","","","","","","","","","","","","","","","","","","","","","","","","","","",""
"305","<p style=""color:white; font-size: 35px;"">全能</p>","e","categorize-html","51","217407","0.0-6.0-0.0-4.0-1.8","4","3","4","3","3","4","3","3","4","4","5","4","2","4","3","5","4","3","4","5","4","3","4","3","4","4","3","4","2","0","0","1","1","0","1","1","1","0","1","0","0","0","0","1","5","2","4","1","2","2","2","4","1","3","732578051896119298","王","649","","","","","","","","","","","","","","","","","","","true","2","2","ability","305","positive","全能","","","","","","","","","","","","","","",""
"null","","null","html-keyboard-response","52","217658","0.0-6.0-0.0-4.0-0.9","4","3","4","3","3","4","3","3","4","4","5","4","2","4","3","5","4","3","4","5","4","3","4","3","4","4","3","4","2","0","0","1","1","0","1","1","1","0","1","0","0","0","0","1","5","2","4","1","2","2","2","4","1","3","732578051896119298","王","649","","","","","","","","","","","","","","","","","","","","","","","","","","","","","","","","","","","","","","","",""
"514","<p style=""color:white; font-size: 35px;"">低能</p>","i","categorize-html","53","218172","0.0-6.0-0.0-4.0-1.9","4","3","4","3","3","4","3","3","4","4","5","4","2","4","3","5","4","3","4","5","4","3","4","3","4","4","3","4","2","0","0","1","1","0","1","1","1","0","1","0","0","0","0","1","5","2","4","1","2","2","2","4","1","3","732578051896119298","王","649","","","","","","","","","","","","","","","","","","","true","2","2","ability","514","negative","低能","","","","","","","","","","","","","","",""
"null","","null","html-keyboard-response","54","218424","0.0-6.0-0.0-4.0-0.10","4","3","4","3","3","4","3","3","4","4","5","4","2","4","3","5","4","3","4","5","4","3","4","3","4","4","3","4","2","0","0","1","1","0","1","1","1","0","1","0","0","0","0","1","5","2","4","1","2","2","2","4","1","3","732578051896119298","王","649","","","","","","","","","","","","","","","","","","","","","","","","","","","","","","","","","","","","","","","",""
"347","<p style=""color:white; font-size: 35px;"">全才</p>","e","categorize-html","55","218772","0.0-6.0-0.0-4.0-1.10","4","3","4","3","3","4","3","3","4","4","5","4","2","4","3","5","4","3","4","5","4","3","4","3","4","4","3","4","2","0","0","1","1","0","1","1","1","0","1","0","0","0","0","1","5","2","4","1","2","2","2","4","1","3","732578051896119298","王","649","","","","","","","","","","","","","","","","","","","true","2","2","ability","347","positive","全才","","","","","","","","","","","","","","",""
"null","","null","html-keyboard-response","56","219023","0.0-6.0-0.0-4.0-0.11","4","3","4","3","3","4","3","3","4","4","5","4","2","4","3","5","4","3","4","5","4","3","4","3","4","4","3","4","2","0","0","1","1","0","1","1","1","0","1","0","0","0","0","1","5","2","4","1","2","2","2","4","1","3","732578051896119298","王","649","","","","","","","","","","","","","","","","","","","","","","","","","","","","","","","","","","","","","","","",""
"565","<p style=""color:white; font-size: 35px;"">拙笨</p>","i","categorize-html","57","219588","0.0-6.0-0.0-4.0-1.11","4","3","4","3","3","4","3","3","4","4","5","4","2","4","3","5","4","3","4","5","4","3","4","3","4","4","3","4","2","0","0","1","1","0","1","1","1","0","1","0","0","0","0","1","5","2","4","1","2","2","2","4","1","3","732578051896119298","王","649","","","","","","","","","","","","","","","","","","","true","2","2","ability","565","negative","拙笨","","","","","","","","","","","","","","",""
"3322","
    <div class=""tag-bottom""><p>
    —— 任务3：对“自我/积极”词和“他人/消极”词分类 ——<p/>
    <span style=""color:#78DCE8""><b>注意上方，之前的四类词语将混合在一起交替呈现</b></span><p/>
    <span style=""color:#FFD866""><b>请根据上方标签的提示，尽可能正确并且快速地做出按键反应</b></span><p/>
    当按键错误时屏幕中会出现<span style=""color:red""> X </span>，需要按另一个键纠正才能继续<br/><p/>
    请把双手食指分别放在键盘的“E”键和“I”键上<p/>
    按<空格键>开始
    </p></div>"," ","html-keyboard-response","58","222911","0.0-6.0-0.0-5.0","4","3","4","3","3","4","3","3","4","4","5","4","2","4","3","5","4","3","4","5","4","3","4","3","4","4","3","4","2","0","0","1","1","0","1","1","1","0","1","0","0","0","0","1","5","2","4","1","2","2","2","4","1","3","732578051896119298","王","649","","","","","","","","","","","","","","","","","","","","","","","","","","","","","","","","","","","","","","","",""
"null","","null","html-keyboard-response","59","223162","0.0-6.0-0.0-6.0-0.0","4","3","4","3","3","4","3","3","4","4","5","4","2","4","3","5","4","3","4","5","4","3","4","3","4","4","3","4","2","0","0","1","1","0","1","1","1","0","1","0","0","0","0","1","5","2","4","1","2","2","2","4","1","3","732578051896119298","王","649","","","","","","","","","","","","","","","","","","","","","","","","","","","","","","","","","","","","","","","",""
"477","<p style=""color:rgb(150, 250, 100); font-size: 35px;"">我的</p>","e","categorize-html","60","223640","0.0-6.0-0.0-6.0-1.0","4","3","4","3","3","4","3","3","4","4","5","4","2","4","3","5","4","3","4","5","4","3","4","3","4","4","3","4","2","0","0","1","1","0","1","1","1","0","1","0","0","0","0","1","5","2","4","1","2","2","2","4","1","3","732578051896119298","王","649","","","","","","","","","","","","","","","","","","","true","3","3","ability","477","self","我的","","","","","","","","","","","","","","",""
"null","","null","html-keyboard-response","61","223891","0.0-6.0-0.0-6.0-0.1","4","3","4","3","3","4","3","3","4","4","5","4","2","4","3","5","4","3","4","5","4","3","4","3","4","4","3","4","2","0","0","1","1","0","1","1","1","0","1","0","0","0","0","1","5","2","4","1","2","2","2","4","1","3","732578051896119298","王","649","","","","","","","","","","","","","","","","","","","","","","","","","","","","","","","","","","","","","","","",""
"369","<p style=""color:white; font-size: 35px;"">能干</p>","e","categorize-html","62","224261","0.0-6.0-0.0-6.0-1.1","4","3","4","3","3","4","3","3","4","4","5","4","2","4","3","5","4","3","4","5","4","3","4","3","4","4","3","4","2","0","0","1","1","0","1","1","1","0","1","0","0","0","0","1","5","2","4","1","2","2","2","4","1","3","732578051896119298","王","649","","","","","","","","","","","","","","","","","","","true","3","3","ability","369","positive","能干","","","","","","","","","","","","","","",""
"null","","null","html-keyboard-response","63","224512","0.0-6.0-0.0-6.0-0.2","4","3","4","3","3","4","3","3","4","4","5","4","2","4","3","5","4","3","4","5","4","3","4","3","4","4","3","4","2","0","0","1","1","0","1","1","1","0","1","0","0","0","0","1","5","2","4","1","2","2","2","4","1","3","732578051896119298","王","649","","","","","","","","","","","","","","","","","","","","","","","","","","","","","","","","","","","","","","","",""
"487","<p style=""color:rgb(150, 250, 100); font-size: 35px;"">他的</p>","i","categorize-html","64","224999","0.0-6.0-0.0-6.0-1.2","4","3","4","3","3","4","3","3","4","4","5","4","2","4","3","5","4","3","4","5","4","3","4","3","4","4","3","4","2","0","0","1","1","0","1","1","1","0","1","0","0","0","0","1","5","2","4","1","2","2","2","4","1","3","732578051896119298","王","649","","","","","","","","","","","","","","","","","","","true","3","3","ability","487","other","他的","","","","","","","","","","","","","","",""
"null","","null","html-keyboard-response","65","225250","0.0-6.0-0.0-6.0-0.3","4","3","4","3","3","4","3","3","4","4","5","4","2","4","3","5","4","3","4","5","4","3","4","3","4","4","3","4","2","0","0","1","1","0","1","1","1","0","1","0","0","0","0","1","5","2","4","1","2","2","2","4","1","3","732578051896119298","王","649","","","","","","","","","","","","","","","","","","","","","","","","","","","","","","","","","","","","","","","",""
"388","<p style=""color:white; font-size: 35px;"">蠢笨</p>","i","categorize-html","66","225639","0.0-6.0-0.0-6.0-1.3","4","3","4","3","3","4","3","3","4","4","5","4","2","4","3","5","4","3","4","5","4","3","4","3","4","4","3","4","2","0","0","1","1","0","1","1","1","0","1","0","0","0","0","1","5","2","4","1","2","2","2","4","1","3","732578051896119298","王","649","","","","","","","","","","","","","","","","","","","true","3","3","ability","388","negative","蠢笨","","","","","","","","","","","","","","",""
"null","","null","html-keyboard-response","67","225890","0.0-6.0-0.0-6.0-0.4","4","3","4","3","3","4","3","3","4","4","5","4","2","4","3","5","4","3","4","5","4","3","4","3","4","4","3","4","2","0","0","1","1","0","1","1","1","0","1","0","0","0","0","1","5","2","4","1","2","2","2","4","1","3","732578051896119298","王","649","","","","","","","","","","","","","","","","","","","","","","","","","","","","","","","","","","","","","","","",""
"446","<p style=""color:rgb(150, 250, 100); font-size: 35px;"">我</p>","e","categorize-html","68","226336","0.0-6.0-0.0-6.0-1.4","4","3","4","3","3","4","3","3","4","4","5","4","2","4","3","5","4","3","4","5","4","3","4","3","4","4","3","4","2","0","0","1","1","0","1","1","1","0","1","0","0","0","0","1","5","2","4","1","2","2","2","4","1","3","732578051896119298","王","649","","","","","","","","","","","","","","","","","","","true","3","3","ability","446","self","我","","","","","","","","","","","","","","",""
"null","","null","html-keyboard-response","69","226587","0.0-6.0-0.0-6.0-0.5","4","3","4","3","3","4","3","3","4","4","5","4","2","4","3","5","4","3","4","5","4","3","4","3","4","4","3","4","2","0","0","1","1","0","1","1","1","0","1","0","0","0","0","1","5","2","4","1","2","2","2","4","1","3","732578051896119298","王","649","","","","","","","","","","","","","","","","","","","","","","","","","","","","","","","","","","","","","","","",""
"420","<p style=""color:white; font-size: 35px;"">天才</p>","e","categorize-html","70","227007","0.0-6.0-0.0-6.0-1.5","4","3","4","3","3","4","3","3","4","4","5","4","2","4","3","5","4","3","4","5","4","3","4","3","4","4","3","4","2","0","0","1","1","0","1","1","1","0","1","0","0","0","0","1","5","2","4","1","2","2","2","4","1","3","732578051896119298","王","649","","","","","","","","","","","","","","","","","","","true","3","3","ability","420","positive","天才","","","","","","","","","","","","","","",""
"null","","null","html-keyboard-response","71","227259","0.0-6.0-0.0-6.0-0.6","4","3","4","3","3","4","3","3","4","4","5","4","2","4","3","5","4","3","4","5","4","3","4","3","4","4","3","4","2","0","0","1","1","0","1","1","1","0","1","0","0","0","0","1","5","2","4","1","2","2","2","4","1","3","732578051896119298","王","649","","","","","","","","","","","","","","","","","","","","","","","","","","","","","","","","","","","","","","","",""
"437","<p style=""color:rgb(150, 250, 100); font-size: 35px;"">别人的</p>","i","categorize-html","72","227697","0.0-6.0-0.0-6.0-1.6","4","3","4","3","3","4","3","3","4","4","5","4","2","4","3","5","4","3","4","5","4","3","4","3","4","4","3","4","2","0","0","1","1","0","1","1","1","0","1","0","0","0","0","1","5","2","4","1","2","2","2","4","1","3","732578051896119298","王","649","","","","","","","","","","","","","","","","","","","true","3","3","ability","437","other","别人的","","","","","","","","","","","","","","",""
"null","","null","html-keyboard-response","73","227948","0.0-6.0-0.0-6.0-0.7","4","3","4","3","3","4","3","3","4","4","5","4","2","4","3","5","4","3","4","5","4","3","4","3","4","4","3","4","2","0","0","1","1","0","1","1","1","0","1","0","0","0","0","1","5","2","4","1","2","2","2","4","1","3","732578051896119298","王","649","","","","","","","","","","","","","","","","","","","","","","","","","","","","","","","","","","","","","","","",""
"414","<p style=""color:white; font-size: 35px;"">低能</p>","i","categorize-html","74","228363","0.0-6.0-0.0-6.0-1.7","4","3","4","3","3","4","3","3","4","4","5","4","2","4","3","5","4","3","4","5","4","3","4","3","4","4","3","4","2","0","0","1","1","0","1","1","1","0","1","0","0","0","0","1","5","2","4","1","2","2","2","4","1","3","732578051896119298","王","649","","","","","","","","","","","","","","","","","","","true","3","3","ability","414","negative","低能","","","","","","","","","","","","","","",""
"null","","null","html-keyboard-response","75","228614","0.0-6.0-0.0-6.0-0.8","4","3","4","3","3","4","3","3","4","4","5","4","2","4","3","5","4","3","4","5","4","3","4","3","4","4","3","4","2","0","0","1","1","0","1","1","1","0","1","0","0","0","0","1","5","2","4","1","2","2","2","4","1","3","732578051896119298","王","649","","","","","","","","","","","","","","","","","","","","","","","","","","","","","","","","","","","","","","","",""
"708","<p style=""color:rgb(150, 250, 100); font-size: 35px;"">他人的</p>","i","categorize-html","76","229322","0.0-6.0-0.0-6.0-1.8","4","3","4","3","3","4","3","3","4","4","5","4","2","4","3","5","4","3","4","5","4","3","4","3","4","4","3","4","2","0","0","1","1","0","1","1","1","0","1","0","0","0","0","1","5","2","4","1","2","2","2","4","1","3","732578051896119298","王","649","","","","","","","","","","","","","","","","","","","true","3","3","ability","708","other","他人的","","","","","","","","","","","","","","",""
"null","","null","html-keyboard-response","77","229574","0.0-6.0-0.0-6.0-0.9","4","3","4","3","3","4","3","3","4","4","5","4","2","4","3","5","4","3","4","5","4","3","4","3","4","4","3","4","2","0","0","1","1","0","1","1","1","0","1","0","0","0","0","1","5","2","4","1","2","2","2","4","1","3","732578051896119298","王","649","","","","","","","","","","","","","","","","","","","","","","","","","","","","","","","","","","","","","","","",""
"625","<p style=""color:white; font-size: 35px;"">全能</p>","e","categorize-html","78","230200","0.0-6.0-0.0-6.0-1.9","4","3","4","3","3","4","3","3","4","4","5","4","2","4","3","5","4","3","4","5","4","3","4","3","4","4","3","4","2","0","0","1","1","0","1","1","1","0","1","0","0","0","0","1","5","2","4","1","2","2","2","4","1","3","732578051896119298","王","649","","","","","","","","","","","","","","","","","","","true","3","3","ability","625","positive","全能","","","","","","","","","","","","","","",""
"null","","null","html-keyboard-response","79","230450","0.0-6.0-0.0-6.0-0.10","4","3","4","3","3","4","3","3","4","4","5","4","2","4","3","5","4","3","4","5","4","3","4","3","4","4","3","4","2","0","0","1","1","0","1","1","1","0","1","0","0","0","0","1","5","2","4","1","2","2","2","4","1","3","732578051896119298","王","649","","","","","","","","","","","","","","","","","","","","","","","","","","","","","","","","","","","","","","","",""
"532","<p style=""color:rgb(150, 250, 100); font-size: 35px;"">自己的</p>","e","categorize-html","80","230984","0.0-6.0-0.0-6.0-1.10","4","3","4","3","3","4","3","3","4","4","5","4","2","4","3","5","4","3","4","5","4","3","4","3","4","4","3","4","2","0","0","1","1","0","1","1","1","0","1","0","0","0","0","1","5","2","4","1","2","2","2","4","1","3","732578051896119298","王","649","","","","","","","","","","","","","","","","","","","true","3","3","ability","532","self","自己的","","","","","","","","","","","","","","",""
"null","","null","html-keyboard-response","81","231235","0.0-6.0-0.0-6.0-0.11","4","3","4","3","3","4","3","3","4","4","5","4","2","4","3","5","4","3","4","5","4","3","4","3","4","4","3","4","2","0","0","1","1","0","1","1","1","0","1","0","0","0","0","1","5","2","4","1","2","2","2","4","1","3","732578051896119298","王","649","","","","","","","","","","","","","","","","","","","","","","","","","","","","","","","","","","","","","","","",""
"387","<p style=""color:white; font-size: 35px;"">愚钝</p>","i","categorize-html","82","231623","0.0-6.0-0.0-6.0-1.11","4","3","4","3","3","4","3","3","4","4","5","4","2","4","3","5","4","3","4","5","4","3","4","3","4","4","3","4","2","0","0","1","1","0","1","1","1","0","1","0","0","0","0","1","5","2","4","1","2","2","2","4","1","3","732578051896119298","王","649","","","","","","","","","","","","","","","","","","","true","3","3","ability","387","negative","愚钝","","","","","","","","","","","","","","",""
"null","","null","html-keyboard-response","83","231873","0.0-6.0-0.0-6.0-0.12","4","3","4","3","3","4","3","3","4","4","5","4","2","4","3","5","4","3","4","5","4","3","4","3","4","4","3","4","2","0","0","1","1","0","1","1","1","0","1","0","0","0","0","1","5","2","4","1","2","2","2","4","1","3","732578051896119298","王","649","","","","","","","","","","","","","","","","","","","","","","","","","","","","","","","","","","","","","","","",""
"390","<p style=""color:rgb(150, 250, 100); font-size: 35px;"">本人的</p>","e","categorize-html","84","232264","0.0-6.0-0.0-6.0-1.12","4","3","4","3","3","4","3","3","4","4","5","4","2","4","3","5","4","3","4","5","4","3","4","3","4","4","3","4","2","0","0","1","1","0","1","1","1","0","1","0","0","0","0","1","5","2","4","1","2","2","2","4","1","3","732578051896119298","王","649","","","","","","","","","","","","","","","","","","","true","3","3","ability","390","self","本人的","","","","","","","","","","","","","","",""
"null","","null","html-keyboard-response","85","232515","0.0-6.0-0.0-6.0-0.13","4","3","4","3","3","4","3","3","4","4","5","4","2","4","3","5","4","3","4","5","4","3","4","3","4","4","3","4","2","0","0","1","1","0","1","1","1","0","1","0","0","0","0","1","5","2","4","1","2","2","2","4","1","3","732578051896119298","王","649","","","","","","","","","","","","","","","","","","","","","","","","","","","","","","","","","","","","","","","",""
"407","<p style=""color:white; font-size: 35px;"">全才</p>","e","categorize-html","86","232923","0.0-6.0-0.0-6.0-1.13","4","3","4","3","3","4","3","3","4","4","5","4","2","4","3","5","4","3","4","5","4","3","4","3","4","4","3","4","2","0","0","1","1","0","1","1","1","0","1","0","0","0","0","1","5","2","4","1","2","2","2","4","1","3","732578051896119298","王","649","","","","","","","","","","","","","","","","","","","true","3","3","ability","407","positive","全才","","","","","","","","","","","","","","",""
"null","","null","html-keyboard-response","87","233174","0.0-6.0-0.0-6.0-0.14","4","3","4","3","3","4","3","3","4","4","5","4","2","4","3","5","4","3","4","5","4","3","4","3","4","4","3","4","2","0","0","1","1","0","1","1","1","0","1","0","0","0","0","1","5","2","4","1","2","2","2","4","1","3","732578051896119298","王","649","","","","","","","","","","","","","","","","","","","","","","","","","","","","","","","","","","","","","","","",""
"473","<p style=""color:rgb(150, 250, 100); font-size: 35px;"">他</p>","i","categorize-html","88","233649","0.0-6.0-0.0-6.0-1.14","4","3","4","3","3","4","3","3","4","4","5","4","2","4","3","5","4","3","4","5","4","3","4","3","4","4","3","4","2","0","0","1","1","0","1","1","1","0","1","0","0","0","0","1","5","2","4","1","2","2","2","4","1","3","732578051896119298","王","649","","","","","","","","","","","","","","","","","","","true","3","3","ability","473","other","他","","","","","","","","","","","","","","",""
"null","","null","html-keyboard-response","89","233899","0.0-6.0-0.0-6.0-0.15","4","3","4","3","3","4","3","3","4","4","5","4","2","4","3","5","4","3","4","5","4","3","4","3","4","4","3","4","2","0","0","1","1","0","1","1","1","0","1","0","0","0","0","1","5","2","4","1","2","2","2","4","1","3","732578051896119298","王","649","","","","","","","","","","","","","","","","","","","","","","","","","","","","","","","","","","","","","","","",""
"559","<p style=""color:white; font-size: 35px;"">无能</p>","i","categorize-html","90","234459","0.0-6.0-0.0-6.0-1.15","4","3","4","3","3","4","3","3","4","4","5","4","2","4","3","5","4","3","4","5","4","3","4","3","4","4","3","4","2","0","0","1","1","0","1","1","1","0","1","0","0","0","0","1","5","2","4","1","2","2","2","4","1","3","732578051896119298","王","649","","","","","","","","","","","","","","","","","","","true","3","3","ability","559","negative","无能","","","","","","","","","","","","","","",""
"null","","null","html-keyboard-response","91","234710","0.0-6.0-0.0-6.0-0.16","4","3","4","3","3","4","3","3","4","4","5","4","2","4","3","5","4","3","4","5","4","3","4","3","4","4","3","4","2","0","0","1","1","0","1","1","1","0","1","0","0","0","0","1","5","2","4","1","2","2","2","4","1","3","732578051896119298","王","649","","","","","","","","","","","","","","","","","","","","","","","","","","","","","","","","","","","","","","","",""
"525","<p style=""color:rgb(150, 250, 100); font-size: 35px;"">别人</p>","i","categorize-html","92","235236","0.0-6.0-0.0-6.0-1.16","4","3","4","3","3","4","3","3","4","4","5","4","2","4","3","5","4","3","4","5","4","3","4","3","4","4","3","4","2","0","0","1","1","0","1","1","1","0","1","0","0","0","0","1","5","2","4","1","2","2","2","4","1","3","732578051896119298","王","649","","","","","","","","","","","","","","","","","","","true","3","3","ability","525","other","别人","","","","","","","","","","","","","","",""
"null","","null","html-keyboard-response","93","235488","0.0-6.0-0.0-6.0-0.17","4","3","4","3","3","4","3","3","4","4","5","4","2","4","3","5","4","3","4","5","4","3","4","3","4","4","3","4","2","0","0","1","1","0","1","1","1","0","1","0","0","0","0","1","5","2","4","1","2","2","2","4","1","3","732578051896119298","王","649","","","","","","","","","","","","","","","","","","","","","","","","","","","","","","","","","","","","","","","",""
"431","<p style=""color:white; font-size: 35px;"">拙笨</p>","i","categorize-html","94","235920","0.0-6.0-0.0-6.0-1.17","4","3","4","3","3","4","3","3","4","4","5","4","2","4","3","5","4","3","4","5","4","3","4","3","4","4","3","4","2","0","0","1","1","0","1","1","1","0","1","0","0","0","0","1","5","2","4","1","2","2","2","4","1","3","732578051896119298","王","649","","","","","","","","","","","","","","","","","","","true","3","3","ability","431","negative","拙笨","","","","","","","","","","","","","","",""
"null","","null","html-keyboard-response","95","236171","0.0-6.0-0.0-6.0-0.18","4","3","4","3","3","4","3","3","4","4","5","4","2","4","3","5","4","3","4","5","4","3","4","3","4","4","3","4","2","0","0","1","1","0","1","1","1","0","1","0","0","0","0","1","5","2","4","1","2","2","2","4","1","3","732578051896119298","王","649","","","","","","","","","","","","","","","","","","","","","","","","","","","","","","","","","","","","","","","",""
"384","<p style=""color:rgb(150, 250, 100); font-size: 35px;"">自己</p>","e","categorize-html","96","236555","0.0-6.0-0.0-6.0-1.18","4","3","4","3","3","4","3","3","4","4","5","4","2","4","3","5","4","3","4","5","4","3","4","3","4","4","3","4","2","0","0","1","1","0","1","1","1","0","1","0","0","0","0","1","5","2","4","1","2","2","2","4","1","3","732578051896119298","王","649","","","","","","","","","","","","","","","","","","","true","3","3","ability","384","self","自己","","","","","","","","","","","","","","",""
"null","","null","html-keyboard-response","97","236806","0.0-6.0-0.0-6.0-0.19","4","3","4","3","3","4","3","3","4","4","5","4","2","4","3","5","4","3","4","5","4","3","4","3","4","4","3","4","2","0","0","1","1","0","1","1","1","0","1","0","0","0","0","1","5","2","4","1","2","2","2","4","1","3","732578051896119298","王","649","","","","","","","","","","","","","","","","","","","","","","","","","","","","","","","","","","","","","","","",""
"393","<p style=""color:white; font-size: 35px;"">高效</p>","e","categorize-html","98","237201","0.0-6.0-0.0-6.0-1.19","4","3","4","3","3","4","3","3","4","4","5","4","2","4","3","5","4","3","4","5","4","3","4","3","4","4","3","4","2","0","0","1","1","0","1","1","1","0","1","0","0","0","0","1","5","2","4","1","2","2","2","4","1","3","732578051896119298","王","649","","","","","","","","","","","","","","","","","","","true","3","3","ability","393","positive","高效","","","","","","","","","","","","","","",""
"null","","null","html-keyboard-response","99","237451","0.0-6.0-0.0-6.0-0.20","4","3","4","3","3","4","3","3","4","4","5","4","2","4","3","5","4","3","4","5","4","3","4","3","4","4","3","4","2","0","0","1","1","0","1","1","1","0","1","0","0","0","0","1","5","2","4","1","2","2","2","4","1","3","732578051896119298","王","649","","","","","","","","","","","","","","","","","","","","","","","","","","","","","","","","","","","","","","","",""
"543","<p style=""color:rgb(150, 250, 100); font-size: 35px;"">他人</p>","i","categorize-html","100","237995","0.0-6.0-0.0-6.0-1.20","4","3","4","3","3","4","3","3","4","4","5","4","2","4","3","5","4","3","4","5","4","3","4","3","4","4","3","4","2","0","0","1","1","0","1","1","1","0","1","0","0","0","0","1","5","2","4","1","2","2","2","4","1","3","732578051896119298","王","649","","","","","","","","","","","","","","","","","","","true","3","3","ability","543","other","他人","","","","","","","","","","","","","","",""
"null","","null","html-keyboard-response","101","238245","0.0-6.0-0.0-6.0-0.21","4","3","4","3","3","4","3","3","4","4","5","4","2","4","3","5","4","3","4","5","4","3","4","3","4","4","3","4","2","0","0","1","1","0","1","1","1","0","1","0","0","0","0","1","5","2","4","1","2","2","2","4","1","3","732578051896119298","王","649","","","","","","","","","","","","","","","","","","","","","","","","","","","","","","","","","","","","","","","",""
"341","<p style=""color:white; font-size: 35px;"">精干</p>","i","categorize-html","102","238988","0.0-6.0-0.0-6.0-1.21","4","3","4","3","3","4","3","3","4","4","5","4","2","4","3","5","4","3","4","5","4","3","4","3","4","4","3","4","2","0","0","1","1","0","1","1","1","0","1","0","0","0","0","1","5","2","4","1","2","2","2","4","1","3","732578051896119298","王","649","","","","","","","","","","","","","","","","","","","false","3","3","ability","1066.2608695652175","positive","精干","","","","","","","","","","","","","","",""
"null","","null","html-keyboard-response","103","239238","0.0-6.0-0.0-6.0-0.22","4","3","4","3","3","4","3","3","4","4","5","4","2","4","3","5","4","3","4","5","4","3","4","3","4","4","3","4","2","0","0","1","1","0","1","1","1","0","1","0","0","0","0","1","5","2","4","1","2","2","2","4","1","3","732578051896119298","王","649","","","","","","","","","","","","","","","","","","","","","","","","","","","","","","","","","","","","","","","",""
"472","<p style=""color:rgb(150, 250, 100); font-size: 35px;"">本人</p>","e","categorize-html","104","239710","0.0-6.0-0.0-6.0-1.22","4","3","4","3","3","4","3","3","4","4","5","4","2","4","3","5","4","3","4","5","4","3","4","3","4","4","3","4","2","0","0","1","1","0","1","1","1","0","1","0","0","0","0","1","5","2","4","1","2","2","2","4","1","3","732578051896119298","王","649","","","","","","","","","","","","","","","","","","","true","3","3","ability","472","self","本人","","","","","","","","","","","","","","",""
"null","","null","html-keyboard-response","105","239962","0.0-6.0-0.0-6.0-0.23","4","3","4","3","3","4","3","3","4","4","5","4","2","4","3","5","4","3","4","5","4","3","4","3","4","4","3","4","2","0","0","1","1","0","1","1","1","0","1","0","0","0","0","1","5","2","4","1","2","2","2","4","1","3","732578051896119298","王","649","","","","","","","","","","","","","","","","","","","","","","","","","","","","","","","","","","","","","","","",""
"457","<p style=""color:white; font-size: 35px;"">废物</p>","i","categorize-html","106","240420","0.0-6.0-0.0-6.0-1.23","4","3","4","3","3","4","3","3","4","4","5","4","2","4","3","5","4","3","4","5","4","3","4","3","4","4","3","4","2","0","0","1","1","0","1","1","1","0","1","0","0","0","0","1","5","2","4","1","2","2","2","4","1","3","732578051896119298","王","649","","","","","","","","","","","","","","","","","","","true","3","3","ability","457","negative","废物","","","","","","","","","","","","","","",""
"1159","
    <div class=""tag-bottom""><p>
    —— 任务4：对“自我/积极”词和“他人/消极”词分类 ——<p/>
    <span style=""color:#78DCE8""><b>与刚才的任务完全相同，请再次对这四类词语分类</b></span><p/>
    <span style=""color:#FFD866""><b>请根据上方标签的提示，尽可能正确并且快速地做出按键反应</b></span><p/>
    当按键错误时屏幕中会出现<span style=""color:red""> X </span>，需要按另一个键纠正才能继续<br/><p/>
    请把双手食指分别放在键盘的“E”键和“I”键上<p/>
    按<空格键>开始
    </p></div>"," ","html-keyboard-response","107","241578","0.0-6.0-0.0-7.0","4","3","4","3","3","4","3","3","4","4","5","4","2","4","3","5","4","3","4","5","4","3","4","3","4","4","3","4","2","0","0","1","1","0","1","1","1","0","1","0","0","0","0","1","5","2","4","1","2","2","2","4","1","3","732578051896119298","王","649","","","","","","","","","","","","","","","","","","","","","","","","","","","","","","","","","","","","","","","",""
"null","","null","html-keyboard-response","108","241831","0.0-6.0-0.0-8.0-0.0","4","3","4","3","3","4","3","3","4","4","5","4","2","4","3","5","4","3","4","5","4","3","4","3","4","4","3","4","2","0","0","1","1","0","1","1","1","0","1","0","0","0","0","1","5","2","4","1","2","2","2","4","1","3","732578051896119298","王","649","","","","","","","","","","","","","","","","","","","","","","","","","","","","","","","","","","","","","","","",""
"656","<p style=""color:rgb(150, 250, 100); font-size: 35px;"">别人的</p>","i","categorize-html","109","242487","0.0-6.0-0.0-8.0-1.0","4","3","4","3","3","4","3","3","4","4","5","4","2","4","3","5","4","3","4","5","4","3","4","3","4","4","3","4","2","0","0","1","1","0","1","1","1","0","1","0","0","0","0","1","5","2","4","1","2","2","2","4","1","3","732578051896119298","王","649","","","","","","","","","","","","","","","","","","","true","4","4","ability","656","other","别人的","","","","","","","","","","","","","","",""
"null","","null","html-keyboard-response","110","242738","0.0-6.0-0.0-8.0-0.1","4","3","4","3","3","4","3","3","4","4","5","4","2","4","3","5","4","3","4","5","4","3","4","3","4","4","3","4","2","0","0","1","1","0","1","1","1","0","1","0","0","0","0","1","5","2","4","1","2","2","2","4","1","3","732578051896119298","王","649","","","","","","","","","","","","","","","","","","","","","","","","","","","","","","","","","","","","","","","",""
"387","<p style=""color:white; font-size: 35px;"">低能</p>","i","categorize-html","111","243126","0.0-6.0-0.0-8.0-1.1","4","3","4","3","3","4","3","3","4","4","5","4","2","4","3","5","4","3","4","5","4","3","4","3","4","4","3","4","2","0","0","1","1","0","1","1","1","0","1","0","0","0","0","1","5","2","4","1","2","2","2","4","1","3","732578051896119298","王","649","","","","","","","","","","","","","","","","","","","true","4","4","ability","387","negative","低能","","","","","","","","","","","","","","",""
"null","","null","html-keyboard-response","112","243376","0.0-6.0-0.0-8.0-0.2","4","3","4","3","3","4","3","3","4","4","5","4","2","4","3","5","4","3","4","5","4","3","4","3","4","4","3","4","2","0","0","1","1","0","1","1","1","0","1","0","0","0","0","1","5","2","4","1","2","2","2","4","1","3","732578051896119298","王","649","","","","","","","","","","","","","","","","","","","","","","","","","","","","","","","","","","","","","","","",""
"596","<p style=""color:rgb(150, 250, 100); font-size: 35px;"">本人</p>","e","categorize-html","113","243973","0.0-6.0-0.0-8.0-1.2","4","3","4","3","3","4","3","3","4","4","5","4","2","4","3","5","4","3","4","5","4","3","4","3","4","4","3","4","2","0","0","1","1","0","1","1","1","0","1","0","0","0","0","1","5","2","4","1","2","2","2","4","1","3","732578051896119298","王","649","","","","","","","","","","","","","","","","","","","true","4","4","ability","596","self","本人","","","","","","","","","","","","","","",""
"null","","null","html-keyboard-response","114","244224","0.0-6.0-0.0-8.0-0.3","4","3","4","3","3","4","3","3","4","4","5","4","2","4","3","5","4","3","4","5","4","3","4","3","4","4","3","4","2","0","0","1","1","0","1","1","1","0","1","0","0","0","0","1","5","2","4","1","2","2","2","4","1","3","732578051896119298","王","649","","","","","","","","","","","","","","","","","","","","","","","","","","","","","","","","","","","","","","","",""
"395","<p style=""color:white; font-size: 35px;"">高效</p>","e","categorize-html","115","244619","0.0-6.0-0.0-8.0-1.3","4","3","4","3","3","4","3","3","4","4","5","4","2","4","3","5","4","3","4","5","4","3","4","3","4","4","3","4","2","0","0","1","1","0","1","1","1","0","1","0","0","0","0","1","5","2","4","1","2","2","2","4","1","3","732578051896119298","王","649","","","","","","","","","","","","","","","","","","","true","4","4","ability","395","positive","高效","","","","","","","","","","","","","","",""
"null","","null","html-keyboard-response","116","244870","0.0-6.0-0.0-8.0-0.4","4","3","4","3","3","4","3","3","4","4","5","4","2","4","3","5","4","3","4","5","4","3","4","3","4","4","3","4","2","0","0","1","1","0","1","1","1","0","1","0","0","0","0","1","5","2","4","1","2","2","2","4","1","3","732578051896119298","王","649","","","","","","","","","","","","","","","","","","","","","","","","","","","","","","","","","","","","","","","",""
"492","<p style=""color:rgb(150, 250, 100); font-size: 35px;"">自己的</p>","e","categorize-html","117","245364","0.0-6.0-0.0-8.0-1.4","4","3","4","3","3","4","3","3","4","4","5","4","2","4","3","5","4","3","4","5","4","3","4","3","4","4","3","4","2","0","0","1","1","0","1","1","1","0","1","0","0","0","0","1","5","2","4","1","2","2","2","4","1","3","732578051896119298","王","649","","","","","","","","","","","","","","","","","","","true","4","4","ability","492","self","自己的","","","","","","","","","","","","","","",""
"null","","null","html-keyboard-response","118","245615","0.0-6.0-0.0-8.0-0.5","4","3","4","3","3","4","3","3","4","4","5","4","2","4","3","5","4","3","4","5","4","3","4","3","4","4","3","4","2","0","0","1","1","0","1","1","1","0","1","0","0","0","0","1","5","2","4","1","2","2","2","4","1","3","732578051896119298","王","649","","","","","","","","","","","","","","","","","","","","","","","","","","","","","","","","","","","","","","","",""
"472","<p style=""color:white; font-size: 35px;"">拙笨</p>","i","categorize-html","119","246087","0.0-6.0-0.0-8.0-1.5","4","3","4","3","3","4","3","3","4","4","5","4","2","4","3","5","4","3","4","5","4","3","4","3","4","4","3","4","2","0","0","1","1","0","1","1","1","0","1","0","0","0","0","1","5","2","4","1","2","2","2","4","1","3","732578051896119298","王","649","","","","","","","","","","","","","","","","","","","true","4","4","ability","472","negative","拙笨","","","","","","","","","","","","","","",""
"null","","null","html-keyboard-response","120","246338","0.0-6.0-0.0-8.0-0.6","4","3","4","3","3","4","3","3","4","4","5","4","2","4","3","5","4","3","4","5","4","3","4","3","4","4","3","4","2","0","0","1","1","0","1","1","1","0","1","0","0","0","0","1","5","2","4","1","2","2","2","4","1","3","732578051896119298","王","649","","","","","","","","","","","","","","","","","","","","","","","","","","","","","","","","","","","","","","","",""
"765","<p style=""color:rgb(150, 250, 100); font-size: 35px;"">别人的</p>","i","categorize-html","121","247103","0.0-6.0-0.0-8.0-1.6","4","3","4","3","3","4","3","3","4","4","5","4","2","4","3","5","4","3","4","5","4","3","4","3","4","4","3","4","2","0","0","1","1","0","1","1","1","0","1","0","0","0","0","1","5","2","4","1","2","2","2","4","1","3","732578051896119298","王","649","","","","","","","","","","","","","","","","","","","true","4","4","ability","765","other","别人的","","","","","","","","","","","","","","",""
"null","","null","html-keyboard-response","122","247354","0.0-6.0-0.0-8.0-0.7","4","3","4","3","3","4","3","3","4","4","5","4","2","4","3","5","4","3","4","5","4","3","4","3","4","4","3","4","2","0","0","1","1","0","1","1","1","0","1","0","0","0","0","1","5","2","4","1","2","2","2","4","1","3","732578051896119298","王","649","","","","","","","","","","","","","","","","","","","","","","","","","","","","","","","","","","","","","","","",""
"577","<p style=""color:white; font-size: 35px;"">能干</p>","e","categorize-html","123","247931","0.0-6.0-0.0-8.0-1.7","4","3","4","3","3","4","3","3","4","4","5","4","2","4","3","5","4","3","4","5","4","3","4","3","4","4","3","4","2","0","0","1","1","0","1","1","1","0","1","0","0","0","0","1","5","2","4","1","2","2","2","4","1","3","732578051896119298","王","649","","","","","","","","","","","","","","","","","","","true","4","4","ability","577","positive","能干","","","","","","","","","","","","","","",""
"null","","null","html-keyboard-response","124","248182","0.0-6.0-0.0-8.0-0.8","4","3","4","3","3","4","3","3","4","4","5","4","2","4","3","5","4","3","4","5","4","3","4","3","4","4","3","4","2","0","0","1","1","0","1","1","1","0","1","0","0","0","0","1","5","2","4","1","2","2","2","4","1","3","732578051896119298","王","649","","","","","","","","","","","","","","","","","","","","","","","","","","","","","","","","","","","","","","","",""
"285","<p style=""color:rgb(150, 250, 100); font-size: 35px;"">我</p>","e","categorize-html","125","248467","0.0-6.0-0.0-8.0-1.8","4","3","4","3","3","4","3","3","4","4","5","4","2","4","3","5","4","3","4","5","4","3","4","3","4","4","3","4","2","0","0","1","1","0","1","1","1","0","1","0","0","0","0","1","5","2","4","1","2","2","2","4","1","3","732578051896119298","王","649","","","","","","","","","","","","","","","","","","","true","4","4","ability","285","self","我","","","","","","","","","","","","","","",""
"null","","null","html-keyboard-response","126","248718","0.0-6.0-0.0-8.0-0.9","4","3","4","3","3","4","3","3","4","4","5","4","2","4","3","5","4","3","4","5","4","3","4","3","4","4","3","4","2","0","0","1","1","0","1","1","1","0","1","0","0","0","0","1","5","2","4","1","2","2","2","4","1","3","732578051896119298","王","649","","","","","","","","","","","","","","","","","","","","","","","","","","","","","","","","","","","","","","","",""
"408","<p style=""color:white; font-size: 35px;"">拙笨</p>","i","categorize-html","127","249127","0.0-6.0-0.0-8.0-1.9","4","3","4","3","3","4","3","3","4","4","5","4","2","4","3","5","4","3","4","5","4","3","4","3","4","4","3","4","2","0","0","1","1","0","1","1","1","0","1","0","0","0","0","1","5","2","4","1","2","2","2","4","1","3","732578051896119298","王","649","","","","","","","","","","","","","","","","","","","true","4","4","ability","408","negative","拙笨","","","","","","","","","","","","","","",""
"null","","null","html-keyboard-response","128","249378","0.0-6.0-0.0-8.0-0.10","4","3","4","3","3","4","3","3","4","4","5","4","2","4","3","5","4","3","4","5","4","3","4","3","4","4","3","4","2","0","0","1","1","0","1","1","1","0","1","0","0","0","0","1","5","2","4","1","2","2","2","4","1","3","732578051896119298","王","649","","","","","","","","","","","","","","","","","","","","","","","","","","","","","","","","","","","","","","","",""
"537","<p style=""color:rgb(150, 250, 100); font-size: 35px;"">他人的</p>","i","categorize-html","129","249915","0.0-6.0-0.0-8.0-1.10","4","3","4","3","3","4","3","3","4","4","5","4","2","4","3","5","4","3","4","5","4","3","4","3","4","4","3","4","2","0","0","1","1","0","1","1","1","0","1","0","0","0","0","1","5","2","4","1","2","2","2","4","1","3","732578051896119298","王","649","","","","","","","","","","","","","","","","","","","true","4","4","ability","537","other","他人的","","","","","","","","","","","","","","",""
"null","","null","html-keyboard-response","130","250165","0.0-6.0-0.0-8.0-0.11","4","3","4","3","3","4","3","3","4","4","5","4","2","4","3","5","4","3","4","5","4","3","4","3","4","4","3","4","2","0","0","1","1","0","1","1","1","0","1","0","0","0","0","1","5","2","4","1","2","2","2","4","1","3","732578051896119298","王","649","","","","","","","","","","","","","","","","","","","","","","","","","","","","","","","","","","","","","","","",""
"541","<p style=""color:white; font-size: 35px;"">全才</p>","e","categorize-html","131","250708","0.0-6.0-0.0-8.0-1.11","4","3","4","3","3","4","3","3","4","4","5","4","2","4","3","5","4","3","4","5","4","3","4","3","4","4","3","4","2","0","0","1","1","0","1","1","1","0","1","0","0","0","0","1","5","2","4","1","2","2","2","4","1","3","732578051896119298","王","649","","","","","","","","","","","","","","","","","","","true","4","4","ability","541","positive","全才","","","","","","","","","","","","","","",""
"null","","null","html-keyboard-response","132","250959","0.0-6.0-0.0-8.0-0.12","4","3","4","3","3","4","3","3","4","4","5","4","2","4","3","5","4","3","4","5","4","3","4","3","4","4","3","4","2","0","0","1","1","0","1","1","1","0","1","0","0","0","0","1","5","2","4","1","2","2","2","4","1","3","732578051896119298","王","649","","","","","","","","","","","","","","","","","","","","","","","","","","","","","","","","","","","","","","","",""
"460","<p style=""color:rgb(150, 250, 100); font-size: 35px;"">他的</p>","i","categorize-html","133","251420","0.0-6.0-0.0-8.0-1.12","4","3","4","3","3","4","3","3","4","4","5","4","2","4","3","5","4","3","4","5","4","3","4","3","4","4","3","4","2","0","0","1","1","0","1","1","1","0","1","0","0","0","0","1","5","2","4","1","2","2","2","4","1","3","732578051896119298","王","649","","","","","","","","","","","","","","","","","","","true","4","4","ability","460","other","他的","","","","","","","","","","","","","","",""
"null","","null","html-keyboard-response","134","251671","0.0-6.0-0.0-8.0-0.13","4","3","4","3","3","4","3","3","4","4","5","4","2","4","3","5","4","3","4","5","4","3","4","3","4","4","3","4","2","0","0","1","1","0","1","1","1","0","1","0","0","0","0","1","5","2","4","1","2","2","2","4","1","3","732578051896119298","王","649","","","","","","","","","","","","","","","","","","","","","","","","","","","","","","","","","","","","","","","",""
"427","<p style=""color:white; font-size: 35px;"">天才</p>","e","categorize-html","135","252099","0.0-6.0-0.0-8.0-1.13","4","3","4","3","3","4","3","3","4","4","5","4","2","4","3","5","4","3","4","5","4","3","4","3","4","4","3","4","2","0","0","1","1","0","1","1","1","0","1","0","0","0","0","1","5","2","4","1","2","2","2","4","1","3","732578051896119298","王","649","","","","","","","","","","","","","","","","","","","true","4","4","ability","427","positive","天才","","","","","","","","","","","","","","",""
"null","","null","html-keyboard-response","136","252350","0.0-6.0-0.0-8.0-0.14","4","3","4","3","3","4","3","3","4","4","5","4","2","4","3","5","4","3","4","5","4","3","4","3","4","4","3","4","2","0","0","1","1","0","1","1","1","0","1","0","0","0","0","1","5","2","4","1","2","2","2","4","1","3","732578051896119298","王","649","","","","","","","","","","","","","","","","","","","","","","","","","","","","","","","","","","","","","","","",""
"464","<p style=""color:rgb(150, 250, 100); font-size: 35px;"">本人的</p>","e","categorize-html","137","252815","0.0-6.0-0.0-8.0-1.14","4","3","4","3","3","4","3","3","4","4","5","4","2","4","3","5","4","3","4","5","4","3","4","3","4","4","3","4","2","0","0","1","1","0","1","1","1","0","1","0","0","0","0","1","5","2","4","1","2","2","2","4","1","3","732578051896119298","王","649","","","","","","","","","","","","","","","","","","","true","4","4","ability","464","self","本人的","","","","","","","","","","","","","","",""
"null","","null","html-keyboard-response","138","253066","0.0-6.0-0.0-8.0-0.15","4","3","4","3","3","4","3","3","4","4","5","4","2","4","3","5","4","3","4","5","4","3","4","3","4","4","3","4","2","0","0","1","1","0","1","1","1","0","1","0","0","0","0","1","5","2","4","1","2","2","2","4","1","3","732578051896119298","王","649","","","","","","","","","","","","","","","","","","","","","","","","","","","","","","","","","","","","","","","",""
"585","<p style=""color:white; font-size: 35px;"">无能</p>","i","categorize-html","139","253651","0.0-6.0-0.0-8.0-1.15","4","3","4","3","3","4","3","3","4","4","5","4","2","4","3","5","4","3","4","5","4","3","4","3","4","4","3","4","2","0","0","1","1","0","1","1","1","0","1","0","0","0","0","1","5","2","4","1","2","2","2","4","1","3","732578051896119298","王","649","","","","","","","","","","","","","","","","","","","true","4","4","ability","585","negative","无能","","","","","","","","","","","","","","",""
"null","","null","html-keyboard-response","140","253902","0.0-6.0-0.0-8.0-0.16","4","3","4","3","3","4","3","3","4","4","5","4","2","4","3","5","4","3","4","5","4","3","4","3","4","4","3","4","2","0","0","1","1","0","1","1","1","0","1","0","0","0","0","1","5","2","4","1","2","2","2","4","1","3","732578051896119298","王","649","","","","","","","","","","","","","","","","","","","","","","","","","","","","","","","","","","","","","","","",""
"440","<p style=""color:rgb(150, 250, 100); font-size: 35px;"">我的</p>","e","categorize-html","141","254344","0.0-6.0-0.0-8.0-1.16","4","3","4","3","3","4","3","3","4","4","5","4","2","4","3","5","4","3","4","5","4","3","4","3","4","4","3","4","2","0","0","1","1","0","1","1","1","0","1","0","0","0","0","1","5","2","4","1","2","2","2","4","1","3","732578051896119298","王","649","","","","","","","","","","","","","","","","","","","true","4","4","ability","440","self","我的","","","","","","","","","","","","","","",""
"null","","null","html-keyboard-response","142","254595","0.0-6.0-0.0-8.0-0.17","4","3","4","3","3","4","3","3","4","4","5","4","2","4","3","5","4","3","4","5","4","3","4","3","4","4","3","4","2","0","0","1","1","0","1","1","1","0","1","0","0","0","0","1","5","2","4","1","2","2","2","4","1","3","732578051896119298","王","649","","","","","","","","","","","","","","","","","","","","","","","","","","","","","","","","","","","","","","","",""
"400","<p style=""color:white; font-size: 35px;"">高效</p>","e","categorize-html","143","254995","0.0-6.0-0.0-8.0-1.17","4","3","4","3","3","4","3","3","4","4","5","4","2","4","3","5","4","3","4","5","4","3","4","3","4","4","3","4","2","0","0","1","1","0","1","1","1","0","1","0","0","0","0","1","5","2","4","1","2","2","2","4","1","3","732578051896119298","王","649","","","","","","","","","","","","","","","","","","","true","4","4","ability","400","positive","高效","","","","","","","","","","","","","","",""
"null","","null","html-keyboard-response","144","255246","0.0-6.0-0.0-8.0-0.18","4","3","4","3","3","4","3","3","4","4","5","4","2","4","3","5","4","3","4","5","4","3","4","3","4","4","3","4","2","0","0","1","1","0","1","1","1","0","1","0","0","0","0","1","5","2","4","1","2","2","2","4","1","3","732578051896119298","王","649","","","","","","","","","","","","","","","","","","","","","","","","","","","","","","","","","","","","","","","",""
"424","<p style=""color:rgb(150, 250, 100); font-size: 35px;"">他人</p>","i","categorize-html","145","255672","0.0-6.0-0.0-8.0-1.18","4","3","4","3","3","4","3","3","4","4","5","4","2","4","3","5","4","3","4","5","4","3","4","3","4","4","3","4","2","0","0","1","1","0","1","1","1","0","1","0","0","0","0","1","5","2","4","1","2","2","2","4","1","3","732578051896119298","王","649","","","","","","","","","","","","","","","","","","","true","4","4","ability","424","other","他人","","","","","","","","","","","","","","",""
"null","","null","html-keyboard-response","146","255923","0.0-6.0-0.0-8.0-0.19","4","3","4","3","3","4","3","3","4","4","5","4","2","4","3","5","4","3","4","5","4","3","4","3","4","4","3","4","2","0","0","1","1","0","1","1","1","0","1","0","0","0","0","1","5","2","4","1","2","2","2","4","1","3","732578051896119298","王","649","","","","","","","","","","","","","","","","","","","","","","","","","","","","","","","","","","","","","","","",""
"735","<p style=""color:white; font-size: 35px;"">废物</p>","i","categorize-html","147","256659","0.0-6.0-0.0-8.0-1.19","4","3","4","3","3","4","3","3","4","4","5","4","2","4","3","5","4","3","4","5","4","3","4","3","4","4","3","4","2","0","0","1","1","0","1","1","1","0","1","0","0","0","0","1","5","2","4","1","2","2","2","4","1","3","732578051896119298","王","649","","","","","","","","","","","","","","","","","","","true","4","4","ability","735","negative","废物","","","","","","","","","","","","","","",""
"null","","null","html-keyboard-response","148","256910","0.0-6.0-0.0-8.0-0.20","4","3","4","3","3","4","3","3","4","4","5","4","2","4","3","5","4","3","4","5","4","3","4","3","4","4","3","4","2","0","0","1","1","0","1","1","1","0","1","0","0","0","0","1","5","2","4","1","2","2","2","4","1","3","732578051896119298","王","649","","","","","","","","","","","","","","","","","","","","","","","","","","","","","","","","","","","","","","","",""
"924","<p style=""color:rgb(150, 250, 100); font-size: 35px;"">他人</p>","i","categorize-html","149","257835","0.0-6.0-0.0-8.0-1.20","4","3","4","3","3","4","3","3","4","4","5","4","2","4","3","5","4","3","4","5","4","3","4","3","4","4","3","4","2","0","0","1","1","0","1","1","1","0","1","0","0","0","0","1","5","2","4","1","2","2","2","4","1","3","732578051896119298","王","649","","","","","","","","","","","","","","","","","","","true","4","4","ability","924","other","他人","","","","","","","","","","","","","","",""
"null","","null","html-keyboard-response","150","258086","0.0-6.0-0.0-8.0-0.21","4","3","4","3","3","4","3","3","4","4","5","4","2","4","3","5","4","3","4","5","4","3","4","3","4","4","3","4","2","0","0","1","1","0","1","1","1","0","1","0","0","0","0","1","5","2","4","1","2","2","2","4","1","3","732578051896119298","王","649","","","","","","","","","","","","","","","","","","","","","","","","","","","","","","","","","","","","","","","",""
"580","<p style=""color:white; font-size: 35px;"">愚钝</p>","i","categorize-html","151","258667","0.0-6.0-0.0-8.0-1.21","4","3","4","3","3","4","3","3","4","4","5","4","2","4","3","5","4","3","4","5","4","3","4","3","4","4","3","4","2","0","0","1","1","0","1","1","1","0","1","0","0","0","0","1","5","2","4","1","2","2","2","4","1","3","732578051896119298","王","649","","","","","","","","","","","","","","","","","","","true","4","4","ability","580","negative","愚钝","","","","","","","","","","","","","","",""
"null","","null","html-keyboard-response","152","258919","0.0-6.0-0.0-8.0-0.22","4","3","4","3","3","4","3","3","4","4","5","4","2","4","3","5","4","3","4","5","4","3","4","3","4","4","3","4","2","0","0","1","1","0","1","1","1","0","1","0","0","0","0","1","5","2","4","1","2","2","2","4","1","3","732578051896119298","王","649","","","","","","","","","","","","","","","","","","","","","","","","","","","","","","","","","","","","","","","",""
"648","<p style=""color:rgb(150, 250, 100); font-size: 35px;"">自己的</p>","e","categorize-html","153","259568","0.0-6.0-0.0-8.0-1.22","4","3","4","3","3","4","3","3","4","4","5","4","2","4","3","5","4","3","4","5","4","3","4","3","4","4","3","4","2","0","0","1","1","0","1","1","1","0","1","0","0","0","0","1","5","2","4","1","2","2","2","4","1","3","732578051896119298","王","649","","","","","","","","","","","","","","","","","","","true","4","4","ability","648","self","自己的","","","","","","","","","","","","","","",""
"null","","null","html-keyboard-response","154","259819","0.0-6.0-0.0-8.0-0.23","4","3","4","3","3","4","3","3","4","4","5","4","2","4","3","5","4","3","4","5","4","3","4","3","4","4","3","4","2","0","0","1","1","0","1","1","1","0","1","0","0","0","0","1","5","2","4","1","2","2","2","4","1","3","732578051896119298","王","649","","","","","","","","","","","","","","","","","","","","","","","","","","","","","","","","","","","","","","","",""
"449","<p style=""color:white; font-size: 35px;"">全能</p>","e","categorize-html","155","260269","0.0-6.0-0.0-8.0-1.23","4","3","4","3","3","4","3","3","4","4","5","4","2","4","3","5","4","3","4","5","4","3","4","3","4","4","3","4","2","0","0","1","1","0","1","1","1","0","1","0","0","0","0","1","5","2","4","1","2","2","2","4","1","3","732578051896119298","王","649","","","","","","","","","","","","","","","","","","","true","4","4","ability","449","positive","全能","","","","","","","","","","","","","","",""
"null","","null","html-keyboard-response","156","260519","0.0-6.0-0.0-8.0-0.24","4","3","4","3","3","4","3","3","4","4","5","4","2","4","3","5","4","3","4","5","4","3","4","3","4","4","3","4","2","0","0","1","1","0","1","1","1","0","1","0","0","0","0","1","5","2","4","1","2","2","2","4","1","3","732578051896119298","王","649","","","","","","","","","","","","","","","","","","","","","","","","","","","","","","","","","","","","","","","",""
"644","<p style=""color:rgb(150, 250, 100); font-size: 35px;"">他的</p>","i","categorize-html","157","261164","0.0-6.0-0.0-8.0-1.24","4","3","4","3","3","4","3","3","4","4","5","4","2","4","3","5","4","3","4","5","4","3","4","3","4","4","3","4","2","0","0","1","1","0","1","1","1","0","1","0","0","0","0","1","5","2","4","1","2","2","2","4","1","3","732578051896119298","王","649","","","","","","","","","","","","","","","","","","","true","4","4","ability","644","other","他的","","","","","","","","","","","","","","",""
"null","","null","html-keyboard-response","158","261415","0.0-6.0-0.0-8.0-0.25","4","3","4","3","3","4","3","3","4","4","5","4","2","4","3","5","4","3","4","5","4","3","4","3","4","4","3","4","2","0","0","1","1","0","1","1","1","0","1","0","0","0","0","1","5","2","4","1","2","2","2","4","1","3","732578051896119298","王","649","","","","","","","","","","","","","","","","","","","","","","","","","","","","","","","","","","","","","","","",""
"484","<p style=""color:white; font-size: 35px;"">蠢笨</p>","i","categorize-html","159","261900","0.0-6.0-0.0-8.0-1.25","4","3","4","3","3","4","3","3","4","4","5","4","2","4","3","5","4","3","4","5","4","3","4","3","4","4","3","4","2","0","0","1","1","0","1","1","1","0","1","0","0","0","0","1","5","2","4","1","2","2","2","4","1","3","732578051896119298","王","649","","","","","","","","","","","","","","","","","","","true","4","4","ability","484","negative","蠢笨","","","","","","","","","","","","","","",""
"null","","null","html-keyboard-response","160","262150","0.0-6.0-0.0-8.0-0.26","4","3","4","3","3","4","3","3","4","4","5","4","2","4","3","5","4","3","4","5","4","3","4","3","4","4","3","4","2","0","0","1","1","0","1","1","1","0","1","0","0","0","0","1","5","2","4","1","2","2","2","4","1","3","732578051896119298","王","649","","","","","","","","","","","","","","","","","","","","","","","","","","","","","","","","","","","","","","","",""
"546","<p style=""color:rgb(150, 250, 100); font-size: 35px;"">自己</p>","e","categorize-html","161","262698","0.0-6.0-0.0-8.0-1.26","4","3","4","3","3","4","3","3","4","4","5","4","2","4","3","5","4","3","4","5","4","3","4","3","4","4","3","4","2","0","0","1","1","0","1","1","1","0","1","0","0","0","0","1","5","2","4","1","2","2","2","4","1","3","732578051896119298","王","649","","","","","","","","","","","","","","","","","","","true","4","4","ability","546","self","自己","","","","","","","","","","","","","","",""
"null","","null","html-keyboard-response","162","262949","0.0-6.0-0.0-8.0-0.27","4","3","4","3","3","4","3","3","4","4","5","4","2","4","3","5","4","3","4","5","4","3","4","3","4","4","3","4","2","0","0","1","1","0","1","1","1","0","1","0","0","0","0","1","5","2","4","1","2","2","2","4","1","3","732578051896119298","王","649","","","","","","","","","","","","","","","","","","","","","","","","","","","","","","","","","","","","","","","",""
"517","<p style=""color:white; font-size: 35px;"">精干</p>","e","categorize-html","163","263467","0.0-6.0-0.0-8.0-1.27","4","3","4","3","3","4","3","3","4","4","5","4","2","4","3","5","4","3","4","5","4","3","4","3","4","4","3","4","2","0","0","1","1","0","1","1","1","0","1","0","0","0","0","1","5","2","4","1","2","2","2","4","1","3","732578051896119298","王","649","","","","","","","","","","","","","","","","","","","true","4","4","ability","517","positive","精干","","","","","","","","","","","","","","",""
"null","","null","html-keyboard-response","164","263718","0.0-6.0-0.0-8.0-0.28","4","3","4","3","3","4","3","3","4","4","5","4","2","4","3","5","4","3","4","5","4","3","4","3","4","4","3","4","2","0","0","1","1","0","1","1","1","0","1","0","0","0","0","1","5","2","4","1","2","2","2","4","1","3","732578051896119298","王","649","","","","","","","","","","","","","","","","","","","","","","","","","","","","","","","","","","","","","","","",""
"417","<p style=""color:rgb(150, 250, 100); font-size: 35px;"">别人</p>","i","categorize-html","165","264136","0.0-6.0-0.0-8.0-1.28","4","3","4","3","3","4","3","3","4","4","5","4","2","4","3","5","4","3","4","5","4","3","4","3","4","4","3","4","2","0","0","1","1","0","1","1","1","0","1","0","0","0","0","1","5","2","4","1","2","2","2","4","1","3","732578051896119298","王","649","","","","","","","","","","","","","","","","","","","true","4","4","ability","417","other","别人","","","","","","","","","","","","","","",""
"null","","null","html-keyboard-response","166","264387","0.0-6.0-0.0-8.0-0.29","4","3","4","3","3","4","3","3","4","4","5","4","2","4","3","5","4","3","4","5","4","3","4","3","4","4","3","4","2","0","0","1","1","0","1","1","1","0","1","0","0","0","0","1","5","2","4","1","2","2","2","4","1","3","732578051896119298","王","649","","","","","","","","","","","","","","","","","","","","","","","","","","","","","","","","","","","","","","","",""
"684","<p style=""color:white; font-size: 35px;"">天才</p>","e","categorize-html","167","265071","0.0-6.0-0.0-8.0-1.29","4","3","4","3","3","4","3","3","4","4","5","4","2","4","3","5","4","3","4","5","4","3","4","3","4","4","3","4","2","0","0","1","1","0","1","1","1","0","1","0","0","0","0","1","5","2","4","1","2","2","2","4","1","3","732578051896119298","王","649","","","","","","","","","","","","","","","","","","","true","4","4","ability","684","positive","天才","","","","","","","","","","","","","","",""
"null","","null","html-keyboard-response","168","265321","0.0-6.0-0.0-8.0-0.30","4","3","4","3","3","4","3","3","4","4","5","4","2","4","3","5","4","3","4","5","4","3","4","3","4","4","3","4","2","0","0","1","1","0","1","1","1","0","1","0","0","0","0","1","5","2","4","1","2","2","2","4","1","3","732578051896119298","王","649","","","","","","","","","","","","","","","","","","","","","","","","","","","","","","","","","","","","","","","",""
"497","<p style=""color:rgb(150, 250, 100); font-size: 35px;"">自己</p>","e","categorize-html","169","265819","0.0-6.0-0.0-8.0-1.30","4","3","4","3","3","4","3","3","4","4","5","4","2","4","3","5","4","3","4","5","4","3","4","3","4","4","3","4","2","0","0","1","1","0","1","1","1","0","1","0","0","0","0","1","5","2","4","1","2","2","2","4","1","3","732578051896119298","王","649","","","","","","","","","","","","","","","","","","","true","4","4","ability","497","self","自己","","","","","","","","","","","","","","",""
"null","","null","html-keyboard-response","170","266070","0.0-6.0-0.0-8.0-0.31","4","3","4","3","3","4","3","3","4","4","5","4","2","4","3","5","4","3","4","5","4","3","4","3","4","4","3","4","2","0","0","1","1","0","1","1","1","0","1","0","0","0","0","1","5","2","4","1","2","2","2","4","1","3","732578051896119298","王","649","","","","","","","","","","","","","","","","","","","","","","","","","","","","","","","","","","","","","","","",""
"497","<p style=""color:white; font-size: 35px;"">废物</p>","i","categorize-html","171","266568","0.0-6.0-0.0-8.0-1.31","4","3","4","3","3","4","3","3","4","4","5","4","2","4","3","5","4","3","4","5","4","3","4","3","4","4","3","4","2","0","0","1","1","0","1","1","1","0","1","0","0","0","0","1","5","2","4","1","2","2","2","4","1","3","732578051896119298","王","649","","","","","","","","","","","","","","","","","","","true","4","4","ability","497","negative","废物","","","","","","","","","","","","","","",""
"null","","null","html-keyboard-response","172","266819","0.0-6.0-0.0-8.0-0.32","4","3","4","3","3","4","3","3","4","4","5","4","2","4","3","5","4","3","4","5","4","3","4","3","4","4","3","4","2","0","0","1","1","0","1","1","1","0","1","0","0","0","0","1","5","2","4","1","2","2","2","4","1","3","732578051896119298","王","649","","","","","","","","","","","","","","","","","","","","","","","","","","","","","","","","","","","","","","","",""
"452","<p style=""color:rgb(150, 250, 100); font-size: 35px;"">他</p>","i","categorize-html","173","267271","0.0-6.0-0.0-8.0-1.32","4","3","4","3","3","4","3","3","4","4","5","4","2","4","3","5","4","3","4","5","4","3","4","3","4","4","3","4","2","0","0","1","1","0","1","1","1","0","1","0","0","0","0","1","5","2","4","1","2","2","2","4","1","3","732578051896119298","王","649","","","","","","","","","","","","","","","","","","","true","4","4","ability","452","other","他","","","","","","","","","","","","","","",""
"null","","null","html-keyboard-response","174","267523","0.0-6.0-0.0-8.0-0.33","4","3","4","3","3","4","3","3","4","4","5","4","2","4","3","5","4","3","4","5","4","3","4","3","4","4","3","4","2","0","0","1","1","0","1","1","1","0","1","0","0","0","0","1","5","2","4","1","2","2","2","4","1","3","732578051896119298","王","649","","","","","","","","","","","","","","","","","","","","","","","","","","","","","","","","","","","","","","","",""
"423","<p style=""color:white; font-size: 35px;"">低能</p>","i","categorize-html","175","267947","0.0-6.0-0.0-8.0-1.33","4","3","4","3","3","4","3","3","4","4","5","4","2","4","3","5","4","3","4","5","4","3","4","3","4","4","3","4","2","0","0","1","1","0","1","1","1","0","1","0","0","0","0","1","5","2","4","1","2","2","2","4","1","3","732578051896119298","王","649","","","","","","","","","","","","","","","","","","","true","4","4","ability","423","negative","低能","","","","","","","","","","","","","","",""
"null","","null","html-keyboard-response","176","268198","0.0-6.0-0.0-8.0-0.34","4","3","4","3","3","4","3","3","4","4","5","4","2","4","3","5","4","3","4","5","4","3","4","3","4","4","3","4","2","0","0","1","1","0","1","1","1","0","1","0","0","0","0","1","5","2","4","1","2","2","2","4","1","3","732578051896119298","王","649","","","","","","","","","","","","","","","","","","","","","","","","","","","","","","","","","","","","","","","",""
"377","<p style=""color:rgb(150, 250, 100); font-size: 35px;"">我的</p>","e","categorize-html","177","268575","0.0-6.0-0.0-8.0-1.34","4","3","4","3","3","4","3","3","4","4","5","4","2","4","3","5","4","3","4","5","4","3","4","3","4","4","3","4","2","0","0","1","1","0","1","1","1","0","1","0","0","0","0","1","5","2","4","1","2","2","2","4","1","3","732578051896119298","王","649","","","","","","","","","","","","","","","","","","","true","4","4","ability","377","self","我的","","","","","","","","","","","","","","",""
"null","","null","html-keyboard-response","178","268830","0.0-6.0-0.0-8.0-0.35","4","3","4","3","3","4","3","3","4","4","5","4","2","4","3","5","4","3","4","5","4","3","4","3","4","4","3","4","2","0","0","1","1","0","1","1","1","0","1","0","0","0","0","1","5","2","4","1","2","2","2","4","1","3","732578051896119298","王","649","","","","","","","","","","","","","","","","","","","","","","","","","","","","","","","","","","","","","","","",""
"473","<p style=""color:white; font-size: 35px;"">全能</p>","e","categorize-html","179","269304","0.0-6.0-0.0-8.0-1.35","4","3","4","3","3","4","3","3","4","4","5","4","2","4","3","5","4","3","4","5","4","3","4","3","4","4","3","4","2","0","0","1","1","0","1","1","1","0","1","0","0","0","0","1","5","2","4","1","2","2","2","4","1","3","732578051896119298","王","649","","","","","","","","","","","","","","","","","","","true","4","4","ability","473","positive","全能","","","","","","","","","","","","","","",""
"null","","null","html-keyboard-response","180","269556","0.0-6.0-0.0-8.0-0.36","4","3","4","3","3","4","3","3","4","4","5","4","2","4","3","5","4","3","4","5","4","3","4","3","4","4","3","4","2","0","0","1","1","0","1","1","1","0","1","0","0","0","0","1","5","2","4","1","2","2","2","4","1","3","732578051896119298","王","649","","","","","","","","","","","","","","","","","","","","","","","","","","","","","","","","","","","","","","","",""
"480","<p style=""color:rgb(150, 250, 100); font-size: 35px;"">本人的</p>","e","categorize-html","181","270036","0.0-6.0-0.0-8.0-1.36","4","3","4","3","3","4","3","3","4","4","5","4","2","4","3","5","4","3","4","5","4","3","4","3","4","4","3","4","2","0","0","1","1","0","1","1","1","0","1","0","0","0","0","1","5","2","4","1","2","2","2","4","1","3","732578051896119298","王","649","","","","","","","","","","","","","","","","","","","true","4","4","ability","480","self","本人的","","","","","","","","","","","","","","",""
"null","","null","html-keyboard-response","182","270287","0.0-6.0-0.0-8.0-0.37","4","3","4","3","3","4","3","3","4","4","5","4","2","4","3","5","4","3","4","5","4","3","4","3","4","4","3","4","2","0","0","1","1","0","1","1","1","0","1","0","0","0","0","1","5","2","4","1","2","2","2","4","1","3","732578051896119298","王","649","","","","","","","","","","","","","","","","","","","","","","","","","","","","","","","","","","","","","","","",""
"401","<p style=""color:white; font-size: 35px;"">能干</p>","e","categorize-html","183","270688","0.0-6.0-0.0-8.0-1.37","4","3","4","3","3","4","3","3","4","4","5","4","2","4","3","5","4","3","4","5","4","3","4","3","4","4","3","4","2","0","0","1","1","0","1","1","1","0","1","0","0","0","0","1","5","2","4","1","2","2","2","4","1","3","732578051896119298","王","649","","","","","","","","","","","","","","","","","","","true","4","4","ability","401","positive","能干","","","","","","","","","","","","","","",""
"null","","null","html-keyboard-response","184","270939","0.0-6.0-0.0-8.0-0.38","4","3","4","3","3","4","3","3","4","4","5","4","2","4","3","5","4","3","4","5","4","3","4","3","4","4","3","4","2","0","0","1","1","0","1","1","1","0","1","0","0","0","0","1","5","2","4","1","2","2","2","4","1","3","732578051896119298","王","649","","","","","","","","","","","","","","","","","","","","","","","","","","","","","","","","","","","","","","","",""
"451","<p style=""color:rgb(150, 250, 100); font-size: 35px;"">别人</p>","i","categorize-html","185","271391","0.0-6.0-0.0-8.0-1.38","4","3","4","3","3","4","3","3","4","4","5","4","2","4","3","5","4","3","4","5","4","3","4","3","4","4","3","4","2","0","0","1","1","0","1","1","1","0","1","0","0","0","0","1","5","2","4","1","2","2","2","4","1","3","732578051896119298","王","649","","","","","","","","","","","","","","","","","","","true","4","4","ability","451","other","别人","","","","","","","","","","","","","","",""
"null","","null","html-keyboard-response","186","271643","0.0-6.0-0.0-8.0-0.39","4","3","4","3","3","4","3","3","4","4","5","4","2","4","3","5","4","3","4","5","4","3","4","3","4","4","3","4","2","0","0","1","1","0","1","1","1","0","1","0","0","0","0","1","5","2","4","1","2","2","2","4","1","3","732578051896119298","王","649","","","","","","","","","","","","","","","","","","","","","","","","","","","","","","","","","","","","","","","",""
"444","<p style=""color:white; font-size: 35px;"">愚钝</p>","i","categorize-html","187","272088","0.0-6.0-0.0-8.0-1.39","4","3","4","3","3","4","3","3","4","4","5","4","2","4","3","5","4","3","4","5","4","3","4","3","4","4","3","4","2","0","0","1","1","0","1","1","1","0","1","0","0","0","0","1","5","2","4","1","2","2","2","4","1","3","732578051896119298","王","649","","","","","","","","","","","","","","","","","","","true","4","4","ability","444","negative","愚钝","","","","","","","","","","","","","","",""
"null","","null","html-keyboard-response","188","272339","0.0-6.0-0.0-8.0-0.40","4","3","4","3","3","4","3","3","4","4","5","4","2","4","3","5","4","3","4","5","4","3","4","3","4","4","3","4","2","0","0","1","1","0","1","1","1","0","1","0","0","0","0","1","5","2","4","1","2","2","2","4","1","3","732578051896119298","王","649","","","","","","","","","","","","","","","","","","","","","","","","","","","","","","","","","","","","","","","",""
"499","<p style=""color:rgb(150, 250, 100); font-size: 35px;"">本人</p>","e","categorize-html","189","272838","0.0-6.0-0.0-8.0-1.40","4","3","4","3","3","4","3","3","4","4","5","4","2","4","3","5","4","3","4","5","4","3","4","3","4","4","3","4","2","0","0","1","1","0","1","1","1","0","1","0","0","0","0","1","5","2","4","1","2","2","2","4","1","3","732578051896119298","王","649","","","","","","","","","","","","","","","","","","","true","4","4","ability","499","self","本人","","","","","","","","","","","","","","",""
"null","","null","html-keyboard-response","190","273089","0.0-6.0-0.0-8.0-0.41","4","3","4","3","3","4","3","3","4","4","5","4","2","4","3","5","4","3","4","5","4","3","4","3","4","4","3","4","2","0","0","1","1","0","1","1","1","0","1","0","0","0","0","1","5","2","4","1","2","2","2","4","1","3","732578051896119298","王","649","","","","","","","","","","","","","","","","","","","","","","","","","","","","","","","","","","","","","","","",""
"366","<p style=""color:white; font-size: 35px;"">蠢笨</p>","i","categorize-html","191","273455","0.0-6.0-0.0-8.0-1.41","4","3","4","3","3","4","3","3","4","4","5","4","2","4","3","5","4","3","4","5","4","3","4","3","4","4","3","4","2","0","0","1","1","0","1","1","1","0","1","0","0","0","0","1","5","2","4","1","2","2","2","4","1","3","732578051896119298","王","649","","","","","","","","","","","","","","","","","","","true","4","4","ability","366","negative","蠢笨","","","","","","","","","","","","","","",""
"null","","null","html-keyboard-response","192","273706","0.0-6.0-0.0-8.0-0.42","4","3","4","3","3","4","3","3","4","4","5","4","2","4","3","5","4","3","4","5","4","3","4","3","4","4","3","4","2","0","0","1","1","0","1","1","1","0","1","0","0","0","0","1","5","2","4","1","2","2","2","4","1","3","732578051896119298","王","649","","","","","","","","","","","","","","","","","","","","","","","","","","","","","","","","","","","","","","","",""
"444","<p style=""color:rgb(150, 250, 100); font-size: 35px;"">他人的</p>","i","categorize-html","193","274152","0.0-6.0-0.0-8.0-1.42","4","3","4","3","3","4","3","3","4","4","5","4","2","4","3","5","4","3","4","5","4","3","4","3","4","4","3","4","2","0","0","1","1","0","1","1","1","0","1","0","0","0","0","1","5","2","4","1","2","2","2","4","1","3","732578051896119298","王","649","","","","","","","","","","","","","","","","","","","true","4","4","ability","444","other","他人的","","","","","","","","","","","","","","",""
"null","","null","html-keyboard-response","194","274403","0.0-6.0-0.0-8.0-0.43","4","3","4","3","3","4","3","3","4","4","5","4","2","4","3","5","4","3","4","5","4","3","4","3","4","4","3","4","2","0","0","1","1","0","1","1","1","0","1","0","0","0","0","1","5","2","4","1","2","2","2","4","1","3","732578051896119298","王","649","","","","","","","","","","","","","","","","","","","","","","","","","","","","","","","","","","","","","","","",""
"372","<p style=""color:white; font-size: 35px;"">全才</p>","e","categorize-html","195","274777","0.0-6.0-0.0-8.0-1.43","4","3","4","3","3","4","3","3","4","4","5","4","2","4","3","5","4","3","4","5","4","3","4","3","4","4","3","4","2","0","0","1","1","0","1","1","1","0","1","0","0","0","0","1","5","2","4","1","2","2","2","4","1","3","732578051896119298","王","649","","","","","","","","","","","","","","","","","","","true","4","4","ability","372","positive","全才","","","","","","","","","","","","","","",""
"null","","null","html-keyboard-response","196","275029","0.0-6.0-0.0-8.0-0.44","4","3","4","3","3","4","3","3","4","4","5","4","2","4","3","5","4","3","4","5","4","3","4","3","4","4","3","4","2","0","0","1","1","0","1","1","1","0","1","0","0","0","0","1","5","2","4","1","2","2","2","4","1","3","732578051896119298","王","649","","","","","","","","","","","","","","","","","","","","","","","","","","","","","","","","","","","","","","","",""
"417","<p style=""color:rgb(150, 250, 100); font-size: 35px;"">我</p>","e","categorize-html","197","275447","0.0-6.0-0.0-8.0-1.44","4","3","4","3","3","4","3","3","4","4","5","4","2","4","3","5","4","3","4","5","4","3","4","3","4","4","3","4","2","0","0","1","1","0","1","1","1","0","1","0","0","0","0","1","5","2","4","1","2","2","2","4","1","3","732578051896119298","王","649","","","","","","","","","","","","","","","","","","","true","4","4","ability","417","self","我","","","","","","","","","","","","","","",""
