"rt","stimulus","response","trial_type","trial_index","time_elapsed","internal_node_id","ses_1","ses_2","ses_3","ses_4","ses_5","ses_6","ses_7","ses_8","ses_9","ses_10","coreself_1","coreself_2","coreself_3","coreself_4","coreself_5","coreself_6","coreself_7","coreself_8","coreself_9","coreself_10","SGPS_1","SGPS_2","SGPS_3","SGPS_4","SGPS_5","SGPS_6","SGPS_7","SGPS_8","SGPS_9","NPI1","NPI2","NPI3","NPI4","NPI5","NPI6","NPI7","NPI8","NPI9","NPI10","NPI11","NPI12","NPI13","NPI14","NPI15","hsns_1","hsns_2","hsns_3","hsns_4","hsns_5","hsns_6","hsns_7","hsns_8","hsns_9","hsns_10","subj_idx","friend_name","ParticipantID","value","success","user_agent","responses","item_order","radio_event_ids","radio_event_times","key_event_times","mouse_event_times","straightlining","zigzagging","honeypot","timeout","failed_images","failed_audio","failed_video","view_history","response_type","key_press","avg_frame_time","center_x","center_y","correct_response","correct","identity","Image","word","condition","task_id","screen_id","time_stamp","version_attrib2","version_target2","IAT","RT","varname","summary","version_attrib","version_target","question_order"
"13056","
   <p><div style = ""color: white;font-size:25px;"">您好，欢迎参加本次实验。</div> </p>
   <p><div style = ""color: white;font-size:25px;"">为充分保障您的权利，请确保您已经知晓并同意《参与实验同意书》以及《数据公开知情同意书》。</div></p>
   <p><div style = ""color: white;font-size:25px;"">如果您未见过上述内容，请咨询实验员。</div></p>
   <p><div style = ""color: white;font-size:25px;"">如果您选择继续实验，则表示您已经清楚两份知情同意书的内容并同意。</div></p>
   <p><div style = ""color: red;font-size:30px;"">请确保您记得day0的实验编号，您将在本次实验输入该编号，若您忘记，请咨询实验员后作答。</div></p>
   <p> <div style = ""color: green;font-size:25px;""><按空格键至下页></div> </p>
   "," ","html-keyboard-response","0","13061","0.0-0.0","3","4","4","4","3","4","4","3","3","4","4","3","3","4","3","4","3","3","4","4","2","2","2","2","1","1","2","2","1","1","0","1","1","0","0","1","1","0","1","1","0","1","0","1","4","3","4","2","3","3","4","4","3","1","687568214028189696","刘","150","","","","","","","","","","","","","","","","","","","","","","","","","","","","","","","","","","","","","","","",""
"","","","call-function","1","13064","0.0-1.0-0.0","3","4","4","4","3","4","4","3","3","4","4","3","3","4","3","4","3","3","4","4","2","2","2","2","1","1","2","2","1","1","0","1","1","0","0","1","1","0","1","1","0","1","0","1","4","3","4","2","3","3","4","4","3","1","687568214028189696","刘","150","","","","","","","","","","","","","","","","","","","","","","","","","","","","","","","","","","","","","","","",""
"9313","","{""friend_name"":""刘"",""ParticipantID"":""150""}","survey-html-form","2","22380","0.0-1.0-1.0","3","4","4","4","3","4","4","3","3","4","4","3","3","4","3","4","3","3","4","4","2","2","2","2","1","1","2","2","1","1","0","1","1","0","0","1","1","0","1","1","0","1","0","1","4","3","4","2","3","3","4","4","3","1","687568214028189696","刘","150","","","","","","","","","","","","","","","","","","","","","","","","","","","","","","","","","","","","","","","",""
"","","","fullscreen","3","23948","0.0-2.0","3","4","4","4","3","4","4","3","3","4","4","3","3","4","3","4","3","3","4","4","2","2","2","2","1","1","2","2","1","1","0","1","1","0","0","1","1","0","1","1","0","1","0","1","4","3","4","2","3","3","4","4","3","1","687568214028189696","刘","150","","true","{}","","","","","","","","","","","","","","","","","","","","","","","","","","","","","","","","","","","","",""
"23739.5","","{""Q01"":""3"",""Q02"":""4"",""Q03"":""4"",""Q04"":""4"",""Q05"":""3"",""Q06"":""4"",""Q07"":""4"",""Q08"":""3"",""Q09"":""3"",""Q10"":""4""}","survey-template","4","47697","0.0-3.0","3","4","4","4","3","4","4","3","3","4","4","3","3","4","3","4","3","3","4","4","2","2","2","2","1","1","2","2","1","1","0","1","1","0","0","1","1","0","1","1","0","1","0","1","4","3","4","2","3","3","4","4","3","1","687568214028189696","刘","150","","","","{""Q01"":""3"",""Q02"":""4"",""Q03"":""4"",""Q04"":""4"",""Q05"":""3"",""Q06"":""4"",""Q07"":""4"",""Q08"":""3"",""Q09"":""3"",""Q10"":""4""}","[0,1,2,3,4,5,6,7,8,9]","[""Q01"",""Q02"",""Q03"",""Q04"",""Q05"",""Q06"",""Q07"",""Q08"",""Q09"",""Q10""]","[8008.0999999996275,9856.39999999851,12568.099999999627,14528,16880,18223.89999999851,19575.89999999851,20527.699999999255,21999.89999999851,22711.599999999627]","[]","[8008.0999999996275,9856.39999999851,12568.099999999627,14528,16880,18223.89999999851,19575.89999999851,20527.699999999255,21999.89999999851,22711.599999999627,23736]","0.4","0.4444444444444444","0","","","","","","","","","","","","","","","","","","","","","","","","","","","",""
"81738.09999999963","","{""Q01"":""4"",""Q02"":""3"",""Q03"":""3"",""Q04"":""4"",""Q05"":""3"",""Q06"":""4"",""Q07"":""3"",""Q08"":""3"",""Q09"":""4"",""Q10"":""4""}","survey-template","5","129456","0.0-4.0","3","4","4","4","3","4","4","3","3","4","4","3","3","4","3","4","3","3","4","4","2","2","2","2","1","1","2","2","1","1","0","1","1","0","0","1","1","0","1","1","0","1","0","1","4","3","4","2","3","3","4","4","3","1","687568214028189696","刘","150","","","","{""Q01"":""4"",""Q02"":""3"",""Q03"":""3"",""Q04"":""4"",""Q05"":""3"",""Q06"":""4"",""Q07"":""3"",""Q08"":""3"",""Q09"":""4"",""Q10"":""4""}","[0,1,2,3,4,5,6,7,8,9]","[""Q01"",""Q02"",""Q03"",""Q04"",""Q05"",""Q06"",""Q07"",""Q08"",""Q09"",""Q10""]","[67342.29999999888,69758.19999999925,72102.29999999888,72918.5,74302.59999999963,75590.40000000037,76838.5,78750.40000000037,79710.40000000037,81086.5]","[]","[67342.29999999888,69758.19999999925,72102.29999999888,72918.5,74302.59999999963,75590.40000000037,76838.5,78750.40000000037,79710.40000000037,81086.5,81734.69999999925]","0.5","0.6666666666666666","0","","","","","","","","","","","","","","","","","","","","","","","","","","","",""
"","","","preload","6","129609","0.0-5.0","3","4","4","4","3","4","4","3","3","4","4","3","3","4","3","4","3","3","4","4","2","2","2","2","1","1","2","2","1","1","0","1","1","0","0","1","1","0","1","1","0","1","0","1","4","3","4","2","3","3","4","4","3","1","687568214028189696","刘","150","","true","","","","","","","","","","","false","[]","[]","[]","","","","","","","","","","","","","","","","","","","","","","","",""
"1128","","","instructions","7","130739","0.0-6.0","3","4","4","4","3","4","4","3","3","4","4","3","3","4","3","4","3","3","4","4","2","2","2","2","1","1","2","2","1","1","0","1","1","0","0","1","1","0","1","1","0","1","0","1","4","3","4","2","3","3","4","4","3","1","687568214028189696","刘","150","","","","","","","","","","","","","","","","","[{""page_index"":0,""viewing_time"":1128}]","","","","","","","","","","","","","","","","","","","","","","",""
"11781","","","instructions","8","142522","0.0-7.0-0.0-0.0","3","4","4","4","3","4","4","3","3","4","4","3","3","4","3","4","3","3","4","4","2","2","2","2","1","1","2","2","1","1","0","1","1","0","0","1","1","0","1","1","0","1","0","1","4","3","4","2","3","3","4","4","3","1","687568214028189696","刘","150","","","","","","","","","","","","","","","","","[{""page_index"":0,""viewing_time"":6188},{""page_index"":1,""viewing_time"":5024},{""page_index"":2,""viewing_time"":568}]","","","","","","","","","","","","","","","","","","","","","","",""
"918","","j","psychophysics","9","144466","0.0-7.0-0.0-1.0-0.0-0.0","3","4","4","4","3","4","4","3","3","4","4","3","3","4","3","4","3","3","4","4","2","2","2","2","1","1","2","2","1","1","0","1","1","0","0","1","1","0","1","1","0","1","0","1","4","3","4","2","3","3","4","4","3","1","687568214028189696","刘","150","","","","nonmatch","","","","","","","","","","","","","","key","j","17.27211818181809","683","380","j","true","nonmatch","img/circle.png","三角","圆形","ALT1_1","prac_ALT1_1","","","","","","","","","",""
"null","<span style='color:GreenYellow; font-size: 70px;'>正确! </span>","null","html-keyboard-response","10","144973","0.0-7.0-0.0-1.0-0.0-1.0","3","4","4","4","3","4","4","3","3","4","4","3","3","4","3","4","3","3","4","4","2","2","2","2","1","1","2","2","1","1","0","1","1","0","0","1","1","0","1","1","0","1","0","1","4","3","4","2","3","3","4","4","3","1","687568214028189696","刘","150","","","","","","","","","","","","","","","","","","","","","","","","","","","","","","feedback_test","","","","","","","","","",""
"653","","f","psychophysics","11","146634","0.0-7.0-0.0-1.0-0.0-0.1","3","4","4","4","3","4","4","3","3","4","4","3","3","4","3","4","3","3","4","4","2","2","2","2","1","1","2","2","1","1","0","1","1","0","0","1","1","0","1","1","0","1","0","1","4","3","4","2","3","3","4","4","3","1","687568214028189696","刘","150","","","","match","","","","","","","","","","","","","","key","f","16.830102040816385","683","380","f","true","match","img/triangle.png","三角","三角","ALT1_1","prac_ALT1_1","","","","","","","","","",""
"null","<span style='color:GreenYellow; font-size: 70px;'>正确! </span>","null","html-keyboard-response","12","147140","0.0-7.0-0.0-1.0-0.0-1.1","3","4","4","4","3","4","4","3","3","4","4","3","3","4","3","4","3","3","4","4","2","2","2","2","1","1","2","2","1","1","0","1","1","0","0","1","1","0","1","1","0","1","0","1","4","3","4","2","3","3","4","4","3","1","687568214028189696","刘","150","","","","","","","","","","","","","","","","","","","","","","","","","","","","","","feedback_test","","","","","","","","","",""
"697","","f","psychophysics","13","148850","0.0-7.0-0.0-1.0-0.0-0.2","3","4","4","4","3","4","4","3","3","4","4","3","3","4","3","4","3","3","4","4","2","2","2","2","1","1","2","2","1","1","0","1","1","0","0","1","1","0","1","1","0","1","0","1","4","3","4","2","3","3","4","4","3","1","687568214028189696","刘","150","","","","match","","","","","","","","","","","","","","key","f","16.668892156862878","683","380","f","true","match","img/hexagon.png","六边","六边","ALT1_1","prac_ALT1_1","","","","","","","","","",""
"null","<span style='color:GreenYellow; font-size: 70px;'>正确! </span>","null","html-keyboard-response","14","149356","0.0-7.0-0.0-1.0-0.0-1.2","3","4","4","4","3","4","4","3","3","4","4","3","3","4","3","4","3","3","4","4","2","2","2","2","1","1","2","2","1","1","0","1","1","0","0","1","1","0","1","1","0","1","0","1","4","3","4","2","3","3","4","4","3","1","687568214028189696","刘","150","","","","","","","","","","","","","","","","","","","","","","","","","","","","","","feedback_test","","","","","","","","","",""
"737","","j","psychophysics","15","151106","0.0-7.0-0.0-1.0-0.0-0.3","3","4","4","4","3","4","4","3","3","4","4","3","3","4","3","4","3","3","4","4","2","2","2","2","1","1","2","2","1","1","0","1","1","0","0","1","1","0","1","1","0","1","0","1","4","3","4","2","3","3","4","4","3","1","687568214028189696","刘","150","","","","nonmatch","","","","","","","","","","","","","","key","j","17.00020588235302","683","380","j","true","nonmatch","img/trapezoid.png","三角","梯形","ALT1_1","prac_ALT1_1","","","","","","","","","",""
"null","<span style='color:GreenYellow; font-size: 70px;'>正确! </span>","null","html-keyboard-response","16","151612","0.0-7.0-0.0-1.0-0.0-1.3","3","4","4","4","3","4","4","3","3","4","4","3","3","4","3","4","3","3","4","4","2","2","2","2","1","1","2","2","1","1","0","1","1","0","0","1","1","0","1","1","0","1","0","1","4","3","4","2","3","3","4","4","3","1","687568214028189696","刘","150","","","","","","","","","","","","","","","","","","","","","","","","","","","","","","feedback_test","","","","","","","","","",""
"950","","f","psychophysics","17","153565","0.0-7.0-0.0-1.0-0.0-0.4","3","4","4","4","3","4","4","3","3","4","4","3","3","4","3","4","3","3","4","4","2","2","2","2","1","1","2","2","1","1","0","1","1","0","0","1","1","0","1","1","0","1","0","1","4","3","4","2","3","3","4","4","3","1","687568214028189696","刘","150","","","","match","","","","","","","","","","","","","","key","f","16.81554782608696","683","380","j","false","nonmatch","img/hexagon.png","梯形","六边","ALT1_1","prac_ALT1_1","","","","","","","","","",""
"null","<span style='color:red; font-size: 70px;'>错误! </span>","null","html-keyboard-response","18","154068","0.0-7.0-0.0-1.0-0.0-1.4","3","4","4","4","3","4","4","3","3","4","4","3","3","4","3","4","3","3","4","4","2","2","2","2","1","1","2","2","1","1","0","1","1","0","0","1","1","0","1","1","0","1","0","1","4","3","4","2","3","3","4","4","3","1","687568214028189696","刘","150","","","","","","","","","","","","","","","","","","","","","","","","","","","","","","feedback_test","","","","","","","","","",""
"1022","","j","psychophysics","19","156099","0.0-7.0-0.0-1.0-0.0-0.5","3","4","4","4","3","4","4","3","3","4","4","3","3","4","3","4","3","3","4","4","2","2","2","2","1","1","2","2","1","1","0","1","1","0","0","1","1","0","1","1","0","1","0","1","4","3","4","2","3","3","4","4","3","1","687568214028189696","刘","150","","","","nonmatch","","","","","","","","","","","","","","key","j","16.79463865546223","683","380","j","true","nonmatch","img/triangle.png","圆形","三角","ALT1_1","prac_ALT1_1","","","","","","","","","",""
"null","<span style='color:GreenYellow; font-size: 70px;'>正确! </span>","null","html-keyboard-response","20","156604","0.0-7.0-0.0-1.0-0.0-1.5","3","4","4","4","3","4","4","3","3","4","4","3","3","4","3","4","3","3","4","4","2","2","2","2","1","1","2","2","1","1","0","1","1","0","0","1","1","0","1","1","0","1","0","1","4","3","4","2","3","3","4","4","3","1","687568214028189696","刘","150","","","","","","","","","","","","","","","","","","","","","","","","","","","","","","feedback_test","","","","","","","","","",""
"683","","f","psychophysics","21","158298","0.0-7.0-0.0-1.0-0.0-0.6","3","4","4","4","3","4","4","3","3","4","4","3","3","4","3","4","3","3","4","4","2","2","2","2","1","1","2","2","1","1","0","1","1","0","0","1","1","0","1","1","0","1","0","1","4","3","4","2","3","3","4","4","3","1","687568214028189696","刘","150","","","","match","","","","","","","","","","","","","","key","f","16.66710891089106","683","380","f","true","match","img/circle.png","圆形","圆形","ALT1_1","prac_ALT1_1","","","","","","","","","",""
"null","<span style='color:GreenYellow; font-size: 70px;'>正确! </span>","null","html-keyboard-response","22","158804","0.0-7.0-0.0-1.0-0.0-1.6","3","4","4","4","3","4","4","3","3","4","4","3","3","4","3","4","3","3","4","4","2","2","2","2","1","1","2","2","1","1","0","1","1","0","0","1","1","0","1","1","0","1","0","1","4","3","4","2","3","3","4","4","3","1","687568214028189696","刘","150","","","","","","","","","","","","","","","","","","","","","","","","","","","","","","feedback_test","","","","","","","","","",""
"820","","f","psychophysics","23","160634","0.0-7.0-0.0-1.0-0.0-0.7","3","4","4","4","3","4","4","3","3","4","4","3","3","4","3","4","3","3","4","4","2","2","2","2","1","1","2","2","1","1","0","1","1","0","0","1","1","0","1","1","0","1","0","1","4","3","4","2","3","3","4","4","3","1","687568214028189696","刘","150","","","","match","","","","","","","","","","","","","","key","f","16.97119626168229","683","380","f","true","match","img/triangle.png","三角","三角","ALT1_1","prac_ALT1_1","","","","","","","","","",""
"null","<span style='color:GreenYellow; font-size: 70px;'>正确! </span>","null","html-keyboard-response","24","161140","0.0-7.0-0.0-1.0-0.0-1.7","3","4","4","4","3","4","4","3","3","4","4","3","3","4","3","4","3","3","4","4","2","2","2","2","1","1","2","2","1","1","0","1","1","0","0","1","1","0","1","1","0","1","0","1","4","3","4","2","3","3","4","4","3","1","687568214028189696","刘","150","","","","","","","","","","","","","","","","","","","","","","","","","","","","","","feedback_test","","","","","","","","","",""
"695","","f","psychophysics","25","162842","0.0-7.0-0.0-1.0-0.0-0.8","3","4","4","4","3","4","4","3","3","4","4","3","3","4","3","4","3","3","4","4","2","2","2","2","1","1","2","2","1","1","0","1","1","0","0","1","1","0","1","1","0","1","0","1","4","3","4","2","3","3","4","4","3","1","687568214028189696","刘","150","","","","match","","","","","","","","","","","","","","key","f","16.671939393939365","683","380","f","true","match","img/trapezoid.png","梯形","梯形","ALT1_1","prac_ALT1_1","","","","","","","","","",""
"null","<span style='color:GreenYellow; font-size: 70px;'>正确! </span>","null","html-keyboard-response","26","163348","0.0-7.0-0.0-1.0-0.0-1.8","3","4","4","4","3","4","4","3","3","4","4","3","3","4","3","4","3","3","4","4","2","2","2","2","1","1","2","2","1","1","0","1","1","0","0","1","1","0","1","1","0","1","0","1","4","3","4","2","3","3","4","4","3","1","687568214028189696","刘","150","","","","","","","","","","","","","","","","","","","","","","","","","","","","","","feedback_test","","","","","","","","","",""
"829","","j","psychophysics","27","165186","0.0-7.0-0.0-1.0-0.0-0.9","3","4","4","4","3","4","4","3","3","4","4","3","3","4","3","4","3","3","4","4","2","2","2","2","1","1","2","2","1","1","0","1","1","0","0","1","1","0","1","1","0","1","0","1","4","3","4","2","3","3","4","4","3","1","687568214028189696","刘","150","","","","nonmatch","","","","","","","","","","","","","","key","j","16.821425925925993","683","380","j","true","nonmatch","img/hexagon.png","三角","六边","ALT1_1","prac_ALT1_1","","","","","","","","","",""
"null","<span style='color:GreenYellow; font-size: 70px;'>正确! </span>","null","html-keyboard-response","28","165692","0.0-7.0-0.0-1.0-0.0-1.9","3","4","4","4","3","4","4","3","3","4","4","3","3","4","3","4","3","3","4","4","2","2","2","2","1","1","2","2","1","1","0","1","1","0","0","1","1","0","1","1","0","1","0","1","4","3","4","2","3","3","4","4","3","1","687568214028189696","刘","150","","","","","","","","","","","","","","","","","","","","","","","","","","","","","","feedback_test","","","","","","","","","",""
"826","","j","psychophysics","29","167522","0.0-7.0-0.0-1.0-0.0-0.10","3","4","4","4","3","4","4","3","3","4","4","3","3","4","3","4","3","3","4","4","2","2","2","2","1","1","2","2","1","1","0","1","1","0","0","1","1","0","1","1","0","1","0","1","4","3","4","2","3","3","4","4","3","1","687568214028189696","刘","150","","","","nonmatch","","","","","","","","","","","","","","key","j","16.822214953270883","683","380","j","true","nonmatch","img/trapezoid.png","圆形","梯形","ALT1_1","prac_ALT1_1","","","","","","","","","",""
"null","<span style='color:GreenYellow; font-size: 70px;'>正确! </span>","null","html-keyboard-response","30","168028","0.0-7.0-0.0-1.0-0.0-1.10","3","4","4","4","3","4","4","3","3","4","4","3","3","4","3","4","3","3","4","4","2","2","2","2","1","1","2","2","1","1","0","1","1","0","0","1","1","0","1","1","0","1","0","1","4","3","4","2","3","3","4","4","3","1","687568214028189696","刘","150","","","","","","","","","","","","","","","","","","","","","","","","","","","","","","feedback_test","","","","","","","","","",""
"803","","f","psychophysics","31","169833","0.0-7.0-0.0-1.0-0.0-0.11","3","4","4","4","3","4","4","3","3","4","4","3","3","4","3","4","3","3","4","4","2","2","2","2","1","1","2","2","1","1","0","1","1","0","0","1","1","0","1","1","0","1","0","1","4","3","4","2","3","3","4","4","3","1","687568214028189696","刘","150","","","","match","","","","","","","","","","","","","","key","f","16.66660377358494","683","380","f","true","match","img/hexagon.png","六边","六边","ALT1_1","prac_ALT1_1","","","","","","","","","",""
"null","<span style='color:GreenYellow; font-size: 70px;'>正确! </span>","null","html-keyboard-response","32","170340","0.0-7.0-0.0-1.0-0.0-1.11","3","4","4","4","3","4","4","3","3","4","4","3","3","4","3","4","3","3","4","4","2","2","2","2","1","1","2","2","1","1","0","1","1","0","0","1","1","0","1","1","0","1","0","1","4","3","4","2","3","3","4","4","3","1","687568214028189696","刘","150","","","","","","","","","","","","","","","","","","","","","","","","","","","","","","feedback_test","","","","","","","","","",""
"854","","f","psychophysics","33","172201","0.0-7.0-0.0-1.0-0.0-0.12","3","4","4","4","3","4","4","3","3","4","4","3","3","4","3","4","3","3","4","4","2","2","2","2","1","1","2","2","1","1","0","1","1","0","0","1","1","0","1","1","0","1","0","1","4","3","4","2","3","3","4","4","3","1","687568214028189696","刘","150","","","","match","","","","","","","","","","","","","","key","f","16.671783783783777","683","380","f","true","match","img/circle.png","圆形","圆形","ALT1_1","prac_ALT1_1","","","","","","","","","",""
"null","<span style='color:GreenYellow; font-size: 70px;'>正确! </span>","null","html-keyboard-response","34","172708","0.0-7.0-0.0-1.0-0.0-1.12","3","4","4","4","3","4","4","3","3","4","4","3","3","4","3","4","3","3","4","4","2","2","2","2","1","1","2","2","1","1","0","1","1","0","0","1","1","0","1","1","0","1","0","1","4","3","4","2","3","3","4","4","3","1","687568214028189696","刘","150","","","","","","","","","","","","","","","","","","","","","","","","","","","","","","feedback_test","","","","","","","","","",""
"786","","f","psychophysics","35","174498","0.0-7.0-0.0-1.0-0.0-0.13","3","4","4","4","3","4","4","3","3","4","4","3","3","4","3","4","3","3","4","4","2","2","2","2","1","1","2","2","1","1","0","1","1","0","0","1","1","0","1","1","0","1","0","1","4","3","4","2","3","3","4","4","3","1","687568214028189696","刘","150","","","","match","","","","","","","","","","","","","","key","f","16.667783018867958","683","380","f","true","match","img/trapezoid.png","梯形","梯形","ALT1_1","prac_ALT1_1","","","","","","","","","",""
"null","<span style='color:GreenYellow; font-size: 70px;'>正确! </span>","null","html-keyboard-response","36","175004","0.0-7.0-0.0-1.0-0.0-1.13","3","4","4","4","3","4","4","3","3","4","4","3","3","4","3","4","3","3","4","4","2","2","2","2","1","1","2","2","1","1","0","1","1","0","0","1","1","0","1","1","0","1","0","1","4","3","4","2","3","3","4","4","3","1","687568214028189696","刘","150","","","","","","","","","","","","","","","","","","","","","","","","","","","","","","feedback_test","","","","","","","","","",""
"948","","j","psychophysics","37","176963","0.0-7.0-0.0-1.0-0.0-0.14","3","4","4","4","3","4","4","3","3","4","4","3","3","4","3","4","3","3","4","4","2","2","2","2","1","1","2","2","1","1","0","1","1","0","0","1","1","0","1","1","0","1","0","1","4","3","4","2","3","3","4","4","3","1","687568214028189696","刘","150","","","","nonmatch","","","","","","","","","","","","","","key","j","16.66982905982902","683","380","j","true","nonmatch","img/circle.png","梯形","圆形","ALT1_1","prac_ALT1_1","","","","","","","","","",""
"null","<span style='color:GreenYellow; font-size: 70px;'>正确! </span>","null","html-keyboard-response","38","177468","0.0-7.0-0.0-1.0-0.0-1.14","3","4","4","4","3","4","4","3","3","4","4","3","3","4","3","4","3","3","4","4","2","2","2","2","1","1","2","2","1","1","0","1","1","0","0","1","1","0","1","1","0","1","0","1","4","3","4","2","3","3","4","4","3","1","687568214028189696","刘","150","","","","","","","","","","","","","","","","","","","","","","","","","","","","","","feedback_test","","","","","","","","","",""
"773","","f","psychophysics","39","179249","0.0-7.0-0.0-1.0-0.0-0.15","3","4","4","4","3","4","4","3","3","4","4","3","3","4","3","4","3","3","4","4","2","2","2","2","1","1","2","2","1","1","0","1","1","0","0","1","1","0","1","1","0","1","0","1","4","3","4","2","3","3","4","4","3","1","687568214028189696","刘","150","","","","match","","","","","","","","","","","","","","key","f","16.670628571428548","683","380","f","true","match","img/trapezoid.png","梯形","梯形","ALT1_1","prac_ALT1_1","","","","","","","","","",""
"null","<span style='color:GreenYellow; font-size: 70px;'>正确! </span>","null","html-keyboard-response","40","179756","0.0-7.0-0.0-1.0-0.0-1.15","3","4","4","4","3","4","4","3","3","4","4","3","3","4","3","4","3","3","4","4","2","2","2","2","1","1","2","2","1","1","0","1","1","0","0","1","1","0","1","1","0","1","0","1","4","3","4","2","3","3","4","4","3","1","687568214028189696","刘","150","","","","","","","","","","","","","","","","","","","","","","","","","","","","","","feedback_test","","","","","","","","","",""
"790","","j","psychophysics","41","181553","0.0-7.0-0.0-1.0-0.0-0.16","3","4","4","4","3","4","4","3","3","4","4","3","3","4","3","4","3","3","4","4","2","2","2","2","1","1","2","2","1","1","0","1","1","0","0","1","1","0","1","1","0","1","0","1","4","3","4","2","3","3","4","4","3","1","687568214028189696","刘","150","","","","nonmatch","","","","","","","","","","","","","","key","j","16.826226415094492","683","380","j","true","nonmatch","img/hexagon.png","圆形","六边","ALT1_1","prac_ALT1_1","","","","","","","","","",""
"null","<span style='color:GreenYellow; font-size: 70px;'>正确! </span>","null","html-keyboard-response","42","182060","0.0-7.0-0.0-1.0-0.0-1.16","3","4","4","4","3","4","4","3","3","4","4","3","3","4","3","4","3","3","4","4","2","2","2","2","1","1","2","2","1","1","0","1","1","0","0","1","1","0","1","1","0","1","0","1","4","3","4","2","3","3","4","4","3","1","687568214028189696","刘","150","","","","","","","","","","","","","","","","","","","","","","","","","","","","","","feedback_test","","","","","","","","","",""
"933","","j","psychophysics","43","183996","0.0-7.0-0.0-1.0-0.0-0.17","3","4","4","4","3","4","4","3","3","4","4","3","3","4","3","4","3","3","4","4","2","2","2","2","1","1","2","2","1","1","0","1","1","0","0","1","1","0","1","1","0","1","0","1","4","3","4","2","3","3","4","4","3","1","687568214028189696","刘","150","","","","nonmatch","","","","","","","","","","","","","","key","j","16.67659130434799","683","380","j","true","nonmatch","img/trapezoid.png","六边","梯形","ALT1_1","prac_ALT1_1","","","","","","","","","",""
"null","<span style='color:GreenYellow; font-size: 70px;'>正确! </span>","null","html-keyboard-response","44","184499","0.0-7.0-0.0-1.0-0.0-1.17","3","4","4","4","3","4","4","3","3","4","4","3","3","4","3","4","3","3","4","4","2","2","2","2","1","1","2","2","1","1","0","1","1","0","0","1","1","0","1","1","0","1","0","1","4","3","4","2","3","3","4","4","3","1","687568214028189696","刘","150","","","","","","","","","","","","","","","","","","","","","","","","","","","","","","feedback_test","","","","","","","","","",""
"765","","f","psychophysics","45","186273","0.0-7.0-0.0-1.0-0.0-0.18","3","4","4","4","3","4","4","3","3","4","4","3","3","4","3","4","3","3","4","4","2","2","2","2","1","1","2","2","1","1","0","1","1","0","0","1","1","0","1","1","0","1","0","1","4","3","4","2","3","3","4","4","3","1","687568214028189696","刘","150","","","","match","","","","","","","","","","","","","","key","f","16.654504761904743","683","380","f","true","match","img/circle.png","圆形","圆形","ALT1_1","prac_ALT1_1","","","","","","","","","",""
"null","<span style='color:GreenYellow; font-size: 70px;'>正确! </span>","null","html-keyboard-response","46","186779","0.0-7.0-0.0-1.0-0.0-1.18","3","4","4","4","3","4","4","3","3","4","4","3","3","4","3","4","3","3","4","4","2","2","2","2","1","1","2","2","1","1","0","1","1","0","0","1","1","0","1","1","0","1","0","1","4","3","4","2","3","3","4","4","3","1","687568214028189696","刘","150","","","","","","","","","","","","","","","","","","","","","","","","","","","","","","feedback_test","","","","","","","","","",""
"686","","f","psychophysics","47","188473","0.0-7.0-0.0-1.0-0.0-0.19","3","4","4","4","3","4","4","3","3","4","4","3","3","4","3","4","3","3","4","4","2","2","2","2","1","1","2","2","1","1","0","1","1","0","0","1","1","0","1","1","0","1","0","1","4","3","4","2","3","3","4","4","3","1","687568214028189696","刘","150","","","","match","","","","","","","","","","","","","","key","f","16.668828282828354","683","380","f","true","match","img/triangle.png","三角","三角","ALT1_1","prac_ALT1_1","","","","","","","","","",""
"null","<span style='color:GreenYellow; font-size: 70px;'>正确! </span>","null","html-keyboard-response","48","188980","0.0-7.0-0.0-1.0-0.0-1.19","3","4","4","4","3","4","4","3","3","4","4","3","3","4","3","4","3","3","4","4","2","2","2","2","1","1","2","2","1","1","0","1","1","0","0","1","1","0","1","1","0","1","0","1","4","3","4","2","3","3","4","4","3","1","687568214028189696","刘","150","","","","","","","","","","","","","","","","","","","","","","","","","","","","","","feedback_test","","","","","","","","","",""
"800","","j","psychophysics","49","190788","0.0-7.0-0.0-1.0-0.0-0.20","3","4","4","4","3","4","4","3","3","4","4","3","3","4","3","4","3","3","4","4","2","2","2","2","1","1","2","2","1","1","0","1","1","0","0","1","1","0","1","1","0","1","0","1","4","3","4","2","3","3","4","4","3","1","687568214028189696","刘","150","","","","nonmatch","","","","","","","","","","","","","","key","j","16.982514285714466","683","380","j","true","nonmatch","img/triangle.png","六边","三角","ALT1_1","prac_ALT1_1","","","","","","","","","",""
"null","<span style='color:GreenYellow; font-size: 70px;'>正确! </span>","null","html-keyboard-response","50","191292","0.0-7.0-0.0-1.0-0.0-1.20","3","4","4","4","3","4","4","3","3","4","4","3","3","4","3","4","3","3","4","4","2","2","2","2","1","1","2","2","1","1","0","1","1","0","0","1","1","0","1","1","0","1","0","1","4","3","4","2","3","3","4","4","3","1","687568214028189696","刘","150","","","","","","","","","","","","","","","","","","","","","","","","","","","","","","feedback_test","","","","","","","","","",""
"683","","f","psychophysics","51","192979","0.0-7.0-0.0-1.0-0.0-0.21","3","4","4","4","3","4","4","3","3","4","4","3","3","4","3","4","3","3","4","4","2","2","2","2","1","1","2","2","1","1","0","1","1","0","0","1","1","0","1","1","0","1","0","1","4","3","4","2","3","3","4","4","3","1","687568214028189696","刘","150","","","","match","","","","","","","","","","","","","","key","f","16.66909090909111","683","380","f","true","match","img/hexagon.png","六边","六边","ALT1_1","prac_ALT1_1","","","","","","","","","",""
"null","<span style='color:GreenYellow; font-size: 70px;'>正确! </span>","null","html-keyboard-response","52","193484","0.0-7.0-0.0-1.0-0.0-1.21","3","4","4","4","3","4","4","3","3","4","4","3","3","4","3","4","3","3","4","4","2","2","2","2","1","1","2","2","1","1","0","1","1","0","0","1","1","0","1","1","0","1","0","1","4","3","4","2","3","3","4","4","3","1","687568214028189696","刘","150","","","","","","","","","","","","","","","","","","","","","","","","","","","","","","feedback_test","","","","","","","","","",""
"764","","j","psychophysics","53","195261","0.0-7.0-0.0-1.0-0.0-0.22","3","4","4","4","3","4","4","3","3","4","4","3","3","4","3","4","3","3","4","4","2","2","2","2","1","1","2","2","1","1","0","1","1","0","0","1","1","0","1","1","0","1","0","1","4","3","4","2","3","3","4","4","3","1","687568214028189696","刘","150","","","","nonmatch","","","","","","","","","","","","","","key","j","16.661528846153836","683","380","j","true","nonmatch","img/circle.png","六边","圆形","ALT1_1","prac_ALT1_1","","","","","","","","","",""
"null","<span style='color:GreenYellow; font-size: 70px;'>正确! </span>","null","html-keyboard-response","54","195764","0.0-7.0-0.0-1.0-0.0-1.22","3","4","4","4","3","4","4","3","3","4","4","3","3","4","3","4","3","3","4","4","2","2","2","2","1","1","2","2","1","1","0","1","1","0","0","1","1","0","1","1","0","1","0","1","4","3","4","2","3","3","4","4","3","1","687568214028189696","刘","150","","","","","","","","","","","","","","","","","","","","","","","","","","","","","","feedback_test","","","","","","","","","",""
"765","","j","psychophysics","55","197537","0.0-7.0-0.0-1.0-0.0-0.23","3","4","4","4","3","4","4","3","3","4","4","3","3","4","3","4","3","3","4","4","2","2","2","2","1","1","2","2","1","1","0","1","1","0","0","1","1","0","1","1","0","1","0","1","4","3","4","2","3","3","4","4","3","1","687568214028189696","刘","150","","","","nonmatch","","","","","","","","","","","","","","key","j","16.669192307692217","683","380","j","true","nonmatch","img/triangle.png","梯形","三角","ALT1_1","prac_ALT1_1","","","","","","","","","",""
"null","<span style='color:GreenYellow; font-size: 70px;'>正确! </span>","null","html-keyboard-response","56","198044","0.0-7.0-0.0-1.0-0.0-1.23","3","4","4","4","3","4","4","3","3","4","4","3","3","4","3","4","3","3","4","4","2","2","2","2","1","1","2","2","1","1","0","1","1","0","0","1","1","0","1","1","0","1","0","1","4","3","4","2","3","3","4","4","3","1","687568214028189696","刘","150","","","","","","","","","","","","","","","","","","","","","","","","","","","","","","feedback_test","","","","","","","","","",""
"749","","f","psychophysics","57","199801","0.0-7.0-0.0-1.0-0.0-0.24","3","4","4","4","3","4","4","3","3","4","4","3","3","4","3","4","3","3","4","4","2","2","2","2","1","1","2","2","1","1","0","1","1","0","0","1","1","0","1","1","0","1","0","1","4","3","4","2","3","3","4","4","3","1","687568214028189696","刘","150","","","","match","","","","","","","","","","","","","","key","f","16.6654077669904","683","380","f","true","match","img/hexagon.png","六边","六边","ALT1_1","prac_ALT1_1","","","","","","","","","",""
"null","<span style='color:GreenYellow; font-size: 70px;'>正确! </span>","null","html-keyboard-response","58","200308","0.0-7.0-0.0-1.0-0.0-1.24","3","4","4","4","3","4","4","3","3","4","4","3","3","4","3","4","3","3","4","4","2","2","2","2","1","1","2","2","1","1","0","1","1","0","0","1","1","0","1","1","0","1","0","1","4","3","4","2","3","3","4","4","3","1","687568214028189696","刘","150","","","","","","","","","","","","","","","","","","","","","","","","","","","","","","feedback_test","","","","","","","","","",""
"922","","j","psychophysics","59","202233","0.0-7.0-0.0-1.0-0.0-0.25","3","4","4","4","3","4","4","3","3","4","4","3","3","4","3","4","3","3","4","4","2","2","2","2","1","1","2","2","1","1","0","1","1","0","0","1","1","0","1","1","0","1","0","1","4","3","4","2","3","3","4","4","3","1","687568214028189696","刘","150","","","","nonmatch","","","","","","","","","","","","","","key","j","16.672780701754515","683","380","j","true","nonmatch","img/trapezoid.png","圆形","梯形","ALT1_1","prac_ALT1_1","","","","","","","","","",""
"null","<span style='color:GreenYellow; font-size: 70px;'>正确! </span>","null","html-keyboard-response","60","202741","0.0-7.0-0.0-1.0-0.0-1.25","3","4","4","4","3","4","4","3","3","4","4","3","3","4","3","4","3","3","4","4","2","2","2","2","1","1","2","2","1","1","0","1","1","0","0","1","1","0","1","1","0","1","0","1","4","3","4","2","3","3","4","4","3","1","687568214028189696","刘","150","","","","","","","","","","","","","","","","","","","","","","","","","","","","","","feedback_test","","","","","","","","","",""
"836","","f","psychophysics","61","204579","0.0-7.0-0.0-1.0-0.0-0.26","3","4","4","4","3","4","4","3","3","4","4","3","3","4","3","4","3","3","4","4","2","2","2","2","1","1","2","2","1","1","0","1","1","0","0","1","1","0","1","1","0","1","0","1","4","3","4","2","3","3","4","4","3","1","687568214028189696","刘","150","","","","match","","","","","","","","","","","","","","key","f","16.662194444444374","683","380","f","true","match","img/trapezoid.png","梯形","梯形","ALT1_1","prac_ALT1_1","","","","","","","","","",""
"null","<span style='color:GreenYellow; font-size: 70px;'>正确! </span>","null","html-keyboard-response","62","205083","0.0-7.0-0.0-1.0-0.0-1.26","3","4","4","4","3","4","4","3","3","4","4","3","3","4","3","4","3","3","4","4","2","2","2","2","1","1","2","2","1","1","0","1","1","0","0","1","1","0","1","1","0","1","0","1","4","3","4","2","3","3","4","4","3","1","687568214028189696","刘","150","","","","","","","","","","","","","","","","","","","","","","","","","","","","","","feedback_test","","","","","","","","","",""
"842","","f","psychophysics","63","206937","0.0-7.0-0.0-1.0-0.0-0.27","3","4","4","4","3","4","4","3","3","4","4","3","3","4","3","4","3","3","4","4","2","2","2","2","1","1","2","2","1","1","0","1","1","0","0","1","1","0","1","1","0","1","0","1","4","3","4","2","3","3","4","4","3","1","687568214028189696","刘","150","","","","match","","","","","","","","","","","","","","key","f","16.82042201834842","683","380","f","true","match","img/triangle.png","三角","三角","ALT1_1","prac_ALT1_1","","","","","","","","","",""
"null","<span style='color:GreenYellow; font-size: 70px;'>正确! </span>","null","html-keyboard-response","64","207444","0.0-7.0-0.0-1.0-0.0-1.27","3","4","4","4","3","4","4","3","3","4","4","3","3","4","3","4","3","3","4","4","2","2","2","2","1","1","2","2","1","1","0","1","1","0","0","1","1","0","1","1","0","1","0","1","4","3","4","2","3","3","4","4","3","1","687568214028189696","刘","150","","","","","","","","","","","","","","","","","","","","","","","","","","","","","","feedback_test","","","","","","","","","",""
"742","","j","psychophysics","65","209194","0.0-7.0-0.0-1.0-0.0-0.28","3","4","4","4","3","4","4","3","3","4","4","3","3","4","3","4","3","3","4","4","2","2","2","2","1","1","2","2","1","1","0","1","1","0","0","1","1","0","1","1","0","1","0","1","4","3","4","2","3","3","4","4","3","1","687568214028189696","刘","150","","","","nonmatch","","","","","","","","","","","","","","key","j","16.665855769230873","683","380","j","true","nonmatch","img/triangle.png","六边","三角","ALT1_1","prac_ALT1_1","","","","","","","","","",""
"null","<span style='color:GreenYellow; font-size: 70px;'>正确! </span>","null","html-keyboard-response","66","209700","0.0-7.0-0.0-1.0-0.0-1.28","3","4","4","4","3","4","4","3","3","4","4","3","3","4","3","4","3","3","4","4","2","2","2","2","1","1","2","2","1","1","0","1","1","0","0","1","1","0","1","1","0","1","0","1","4","3","4","2","3","3","4","4","3","1","687568214028189696","刘","150","","","","","","","","","","","","","","","","","","","","","","","","","","","","","","feedback_test","","","","","","","","","",""
"981","","j","psychophysics","67","211689","0.0-7.0-0.0-1.0-0.0-0.29","3","4","4","4","3","4","4","3","3","4","4","3","3","4","3","4","3","3","4","4","2","2","2","2","1","1","2","2","1","1","0","1","1","0","0","1","1","0","1","1","0","1","0","1","4","3","4","2","3","3","4","4","3","1","687568214028189696","刘","150","","","","nonmatch","","","","","","","","","","","","","","key","j","16.666406779661006","683","380","j","true","nonmatch","img/trapezoid.png","六边","梯形","ALT1_1","prac_ALT1_1","","","","","","","","","",""
"null","<span style='color:GreenYellow; font-size: 70px;'>正确! </span>","null","html-keyboard-response","68","212196","0.0-7.0-0.0-1.0-0.0-1.29","3","4","4","4","3","4","4","3","3","4","4","3","3","4","3","4","3","3","4","4","2","2","2","2","1","1","2","2","1","1","0","1","1","0","0","1","1","0","1","1","0","1","0","1","4","3","4","2","3","3","4","4","3","1","687568214028189696","刘","150","","","","","","","","","","","","","","","","","","","","","","","","","","","","","","feedback_test","","","","","","","","","",""
"813","","j","psychophysics","69","214017","0.0-7.0-0.0-1.0-0.0-0.30","3","4","4","4","3","4","4","3","3","4","4","3","3","4","3","4","3","3","4","4","2","2","2","2","1","1","2","2","1","1","0","1","1","0","0","1","1","0","1","1","0","1","0","1","4","3","4","2","3","3","4","4","3","1","687568214028189696","刘","150","","","","nonmatch","","","","","","","","","","","","","","key","j","16.654148148148025","683","380","j","true","nonmatch","img/triangle.png","梯形","三角","ALT1_1","prac_ALT1_1","","","","","","","","","",""
"null","<span style='color:GreenYellow; font-size: 70px;'>正确! </span>","null","html-keyboard-response","70","214524","0.0-7.0-0.0-1.0-0.0-1.30","3","4","4","4","3","4","4","3","3","4","4","3","3","4","3","4","3","3","4","4","2","2","2","2","1","1","2","2","1","1","0","1","1","0","0","1","1","0","1","1","0","1","0","1","4","3","4","2","3","3","4","4","3","1","687568214028189696","刘","150","","","","","","","","","","","","","","","","","","","","","","","","","","","","","","feedback_test","","","","","","","","","",""
"635","","f","psychophysics","71","216162","0.0-7.0-0.0-1.0-0.0-0.31","3","4","4","4","3","4","4","3","3","4","4","3","3","4","3","4","3","3","4","4","2","2","2","2","1","1","2","2","1","1","0","1","1","0","0","1","1","0","1","1","0","1","0","1","4","3","4","2","3","3","4","4","3","1","687568214028189696","刘","150","","","","match","","","","","","","","","","","","","","key","f","16.670701030928033","683","380","f","true","match","img/triangle.png","三角","三角","ALT1_1","prac_ALT1_1","","","","","","","","","",""
"null","<span style='color:GreenYellow; font-size: 70px;'>正确! </span>","null","html-keyboard-response","72","216668","0.0-7.0-0.0-1.0-0.0-1.31","3","4","4","4","3","4","4","3","3","4","4","3","3","4","3","4","3","3","4","4","2","2","2","2","1","1","2","2","1","1","0","1","1","0","0","1","1","0","1","1","0","1","0","1","4","3","4","2","3","3","4","4","3","1","687568214028189696","刘","150","","","","","","","","","","","","","","","","","","","","","","","","","","","","","","feedback_test","","","","","","","","","",""
"804","","j","psychophysics","73","218481","0.0-7.0-0.0-1.0-0.0-0.32","3","4","4","4","3","4","4","3","3","4","4","3","3","4","3","4","3","3","4","4","2","2","2","2","1","1","2","2","1","1","0","1","1","0","0","1","1","0","1","1","0","1","0","1","4","3","4","2","3","3","4","4","3","1","687568214028189696","刘","150","","","","nonmatch","","","","","","","","","","","","","","key","j","16.66384259259266","683","380","j","true","nonmatch","img/triangle.png","圆形","三角","ALT1_1","prac_ALT1_1","","","","","","","","","",""
"null","<span style='color:GreenYellow; font-size: 70px;'>正确! </span>","null","html-keyboard-response","74","218988","0.0-7.0-0.0-1.0-0.0-1.32","3","4","4","4","3","4","4","3","3","4","4","3","3","4","3","4","3","3","4","4","2","2","2","2","1","1","2","2","1","1","0","1","1","0","0","1","1","0","1","1","0","1","0","1","4","3","4","2","3","3","4","4","3","1","687568214028189696","刘","150","","","","","","","","","","","","","","","","","","","","","","","","","","","","","","feedback_test","","","","","","","","","",""
"806","","f","psychophysics","75","220801","0.0-7.0-0.0-1.0-0.0-0.33","3","4","4","4","3","4","4","3","3","4","4","3","3","4","3","4","3","3","4","4","2","2","2","2","1","1","2","2","1","1","0","1","1","0","0","1","1","0","1","1","0","1","0","1","4","3","4","2","3","3","4","4","3","1","687568214028189696","刘","150","","","","match","","","","","","","","","","","","","","key","f","16.666796296296255","683","380","f","true","match","img/trapezoid.png","梯形","梯形","ALT1_1","prac_ALT1_1","","","","","","","","","",""
"null","<span style='color:GreenYellow; font-size: 70px;'>正确! </span>","null","html-keyboard-response","76","221308","0.0-7.0-0.0-1.0-0.0-1.33","3","4","4","4","3","4","4","3","3","4","4","3","3","4","3","4","3","3","4","4","2","2","2","2","1","1","2","2","1","1","0","1","1","0","0","1","1","0","1","1","0","1","0","1","4","3","4","2","3","3","4","4","3","1","687568214028189696","刘","150","","","","","","","","","","","","","","","","","","","","","","","","","","","","","","feedback_test","","","","","","","","","",""
"711","","f","psychophysics","77","223026","0.0-7.0-0.0-1.0-0.0-0.34","3","4","4","4","3","4","4","3","3","4","4","3","3","4","3","4","3","3","4","4","2","2","2","2","1","1","2","2","1","1","0","1","1","0","0","1","1","0","1","1","0","1","0","1","4","3","4","2","3","3","4","4","3","1","687568214028189696","刘","150","","","","match","","","","","","","","","","","","","","key","f","16.661715686274466","683","380","f","true","match","img/circle.png","圆形","圆形","ALT1_1","prac_ALT1_1","","","","","","","","","",""
"null","<span style='color:GreenYellow; font-size: 70px;'>正确! </span>","null","html-keyboard-response","78","223531","0.0-7.0-0.0-1.0-0.0-1.34","3","4","4","4","3","4","4","3","3","4","4","3","3","4","3","4","3","3","4","4","2","2","2","2","1","1","2","2","1","1","0","1","1","0","0","1","1","0","1","1","0","1","0","1","4","3","4","2","3","3","4","4","3","1","687568214028189696","刘","150","","","","","","","","","","","","","","","","","","","","","","","","","","","","","","feedback_test","","","","","","","","","",""
"654","","f","psychophysics","79","225194","0.0-7.0-0.0-1.0-0.0-0.35","3","4","4","4","3","4","4","3","3","4","4","3","3","4","3","4","3","3","4","4","2","2","2","2","1","1","2","2","1","1","0","1","1","0","0","1","1","0","1","1","0","1","0","1","4","3","4","2","3","3","4","4","3","1","687568214028189696","刘","150","","","","match","","","","","","","","","","","","","","key","f","16.667252525252422","683","380","j","false","nonmatch","img/hexagon.png","三角","六边","ALT1_1","prac_ALT1_1","","","","","","","","","",""
"null","<span style='color:red; font-size: 70px;'>错误! </span>","null","html-keyboard-response","80","225700","0.0-7.0-0.0-1.0-0.0-1.35","3","4","4","4","3","4","4","3","3","4","4","3","3","4","3","4","3","3","4","4","2","2","2","2","1","1","2","2","1","1","0","1","1","0","0","1","1","0","1","1","0","1","0","1","4","3","4","2","3","3","4","4","3","1","687568214028189696","刘","150","","","","","","","","","","","","","","","","","","","","","","","","","","","","","","feedback_test","","","","","","","","","",""
"755","","f","psychophysics","81","227465","0.0-7.0-0.0-1.0-0.0-0.36","3","4","4","4","3","4","4","3","3","4","4","3","3","4","3","4","3","3","4","4","2","2","2","2","1","1","2","2","1","1","0","1","1","0","0","1","1","0","1","1","0","1","0","1","4","3","4","2","3","3","4","4","3","1","687568214028189696","刘","150","","","","match","","","","","","","","","","","","","","key","f","16.668278846154024","683","380","f","true","match","img/hexagon.png","六边","六边","ALT1_1","prac_ALT1_1","","","","","","","","","",""
"null","<span style='color:GreenYellow; font-size: 70px;'>正确! </span>","null","html-keyboard-response","82","227972","0.0-7.0-0.0-1.0-0.0-1.36","3","4","4","4","3","4","4","3","3","4","4","3","3","4","3","4","3","3","4","4","2","2","2","2","1","1","2","2","1","1","0","1","1","0","0","1","1","0","1","1","0","1","0","1","4","3","4","2","3","3","4","4","3","1","687568214028189696","刘","150","","","","","","","","","","","","","","","","","","","","","","","","","","","","","","feedback_test","","","","","","","","","",""
"916","","j","psychophysics","83","229893","0.0-7.0-0.0-1.0-0.0-0.37","3","4","4","4","3","4","4","3","3","4","4","3","3","4","3","4","3","3","4","4","2","2","2","2","1","1","2","2","1","1","0","1","1","0","0","1","1","0","1","1","0","1","0","1","4","3","4","2","3","3","4","4","3","1","687568214028189696","刘","150","","","","nonmatch","","","","","","","","","","","","","","key","j","16.669705357142966","683","380","j","true","nonmatch","img/trapezoid.png","三角","梯形","ALT1_1","prac_ALT1_1","","","","","","","","","",""
"null","<span style='color:GreenYellow; font-size: 70px;'>正确! </span>","null","html-keyboard-response","84","230396","0.0-7.0-0.0-1.0-0.0-1.37","3","4","4","4","3","4","4","3","3","4","4","3","3","4","3","4","3","3","4","4","2","2","2","2","1","1","2","2","1","1","0","1","1","0","0","1","1","0","1","1","0","1","0","1","4","3","4","2","3","3","4","4","3","1","687568214028189696","刘","150","","","","","","","","","","","","","","","","","","","","","","","","","","","","","","feedback_test","","","","","","","","","",""
"806","","f","psychophysics","85","232211","0.0-7.0-0.0-1.0-0.0-0.38","3","4","4","4","3","4","4","3","3","4","4","3","3","4","3","4","3","3","4","4","2","2","2","2","1","1","2","2","1","1","0","1","1","0","0","1","1","0","1","1","0","1","0","1","4","3","4","2","3","3","4","4","3","1","687568214028189696","刘","150","","","","match","","","","","","","","","","","","","","key","f","16.66736448598127","683","380","f","true","match","img/triangle.png","三角","三角","ALT1_1","prac_ALT1_1","","","","","","","","","",""
"null","<span style='color:GreenYellow; font-size: 70px;'>正确! </span>","null","html-keyboard-response","86","232716","0.0-7.0-0.0-1.0-0.0-1.38","3","4","4","4","3","4","4","3","3","4","4","3","3","4","3","4","3","3","4","4","2","2","2","2","1","1","2","2","1","1","0","1","1","0","0","1","1","0","1","1","0","1","0","1","4","3","4","2","3","3","4","4","3","1","687568214028189696","刘","150","","","","","","","","","","","","","","","","","","","","","","","","","","","","","","feedback_test","","","","","","","","","",""
"1043","","j","psychophysics","87","234769","0.0-7.0-0.0-1.0-0.0-0.39","3","4","4","4","3","4","4","3","3","4","4","3","3","4","3","4","3","3","4","4","2","2","2","2","1","1","2","2","1","1","0","1","1","0","0","1","1","0","1","1","0","1","0","1","4","3","4","2","3","3","4","4","3","1","687568214028189696","刘","150","","","","nonmatch","","","","","","","","","","","","","","key","j","16.657090163934495","683","380","j","true","nonmatch","img/hexagon.png","梯形","六边","ALT1_1","prac_ALT1_1","","","","","","","","","",""
"null","<span style='color:GreenYellow; font-size: 70px;'>正确! </span>","null","html-keyboard-response","88","235276","0.0-7.0-0.0-1.0-0.0-1.39","3","4","4","4","3","4","4","3","3","4","4","3","3","4","3","4","3","3","4","4","2","2","2","2","1","1","2","2","1","1","0","1","1","0","0","1","1","0","1","1","0","1","0","1","4","3","4","2","3","3","4","4","3","1","687568214028189696","刘","150","","","","","","","","","","","","","","","","","","","","","","","","","","","","","","feedback_test","","","","","","","","","",""
"733","","f","psychophysics","89","237017","0.0-7.0-0.0-1.0-0.0-0.40","3","4","4","4","3","4","4","3","3","4","4","3","3","4","3","4","3","3","4","4","2","2","2","2","1","1","2","2","1","1","0","1","1","0","0","1","1","0","1","1","0","1","0","1","4","3","4","2","3","3","4","4","3","1","687568214028189696","刘","150","","","","match","","","","","","","","","","","","","","key","f","16.66996116504877","683","380","f","true","match","img/circle.png","圆形","圆形","ALT1_1","prac_ALT1_1","","","","","","","","","",""
"null","<span style='color:GreenYellow; font-size: 70px;'>正确! </span>","null","html-keyboard-response","90","237524","0.0-7.0-0.0-1.0-0.0-1.40","3","4","4","4","3","4","4","3","3","4","4","3","3","4","3","4","3","3","4","4","2","2","2","2","1","1","2","2","1","1","0","1","1","0","0","1","1","0","1","1","0","1","0","1","4","3","4","2","3","3","4","4","3","1","687568214028189696","刘","150","","","","","","","","","","","","","","","","","","","","","","","","","","","","","","feedback_test","","","","","","","","","",""
"621","","f","psychophysics","91","239153","0.0-7.0-0.0-1.0-0.0-0.41","3","4","4","4","3","4","4","3","3","4","4","3","3","4","3","4","3","3","4","4","2","2","2","2","1","1","2","2","1","1","0","1","1","0","0","1","1","0","1","1","0","1","0","1","4","3","4","2","3","3","4","4","3","1","687568214028189696","刘","150","","","","match","","","","","","","","","","","","","","key","f","16.66104166666658","683","380","f","true","match","img/circle.png","圆形","圆形","ALT1_1","prac_ALT1_1","","","","","","","","","",""
"null","<span style='color:GreenYellow; font-size: 70px;'>正确! </span>","null","html-keyboard-response","92","239661","0.0-7.0-0.0-1.0-0.0-1.41","3","4","4","4","3","4","4","3","3","4","4","3","3","4","3","4","3","3","4","4","2","2","2","2","1","1","2","2","1","1","0","1","1","0","0","1","1","0","1","1","0","1","0","1","4","3","4","2","3","3","4","4","3","1","687568214028189696","刘","150","","","","","","","","","","","","","","","","","","","","","","","","","","","","","","feedback_test","","","","","","","","","",""
"1014","","j","psychophysics","93","241682","0.0-7.0-0.0-1.0-0.0-0.42","3","4","4","4","3","4","4","3","3","4","4","3","3","4","3","4","3","3","4","4","2","2","2","2","1","1","2","2","1","1","0","1","1","0","0","1","1","0","1","1","0","1","0","1","4","3","4","2","3","3","4","4","3","1","687568214028189696","刘","150","","","","nonmatch","","","","","","","","","","","","","","key","j","16.66616806722693","683","380","j","true","nonmatch","img/circle.png","梯形","圆形","ALT1_1","prac_ALT1_1","","","","","","","","","",""
"null","<span style='color:GreenYellow; font-size: 70px;'>正确! </span>","null","html-keyboard-response","94","242188","0.0-7.0-0.0-1.0-0.0-1.42","3","4","4","4","3","4","4","3","3","4","4","3","3","4","3","4","3","3","4","4","2","2","2","2","1","1","2","2","1","1","0","1","1","0","0","1","1","0","1","1","0","1","0","1","4","3","4","2","3","3","4","4","3","1","687568214028189696","刘","150","","","","","","","","","","","","","","","","","","","","","","","","","","","","","","feedback_test","","","","","","","","","",""
"915","","j","psychophysics","95","244108","0.0-7.0-0.0-1.0-0.0-0.43","3","4","4","4","3","4","4","3","3","4","4","3","3","4","3","4","3","3","4","4","2","2","2","2","1","1","2","2","1","1","0","1","1","0","0","1","1","0","1","1","0","1","0","1","4","3","4","2","3","3","4","4","3","1","687568214028189696","刘","150","","","","nonmatch","","","","","","","","","","","","","","key","j","16.66753097345117","683","380","j","true","nonmatch","img/circle.png","三角","圆形","ALT1_1","prac_ALT1_1","","","","","","","","","",""
"null","<span style='color:GreenYellow; font-size: 70px;'>正确! </span>","null","html-keyboard-response","96","244612","0.0-7.0-0.0-1.0-0.0-1.43","3","4","4","4","3","4","4","3","3","4","4","3","3","4","3","4","3","3","4","4","2","2","2","2","1","1","2","2","1","1","0","1","1","0","0","1","1","0","1","1","0","1","0","1","4","3","4","2","3","3","4","4","3","1","687568214028189696","刘","150","","","","","","","","","","","","","","","","","","","","","","","","","","","","","","feedback_test","","","","","","","","","",""
"774","","f","psychophysics","97","246394","0.0-7.0-0.0-1.0-0.0-0.44","3","4","4","4","3","4","4","3","3","4","4","3","3","4","3","4","3","3","4","4","2","2","2","2","1","1","2","2","1","1","0","1","1","0","0","1","1","0","1","1","0","1","0","1","4","3","4","2","3","3","4","4","3","1","687568214028189696","刘","150","","","","match","","","","","","","","","","","","","","key","f","16.665075471698042","683","380","f","true","match","img/trapezoid.png","梯形","梯形","ALT1_1","prac_ALT1_1","","","","","","","","","",""
"null","<span style='color:GreenYellow; font-size: 70px;'>正确! </span>","null","html-keyboard-response","98","246900","0.0-7.0-0.0-1.0-0.0-1.44","3","4","4","4","3","4","4","3","3","4","4","3","3","4","3","4","3","3","4","4","2","2","2","2","1","1","2","2","1","1","0","1","1","0","0","1","1","0","1","1","0","1","0","1","4","3","4","2","3","3","4","4","3","1","687568214028189696","刘","150","","","","","","","","","","","","","","","","","","","","","","","","","","","","","","feedback_test","","","","","","","","","",""
"794","","f","psychophysics","99","248737","0.0-7.0-0.0-1.0-0.0-0.45","3","4","4","4","3","4","4","3","3","4","4","3","3","4","3","4","3","3","4","4","2","2","2","2","1","1","2","2","1","1","0","1","1","0","0","1","1","0","1","1","0","1","0","1","4","3","4","2","3","3","4","4","3","1","687568214028189696","刘","150","","","","match","","","","","","","","","","","","","","key","f","16.829878504672816","683","380","f","true","match","img/hexagon.png","六边","六边","ALT1_1","prac_ALT1_1","","","","","","","","","",""
"null","<span style='color:GreenYellow; font-size: 70px;'>正确! </span>","null","html-keyboard-response","100","249244","0.0-7.0-0.0-1.0-0.0-1.45","3","4","4","4","3","4","4","3","3","4","4","3","3","4","3","4","3","3","4","4","2","2","2","2","1","1","2","2","1","1","0","1","1","0","0","1","1","0","1","1","0","1","0","1","4","3","4","2","3","3","4","4","3","1","687568214028189696","刘","150","","","","","","","","","","","","","","","","","","","","","","","","","","","","","","feedback_test","","","","","","","","","",""
"909","","j","psychophysics","101","251162","0.0-7.0-0.0-1.0-0.0-0.46","3","4","4","4","3","4","4","3","3","4","4","3","3","4","3","4","3","3","4","4","2","2","2","2","1","1","2","2","1","1","0","1","1","0","0","1","1","0","1","1","0","1","0","1","4","3","4","2","3","3","4","4","3","1","687568214028189696","刘","150","","","","nonmatch","","","","","","","","","","","","","","key","j","16.80713274336288","683","380","j","true","nonmatch","img/hexagon.png","圆形","六边","ALT1_1","prac_ALT1_1","","","","","","","","","",""
"null","<span style='color:GreenYellow; font-size: 70px;'>正确! </span>","null","html-keyboard-response","102","251668","0.0-7.0-0.0-1.0-0.0-1.46","3","4","4","4","3","4","4","3","3","4","4","3","3","4","3","4","3","3","4","4","2","2","2","2","1","1","2","2","1","1","0","1","1","0","0","1","1","0","1","1","0","1","0","1","4","3","4","2","3","3","4","4","3","1","687568214028189696","刘","150","","","","","","","","","","","","","","","","","","","","","","","","","","","","","","feedback_test","","","","","","","","","",""
"1019","","j","psychophysics","103","253691","0.0-7.0-0.0-1.0-0.0-0.47","3","4","4","4","3","4","4","3","3","4","4","3","3","4","3","4","3","3","4","4","2","2","2","2","1","1","2","2","1","1","0","1","1","0","0","1","1","0","1","1","0","1","0","1","4","3","4","2","3","3","4","4","3","1","687568214028189696","刘","150","","","","nonmatch","","","","","","","","","","","","","","key","j","16.670487394957743","683","380","j","true","nonmatch","img/circle.png","六边","圆形","ALT1_1","prac_ALT1_1","","","","","","","","","",""
"null","<span style='color:GreenYellow; font-size: 70px;'>正确! </span>","null","html-keyboard-response","104","254196","0.0-7.0-0.0-1.0-0.0-1.47","3","4","4","4","3","4","4","3","3","4","4","3","3","4","3","4","3","3","4","4","2","2","2","2","1","1","2","2","1","1","0","1","1","0","0","1","1","0","1","1","0","1","0","1","4","3","4","2","3","3","4","4","3","1","687568214028189696","刘","150","","","","","","","","","","","","","","","","","","","","","","","","","","","","","","feedback_test","","","","","","","","","",""
"1028","<style>.context{color:white; font-size: 35px; line-height:40px}</style>                            <div><p class='context'>您正确回答了96% 的试次。</p><p class='context'>您的平均反应时为812毫秒。</p><p class='context'>恭喜您完成练习。按空格键进入正式实验。</p><p class='footer' style='font-size: 35px; line-height:40px;'>请在进入正式实验之前将您的<span style='color: lightgreen;'>食指</span>放在电脑键盘的相应键位上进行按键。</p>"," ","html-keyboard-response","105","255234","0.0-7.0-0.0-2.0","3","4","4","4","3","4","4","3","3","4","4","3","3","4","3","4","3","3","4","4","2","2","2","2","1","1","2","2","1","1","0","1","1","0","0","1","1","0","1","1","0","1","0","1","4","3","4","2","3","3","4","4","3","1","687568214028189696","刘","150","","","","","","","","","","","","","","","","","","","","","","","","","","","","","","","","","","","","","","","",""
"664","
    <p style='color: white; font-size: 22px'>请您将手指放在按键上，准备进入正式的匹配任务。</p>
    <p> <div style = ""color: green""><按空格键进入下一阶段的匹配任务></div></p>
    "," ","html-keyboard-response","106","255905","0.0-7.0-0.0-3.0","3","4","4","4","3","4","4","3","3","4","4","3","3","4","3","4","3","3","4","4","2","2","2","2","1","1","2","2","1","1","0","1","1","0","0","1","1","0","1","1","0","1","0","1","4","3","4","2","3","3","4","4","3","1","687568214028189696","刘","150","","","","","","","","","","","","","","","","","","","","","","","","","","","","","","","","","","","","","","","",""
"870","","j","psychophysics","107","257778","0.0-7.0-0.0-4.0-0.0-0.0","3","4","4","4","3","4","4","3","3","4","4","3","3","4","3","4","3","3","4","4","2","2","2","2","1","1","2","2","1","1","0","1","1","0","0","1","1","0","1","1","0","1","0","1","4","3","4","2","3","3","4","4","3","1","687568214028189696","刘","150","","","","nonmatch","","","","","","","","","","","","","","key","j","16.66900000000018","683","380","j","true","nonmatch","img/trapezoid.png","三角","梯形","ALT1","formal_ALT1_1","","","","","","","","","",""
"null","<span style='color:GreenYellow; font-size: 70px;'>正确! </span>","null","html-keyboard-response","108","258285","0.0-7.0-0.0-4.0-0.0-1.0","3","4","4","4","3","4","4","3","3","4","4","3","3","4","3","4","3","3","4","4","2","2","2","2","1","1","2","2","1","1","0","1","1","0","0","1","1","0","1","1","0","1","0","1","4","3","4","2","3","3","4","4","3","1","687568214028189696","刘","150","","","","","","","","","","","","","","","","","","","","","","","","","","","","","","feedback_test","","","","","","","","","",""
"677","","f","psychophysics","109","259969","0.0-7.0-0.0-4.0-0.0-0.1","3","4","4","4","3","4","4","3","3","4","4","3","3","4","3","4","3","3","4","4","2","2","2","2","1","1","2","2","1","1","0","1","1","0","0","1","1","0","1","1","0","1","0","1","4","3","4","2","3","3","4","4","3","1","687568214028189696","刘","150","","","","match","","","","","","","","","","","","","","key","f","16.668679999999878","683","380","f","true","match","img/triangle.png","三角","三角","ALT1","formal_ALT1_1","","","","","","","","","",""
"null","<span style='color:GreenYellow; font-size: 70px;'>正确! </span>","null","html-keyboard-response","110","260476","0.0-7.0-0.0-4.0-0.0-1.1","3","4","4","4","3","4","4","3","3","4","4","3","3","4","3","4","3","3","4","4","2","2","2","2","1","1","2","2","1","1","0","1","1","0","0","1","1","0","1","1","0","1","0","1","4","3","4","2","3","3","4","4","3","1","687568214028189696","刘","150","","","","","","","","","","","","","","","","","","","","","","","","","","","","","","feedback_test","","","","","","","","","",""
"654","","f","psychophysics","111","262138","0.0-7.0-0.0-4.0-0.0-0.2","3","4","4","4","3","4","4","3","3","4","4","3","3","4","3","4","3","3","4","4","2","2","2","2","1","1","2","2","1","1","0","1","1","0","0","1","1","0","1","1","0","1","0","1","4","3","4","2","3","3","4","4","3","1","687568214028189696","刘","150","","","","match","","","","","","","","","","","","","","key","f","16.669806122449014","683","380","f","true","match","img/triangle.png","三角","三角","ALT1","formal_ALT1_1","","","","","","","","","",""
"null","<span style='color:GreenYellow; font-size: 70px;'>正确! </span>","null","html-keyboard-response","112","262644","0.0-7.0-0.0-4.0-0.0-1.2","3","4","4","4","3","4","4","3","3","4","4","3","3","4","3","4","3","3","4","4","2","2","2","2","1","1","2","2","1","1","0","1","1","0","0","1","1","0","1","1","0","1","0","1","4","3","4","2","3","3","4","4","3","1","687568214028189696","刘","150","","","","","","","","","","","","","","","","","","","","","","","","","","","","","","feedback_test","","","","","","","","","",""
"687","","f","psychophysics","113","264339","0.0-7.0-0.0-4.0-0.0-0.3","3","4","4","4","3","4","4","3","3","4","4","3","3","4","3","4","3","3","4","4","2","2","2","2","1","1","2","2","1","1","0","1","1","0","0","1","1","0","1","1","0","1","0","1","4","3","4","2","3","3","4","4","3","1","687568214028189696","刘","150","","","","match","","","","","","","","","","","","","","key","f","16.671529999999912","683","380","f","true","match","img/circle.png","圆形","圆形","ALT1","formal_ALT1_1","","","","","","","","","",""
"null","<span style='color:GreenYellow; font-size: 70px;'>正确! </span>","null","html-keyboard-response","114","264844","0.0-7.0-0.0-4.0-0.0-1.3","3","4","4","4","3","4","4","3","3","4","4","3","3","4","3","4","3","3","4","4","2","2","2","2","1","1","2","2","1","1","0","1","1","0","0","1","1","0","1","1","0","1","0","1","4","3","4","2","3","3","4","4","3","1","687568214028189696","刘","150","","","","","","","","","","","","","","","","","","","","","","","","","","","","","","feedback_test","","","","","","","","","",""
"877","","j","psychophysics","115","266729","0.0-7.0-0.0-4.0-0.0-0.4","3","4","4","4","3","4","4","3","3","4","4","3","3","4","3","4","3","3","4","4","2","2","2","2","1","1","2","2","1","1","0","1","1","0","0","1","1","0","1","1","0","1","0","1","4","3","4","2","3","3","4","4","3","1","687568214028189696","刘","150","","","","nonmatch","","","","","","","","","","","","","","key","j","16.665153153153106","683","380","j","true","nonmatch","img/trapezoid.png","六边","梯形","ALT1","formal_ALT1_1","","","","","","","","","",""
"null","<span style='color:GreenYellow; font-size: 70px;'>正确! </span>","null","html-keyboard-response","116","267236","0.0-7.0-0.0-4.0-0.0-1.4","3","4","4","4","3","4","4","3","3","4","4","3","3","4","3","4","3","3","4","4","2","2","2","2","1","1","2","2","1","1","0","1","1","0","0","1","1","0","1","1","0","1","0","1","4","3","4","2","3","3","4","4","3","1","687568214028189696","刘","150","","","","","","","","","","","","","","","","","","","","","","","","","","","","","","feedback_test","","","","","","","","","",""
"962","","f","psychophysics","117","269201","0.0-7.0-0.0-4.0-0.0-0.5","3","4","4","4","3","4","4","3","3","4","4","3","3","4","3","4","3","3","4","4","2","2","2","2","1","1","2","2","1","1","0","1","1","0","0","1","1","0","1","1","0","1","0","1","4","3","4","2","3","3","4","4","3","1","687568214028189696","刘","150","","","","match","","","","","","","","","","","","","","key","f","16.674629310345185","683","380","f","true","match","img/trapezoid.png","梯形","梯形","ALT1","formal_ALT1_1","","","","","","","","","",""
"null","<span style='color:GreenYellow; font-size: 70px;'>正确! </span>","null","html-keyboard-response","118","269708","0.0-7.0-0.0-4.0-0.0-1.5","3","4","4","4","3","4","4","3","3","4","4","3","3","4","3","4","3","3","4","4","2","2","2","2","1","1","2","2","1","1","0","1","1","0","0","1","1","0","1","1","0","1","0","1","4","3","4","2","3","3","4","4","3","1","687568214028189696","刘","150","","","","","","","","","","","","","","","","","","","","","","","","","","","","","","feedback_test","","","","","","","","","",""
"806","","f","psychophysics","119","271523","0.0-7.0-0.0-4.0-0.0-0.6","3","4","4","4","3","4","4","3","3","4","4","3","3","4","3","4","3","3","4","4","2","2","2","2","1","1","2","2","1","1","0","1","1","0","0","1","1","0","1","1","0","1","0","1","4","3","4","2","3","3","4","4","3","1","687568214028189696","刘","150","","","","match","","","","","","","","","","","","","","key","f","16.813216981132083","683","380","f","true","match","img/hexagon.png","六边","六边","ALT1","formal_ALT1_1","","","","","","","","","",""
"null","<span style='color:GreenYellow; font-size: 70px;'>正确! </span>","null","html-keyboard-response","120","272028","0.0-7.0-0.0-4.0-0.0-1.6","3","4","4","4","3","4","4","3","3","4","4","3","3","4","3","4","3","3","4","4","2","2","2","2","1","1","2","2","1","1","0","1","1","0","0","1","1","0","1","1","0","1","0","1","4","3","4","2","3","3","4","4","3","1","687568214028189696","刘","150","","","","","","","","","","","","","","","","","","","","","","","","","","","","","","feedback_test","","","","","","","","","",""
"639","","f","psychophysics","121","273675","0.0-7.0-0.0-4.0-0.0-0.7","3","4","4","4","3","4","4","3","3","4","4","3","3","4","3","4","3","3","4","4","2","2","2","2","1","1","2","2","1","1","0","1","1","0","0","1","1","0","1","1","0","1","0","1","4","3","4","2","3","3","4","4","3","1","687568214028189696","刘","150","","","","match","","","","","","","","","","","","","","key","f","16.667163265305952","683","380","j","false","nonmatch","img/trapezoid.png","圆形","梯形","ALT1","formal_ALT1_1","","","","","","","","","",""
"null","<span style='color:red; font-size: 70px;'>错误! </span>","null","html-keyboard-response","122","274180","0.0-7.0-0.0-4.0-0.0-1.7","3","4","4","4","3","4","4","3","3","4","4","3","3","4","3","4","3","3","4","4","2","2","2","2","1","1","2","2","1","1","0","1","1","0","0","1","1","0","1","1","0","1","0","1","4","3","4","2","3","3","4","4","3","1","687568214028189696","刘","150","","","","","","","","","","","","","","","","","","","","","","","","","","","","","","feedback_test","","","","","","","","","",""
"793","","j","psychophysics","123","275985","0.0-7.0-0.0-4.0-0.0-0.8","3","4","4","4","3","4","4","3","3","4","4","3","3","4","3","4","3","3","4","4","2","2","2","2","1","1","2","2","1","1","0","1","1","0","0","1","1","0","1","1","0","1","0","1","4","3","4","2","3","3","4","4","3","1","687568214028189696","刘","150","","","","nonmatch","","","","","","","","","","","","","","key","j","16.670037383177736","683","380","j","true","nonmatch","img/hexagon.png","三角","六边","ALT1","formal_ALT1_1","","","","","","","","","",""
"null","<span style='color:GreenYellow; font-size: 70px;'>正确! </span>","null","html-keyboard-response","124","276500","0.0-7.0-0.0-4.0-0.0-1.8","3","4","4","4","3","4","4","3","3","4","4","3","3","4","3","4","3","3","4","4","2","2","2","2","1","1","2","2","1","1","0","1","1","0","0","1","1","0","1","1","0","1","0","1","4","3","4","2","3","3","4","4","3","1","687568214028189696","刘","150","","","","","","","","","","","","","","","","","","","","","","","","","","","","","","feedback_test","","","","","","","","","",""
"938","","f","psychophysics","125","278443","0.0-7.0-0.0-4.0-0.0-0.9","3","4","4","4","3","4","4","3","3","4","4","3","3","4","3","4","3","3","4","4","2","2","2","2","1","1","2","2","1","1","0","1","1","0","0","1","1","0","1","1","0","1","0","1","4","3","4","2","3","3","4","4","3","1","687568214028189696","刘","150","","","","match","","","","","","","","","","","","","","key","f","16.662301724137848","683","380","f","true","match","img/hexagon.png","六边","六边","ALT1","formal_ALT1_1","","","","","","","","","",""
"null","<span style='color:GreenYellow; font-size: 70px;'>正确! </span>","null","html-keyboard-response","126","278948","0.0-7.0-0.0-4.0-0.0-1.9","3","4","4","4","3","4","4","3","3","4","4","3","3","4","3","4","3","3","4","4","2","2","2","2","1","1","2","2","1","1","0","1","1","0","0","1","1","0","1","1","0","1","0","1","4","3","4","2","3","3","4","4","3","1","687568214028189696","刘","150","","","","","","","","","","","","","","","","","","","","","","","","","","","","","","feedback_test","","","","","","","","","",""
"867","","f","psychophysics","127","280833","0.0-7.0-0.0-4.0-0.0-0.10","3","4","4","4","3","4","4","3","3","4","4","3","3","4","3","4","3","3","4","4","2","2","2","2","1","1","2","2","1","1","0","1","1","0","0","1","1","0","1","1","0","1","0","1","4","3","4","2","3","3","4","4","3","1","687568214028189696","刘","150","","","","match","","","","","","","","","","","","","","key","f","16.658651785714028","683","380","j","false","nonmatch","img/circle.png","三角","圆形","ALT1","formal_ALT1_1","","","","","","","","","",""
"null","<span style='color:red; font-size: 70px;'>错误! </span>","null","html-keyboard-response","128","281340","0.0-7.0-0.0-4.0-0.0-1.10","3","4","4","4","3","4","4","3","3","4","4","3","3","4","3","4","3","3","4","4","2","2","2","2","1","1","2","2","1","1","0","1","1","0","0","1","1","0","1","1","0","1","0","1","4","3","4","2","3","3","4","4","3","1","687568214028189696","刘","150","","","","","","","","","","","","","","","","","","","","","","","","","","","","","","feedback_test","","","","","","","","","",""
"861","","j","psychophysics","129","283209","0.0-7.0-0.0-4.0-0.0-0.11","3","4","4","4","3","4","4","3","3","4","4","3","3","4","3","4","3","3","4","4","2","2","2","2","1","1","2","2","1","1","0","1","1","0","0","1","1","0","1","1","0","1","0","1","4","3","4","2","3","3","4","4","3","1","687568214028189696","刘","150","","","","nonmatch","","","","","","","","","","","","","","key","j","16.668572727272775","683","380","j","true","nonmatch","img/triangle.png","梯形","三角","ALT1","formal_ALT1_1","","","","","","","","","",""
"null","<span style='color:GreenYellow; font-size: 70px;'>正确! </span>","null","html-keyboard-response","130","283716","0.0-7.0-0.0-4.0-0.0-1.11","3","4","4","4","3","4","4","3","3","4","4","3","3","4","3","4","3","3","4","4","2","2","2","2","1","1","2","2","1","1","0","1","1","0","0","1","1","0","1","1","0","1","0","1","4","3","4","2","3","3","4","4","3","1","687568214028189696","刘","150","","","","","","","","","","","","","","","","","","","","","","","","","","","","","","feedback_test","","","","","","","","","",""
"862","","j","psychophysics","131","285585","0.0-7.0-0.0-4.0-0.0-0.12","3","4","4","4","3","4","4","3","3","4","4","3","3","4","3","4","3","3","4","4","2","2","2","2","1","1","2","2","1","1","0","1","1","0","0","1","1","0","1","1","0","1","0","1","4","3","4","2","3","3","4","4","3","1","687568214028189696","刘","150","","","","nonmatch","","","","","","","","","","","","","","key","j","16.659436363636367","683","380","j","true","nonmatch","img/hexagon.png","圆形","六边","ALT1","formal_ALT1_1","","","","","","","","","",""
"null","<span style='color:GreenYellow; font-size: 70px;'>正确! </span>","null","html-keyboard-response","132","286092","0.0-7.0-0.0-4.0-0.0-1.12","3","4","4","4","3","4","4","3","3","4","4","3","3","4","3","4","3","3","4","4","2","2","2","2","1","1","2","2","1","1","0","1","1","0","0","1","1","0","1","1","0","1","0","1","4","3","4","2","3","3","4","4","3","1","687568214028189696","刘","150","","","","","","","","","","","","","","","","","","","","","","","","","","","","","","feedback_test","","","","","","","","","",""
"813","","f","psychophysics","133","287913","0.0-7.0-0.0-4.0-0.0-0.13","3","4","4","4","3","4","4","3","3","4","4","3","3","4","3","4","3","3","4","4","2","2","2","2","1","1","2","2","1","1","0","1","1","0","0","1","1","0","1","1","0","1","0","1","4","3","4","2","3","3","4","4","3","1","687568214028189696","刘","150","","","","match","","","","","","","","","","","","","","key","f","16.668944444444303","683","380","f","true","match","img/trapezoid.png","梯形","梯形","ALT1","formal_ALT1_1","","","","","","","","","",""
"null","<span style='color:GreenYellow; font-size: 70px;'>正确! </span>","null","html-keyboard-response","134","288420","0.0-7.0-0.0-4.0-0.0-1.13","3","4","4","4","3","4","4","3","3","4","4","3","3","4","3","4","3","3","4","4","2","2","2","2","1","1","2","2","1","1","0","1","1","0","0","1","1","0","1","1","0","1","0","1","4","3","4","2","3","3","4","4","3","1","687568214028189696","刘","150","","","","","","","","","","","","","","","","","","","","","","","","","","","","","","feedback_test","","","","","","","","","",""
"779","","j","psychophysics","135","290202","0.0-7.0-0.0-4.0-0.0-0.14","3","4","4","4","3","4","4","3","3","4","4","3","3","4","3","4","3","3","4","4","2","2","2","2","1","1","2","2","1","1","0","1","1","0","0","1","1","0","1","1","0","1","0","1","4","3","4","2","3","3","4","4","3","1","687568214028189696","刘","150","","","","nonmatch","","","","","","","","","","","","","","key","j","16.667247619047494","683","380","j","true","nonmatch","img/hexagon.png","梯形","六边","ALT1","formal_ALT1_1","","","","","","","","","",""
"null","<span style='color:GreenYellow; font-size: 70px;'>正确! </span>","null","html-keyboard-response","136","290709","0.0-7.0-0.0-4.0-0.0-1.14","3","4","4","4","3","4","4","3","3","4","4","3","3","4","3","4","3","3","4","4","2","2","2","2","1","1","2","2","1","1","0","1","1","0","0","1","1","0","1","1","0","1","0","1","4","3","4","2","3","3","4","4","3","1","687568214028189696","刘","150","","","","","","","","","","","","","","","","","","","","","","","","","","","","","","feedback_test","","","","","","","","","",""
"749","","j","psychophysics","137","292466","0.0-7.0-0.0-4.0-0.0-0.15","3","4","4","4","3","4","4","3","3","4","4","3","3","4","3","4","3","3","4","4","2","2","2","2","1","1","2","2","1","1","0","1","1","0","0","1","1","0","1","1","0","1","0","1","4","3","4","2","3","3","4","4","3","1","687568214028189696","刘","150","","","","nonmatch","","","","","","","","","","","","","","key","j","16.819271844660285","683","380","j","true","nonmatch","img/triangle.png","六边","三角","ALT1","formal_ALT1_1","","","","","","","","","",""
"null","<span style='color:GreenYellow; font-size: 70px;'>正确! </span>","null","html-keyboard-response","138","292973","0.0-7.0-0.0-4.0-0.0-1.15","3","4","4","4","3","4","4","3","3","4","4","3","3","4","3","4","3","3","4","4","2","2","2","2","1","1","2","2","1","1","0","1","1","0","0","1","1","0","1","1","0","1","0","1","4","3","4","2","3","3","4","4","3","1","687568214028189696","刘","150","","","","","","","","","","","","","","","","","","","","","","","","","","","","","","feedback_test","","","","","","","","","",""
"829","","f","psychophysics","139","294810","0.0-7.0-0.0-4.0-0.0-0.16","3","4","4","4","3","4","4","3","3","4","4","3","3","4","3","4","3","3","4","4","2","2","2","2","1","1","2","2","1","1","0","1","1","0","0","1","1","0","1","1","0","1","0","1","4","3","4","2","3","3","4","4","3","1","687568214028189696","刘","150","","","","match","","","","","","","","","","","","","","key","f","16.65710091743129","683","380","f","true","match","img/hexagon.png","六边","六边","ALT1","formal_ALT1_1","","","","","","","","","",""
"null","<span style='color:GreenYellow; font-size: 70px;'>正确! </span>","null","html-keyboard-response","140","295317","0.0-7.0-0.0-4.0-0.0-1.16","3","4","4","4","3","4","4","3","3","4","4","3","3","4","3","4","3","3","4","4","2","2","2","2","1","1","2","2","1","1","0","1","1","0","0","1","1","0","1","1","0","1","0","1","4","3","4","2","3","3","4","4","3","1","687568214028189696","刘","150","","","","","","","","","","","","","","","","","","","","","","","","","","","","","","feedback_test","","","","","","","","","",""
"821","","f","psychophysics","141","297146","0.0-7.0-0.0-4.0-0.0-0.17","3","4","4","4","3","4","4","3","3","4","4","3","3","4","3","4","3","3","4","4","2","2","2","2","1","1","2","2","1","1","0","1","1","0","0","1","1","0","1","1","0","1","0","1","4","3","4","2","3","3","4","4","3","1","687568214028189696","刘","150","","","","match","","","","","","","","","","","","","","key","f","16.66411009174291","683","380","f","true","match","img/triangle.png","三角","三角","ALT1","formal_ALT1_1","","","","","","","","","",""
"null","<span style='color:GreenYellow; font-size: 70px;'>正确! </span>","null","html-keyboard-response","142","297652","0.0-7.0-0.0-4.0-0.0-1.17","3","4","4","4","3","4","4","3","3","4","4","3","3","4","3","4","3","3","4","4","2","2","2","2","1","1","2","2","1","1","0","1","1","0","0","1","1","0","1","1","0","1","0","1","4","3","4","2","3","3","4","4","3","1","687568214028189696","刘","150","","","","","","","","","","","","","","","","","","","","","","","","","","","","","","feedback_test","","","","","","","","","",""
"952","","j","psychophysics","143","299643","0.0-7.0-0.0-4.0-0.0-0.18","3","4","4","4","3","4","4","3","3","4","4","3","3","4","3","4","3","3","4","4","2","2","2","2","1","1","2","2","1","1","0","1","1","0","0","1","1","0","1","1","0","1","0","1","4","3","4","2","3","3","4","4","3","1","687568214028189696","刘","150","","","","nonmatch","","","","","","","","","","","","","","key","j","16.66746153846148","683","380","j","true","nonmatch","img/circle.png","梯形","圆形","ALT1","formal_ALT1_1","","","","","","","","","",""
"null","<span style='color:GreenYellow; font-size: 70px;'>正确! </span>","null","html-keyboard-response","144","300148","0.0-7.0-0.0-4.0-0.0-1.18","3","4","4","4","3","4","4","3","3","4","4","3","3","4","3","4","3","3","4","4","2","2","2","2","1","1","2","2","1","1","0","1","1","0","0","1","1","0","1","1","0","1","0","1","4","3","4","2","3","3","4","4","3","1","687568214028189696","刘","150","","","","","","","","","","","","","","","","","","","","","","","","","","","","","","feedback_test","","","","","","","","","",""
"838","","j","psychophysics","145","301994","0.0-7.0-0.0-4.0-0.0-0.19","3","4","4","4","3","4","4","3","3","4","4","3","3","4","3","4","3","3","4","4","2","2","2","2","1","1","2","2","1","1","0","1","1","0","0","1","1","0","1","1","0","1","0","1","4","3","4","2","3","3","4","4","3","1","687568214028189696","刘","150","","","","nonmatch","","","","","","","","","","","","","","key","j","16.667796296296054","683","380","j","true","nonmatch","img/circle.png","六边","圆形","ALT1","formal_ALT1_1","","","","","","","","","",""
"null","<span style='color:GreenYellow; font-size: 70px;'>正确! </span>","null","html-keyboard-response","146","302501","0.0-7.0-0.0-4.0-0.0-1.19","3","4","4","4","3","4","4","3","3","4","4","3","3","4","3","4","3","3","4","4","2","2","2","2","1","1","2","2","1","1","0","1","1","0","0","1","1","0","1","1","0","1","0","1","4","3","4","2","3","3","4","4","3","1","687568214028189696","刘","150","","","","","","","","","","","","","","","","","","","","","","","","","","","","","","feedback_test","","","","","","","","","",""
"668","","f","psychophysics","147","304171","0.0-7.0-0.0-4.0-0.0-0.20","3","4","4","4","3","4","4","3","3","4","4","3","3","4","3","4","3","3","4","4","2","2","2","2","1","1","2","2","1","1","0","1","1","0","0","1","1","0","1","1","0","1","0","1","4","3","4","2","3","3","4","4","3","1","687568214028189696","刘","150","","","","match","","","","","","","","","","","","","","key","f","16.83567010309276","683","380","f","true","match","img/circle.png","圆形","圆形","ALT1","formal_ALT1_1","","","","","","","","","",""
"null","<span style='color:GreenYellow; font-size: 70px;'>正确! </span>","null","html-keyboard-response","148","304677","0.0-7.0-0.0-4.0-0.0-1.20","3","4","4","4","3","4","4","3","3","4","4","3","3","4","3","4","3","3","4","4","2","2","2","2","1","1","2","2","1","1","0","1","1","0","0","1","1","0","1","1","0","1","0","1","4","3","4","2","3","3","4","4","3","1","687568214028189696","刘","150","","","","","","","","","","","","","","","","","","","","","","","","","","","","","","feedback_test","","","","","","","","","",""
"846","","j","psychophysics","149","306530","0.0-7.0-0.0-4.0-0.0-0.21","3","4","4","4","3","4","4","3","3","4","4","3","3","4","3","4","3","3","4","4","2","2","2","2","1","1","2","2","1","1","0","1","1","0","0","1","1","0","1","1","0","1","0","1","4","3","4","2","3","3","4","4","3","1","687568214028189696","刘","150","","","","nonmatch","","","","","","","","","","","","","","key","j","16.66626363636407","683","380","j","true","nonmatch","img/triangle.png","圆形","三角","ALT1","formal_ALT1_1","","","","","","","","","",""
"null","<span style='color:GreenYellow; font-size: 70px;'>正确! </span>","null","html-keyboard-response","150","307037","0.0-7.0-0.0-4.0-0.0-1.21","3","4","4","4","3","4","4","3","3","4","4","3","3","4","3","4","3","3","4","4","2","2","2","2","1","1","2","2","1","1","0","1","1","0","0","1","1","0","1","1","0","1","0","1","4","3","4","2","3","3","4","4","3","1","687568214028189696","刘","150","","","","","","","","","","","","","","","","","","","","","","","","","","","","","","feedback_test","","","","","","","","","",""
"761","","f","psychophysics","151","308801","0.0-7.0-0.0-4.0-0.0-0.22","3","4","4","4","3","4","4","3","3","4","4","3","3","4","3","4","3","3","4","4","2","2","2","2","1","1","2","2","1","1","0","1","1","0","0","1","1","0","1","1","0","1","0","1","4","3","4","2","3","3","4","4","3","1","687568214028189696","刘","150","","","","match","","","","","","","","","","","","","","key","f","16.66182692307652","683","380","f","true","match","img/circle.png","圆形","圆形","ALT1","formal_ALT1_1","","","","","","","","","",""
"null","<span style='color:GreenYellow; font-size: 70px;'>正确! </span>","null","html-keyboard-response","152","309309","0.0-7.0-0.0-4.0-0.0-1.22","3","4","4","4","3","4","4","3","3","4","4","3","3","4","3","4","3","3","4","4","2","2","2","2","1","1","2","2","1","1","0","1","1","0","0","1","1","0","1","1","0","1","0","1","4","3","4","2","3","3","4","4","3","1","687568214028189696","刘","150","","","","","","","","","","","","","","","","","","","","","","","","","","","","","","feedback_test","","","","","","","","","",""
"813","","f","psychophysics","153","311130","0.0-7.0-0.0-4.0-0.0-0.23","3","4","4","4","3","4","4","3","3","4","4","3","3","4","3","4","3","3","4","4","2","2","2","2","1","1","2","2","1","1","0","1","1","0","0","1","1","0","1","1","0","1","0","1","4","3","4","2","3","3","4","4","3","1","687568214028189696","刘","150","","","","match","","","","","","","","","","","","","","key","f","16.672616822429646","683","380","f","true","match","img/trapezoid.png","梯形","梯形","ALT1","formal_ALT1_1","","","","","","","","","",""
"null","<span style='color:GreenYellow; font-size: 70px;'>正确! </span>","null","html-keyboard-response","154","311637","0.0-7.0-0.0-4.0-0.0-1.23","3","4","4","4","3","4","4","3","3","4","4","3","3","4","3","4","3","3","4","4","2","2","2","2","1","1","2","2","1","1","0","1","1","0","0","1","1","0","1","1","0","1","0","1","4","3","4","2","3","3","4","4","3","1","687568214028189696","刘","150","","","","","","","","","","","","","","","","","","","","","","","","","","","","","","feedback_test","","","","","","","","","",""
"805","","f","psychophysics","155","313450","0.0-7.0-0.0-4.0-0.0-0.24","3","4","4","4","3","4","4","3","3","4","4","3","3","4","3","4","3","3","4","4","2","2","2","2","1","1","2","2","1","1","0","1","1","0","0","1","1","0","1","1","0","1","0","1","4","3","4","2","3","3","4","4","3","1","687568214028189696","刘","150","","","","match","","","","","","","","","","","","","","key","f","16.82652830188701","683","380","f","true","match","img/circle.png","圆形","圆形","ALT1","formal_ALT1_1","","","","","","","","","",""
"null","<span style='color:GreenYellow; font-size: 70px;'>正确! </span>","null","html-keyboard-response","156","313957","0.0-7.0-0.0-4.0-0.0-1.24","3","4","4","4","3","4","4","3","3","4","4","3","3","4","3","4","3","3","4","4","2","2","2","2","1","1","2","2","1","1","0","1","1","0","0","1","1","0","1","1","0","1","0","1","4","3","4","2","3","3","4","4","3","1","687568214028189696","刘","150","","","","","","","","","","","","","","","","","","","","","","","","","","","","","","feedback_test","","","","","","","","","",""
"684","","f","psychophysics","157","315650","0.0-7.0-0.0-4.0-0.0-0.25","3","4","4","4","3","4","4","3","3","4","4","3","3","4","3","4","3","3","4","4","2","2","2","2","1","1","2","2","1","1","0","1","1","0","0","1","1","0","1","1","0","1","0","1","4","3","4","2","3","3","4","4","3","1","687568214028189696","刘","150","","","","match","","","","","","","","","","","","","","key","f","16.833060606060588","683","380","f","true","match","img/hexagon.png","六边","六边","ALT1","formal_ALT1_1","","","","","","","","","",""
"null","<span style='color:GreenYellow; font-size: 70px;'>正确! </span>","null","html-keyboard-response","158","316156","0.0-7.0-0.0-4.0-0.0-1.25","3","4","4","4","3","4","4","3","3","4","4","3","3","4","3","4","3","3","4","4","2","2","2","2","1","1","2","2","1","1","0","1","1","0","0","1","1","0","1","1","0","1","0","1","4","3","4","2","3","3","4","4","3","1","687568214028189696","刘","150","","","","","","","","","","","","","","","","","","","","","","","","","","","","","","feedback_test","","","","","","","","","",""
"629","","f","psychophysics","159","317794","0.0-7.0-0.0-4.0-0.0-0.26","3","4","4","4","3","4","4","3","3","4","4","3","3","4","3","4","3","3","4","4","2","2","2","2","1","1","2","2","1","1","0","1","1","0","0","1","1","0","1","1","0","1","0","1","4","3","4","2","3","3","4","4","3","1","687568214028189696","刘","150","","","","match","","","","","","","","","","","","","","key","f","16.66135416666657","683","380","j","false","nonmatch","img/triangle.png","圆形","三角","ALT1","formal_ALT1_1","","","","","","","","","",""
"null","<span style='color:red; font-size: 70px;'>错误! </span>","null","html-keyboard-response","160","318301","0.0-7.0-0.0-4.0-0.0-1.26","3","4","4","4","3","4","4","3","3","4","4","3","3","4","3","4","3","3","4","4","2","2","2","2","1","1","2","2","1","1","0","1","1","0","0","1","1","0","1","1","0","1","0","1","4","3","4","2","3","3","4","4","3","1","687568214028189696","刘","150","","","","","","","","","","","","","","","","","","","","","","","","","","","","","","feedback_test","","","","","","","","","",""
"640","","f","psychophysics","161","319946","0.0-7.0-0.0-4.0-0.0-0.27","3","4","4","4","3","4","4","3","3","4","4","3","3","4","3","4","3","3","4","4","2","2","2","2","1","1","2","2","1","1","0","1","1","0","0","1","1","0","1","1","0","1","0","1","4","3","4","2","3","3","4","4","3","1","687568214028189696","刘","150","","","","match","","","","","","","","","","","","","","key","f","16.834618556700867","683","380","f","true","match","img/triangle.png","三角","三角","ALT1","formal_ALT1_1","","","","","","","","","",""
"null","<span style='color:GreenYellow; font-size: 70px;'>正确! </span>","null","html-keyboard-response","162","320452","0.0-7.0-0.0-4.0-0.0-1.27","3","4","4","4","3","4","4","3","3","4","4","3","3","4","3","4","3","3","4","4","2","2","2","2","1","1","2","2","1","1","0","1","1","0","0","1","1","0","1","1","0","1","0","1","4","3","4","2","3","3","4","4","3","1","687568214028189696","刘","150","","","","","","","","","","","","","","","","","","","","","","","","","","","","","","feedback_test","","","","","","","","","",""
"707","","f","psychophysics","163","322162","0.0-7.0-0.0-4.0-0.0-0.28","3","4","4","4","3","4","4","3","3","4","4","3","3","4","3","4","3","3","4","4","2","2","2","2","1","1","2","2","1","1","0","1","1","0","0","1","1","0","1","1","0","1","0","1","4","3","4","2","3","3","4","4","3","1","687568214028189696","刘","150","","","","match","","","","","","","","","","","","","","key","f","16.824440000000177","683","380","f","true","match","img/trapezoid.png","梯形","梯形","ALT1","formal_ALT1_1","","","","","","","","","",""
"null","<span style='color:GreenYellow; font-size: 70px;'>正确! </span>","null","html-keyboard-response","164","322669","0.0-7.0-0.0-4.0-0.0-1.28","3","4","4","4","3","4","4","3","3","4","4","3","3","4","3","4","3","3","4","4","2","2","2","2","1","1","2","2","1","1","0","1","1","0","0","1","1","0","1","1","0","1","0","1","4","3","4","2","3","3","4","4","3","1","687568214028189696","刘","150","","","","","","","","","","","","","","","","","","","","","","","","","","","","","","feedback_test","","","","","","","","","",""
"594","","f","psychophysics","165","324266","0.0-7.0-0.0-4.0-0.0-0.29","3","4","4","4","3","4","4","3","3","4","4","3","3","4","3","4","3","3","4","4","2","2","2","2","1","1","2","2","1","1","0","1","1","0","0","1","1","0","1","1","0","1","0","1","4","3","4","2","3","3","4","4","3","1","687568214028189696","刘","150","","","","match","","","","","","","","","","","","","","key","f","16.66872340425517","683","380","f","true","match","img/triangle.png","三角","三角","ALT1","formal_ALT1_1","","","","","","","","","",""
"null","<span style='color:GreenYellow; font-size: 70px;'>正确! </span>","null","html-keyboard-response","166","324773","0.0-7.0-0.0-4.0-0.0-1.29","3","4","4","4","3","4","4","3","3","4","4","3","3","4","3","4","3","3","4","4","2","2","2","2","1","1","2","2","1","1","0","1","1","0","0","1","1","0","1","1","0","1","0","1","4","3","4","2","3","3","4","4","3","1","687568214028189696","刘","150","","","","","","","","","","","","","","","","","","","","","","","","","","","","","","feedback_test","","","","","","","","","",""
"749","","f","psychophysics","167","326530","0.0-7.0-0.0-4.0-0.0-0.30","3","4","4","4","3","4","4","3","3","4","4","3","3","4","3","4","3","3","4","4","2","2","2","2","1","1","2","2","1","1","0","1","1","0","0","1","1","0","1","1","0","1","0","1","4","3","4","2","3","3","4","4","3","1","687568214028189696","刘","150","","","","match","","","","","","","","","","","","","","key","f","16.665281553398387","683","380","f","true","match","img/trapezoid.png","梯形","梯形","ALT1","formal_ALT1_1","","","","","","","","","",""
"null","<span style='color:GreenYellow; font-size: 70px;'>正确! </span>","null","html-keyboard-response","168","327037","0.0-7.0-0.0-4.0-0.0-1.30","3","4","4","4","3","4","4","3","3","4","4","3","3","4","3","4","3","3","4","4","2","2","2","2","1","1","2","2","1","1","0","1","1","0","0","1","1","0","1","1","0","1","0","1","4","3","4","2","3","3","4","4","3","1","687568214028189696","刘","150","","","","","","","","","","","","","","","","","","","","","","","","","","","","","","feedback_test","","","","","","","","","",""
"694","","f","psychophysics","169","328740","0.0-7.0-0.0-4.0-0.0-0.31","3","4","4","4","3","4","4","3","3","4","4","3","3","4","3","4","3","3","4","4","2","2","2","2","1","1","2","2","1","1","0","1","1","0","0","1","1","0","1","1","0","1","0","1","4","3","4","2","3","3","4","4","3","1","687568214028189696","刘","150","","","","match","","","","","","","","","","","","","","key","f","16.66566999999981","683","380","f","true","match","img/triangle.png","三角","三角","ALT1","formal_ALT1_1","","","","","","","","","",""
"null","<span style='color:GreenYellow; font-size: 70px;'>正确! </span>","null","html-keyboard-response","170","329245","0.0-7.0-0.0-4.0-0.0-1.31","3","4","4","4","3","4","4","3","3","4","4","3","3","4","3","4","3","3","4","4","2","2","2","2","1","1","2","2","1","1","0","1","1","0","0","1","1","0","1","1","0","1","0","1","4","3","4","2","3","3","4","4","3","1","687568214028189696","刘","150","","","","","","","","","","","","","","","","","","","","","","","","","","","","","","feedback_test","","","","","","","","","",""
"970","","j","psychophysics","171","331226","0.0-7.0-0.0-4.0-0.0-0.32","3","4","4","4","3","4","4","3","3","4","4","3","3","4","3","4","3","3","4","4","2","2","2","2","1","1","2","2","1","1","0","1","1","0","0","1","1","0","1","1","0","1","0","1","4","3","4","2","3","3","4","4","3","1","687568214028189696","刘","150","","","","nonmatch","","","","","","","","","","","","","","key","j","16.80646551724178","683","380","j","true","nonmatch","img/triangle.png","梯形","三角","ALT1","formal_ALT1_1","","","","","","","","","",""
"null","<span style='color:GreenYellow; font-size: 70px;'>正确! </span>","null","html-keyboard-response","172","331733","0.0-7.0-0.0-4.0-0.0-1.32","3","4","4","4","3","4","4","3","3","4","4","3","3","4","3","4","3","3","4","4","2","2","2","2","1","1","2","2","1","1","0","1","1","0","0","1","1","0","1","1","0","1","0","1","4","3","4","2","3","3","4","4","3","1","687568214028189696","刘","150","","","","","","","","","","","","","","","","","","","","","","","","","","","","","","feedback_test","","","","","","","","","",""
"1087","","j","psychophysics","173","333826","0.0-7.0-0.0-4.0-0.0-0.33","3","4","4","4","3","4","4","3","3","4","4","3","3","4","3","4","3","3","4","4","2","2","2","2","1","1","2","2","1","1","0","1","1","0","0","1","1","0","1","1","0","1","0","1","4","3","4","2","3","3","4","4","3","1","687568214028189696","刘","150","","","","nonmatch","","","","","","","","","","","","","","key","j","16.66562601625995","683","380","j","true","nonmatch","img/trapezoid.png","六边","梯形","ALT1","formal_ALT1_1","","","","","","","","","",""
"null","<span style='color:GreenYellow; font-size: 70px;'>正确! </span>","null","html-keyboard-response","174","334333","0.0-7.0-0.0-4.0-0.0-1.33","3","4","4","4","3","4","4","3","3","4","4","3","3","4","3","4","3","3","4","4","2","2","2","2","1","1","2","2","1","1","0","1","1","0","0","1","1","0","1","1","0","1","0","1","4","3","4","2","3","3","4","4","3","1","687568214028189696","刘","150","","","","","","","","","","","","","","","","","","","","","","","","","","","","","","feedback_test","","","","","","","","","",""
"871","","f","psychophysics","175","336209","0.0-7.0-0.0-4.0-0.0-0.34","3","4","4","4","3","4","4","3","3","4","4","3","3","4","3","4","3","3","4","4","2","2","2","2","1","1","2","2","1","1","0","1","1","0","0","1","1","0","1","1","0","1","0","1","4","3","4","2","3","3","4","4","3","1","687568214028189696","刘","150","","","","match","","","","","","","","","","","","","","key","f","16.81533333333314","683","380","j","false","nonmatch","img/hexagon.png","圆形","六边","ALT1","formal_ALT1_1","","","","","","","","","",""
"null","<span style='color:red; font-size: 70px;'>错误! </span>","null","html-keyboard-response","176","336716","0.0-7.0-0.0-4.0-0.0-1.34","3","4","4","4","3","4","4","3","3","4","4","3","3","4","3","4","3","3","4","4","2","2","2","2","1","1","2","2","1","1","0","1","1","0","0","1","1","0","1","1","0","1","0","1","4","3","4","2","3","3","4","4","3","1","687568214028189696","刘","150","","","","","","","","","","","","","","","","","","","","","","","","","","","","","","feedback_test","","","","","","","","","",""
"584","","f","psychophysics","177","338306","0.0-7.0-0.0-4.0-0.0-0.35","3","4","4","4","3","4","4","3","3","4","4","3","3","4","3","4","3","3","4","4","2","2","2","2","1","1","2","2","1","1","0","1","1","0","0","1","1","0","1","1","0","1","0","1","4","3","4","2","3","3","4","4","3","1","687568214028189696","刘","150","","","","match","","","","","","","","","","","","","","key","f","16.666999999999902","683","380","f","true","match","img/hexagon.png","六边","六边","ALT1","formal_ALT1_1","","","","","","","","","",""
"null","<span style='color:GreenYellow; font-size: 70px;'>正确! </span>","null","html-keyboard-response","178","338812","0.0-7.0-0.0-4.0-0.0-1.35","3","4","4","4","3","4","4","3","3","4","4","3","3","4","3","4","3","3","4","4","2","2","2","2","1","1","2","2","1","1","0","1","1","0","0","1","1","0","1","1","0","1","0","1","4","3","4","2","3","3","4","4","3","1","687568214028189696","刘","150","","","","","","","","","","","","","","","","","","","","","","","","","","","","","","feedback_test","","","","","","","","","",""
"749","","j","psychophysics","179","340572","0.0-7.0-0.0-4.0-0.0-0.36","3","4","4","4","3","4","4","3","3","4","4","3","3","4","3","4","3","3","4","4","2","2","2","2","1","1","2","2","1","1","0","1","1","0","0","1","1","0","1","1","0","1","0","1","4","3","4","2","3","3","4","4","3","1","687568214028189696","刘","150","","","","nonmatch","","","","","","","","","","","","","","key","j","16.667761904761814","683","380","j","true","nonmatch","img/trapezoid.png","三角","梯形","ALT1","formal_ALT1_1","","","","","","","","","",""
"null","<span style='color:GreenYellow; font-size: 70px;'>正确! </span>","null","html-keyboard-response","180","341077","0.0-7.0-0.0-4.0-0.0-1.36","3","4","4","4","3","4","4","3","3","4","4","3","3","4","3","4","3","3","4","4","2","2","2","2","1","1","2","2","1","1","0","1","1","0","0","1","1","0","1","1","0","1","0","1","4","3","4","2","3","3","4","4","3","1","687568214028189696","刘","150","","","","","","","","","","","","","","","","","","","","","","","","","","","","","","feedback_test","","","","","","","","","",""
"837","","f","psychophysics","181","342922","0.0-7.0-0.0-4.0-0.0-0.37","3","4","4","4","3","4","4","3","3","4","4","3","3","4","3","4","3","3","4","4","2","2","2","2","1","1","2","2","1","1","0","1","1","0","0","1","1","0","1","1","0","1","0","1","4","3","4","2","3","3","4","4","3","1","687568214028189696","刘","150","","","","match","","","","","","","","","","","","","","key","f","16.6675727272729","683","380","f","true","match","img/trapezoid.png","梯形","梯形","ALT1","formal_ALT1_1","","","","","","","","","",""
"null","<span style='color:GreenYellow; font-size: 70px;'>正确! </span>","null","html-keyboard-response","182","343429","0.0-7.0-0.0-4.0-0.0-1.37","3","4","4","4","3","4","4","3","3","4","4","3","3","4","3","4","3","3","4","4","2","2","2","2","1","1","2","2","1","1","0","1","1","0","0","1","1","0","1","1","0","1","0","1","4","3","4","2","3","3","4","4","3","1","687568214028189696","刘","150","","","","","","","","","","","","","","","","","","","","","","","","","","","","","","feedback_test","","","","","","","","","",""
"734","","j","psychophysics","183","345172","0.0-7.0-0.0-4.0-0.0-0.38","3","4","4","4","3","4","4","3","3","4","4","3","3","4","3","4","3","3","4","4","2","2","2","2","1","1","2","2","1","1","0","1","1","0","0","1","1","0","1","1","0","1","0","1","4","3","4","2","3","3","4","4","3","1","687568214028189696","刘","150","","","","nonmatch","","","","","","","","","","","","","","key","j","16.668235294117967","683","380","j","true","nonmatch","img/trapezoid.png","圆形","梯形","ALT1","formal_ALT1_1","","","","","","","","","",""
"null","<span style='color:GreenYellow; font-size: 70px;'>正确! </span>","null","html-keyboard-response","184","345677","0.0-7.0-0.0-4.0-0.0-1.38","3","4","4","4","3","4","4","3","3","4","4","3","3","4","3","4","3","3","4","4","2","2","2","2","1","1","2","2","1","1","0","1","1","0","0","1","1","0","1","1","0","1","0","1","4","3","4","2","3","3","4","4","3","1","687568214028189696","刘","150","","","","","","","","","","","","","","","","","","","","","","","","","","","","","","feedback_test","","","","","","","","","",""
"741","","j","psychophysics","185","347426","0.0-7.0-0.0-4.0-0.0-0.39","3","4","4","4","3","4","4","3","3","4","4","3","3","4","3","4","3","3","4","4","2","2","2","2","1","1","2","2","1","1","0","1","1","0","0","1","1","0","1","1","0","1","0","1","4","3","4","2","3","3","4","4","3","1","687568214028189696","刘","150","","","","nonmatch","","","","","","","","","","","","","","key","j","16.993352941176898","683","380","j","true","nonmatch","img/triangle.png","六边","三角","ALT1","formal_ALT1_1","","","","","","","","","",""
