"rt","stimulus","response","trial_type","trial_index","time_elapsed","internal_node_id","ses_1","ses_2","ses_3","ses_4","ses_5","ses_6","ses_7","ses_8","ses_9","ses_10","coreself_1","coreself_2","coreself_3","coreself_4","coreself_5","coreself_6","coreself_7","coreself_8","coreself_9","coreself_10","SGPS_1","SGPS_2","SGPS_3","SGPS_4","SGPS_5","SGPS_6","SGPS_7","SGPS_8","SGPS_9","NPI1","NPI2","NPI3","NPI4","NPI5","NPI6","NPI7","NPI8","NPI9","NPI10","NPI11","NPI12","NPI13","NPI14","NPI15","hsns_1","hsns_2","hsns_3","hsns_4","hsns_5","hsns_6","hsns_7","hsns_8","hsns_9","hsns_10","subj_idx","friend_name","ParticipantID","value","success","user_agent","responses","item_order","radio_event_ids","radio_event_times","key_event_times","mouse_event_times","straightlining","zigzagging","honeypot","timeout","failed_images","failed_audio","failed_video","version_attrib2","version_target2","correct","IAT","screen_id","task_id","RT","condition","word","varname","summary","version_attrib","version_target","time_stamp","view_history","response_type","key_press","avg_frame_time","center_x","center_y","correct_response","identity","Image","question_order"
"11596","
   <p><div style = ""color: white;font-size:25px;"">您好，欢迎参加本次实验。</div> </p>
   <p><div style = ""color: white;font-size:25px;"">为充分保障您的权利，请确保您已经知晓并同意《参与实验同意书》以及《数据公开知情同意书》。</div></p>
   <p><div style = ""color: white;font-size:25px;"">如果您未见过上述内容，请咨询实验员。</div></p>
   <p><div style = ""color: white;font-size:25px;"">如果您选择继续实验，则表示您已经清楚两份知情同意书的内容并同意。</div></p>
   <p><div style = ""color: red;font-size:30px;"">请确保您记得day0的实验编号，您将在本次实验输入该编号，若您忘记，请咨询实验员后作答。</div></p>
   <p> <div style = ""color: green;font-size:25px;""><按空格键至下页></div> </p>
   "," ","html-keyboard-response","0","11597","0.0-0.0","3","2","3","3","2","3","3","4","4","4","4","4","3","4","3","4","3","3","3","5","2","2","3","2","4","2","3","3","2","0","0","1","0","0","0","0","0","0","1","1","0","0","0","1","2","3","2","3","4","2","3","4","2","2","697447755366268928","罗","271","","","","","","","","","","","","","","","","","","","","","","","","","","","","","","","","","","","","","","","",""
"","","","call-function","1","11598","0.0-1.0-0.0","3","2","3","3","2","3","3","4","4","4","4","4","3","4","3","4","3","3","3","5","2","2","3","2","4","2","3","3","2","0","0","1","0","0","0","0","0","0","1","1","0","0","0","1","2","3","2","3","4","2","3","4","2","2","697447755366268928","罗","271","","","","","","","","","","","","","","","","","","","","","","","","","","","","","","","","","","","","","","","",""
"26195","","{""friend_name"":""罗"",""ParticipantID"":""271""}","survey-html-form","2","37793","0.0-1.0-1.0","3","2","3","3","2","3","3","4","4","4","4","4","3","4","3","4","3","3","3","5","2","2","3","2","4","2","3","3","2","0","0","1","0","0","0","0","0","0","1","1","0","0","0","1","2","3","2","3","4","2","3","4","2","2","697447755366268928","罗","271","","","","","","","","","","","","","","","","","","","","","","","","","","","","","","","","","","","","","","","",""
"","","","fullscreen","3","52267","0.0-2.0","3","2","3","3","2","3","3","4","4","4","4","4","3","4","3","4","3","3","3","5","2","2","3","2","4","2","3","3","2","0","0","1","0","0","0","0","0","0","1","1","0","0","0","1","2","3","2","3","4","2","3","4","2","2","697447755366268928","罗","271","","true","{}","","","","","","","","","","","","","","","","","","","","","","","","","","","","","","","","","","","","",""
"58873.80000001192","","{""Q01"":""3"",""Q02"":""2"",""Q03"":""3"",""Q04"":""3"",""Q05"":""2"",""Q06"":""3"",""Q07"":""3"",""Q08"":""4"",""Q09"":""4"",""Q10"":""4""}","survey-template","4","111142","0.0-3.0","3","2","3","3","2","3","3","4","4","4","4","4","3","4","3","4","3","3","3","5","2","2","3","2","4","2","3","3","2","0","0","1","0","0","0","0","0","0","1","1","0","0","0","1","2","3","2","3","4","2","3","4","2","2","697447755366268928","罗","271","","","","{""Q01"":""3"",""Q02"":""2"",""Q03"":""3"",""Q04"":""3"",""Q05"":""2"",""Q06"":""3"",""Q07"":""3"",""Q08"":""4"",""Q09"":""4"",""Q10"":""4""}","[0,1,2,3,4,5,6,7,8,9]","[""Q01"",""Q02"",""Q03"",""Q04"",""Q05"",""Q06"",""Q07"",""Q08"",""Q08"",""Q09"",""Q10""]","[8150.800000011921,10294.899999976158,12988.899999976158,16840.69999998808,20512.899999976158,22854.599999964237,35304.59999996424,46976.19999998808,48656.39999997616,57141.09999996424,58122.30000001192]","[]","[8150.800000011921,10294.899999976158,12988.899999976158,16040,16840.69999998808,20512.899999976158,22854.599999964237,35304.59999996424,46976.19999998808,48656.39999997616,57141.09999996424,58122.30000001192,58873.09999996424]","0.5","0.2222222222222222","0","","","","","","","","","","","","","","","","","","","","","","","","","","","",""
"52813.10000002384","","{""Q01"":""4"",""Q02"":""4"",""Q03"":""3"",""Q04"":""4"",""Q05"":""3"",""Q06"":""4"",""Q07"":""3"",""Q08"":""3"",""Q09"":""3"",""Q10"":""5""}","survey-template","5","163960","0.0-4.0","3","2","3","3","2","3","3","4","4","4","4","4","3","4","3","4","3","3","3","5","2","2","3","2","4","2","3","3","2","0","0","1","0","0","0","0","0","0","1","1","0","0","0","1","2","3","2","3","4","2","3","4","2","2","697447755366268928","罗","271","","","","{""Q01"":""4"",""Q02"":""4"",""Q03"":""3"",""Q04"":""4"",""Q05"":""3"",""Q06"":""4"",""Q07"":""3"",""Q08"":""3"",""Q09"":""3"",""Q10"":""5""}","[0,1,2,3,4,5,6,7,8,9]","[""Q01"",""Q02"",""Q03"",""Q03"",""Q04"",""Q05"",""Q06"",""Q07"",""Q08"",""Q09"",""Q10""]","[4806.300000011921,8250.800000011921,9470.100000023842,12173.900000035763,17226.30000001192,19450.100000023842,23040.30000001192,26721.80000001192,47381.90000003576,50386.5,52172]","[]","[3642.199999988079,4806.300000011921,8250.800000011921,9470.100000023842,12173.900000035763,17226.30000001192,19450.100000023842,23040.30000001192,26150,26721.80000001192,44848.19999998808,47381.90000003576,50386.5,52172,52812.30000001192]","0.5","0.5555555555555556","0","","","","","","","","","","","","","","","","","","","","","","","","","","","",""
"","","","preload","6","164265","0.0-5.0","3","2","3","3","2","3","3","4","4","4","4","4","3","4","3","4","3","3","3","5","2","2","3","2","4","2","3","3","2","0","0","1","0","0","0","0","0","0","1","1","0","0","0","1","2","3","2","3","4","2","3","4","2","2","697447755366268928","罗","271","","true","","","","","","","","","","","false","[]","[]","[]","","","","","","","","","","","","","","","","","","","","","","","",""
"24523","
    <h3>词语分类任务</h3>
    <p>在接下来的任务中，你需要对一系列词语进行分类。<p/>
    请先熟悉这些词语，这有利于你完成接下来的任务。</p>
    <table align=""center"" border=1 cellpadding=3 cellspacing=0>
    <tr> <th>类别</th> <th>词语</th> </tr>
    <tr> <td>&emsp;积极&emsp;</td> <td>&emsp;高尚、诚信、善良、君子、廉正、正直&emsp;</td> </tr>
    <tr> <td>&emsp;消极&emsp;</td> <td>&emsp;缺德、卑鄙、不孝、不仁、小人、黑心&emsp;</td> </tr>
    <tr> <td>&emsp;自我&emsp;</td> <td>&emsp;我、我的、自己、自己的、本人、本人的&emsp;</td> </tr>
    <tr> <td>&emsp;他人&emsp;</td> <td>&emsp;他、他的、别人、别人的、他人、他人的&emsp;</td> </tr>
    </table><br/>","0","html-button-response","7","188789","0.0-6.0-1.0-0.0","3","2","3","3","2","3","3","4","4","4","4","4","3","4","3","4","3","3","3","5","2","2","3","2","4","2","3","3","2","0","0","1","0","0","0","0","0","0","1","1","0","0","0","1","2","3","2","3","4","2","3","4","2","2","697447755366268928","罗","271","","","","","","","","","","","","","","","","","1","1","","","","","","","","","","","","","","","","","","","","","",""
"24633","
    <div class=""tag-bottom""><p>
    —— 任务1：对“自我”词和“他人”词分类 ——<p/>
    不同词语会出现在屏幕中央，类别标签将始终显示在屏幕上方<p/>   
    <span style=""color:#FFD866""><b>请根据上方标签的提示，尽可能正确并且快速地做出按键反应</b></span><p/>
    当按键错误时屏幕中会出现<span style=""color:red""> X </span>，需要按另一个键纠正才能继续<br/><p/>
    请把双手食指分别放在键盘的“E”键和“I”键上<p/>
    按<空格键>开始
    </p></div>"," ","html-keyboard-response","8","213424","0.0-6.0-1.0-1.0","3","2","3","3","2","3","3","4","4","4","4","4","3","4","3","4","3","3","3","5","2","2","3","2","4","2","3","3","2","0","0","1","0","0","0","0","0","0","1","1","0","0","0","1","2","3","2","3","4","2","3","4","2","2","697447755366268928","罗","271","","","","","","","","","","","","","","","","","","","","","","","","","","","","","","","","","","","","","","","",""
"null","","null","html-keyboard-response","9","213675","0.0-6.0-1.0-2.0-0.0","3","2","3","3","2","3","3","4","4","4","4","4","3","4","3","4","3","3","3","5","2","2","3","2","4","2","3","3","2","0","0","1","0","0","0","0","0","0","1","1","0","0","0","1","2","3","2","3","4","2","3","4","2","2","697447755366268928","罗","271","","","","","","","","","","","","","","","","","","","","","","","","","","","","","","","","","","","","","","","",""
"842","<p style=""color:rgb(150, 250, 100); font-size: 35px;"">本人的</p>","e","categorize-html","10","214519","0.0-6.0-1.0-2.0-1.0","3","2","3","3","2","3","3","4","4","4","4","4","3","4","3","4","3","3","3","5","2","2","3","2","4","2","3","3","2","0","0","1","0","0","0","0","0","0","1","1","0","0","0","1","2","3","2","3","4","2","3","4","2","2","697447755366268928","罗","271","","","","","","","","","","","","","","","","","","","true","11","1","moral","842","self","本人的","","","","","","","","","","","","","","",""
"null","","null","html-keyboard-response","11","214770","0.0-6.0-1.0-2.0-0.1","3","2","3","3","2","3","3","4","4","4","4","4","3","4","3","4","3","3","3","5","2","2","3","2","4","2","3","3","2","0","0","1","0","0","0","0","0","0","1","1","0","0","0","1","2","3","2","3","4","2","3","4","2","2","697447755366268928","罗","271","","","","","","","","","","","","","","","","","","","","","","","","","","","","","","","","","","","","","","","",""
"654","<p style=""color:rgb(150, 250, 100); font-size: 35px;"">我</p>","e","categorize-html","12","215425","0.0-6.0-1.0-2.0-1.1","3","2","3","3","2","3","3","4","4","4","4","4","3","4","3","4","3","3","3","5","2","2","3","2","4","2","3","3","2","0","0","1","0","0","0","0","0","0","1","1","0","0","0","1","2","3","2","3","4","2","3","4","2","2","697447755366268928","罗","271","","","","","","","","","","","","","","","","","","","true","11","1","moral","654","self","我","","","","","","","","","","","","","","",""
"null","","null","html-keyboard-response","13","215677","0.0-6.0-1.0-2.0-0.2","3","2","3","3","2","3","3","4","4","4","4","4","3","4","3","4","3","3","3","5","2","2","3","2","4","2","3","3","2","0","0","1","0","0","0","0","0","0","1","1","0","0","0","1","2","3","2","3","4","2","3","4","2","2","697447755366268928","罗","271","","","","","","","","","","","","","","","","","","","","","","","","","","","","","","","","","","","","","","","",""
"609","<p style=""color:rgb(150, 250, 100); font-size: 35px;"">他</p>","i","categorize-html","14","216287","0.0-6.0-1.0-2.0-1.2","3","2","3","3","2","3","3","4","4","4","4","4","3","4","3","4","3","3","3","5","2","2","3","2","4","2","3","3","2","0","0","1","0","0","0","0","0","0","1","1","0","0","0","1","2","3","2","3","4","2","3","4","2","2","697447755366268928","罗","271","","","","","","","","","","","","","","","","","","","true","11","1","moral","609","other","他","","","","","","","","","","","","","","",""
"null","","null","html-keyboard-response","15","216538","0.0-6.0-1.0-2.0-0.3","3","2","3","3","2","3","3","4","4","4","4","4","3","4","3","4","3","3","3","5","2","2","3","2","4","2","3","3","2","0","0","1","0","0","0","0","0","0","1","1","0","0","0","1","2","3","2","3","4","2","3","4","2","2","697447755366268928","罗","271","","","","","","","","","","","","","","","","","","","","","","","","","","","","","","","","","","","","","","","",""
"644","<p style=""color:rgb(150, 250, 100); font-size: 35px;"">他的</p>","i","categorize-html","16","217183","0.0-6.0-1.0-2.0-1.3","3","2","3","3","2","3","3","4","4","4","4","4","3","4","3","4","3","3","3","5","2","2","3","2","4","2","3","3","2","0","0","1","0","0","0","0","0","0","1","1","0","0","0","1","2","3","2","3","4","2","3","4","2","2","697447755366268928","罗","271","","","","","","","","","","","","","","","","","","","true","11","1","moral","644","other","他的","","","","","","","","","","","","","","",""
"null","","null","html-keyboard-response","17","217434","0.0-6.0-1.0-2.0-0.4","3","2","3","3","2","3","3","4","4","4","4","4","3","4","3","4","3","3","3","5","2","2","3","2","4","2","3","3","2","0","0","1","0","0","0","0","0","0","1","1","0","0","0","1","2","3","2","3","4","2","3","4","2","2","697447755366268928","罗","271","","","","","","","","","","","","","","","","","","","","","","","","","","","","","","","","","","","","","","","",""
"588","<p style=""color:rgb(150, 250, 100); font-size: 35px;"">本人</p>","e","categorize-html","18","218023","0.0-6.0-1.0-2.0-1.4","3","2","3","3","2","3","3","4","4","4","4","4","3","4","3","4","3","3","3","5","2","2","3","2","4","2","3","3","2","0","0","1","0","0","0","0","0","0","1","1","0","0","0","1","2","3","2","3","4","2","3","4","2","2","697447755366268928","罗","271","","","","","","","","","","","","","","","","","","","true","11","1","moral","588","self","本人","","","","","","","","","","","","","","",""
"null","","null","html-keyboard-response","19","218274","0.0-6.0-1.0-2.0-0.5","3","2","3","3","2","3","3","4","4","4","4","4","3","4","3","4","3","3","3","5","2","2","3","2","4","2","3","3","2","0","0","1","0","0","0","0","0","0","1","1","0","0","0","1","2","3","2","3","4","2","3","4","2","2","697447755366268928","罗","271","","","","","","","","","","","","","","","","","","","","","","","","","","","","","","","","","","","","","","","",""
"642","<p style=""color:rgb(150, 250, 100); font-size: 35px;"">别人的</p>","i","categorize-html","20","218918","0.0-6.0-1.0-2.0-1.5","3","2","3","3","2","3","3","4","4","4","4","4","3","4","3","4","3","3","3","5","2","2","3","2","4","2","3","3","2","0","0","1","0","0","0","0","0","0","1","1","0","0","0","1","2","3","2","3","4","2","3","4","2","2","697447755366268928","罗","271","","","","","","","","","","","","","","","","","","","true","11","1","moral","642","other","别人的","","","","","","","","","","","","","","",""
"null","","null","html-keyboard-response","21","219169","0.0-6.0-1.0-2.0-0.6","3","2","3","3","2","3","3","4","4","4","4","4","3","4","3","4","3","3","3","5","2","2","3","2","4","2","3","3","2","0","0","1","0","0","0","0","0","0","1","1","0","0","0","1","2","3","2","3","4","2","3","4","2","2","697447755366268928","罗","271","","","","","","","","","","","","","","","","","","","","","","","","","","","","","","","","","","","","","","","",""
"555","<p style=""color:rgb(150, 250, 100); font-size: 35px;"">他人的</p>","i","categorize-html","22","219725","0.0-6.0-1.0-2.0-1.6","3","2","3","3","2","3","3","4","4","4","4","4","3","4","3","4","3","3","3","5","2","2","3","2","4","2","3","3","2","0","0","1","0","0","0","0","0","0","1","1","0","0","0","1","2","3","2","3","4","2","3","4","2","2","697447755366268928","罗","271","","","","","","","","","","","","","","","","","","","true","11","1","moral","555","other","他人的","","","","","","","","","","","","","","",""
"null","","null","html-keyboard-response","23","219976","0.0-6.0-1.0-2.0-0.7","3","2","3","3","2","3","3","4","4","4","4","4","3","4","3","4","3","3","3","5","2","2","3","2","4","2","3","3","2","0","0","1","0","0","0","0","0","0","1","1","0","0","0","1","2","3","2","3","4","2","3","4","2","2","697447755366268928","罗","271","","","","","","","","","","","","","","","","","","","","","","","","","","","","","","","","","","","","","","","",""
"499","<p style=""color:rgb(150, 250, 100); font-size: 35px;"">他人</p>","i","categorize-html","24","220476","0.0-6.0-1.0-2.0-1.7","3","2","3","3","2","3","3","4","4","4","4","4","3","4","3","4","3","3","3","5","2","2","3","2","4","2","3","3","2","0","0","1","0","0","0","0","0","0","1","1","0","0","0","1","2","3","2","3","4","2","3","4","2","2","697447755366268928","罗","271","","","","","","","","","","","","","","","","","","","true","11","1","moral","499","other","他人","","","","","","","","","","","","","","",""
"null","","null","html-keyboard-response","25","220727","0.0-6.0-1.0-2.0-0.8","3","2","3","3","2","3","3","4","4","4","4","4","3","4","3","4","3","3","3","5","2","2","3","2","4","2","3","3","2","0","0","1","0","0","0","0","0","0","1","1","0","0","0","1","2","3","2","3","4","2","3","4","2","2","697447755366268928","罗","271","","","","","","","","","","","","","","","","","","","","","","","","","","","","","","","","","","","","","","","",""
"576","<p style=""color:rgb(150, 250, 100); font-size: 35px;"">自己的</p>","e","categorize-html","26","221305","0.0-6.0-1.0-2.0-1.8","3","2","3","3","2","3","3","4","4","4","4","4","3","4","3","4","3","3","3","5","2","2","3","2","4","2","3","3","2","0","0","1","0","0","0","0","0","0","1","1","0","0","0","1","2","3","2","3","4","2","3","4","2","2","697447755366268928","罗","271","","","","","","","","","","","","","","","","","","","true","11","1","moral","576","self","自己的","","","","","","","","","","","","","","",""
"null","","null","html-keyboard-response","27","221555","0.0-6.0-1.0-2.0-0.9","3","2","3","3","2","3","3","4","4","4","4","4","3","4","3","4","3","3","3","5","2","2","3","2","4","2","3","3","2","0","0","1","0","0","0","0","0","0","1","1","0","0","0","1","2","3","2","3","4","2","3","4","2","2","697447755366268928","罗","271","","","","","","","","","","","","","","","","","","","","","","","","","","","","","","","","","","","","","","","",""
"556","<p style=""color:rgb(150, 250, 100); font-size: 35px;"">别人</p>","i","categorize-html","28","222112","0.0-6.0-1.0-2.0-1.9","3","2","3","3","2","3","3","4","4","4","4","4","3","4","3","4","3","3","3","5","2","2","3","2","4","2","3","3","2","0","0","1","0","0","0","0","0","0","1","1","0","0","0","1","2","3","2","3","4","2","3","4","2","2","697447755366268928","罗","271","","","","","","","","","","","","","","","","","","","true","11","1","moral","556","other","别人","","","","","","","","","","","","","","",""
"null","","null","html-keyboard-response","29","222363","0.0-6.0-1.0-2.0-0.10","3","2","3","3","2","3","3","4","4","4","4","4","3","4","3","4","3","3","3","5","2","2","3","2","4","2","3","3","2","0","0","1","0","0","0","0","0","0","1","1","0","0","0","1","2","3","2","3","4","2","3","4","2","2","697447755366268928","罗","271","","","","","","","","","","","","","","","","","","","","","","","","","","","","","","","","","","","","","","","",""
"544","<p style=""color:rgb(150, 250, 100); font-size: 35px;"">我的</p>","e","categorize-html","30","222908","0.0-6.0-1.0-2.0-1.10","3","2","3","3","2","3","3","4","4","4","4","4","3","4","3","4","3","3","3","5","2","2","3","2","4","2","3","3","2","0","0","1","0","0","0","0","0","0","1","1","0","0","0","1","2","3","2","3","4","2","3","4","2","2","697447755366268928","罗","271","","","","","","","","","","","","","","","","","","","true","11","1","moral","544","self","我的","","","","","","","","","","","","","","",""
"null","","null","html-keyboard-response","31","223159","0.0-6.0-1.0-2.0-0.11","3","2","3","3","2","3","3","4","4","4","4","4","3","4","3","4","3","3","3","5","2","2","3","2","4","2","3","3","2","0","0","1","0","0","0","0","0","0","1","1","0","0","0","1","2","3","2","3","4","2","3","4","2","2","697447755366268928","罗","271","","","","","","","","","","","","","","","","","","","","","","","","","","","","","","","","","","","","","","","",""
"522","<p style=""color:rgb(150, 250, 100); font-size: 35px;"">自己</p>","e","categorize-html","32","223682","0.0-6.0-1.0-2.0-1.11","3","2","3","3","2","3","3","4","4","4","4","4","3","4","3","4","3","3","3","5","2","2","3","2","4","2","3","3","2","0","0","1","0","0","0","0","0","0","1","1","0","0","0","1","2","3","2","3","4","2","3","4","2","2","697447755366268928","罗","271","","","","","","","","","","","","","","","","","","","true","11","1","moral","522","self","自己","","","","","","","","","","","","","","",""
"2143","
    <div class=""tag-bottom""><p>
    —— 任务2：对“积极”词和“消极”词分类 ——<p/>   
    <span style=""color:#78DCE8""><b>注意上方，类别标签和需要分类的词语都已经改变</b></span><p/>
    <span style=""color:#FFD866""><b>请根据上方标签的提示，尽可能正确并且快速地做出按键反应</b></span><p/>
    当按键错误时屏幕中会出现<span style=""color:red""> X </span>，需要按另一个键纠正才能继续<br/><p/>
    请把双手食指分别放在键盘的“E”键和“I”键上<p/>
    按<空格键>开始
    </p></div>"," ","html-keyboard-response","33","225826","0.0-6.0-1.0-3.0","3","2","3","3","2","3","3","4","4","4","4","4","3","4","3","4","3","3","3","5","2","2","3","2","4","2","3","3","2","0","0","1","0","0","0","0","0","0","1","1","0","0","0","1","2","3","2","3","4","2","3","4","2","2","697447755366268928","罗","271","","","","","","","","","","","","","","","","","","","","","","","","","","","","","","","","","","","","","","","",""
"null","","null","html-keyboard-response","34","226078","0.0-6.0-1.0-4.0-0.0","3","2","3","3","2","3","3","4","4","4","4","4","3","4","3","4","3","3","3","5","2","2","3","2","4","2","3","3","2","0","0","1","0","0","0","0","0","0","1","1","0","0","0","1","2","3","2","3","4","2","3","4","2","2","697447755366268928","罗","271","","","","","","","","","","","","","","","","","","","","","","","","","","","","","","","","","","","","","","","",""
"576","<p style=""color:white; font-size: 35px;"">缺德</p>","i","categorize-html","35","226655","0.0-6.0-1.0-4.0-1.0","3","2","3","3","2","3","3","4","4","4","4","4","3","4","3","4","3","3","3","5","2","2","3","2","4","2","3","3","2","0","0","1","0","0","0","0","0","0","1","1","0","0","0","1","2","3","2","3","4","2","3","4","2","2","697447755366268928","罗","271","","","","","","","","","","","","","","","","","","","true","12","2","moral","576","negative","缺德","","","","","","","","","","","","","","",""
"null","","null","html-keyboard-response","36","226906","0.0-6.0-1.0-4.0-0.1","3","2","3","3","2","3","3","4","4","4","4","4","3","4","3","4","3","3","3","5","2","2","3","2","4","2","3","3","2","0","0","1","0","0","0","0","0","0","1","1","0","0","0","1","2","3","2","3","4","2","3","4","2","2","697447755366268928","罗","271","","","","","","","","","","","","","","","","","","","","","","","","","","","","","","","","","","","","","","","",""
"633","<p style=""color:white; font-size: 35px;"">不仁</p>","i","categorize-html","37","227540","0.0-6.0-1.0-4.0-1.1","3","2","3","3","2","3","3","4","4","4","4","4","3","4","3","4","3","3","3","5","2","2","3","2","4","2","3","3","2","0","0","1","0","0","0","0","0","0","1","1","0","0","0","1","2","3","2","3","4","2","3","4","2","2","697447755366268928","罗","271","","","","","","","","","","","","","","","","","","","true","12","2","moral","633","negative","不仁","","","","","","","","","","","","","","",""
"null","","null","html-keyboard-response","38","227792","0.0-6.0-1.0-4.0-0.2","3","2","3","3","2","3","3","4","4","4","4","4","3","4","3","4","3","3","3","5","2","2","3","2","4","2","3","3","2","0","0","1","0","0","0","0","0","0","1","1","0","0","0","1","2","3","2","3","4","2","3","4","2","2","697447755366268928","罗","271","","","","","","","","","","","","","","","","","","","","","","","","","","","","","","","","","","","","","","","",""
"542","<p style=""color:white; font-size: 35px;"">诚信</p>","e","categorize-html","39","228334","0.0-6.0-1.0-4.0-1.2","3","2","3","3","2","3","3","4","4","4","4","4","3","4","3","4","3","3","3","5","2","2","3","2","4","2","3","3","2","0","0","1","0","0","0","0","0","0","1","1","0","0","0","1","2","3","2","3","4","2","3","4","2","2","697447755366268928","罗","271","","","","","","","","","","","","","","","","","","","true","12","2","moral","542","positive","诚信","","","","","","","","","","","","","","",""
"null","","null","html-keyboard-response","40","228585","0.0-6.0-1.0-4.0-0.3","3","2","3","3","2","3","3","4","4","4","4","4","3","4","3","4","3","3","3","5","2","2","3","2","4","2","3","3","2","0","0","1","0","0","0","0","0","0","1","1","0","0","0","1","2","3","2","3","4","2","3","4","2","2","697447755366268928","罗","271","","","","","","","","","","","","","","","","","","","","","","","","","","","","","","","","","","","","","","","",""
"545","<p style=""color:white; font-size: 35px;"">小人</p>","i","categorize-html","41","229131","0.0-6.0-1.0-4.0-1.3","3","2","3","3","2","3","3","4","4","4","4","4","3","4","3","4","3","3","3","5","2","2","3","2","4","2","3","3","2","0","0","1","0","0","0","0","0","0","1","1","0","0","0","1","2","3","2","3","4","2","3","4","2","2","697447755366268928","罗","271","","","","","","","","","","","","","","","","","","","true","12","2","moral","545","negative","小人","","","","","","","","","","","","","","",""
"null","","null","html-keyboard-response","42","229382","0.0-6.0-1.0-4.0-0.4","3","2","3","3","2","3","3","4","4","4","4","4","3","4","3","4","3","3","3","5","2","2","3","2","4","2","3","3","2","0","0","1","0","0","0","0","0","0","1","1","0","0","0","1","2","3","2","3","4","2","3","4","2","2","697447755366268928","罗","271","","","","","","","","","","","","","","","","","","","","","","","","","","","","","","","","","","","","","","","",""
"609","<p style=""color:white; font-size: 35px;"">高尚</p>","e","categorize-html","43","229993","0.0-6.0-1.0-4.0-1.4","3","2","3","3","2","3","3","4","4","4","4","4","3","4","3","4","3","3","3","5","2","2","3","2","4","2","3","3","2","0","0","1","0","0","0","0","0","0","1","1","0","0","0","1","2","3","2","3","4","2","3","4","2","2","697447755366268928","罗","271","","","","","","","","","","","","","","","","","","","true","12","2","moral","609","positive","高尚","","","","","","","","","","","","","","",""
"null","","null","html-keyboard-response","44","230243","0.0-6.0-1.0-4.0-0.5","3","2","3","3","2","3","3","4","4","4","4","4","3","4","3","4","3","3","3","5","2","2","3","2","4","2","3","3","2","0","0","1","0","0","0","0","0","0","1","1","0","0","0","1","2","3","2","3","4","2","3","4","2","2","697447755366268928","罗","271","","","","","","","","","","","","","","","","","","","","","","","","","","","","","","","","","","","","","","","",""
"601","<p style=""color:white; font-size: 35px;"">廉正</p>","e","categorize-html","45","230844","0.0-6.0-1.0-4.0-1.5","3","2","3","3","2","3","3","4","4","4","4","4","3","4","3","4","3","3","3","5","2","2","3","2","4","2","3","3","2","0","0","1","0","0","0","0","0","0","1","1","0","0","0","1","2","3","2","3","4","2","3","4","2","2","697447755366268928","罗","271","","","","","","","","","","","","","","","","","","","true","12","2","moral","601","positive","廉正","","","","","","","","","","","","","","",""
"null","","null","html-keyboard-response","46","231095","0.0-6.0-1.0-4.0-0.6","3","2","3","3","2","3","3","4","4","4","4","4","3","4","3","4","3","3","3","5","2","2","3","2","4","2","3","3","2","0","0","1","0","0","0","0","0","0","1","1","0","0","0","1","2","3","2","3","4","2","3","4","2","2","697447755366268928","罗","271","","","","","","","","","","","","","","","","","","","","","","","","","","","","","","","","","","","","","","","",""
"544","<p style=""color:white; font-size: 35px;"">不孝</p>","i","categorize-html","47","231640","0.0-6.0-1.0-4.0-1.6","3","2","3","3","2","3","3","4","4","4","4","4","3","4","3","4","3","3","3","5","2","2","3","2","4","2","3","3","2","0","0","1","0","0","0","0","0","0","1","1","0","0","0","1","2","3","2","3","4","2","3","4","2","2","697447755366268928","罗","271","","","","","","","","","","","","","","","","","","","true","12","2","moral","544","negative","不孝","","","","","","","","","","","","","","",""
"null","","null","html-keyboard-response","48","231891","0.0-6.0-1.0-4.0-0.7","3","2","3","3","2","3","3","4","4","4","4","4","3","4","3","4","3","3","3","5","2","2","3","2","4","2","3","3","2","0","0","1","0","0","0","0","0","0","1","1","0","0","0","1","2","3","2","3","4","2","3","4","2","2","697447755366268928","罗","271","","","","","","","","","","","","","","","","","","","","","","","","","","","","","","","","","","","","","","","",""
"588","<p style=""color:white; font-size: 35px;"">黑心</p>","i","categorize-html","49","232479","0.0-6.0-1.0-4.0-1.7","3","2","3","3","2","3","3","4","4","4","4","4","3","4","3","4","3","3","3","5","2","2","3","2","4","2","3","3","2","0","0","1","0","0","0","0","0","0","1","1","0","0","0","1","2","3","2","3","4","2","3","4","2","2","697447755366268928","罗","271","","","","","","","","","","","","","","","","","","","true","12","2","moral","588","negative","黑心","","","","","","","","","","","","","","",""
"null","","null","html-keyboard-response","50","232730","0.0-6.0-1.0-4.0-0.8","3","2","3","3","2","3","3","4","4","4","4","4","3","4","3","4","3","3","3","5","2","2","3","2","4","2","3","3","2","0","0","1","0","0","0","0","0","0","1","1","0","0","0","1","2","3","2","3","4","2","3","4","2","2","697447755366268928","罗","271","","","","","","","","","","","","","","","","","","","","","","","","","","","","","","","","","","","","","","","",""
"566","<p style=""color:white; font-size: 35px;"">卑鄙</p>","i","categorize-html","51","233298","0.0-6.0-1.0-4.0-1.8","3","2","3","3","2","3","3","4","4","4","4","4","3","4","3","4","3","3","3","5","2","2","3","2","4","2","3","3","2","0","0","1","0","0","0","0","0","0","1","1","0","0","0","1","2","3","2","3","4","2","3","4","2","2","697447755366268928","罗","271","","","","","","","","","","","","","","","","","","","true","12","2","moral","566","negative","卑鄙","","","","","","","","","","","","","","",""
"null","","null","html-keyboard-response","52","233549","0.0-6.0-1.0-4.0-0.9","3","2","3","3","2","3","3","4","4","4","4","4","3","4","3","4","3","3","3","5","2","2","3","2","4","2","3","3","2","0","0","1","0","0","0","0","0","0","1","1","0","0","0","1","2","3","2","3","4","2","3","4","2","2","697447755366268928","罗","271","","","","","","","","","","","","","","","","","","","","","","","","","","","","","","","","","","","","","","","",""
"555","<p style=""color:white; font-size: 35px;"">正直</p>","e","categorize-html","53","234105","0.0-6.0-1.0-4.0-1.9","3","2","3","3","2","3","3","4","4","4","4","4","3","4","3","4","3","3","3","5","2","2","3","2","4","2","3","3","2","0","0","1","0","0","0","0","0","0","1","1","0","0","0","1","2","3","2","3","4","2","3","4","2","2","697447755366268928","罗","271","","","","","","","","","","","","","","","","","","","true","12","2","moral","555","positive","正直","","","","","","","","","","","","","","",""
"null","","null","html-keyboard-response","54","234356","0.0-6.0-1.0-4.0-0.10","3","2","3","3","2","3","3","4","4","4","4","4","3","4","3","4","3","3","3","5","2","2","3","2","4","2","3","3","2","0","0","1","0","0","0","0","0","0","1","1","0","0","0","1","2","3","2","3","4","2","3","4","2","2","697447755366268928","罗","271","","","","","","","","","","","","","","","","","","","","","","","","","","","","","","","","","","","","","","","",""
"599","<p style=""color:white; font-size: 35px;"">善良</p>","e","categorize-html","55","234956","0.0-6.0-1.0-4.0-1.10","3","2","3","3","2","3","3","4","4","4","4","4","3","4","3","4","3","3","3","5","2","2","3","2","4","2","3","3","2","0","0","1","0","0","0","0","0","0","1","1","0","0","0","1","2","3","2","3","4","2","3","4","2","2","697447755366268928","罗","271","","","","","","","","","","","","","","","","","","","true","12","2","moral","599","positive","善良","","","","","","","","","","","","","","",""
"null","","null","html-keyboard-response","56","235207","0.0-6.0-1.0-4.0-0.11","3","2","3","3","2","3","3","4","4","4","4","4","3","4","3","4","3","3","3","5","2","2","3","2","4","2","3","3","2","0","0","1","0","0","0","0","0","0","1","1","0","0","0","1","2","3","2","3","4","2","3","4","2","2","697447755366268928","罗","271","","","","","","","","","","","","","","","","","","","","","","","","","","","","","","","","","","","","","","","",""
"554","<p style=""color:white; font-size: 35px;"">君子</p>","e","categorize-html","57","235763","0.0-6.0-1.0-4.0-1.11","3","2","3","3","2","3","3","4","4","4","4","4","3","4","3","4","3","3","3","5","2","2","3","2","4","2","3","3","2","0","0","1","0","0","0","0","0","0","1","1","0","0","0","1","2","3","2","3","4","2","3","4","2","2","697447755366268928","罗","271","","","","","","","","","","","","","","","","","","","true","12","2","moral","554","positive","君子","","","","","","","","","","","","","","",""
"6178","
    <div class=""tag-bottom""><p>
    —— 任务3：对“自我/积极”词和“他人/消极”词分类 ——<p/>
    <span style=""color:#78DCE8""><b>注意上方，之前的四类词语将混合在一起交替呈现</b></span><p/>
    <span style=""color:#FFD866""><b>请根据上方标签的提示，尽可能正确并且快速地做出按键反应</b></span><p/>
    当按键错误时屏幕中会出现<span style=""color:red""> X </span>，需要按另一个键纠正才能继续<br/><p/>
    请把双手食指分别放在键盘的“E”键和“I”键上<p/>
    按<空格键>开始
    </p></div>"," ","html-keyboard-response","58","241941","0.0-6.0-1.0-5.0","3","2","3","3","2","3","3","4","4","4","4","4","3","4","3","4","3","3","3","5","2","2","3","2","4","2","3","3","2","0","0","1","0","0","0","0","0","0","1","1","0","0","0","1","2","3","2","3","4","2","3","4","2","2","697447755366268928","罗","271","","","","","","","","","","","","","","","","","","","","","","","","","","","","","","","","","","","","","","","",""
"null","","null","html-keyboard-response","59","242193","0.0-6.0-1.0-6.0-0.0","3","2","3","3","2","3","3","4","4","4","4","4","3","4","3","4","3","3","3","5","2","2","3","2","4","2","3","3","2","0","0","1","0","0","0","0","0","0","1","1","0","0","0","1","2","3","2","3","4","2","3","4","2","2","697447755366268928","罗","271","","","","","","","","","","","","","","","","","","","","","","","","","","","","","","","","","","","","","","","",""
"555","<p style=""color:rgb(150, 250, 100); font-size: 35px;"">自己</p>","e","categorize-html","60","242749","0.0-6.0-1.0-6.0-1.0","3","2","3","3","2","3","3","4","4","4","4","4","3","4","3","4","3","3","3","5","2","2","3","2","4","2","3","3","2","0","0","1","0","0","0","0","0","0","1","1","0","0","0","1","2","3","2","3","4","2","3","4","2","2","697447755366268928","罗","271","","","","","","","","","","","","","","","","","","","true","13","3","moral","555","self","自己","","","","","","","","","","","","","","",""
"null","","null","html-keyboard-response","61","243001","0.0-6.0-1.0-6.0-0.1","3","2","3","3","2","3","3","4","4","4","4","4","3","4","3","4","3","3","3","5","2","2","3","2","4","2","3","3","2","0","0","1","0","0","0","0","0","0","1","1","0","0","0","1","2","3","2","3","4","2","3","4","2","2","697447755366268928","罗","271","","","","","","","","","","","","","","","","","","","","","","","","","","","","","","","","","","","","","","","",""
"587","<p style=""color:white; font-size: 35px;"">不孝</p>","i","categorize-html","62","243589","0.0-6.0-1.0-6.0-1.1","3","2","3","3","2","3","3","4","4","4","4","4","3","4","3","4","3","3","3","5","2","2","3","2","4","2","3","3","2","0","0","1","0","0","0","0","0","0","1","1","0","0","0","1","2","3","2","3","4","2","3","4","2","2","697447755366268928","罗","271","","","","","","","","","","","","","","","","","","","true","13","3","moral","587","negative","不孝","","","","","","","","","","","","","","",""
"null","","null","html-keyboard-response","63","243840","0.0-6.0-1.0-6.0-0.2","3","2","3","3","2","3","3","4","4","4","4","4","3","4","3","4","3","3","3","5","2","2","3","2","4","2","3","3","2","0","0","1","0","0","0","0","0","0","1","1","0","0","0","1","2","3","2","3","4","2","3","4","2","2","697447755366268928","罗","271","","","","","","","","","","","","","","","","","","","","","","","","","","","","","","","","","","","","","","","",""
"622","<p style=""color:rgb(150, 250, 100); font-size: 35px;"">他的</p>","i","categorize-html","64","244463","0.0-6.0-1.0-6.0-1.2","3","2","3","3","2","3","3","4","4","4","4","4","3","4","3","4","3","3","3","5","2","2","3","2","4","2","3","3","2","0","0","1","0","0","0","0","0","0","1","1","0","0","0","1","2","3","2","3","4","2","3","4","2","2","697447755366268928","罗","271","","","","","","","","","","","","","","","","","","","true","13","3","moral","622","other","他的","","","","","","","","","","","","","","",""
"null","","null","html-keyboard-response","65","244715","0.0-6.0-1.0-6.0-0.3","3","2","3","3","2","3","3","4","4","4","4","4","3","4","3","4","3","3","3","5","2","2","3","2","4","2","3","3","2","0","0","1","0","0","0","0","0","0","1","1","0","0","0","1","2","3","2","3","4","2","3","4","2","2","697447755366268928","罗","271","","","","","","","","","","","","","","","","","","","","","","","","","","","","","","","","","","","","","","","",""
"697","<p style=""color:white; font-size: 35px;"">正直</p>","e","categorize-html","66","245413","0.0-6.0-1.0-6.0-1.3","3","2","3","3","2","3","3","4","4","4","4","4","3","4","3","4","3","3","3","5","2","2","3","2","4","2","3","3","2","0","0","1","0","0","0","0","0","0","1","1","0","0","0","1","2","3","2","3","4","2","3","4","2","2","697447755366268928","罗","271","","","","","","","","","","","","","","","","","","","true","13","3","moral","697","positive","正直","","","","","","","","","","","","","","",""
"null","","null","html-keyboard-response","67","245664","0.0-6.0-1.0-6.0-0.4","3","2","3","3","2","3","3","4","4","4","4","4","3","4","3","4","3","3","3","5","2","2","3","2","4","2","3","3","2","0","0","1","0","0","0","0","0","0","1","1","0","0","0","1","2","3","2","3","4","2","3","4","2","2","697447755366268928","罗","271","","","","","","","","","","","","","","","","","","","","","","","","","","","","","","","","","","","","","","","",""
"598","<p style=""color:rgb(150, 250, 100); font-size: 35px;"">本人</p>","e","categorize-html","68","246264","0.0-6.0-1.0-6.0-1.4","3","2","3","3","2","3","3","4","4","4","4","4","3","4","3","4","3","3","3","5","2","2","3","2","4","2","3","3","2","0","0","1","0","0","0","0","0","0","1","1","0","0","0","1","2","3","2","3","4","2","3","4","2","2","697447755366268928","罗","271","","","","","","","","","","","","","","","","","","","true","13","3","moral","598","self","本人","","","","","","","","","","","","","","",""
"null","","null","html-keyboard-response","69","246515","0.0-6.0-1.0-6.0-0.5","3","2","3","3","2","3","3","4","4","4","4","4","3","4","3","4","3","3","3","5","2","2","3","2","4","2","3","3","2","0","0","1","0","0","0","0","0","0","1","1","0","0","0","1","2","3","2","3","4","2","3","4","2","2","697447755366268928","罗","271","","","","","","","","","","","","","","","","","","","","","","","","","","","","","","","","","","","","","","","",""
"644","<p style=""color:white; font-size: 35px;"">不仁</p>","i","categorize-html","70","247160","0.0-6.0-1.0-6.0-1.5","3","2","3","3","2","3","3","4","4","4","4","4","3","4","3","4","3","3","3","5","2","2","3","2","4","2","3","3","2","0","0","1","0","0","0","0","0","0","1","1","0","0","0","1","2","3","2","3","4","2","3","4","2","2","697447755366268928","罗","271","","","","","","","","","","","","","","","","","","","true","13","3","moral","644","negative","不仁","","","","","","","","","","","","","","",""
"null","","null","html-keyboard-response","71","247412","0.0-6.0-1.0-6.0-0.6","3","2","3","3","2","3","3","4","4","4","4","4","3","4","3","4","3","3","3","5","2","2","3","2","4","2","3","3","2","0","0","1","0","0","0","0","0","0","1","1","0","0","0","1","2","3","2","3","4","2","3","4","2","2","697447755366268928","罗","271","","","","","","","","","","","","","","","","","","","","","","","","","","","","","","","","","","","","","","","",""
"642","<p style=""color:rgb(150, 250, 100); font-size: 35px;"">他</p>","i","categorize-html","72","248055","0.0-6.0-1.0-6.0-1.6","3","2","3","3","2","3","3","4","4","4","4","4","3","4","3","4","3","3","3","5","2","2","3","2","4","2","3","3","2","0","0","1","0","0","0","0","0","0","1","1","0","0","0","1","2","3","2","3","4","2","3","4","2","2","697447755366268928","罗","271","","","","","","","","","","","","","","","","","","","true","13","3","moral","642","other","他","","","","","","","","","","","","","","",""
"null","","null","html-keyboard-response","73","248306","0.0-6.0-1.0-6.0-0.7","3","2","3","3","2","3","3","4","4","4","4","4","3","4","3","4","3","3","3","5","2","2","3","2","4","2","3","3","2","0","0","1","0","0","0","0","0","0","1","1","0","0","0","1","2","3","2","3","4","2","3","4","2","2","697447755366268928","罗","271","","","","","","","","","","","","","","","","","","","","","","","","","","","","","","","","","","","","","","","",""
"698","<p style=""color:white; font-size: 35px;"">诚信</p>","e","categorize-html","74","249005","0.0-6.0-1.0-6.0-1.7","3","2","3","3","2","3","3","4","4","4","4","4","3","4","3","4","3","3","3","5","2","2","3","2","4","2","3","3","2","0","0","1","0","0","0","0","0","0","1","1","0","0","0","1","2","3","2","3","4","2","3","4","2","2","697447755366268928","罗","271","","","","","","","","","","","","","","","","","","","true","13","3","moral","698","positive","诚信","","","","","","","","","","","","","","",""
"null","","null","html-keyboard-response","75","249257","0.0-6.0-1.0-6.0-0.8","3","2","3","3","2","3","3","4","4","4","4","4","3","4","3","4","3","3","3","5","2","2","3","2","4","2","3","3","2","0","0","1","0","0","0","0","0","0","1","1","0","0","0","1","2","3","2","3","4","2","3","4","2","2","697447755366268928","罗","271","","","","","","","","","","","","","","","","","","","","","","","","","","","","","","","","","","","","","","","",""
"565","<p style=""color:rgb(150, 250, 100); font-size: 35px;"">自己的</p>","e","categorize-html","76","249823","0.0-6.0-1.0-6.0-1.8","3","2","3","3","2","3","3","4","4","4","4","4","3","4","3","4","3","3","3","5","2","2","3","2","4","2","3","3","2","0","0","1","0","0","0","0","0","0","1","1","0","0","0","1","2","3","2","3","4","2","3","4","2","2","697447755366268928","罗","271","","","","","","","","","","","","","","","","","","","true","13","3","moral","565","self","自己的","","","","","","","","","","","","","","",""
"null","","null","html-keyboard-response","77","250074","0.0-6.0-1.0-6.0-0.9","3","2","3","3","2","3","3","4","4","4","4","4","3","4","3","4","3","3","3","5","2","2","3","2","4","2","3","3","2","0","0","1","0","0","0","0","0","0","1","1","0","0","0","1","2","3","2","3","4","2","3","4","2","2","697447755366268928","罗","271","","","","","","","","","","","","","","","","","","","","","","","","","","","","","","","","","","","","","","","",""
"621","<p style=""color:white; font-size: 35px;"">卑鄙</p>","i","categorize-html","78","250697","0.0-6.0-1.0-6.0-1.9","3","2","3","3","2","3","3","4","4","4","4","4","3","4","3","4","3","3","3","5","2","2","3","2","4","2","3","3","2","0","0","1","0","0","0","0","0","0","1","1","0","0","0","1","2","3","2","3","4","2","3","4","2","2","697447755366268928","罗","271","","","","","","","","","","","","","","","","","","","true","13","3","moral","621","negative","卑鄙","","","","","","","","","","","","","","",""
"null","","null","html-keyboard-response","79","250948","0.0-6.0-1.0-6.0-0.10","3","2","3","3","2","3","3","4","4","4","4","4","3","4","3","4","3","3","3","5","2","2","3","2","4","2","3","3","2","0","0","1","0","0","0","0","0","0","1","1","0","0","0","1","2","3","2","3","4","2","3","4","2","2","697447755366268928","罗","271","","","","","","","","","","","","","","","","","","","","","","","","","","","","","","","","","","","","","","","",""
"975","<p style=""color:rgb(150, 250, 100); font-size: 35px;"">别人</p>","i","categorize-html","80","251924","0.0-6.0-1.0-6.0-1.10","3","2","3","3","2","3","3","4","4","4","4","4","3","4","3","4","3","3","3","5","2","2","3","2","4","2","3","3","2","0","0","1","0","0","0","0","0","0","1","1","0","0","0","1","2","3","2","3","4","2","3","4","2","2","697447755366268928","罗","271","","","","","","","","","","","","","","","","","","","true","13","3","moral","975","other","别人","","","","","","","","","","","","","","",""
"null","","null","html-keyboard-response","81","252175","0.0-6.0-1.0-6.0-0.11","3","2","3","3","2","3","3","4","4","4","4","4","3","4","3","4","3","3","3","5","2","2","3","2","4","2","3","3","2","0","0","1","0","0","0","0","0","0","1","1","0","0","0","1","2","3","2","3","4","2","3","4","2","2","697447755366268928","罗","271","","","","","","","","","","","","","","","","","","","","","","","","","","","","","","","","","","","","","","","",""
"576","<p style=""color:white; font-size: 35px;"">君子</p>","e","categorize-html","82","252753","0.0-6.0-1.0-6.0-1.11","3","2","3","3","2","3","3","4","4","4","4","4","3","4","3","4","3","3","3","5","2","2","3","2","4","2","3","3","2","0","0","1","0","0","0","0","0","0","1","1","0","0","0","1","2","3","2","3","4","2","3","4","2","2","697447755366268928","罗","271","","","","","","","","","","","","","","","","","","","true","13","3","moral","576","positive","君子","","","","","","","","","","","","","","",""
"null","","null","html-keyboard-response","83","253004","0.0-6.0-1.0-6.0-0.12","3","2","3","3","2","3","3","4","4","4","4","4","3","4","3","4","3","3","3","5","2","2","3","2","4","2","3","3","2","0","0","1","0","0","0","0","0","0","1","1","0","0","0","1","2","3","2","3","4","2","3","4","2","2","697447755366268928","罗","271","","","","","","","","","","","","","","","","","","","","","","","","","","","","","","","","","","","","","","","",""
"907","<p style=""color:rgb(150, 250, 100); font-size: 35px;"">他人</p>","i","categorize-html","84","253914","0.0-6.0-1.0-6.0-1.12","3","2","3","3","2","3","3","4","4","4","4","4","3","4","3","4","3","3","3","5","2","2","3","2","4","2","3","3","2","0","0","1","0","0","0","0","0","0","1","1","0","0","0","1","2","3","2","3","4","2","3","4","2","2","697447755366268928","罗","271","","","","","","","","","","","","","","","","","","","true","13","3","moral","907","other","他人","","","","","","","","","","","","","","",""
"null","","null","html-keyboard-response","85","254165","0.0-6.0-1.0-6.0-0.13","3","2","3","3","2","3","3","4","4","4","4","4","3","4","3","4","3","3","3","5","2","2","3","2","4","2","3","3","2","0","0","1","0","0","0","0","0","0","1","1","0","0","0","1","2","3","2","3","4","2","3","4","2","2","697447755366268928","罗","271","","","","","","","","","","","","","","","","","","","","","","","","","","","","","","","","","","","","","","","",""
"743","<p style=""color:white; font-size: 35px;"">廉正</p>","e","categorize-html","86","254909","0.0-6.0-1.0-6.0-1.13","3","2","3","3","2","3","3","4","4","4","4","4","3","4","3","4","3","3","3","5","2","2","3","2","4","2","3","3","2","0","0","1","0","0","0","0","0","0","1","1","0","0","0","1","2","3","2","3","4","2","3","4","2","2","697447755366268928","罗","271","","","","","","","","","","","","","","","","","","","true","13","3","moral","743","positive","廉正","","","","","","","","","","","","","","",""
"null","","null","html-keyboard-response","87","255160","0.0-6.0-1.0-6.0-0.14","3","2","3","3","2","3","3","4","4","4","4","4","3","4","3","4","3","3","3","5","2","2","3","2","4","2","3","3","2","0","0","1","0","0","0","0","0","0","1","1","0","0","0","1","2","3","2","3","4","2","3","4","2","2","697447755366268928","罗","271","","","","","","","","","","","","","","","","","","","","","","","","","","","","","","","","","","","","","","","",""
"687","<p style=""color:rgb(150, 250, 100); font-size: 35px;"">我的</p>","e","categorize-html","88","255848","0.0-6.0-1.0-6.0-1.14","3","2","3","3","2","3","3","4","4","4","4","4","3","4","3","4","3","3","3","5","2","2","3","2","4","2","3","3","2","0","0","1","0","0","0","0","0","0","1","1","0","0","0","1","2","3","2","3","4","2","3","4","2","2","697447755366268928","罗","271","","","","","","","","","","","","","","","","","","","true","13","3","moral","687","self","我的","","","","","","","","","","","","","","",""
"null","","null","html-keyboard-response","89","256100","0.0-6.0-1.0-6.0-0.15","3","2","3","3","2","3","3","4","4","4","4","4","3","4","3","4","3","3","3","5","2","2","3","2","4","2","3","3","2","0","0","1","0","0","0","0","0","0","1","1","0","0","0","1","2","3","2","3","4","2","3","4","2","2","697447755366268928","罗","271","","","","","","","","","","","","","","","","","","","","","","","","","","","","","","","","","","","","","","","",""
"631","<p style=""color:white; font-size: 35px;"">小人</p>","i","categorize-html","90","256732","0.0-6.0-1.0-6.0-1.15","3","2","3","3","2","3","3","4","4","4","4","4","3","4","3","4","3","3","3","5","2","2","3","2","4","2","3","3","2","0","0","1","0","0","0","0","0","0","1","1","0","0","0","1","2","3","2","3","4","2","3","4","2","2","697447755366268928","罗","271","","","","","","","","","","","","","","","","","","","true","13","3","moral","631","negative","小人","","","","","","","","","","","","","","",""
"null","","null","html-keyboard-response","91","256983","0.0-6.0-1.0-6.0-0.16","3","2","3","3","2","3","3","4","4","4","4","4","3","4","3","4","3","3","3","5","2","2","3","2","4","2","3","3","2","0","0","1","0","0","0","0","0","0","1","1","0","0","0","1","2","3","2","3","4","2","3","4","2","2","697447755366268928","罗","271","","","","","","","","","","","","","","","","","","","","","","","","","","","","","","","","","","","","","","","",""
"565","<p style=""color:rgb(150, 250, 100); font-size: 35px;"">我</p>","e","categorize-html","92","257550","0.0-6.0-1.0-6.0-1.16","3","2","3","3","2","3","3","4","4","4","4","4","3","4","3","4","3","3","3","5","2","2","3","2","4","2","3","3","2","0","0","1","0","0","0","0","0","0","1","1","0","0","0","1","2","3","2","3","4","2","3","4","2","2","697447755366268928","罗","271","","","","","","","","","","","","","","","","","","","true","13","3","moral","565","self","我","","","","","","","","","","","","","","",""
"null","","null","html-keyboard-response","93","257801","0.0-6.0-1.0-6.0-0.17","3","2","3","3","2","3","3","4","4","4","4","4","3","4","3","4","3","3","3","5","2","2","3","2","4","2","3","3","2","0","0","1","0","0","0","0","0","0","1","1","0","0","0","1","2","3","2","3","4","2","3","4","2","2","697447755366268928","罗","271","","","","","","","","","","","","","","","","","","","","","","","","","","","","","","","","","","","","","","","",""
"654","<p style=""color:white; font-size: 35px;"">黑心</p>","i","categorize-html","94","258456","0.0-6.0-1.0-6.0-1.17","3","2","3","3","2","3","3","4","4","4","4","4","3","4","3","4","3","3","3","5","2","2","3","2","4","2","3","3","2","0","0","1","0","0","0","0","0","0","1","1","0","0","0","1","2","3","2","3","4","2","3","4","2","2","697447755366268928","罗","271","","","","","","","","","","","","","","","","","","","true","13","3","moral","654","negative","黑心","","","","","","","","","","","","","","",""
"null","","null","html-keyboard-response","95","258708","0.0-6.0-1.0-6.0-0.18","3","2","3","3","2","3","3","4","4","4","4","4","3","4","3","4","3","3","3","5","2","2","3","2","4","2","3","3","2","0","0","1","0","0","0","0","0","0","1","1","0","0","0","1","2","3","2","3","4","2","3","4","2","2","697447755366268928","罗","271","","","","","","","","","","","","","","","","","","","","","","","","","","","","","","","","","","","","","","","",""
"796","<p style=""color:rgb(150, 250, 100); font-size: 35px;"">别人的</p>","i","categorize-html","96","259506","0.0-6.0-1.0-6.0-1.18","3","2","3","3","2","3","3","4","4","4","4","4","3","4","3","4","3","3","3","5","2","2","3","2","4","2","3","3","2","0","0","1","0","0","0","0","0","0","1","1","0","0","0","1","2","3","2","3","4","2","3","4","2","2","697447755366268928","罗","271","","","","","","","","","","","","","","","","","","","true","13","3","moral","796","other","别人的","","","","","","","","","","","","","","",""
"null","","null","html-keyboard-response","97","259758","0.0-6.0-1.0-6.0-0.19","3","2","3","3","2","3","3","4","4","4","4","4","3","4","3","4","3","3","3","5","2","2","3","2","4","2","3","3","2","0","0","1","0","0","0","0","0","0","1","1","0","0","0","1","2","3","2","3","4","2","3","4","2","2","697447755366268928","罗","271","","","","","","","","","","","","","","","","","","","","","","","","","","","","","","","","","","","","","","","",""
"698","<p style=""color:white; font-size: 35px;"">善良</p>","e","categorize-html","98","260457","0.0-6.0-1.0-6.0-1.19","3","2","3","3","2","3","3","4","4","4","4","4","3","4","3","4","3","3","3","5","2","2","3","2","4","2","3","3","2","0","0","1","0","0","0","0","0","0","1","1","0","0","0","1","2","3","2","3","4","2","3","4","2","2","697447755366268928","罗","271","","","","","","","","","","","","","","","","","","","true","13","3","moral","698","positive","善良","","","","","","","","","","","","","","",""
"null","","null","html-keyboard-response","99","260708","0.0-6.0-1.0-6.0-0.20","3","2","3","3","2","3","3","4","4","4","4","4","3","4","3","4","3","3","3","5","2","2","3","2","4","2","3","3","2","0","0","1","0","0","0","0","0","0","1","1","0","0","0","1","2","3","2","3","4","2","3","4","2","2","697447755366268928","罗","271","","","","","","","","","","","","","","","","","","","","","","","","","","","","","","","","","","","","","","","",""
"631","<p style=""color:rgb(150, 250, 100); font-size: 35px;"">他人的</p>","i","categorize-html","100","261341","0.0-6.0-1.0-6.0-1.20","3","2","3","3","2","3","3","4","4","4","4","4","3","4","3","4","3","3","3","5","2","2","3","2","4","2","3","3","2","0","0","1","0","0","0","0","0","0","1","1","0","0","0","1","2","3","2","3","4","2","3","4","2","2","697447755366268928","罗","271","","","","","","","","","","","","","","","","","","","true","13","3","moral","631","other","他人的","","","","","","","","","","","","","","",""
"null","","null","html-keyboard-response","101","261592","0.0-6.0-1.0-6.0-0.21","3","2","3","3","2","3","3","4","4","4","4","4","3","4","3","4","3","3","3","5","2","2","3","2","4","2","3","3","2","0","0","1","0","0","0","0","0","0","1","1","0","0","0","1","2","3","2","3","4","2","3","4","2","2","697447755366268928","罗","271","","","","","","","","","","","","","","","","","","","","","","","","","","","","","","","","","","","","","","","",""
"699","<p style=""color:white; font-size: 35px;"">缺德</p>","i","categorize-html","102","262292","0.0-6.0-1.0-6.0-1.21","3","2","3","3","2","3","3","4","4","4","4","4","3","4","3","4","3","3","3","5","2","2","3","2","4","2","3","3","2","0","0","1","0","0","0","0","0","0","1","1","0","0","0","1","2","3","2","3","4","2","3","4","2","2","697447755366268928","罗","271","","","","","","","","","","","","","","","","","","","true","13","3","moral","699","negative","缺德","","","","","","","","","","","","","","",""
"null","","null","html-keyboard-response","103","262543","0.0-6.0-1.0-6.0-0.22","3","2","3","3","2","3","3","4","4","4","4","4","3","4","3","4","3","3","3","5","2","2","3","2","4","2","3","3","2","0","0","1","0","0","0","0","0","0","1","1","0","0","0","1","2","3","2","3","4","2","3","4","2","2","697447755366268928","罗","271","","","","","","","","","","","","","","","","","","","","","","","","","","","","","","","","","","","","","","","",""
"743","<p style=""color:rgb(150, 250, 100); font-size: 35px;"">本人的</p>","e","categorize-html","104","263287","0.0-6.0-1.0-6.0-1.22","3","2","3","3","2","3","3","4","4","4","4","4","3","4","3","4","3","3","3","5","2","2","3","2","4","2","3","3","2","0","0","1","0","0","0","0","0","0","1","1","0","0","0","1","2","3","2","3","4","2","3","4","2","2","697447755366268928","罗","271","","","","","","","","","","","","","","","","","","","true","13","3","moral","743","self","本人的","","","","","","","","","","","","","","",""
"null","","null","html-keyboard-response","105","263539","0.0-6.0-1.0-6.0-0.23","3","2","3","3","2","3","3","4","4","4","4","4","3","4","3","4","3","3","3","5","2","2","3","2","4","2","3","3","2","0","0","1","0","0","0","0","0","0","1","1","0","0","0","1","2","3","2","3","4","2","3","4","2","2","697447755366268928","罗","271","","","","","","","","","","","","","","","","","","","","","","","","","","","","","","","","","","","","","","","",""
"565","<p style=""color:white; font-size: 35px;"">高尚</p>","e","categorize-html","106","264106","0.0-6.0-1.0-6.0-1.23","3","2","3","3","2","3","3","4","4","4","4","4","3","4","3","4","3","3","3","5","2","2","3","2","4","2","3","3","2","0","0","1","0","0","0","0","0","0","1","1","0","0","0","1","2","3","2","3","4","2","3","4","2","2","697447755366268928","罗","271","","","","","","","","","","","","","","","","","","","true","13","3","moral","565","positive","高尚","","","","","","","","","","","","","","",""
"3624","
    <div class=""tag-bottom""><p>
    —— 任务4：对“自我/积极”词和“他人/消极”词分类 ——<p/>
    <span style=""color:#78DCE8""><b>与刚才的任务完全相同，请再次对这四类词语分类</b></span><p/>
    <span style=""color:#FFD866""><b>请根据上方标签的提示，尽可能正确并且快速地做出按键反应</b></span><p/>
    当按键错误时屏幕中会出现<span style=""color:red""> X </span>，需要按另一个键纠正才能继续<br/><p/>
    请把双手食指分别放在键盘的“E”键和“I”键上<p/>
    按<空格键>开始
    </p></div>"," ","html-keyboard-response","107","267730","0.0-6.0-1.0-7.0","3","2","3","3","2","3","3","4","4","4","4","4","3","4","3","4","3","3","3","5","2","2","3","2","4","2","3","3","2","0","0","1","0","0","0","0","0","0","1","1","0","0","0","1","2","3","2","3","4","2","3","4","2","2","697447755366268928","罗","271","","","","","","","","","","","","","","","","","","","","","","","","","","","","","","","","","","","","","","","",""
"null","","null","html-keyboard-response","108","267980","0.0-6.0-1.0-8.0-0.0","3","2","3","3","2","3","3","4","4","4","4","4","3","4","3","4","3","3","3","5","2","2","3","2","4","2","3","3","2","0","0","1","0","0","0","0","0","0","1","1","0","0","0","1","2","3","2","3","4","2","3","4","2","2","697447755366268928","罗","271","","","","","","","","","","","","","","","","","","","","","","","","","","","","","","","","","","","","","","","",""
"699","<p style=""color:rgb(150, 250, 100); font-size: 35px;"">他人的</p>","i","categorize-html","109","268681","0.0-6.0-1.0-8.0-1.0","3","2","3","3","2","3","3","4","4","4","4","4","3","4","3","4","3","3","3","5","2","2","3","2","4","2","3","3","2","0","0","1","0","0","0","0","0","0","1","1","0","0","0","1","2","3","2","3","4","2","3","4","2","2","697447755366268928","罗","271","","","","","","","","","","","","","","","","","","","true","14","4","moral","699","other","他人的","","","","","","","","","","","","","","",""
"null","","null","html-keyboard-response","110","268932","0.0-6.0-1.0-8.0-0.1","3","2","3","3","2","3","3","4","4","4","4","4","3","4","3","4","3","3","3","5","2","2","3","2","4","2","3","3","2","0","0","1","0","0","0","0","0","0","1","1","0","0","0","1","2","3","2","3","4","2","3","4","2","2","697447755366268928","罗","271","","","","","","","","","","","","","","","","","","","","","","","","","","","","","","","","","","","","","","","",""
"2025","<p style=""color:white; font-size: 35px;"">廉正</p>","e","categorize-html","111","270958","0.0-6.0-1.0-8.0-1.1","3","2","3","3","2","3","3","4","4","4","4","4","3","4","3","4","3","3","3","5","2","2","3","2","4","2","3","3","2","0","0","1","0","0","0","0","0","0","1","1","0","0","0","1","2","3","2","3","4","2","3","4","2","2","697447755366268928","罗","271","","","","","","","","","","","","","","","","","","","true","14","4","moral","2025","positive","廉正","","","","","","","","","","","","","","",""
"null","","null","html-keyboard-response","112","271209","0.0-6.0-1.0-8.0-0.2","3","2","3","3","2","3","3","4","4","4","4","4","3","4","3","4","3","3","3","5","2","2","3","2","4","2","3","3","2","0","0","1","0","0","0","0","0","0","1","1","0","0","0","1","2","3","2","3","4","2","3","4","2","2","697447755366268928","罗","271","","","","","","","","","","","","","","","","","","","","","","","","","","","","","","","","","","","","","","","",""
"643","<p style=""color:rgb(150, 250, 100); font-size: 35px;"">自己的</p>","e","categorize-html","113","271853","0.0-6.0-1.0-8.0-1.2","3","2","3","3","2","3","3","4","4","4","4","4","3","4","3","4","3","3","3","5","2","2","3","2","4","2","3","3","2","0","0","1","0","0","0","0","0","0","1","1","0","0","0","1","2","3","2","3","4","2","3","4","2","2","697447755366268928","罗","271","","","","","","","","","","","","","","","","","","","true","14","4","moral","643","self","自己的","","","","","","","","","","","","","","",""
"null","","null","html-keyboard-response","114","272103","0.0-6.0-1.0-8.0-0.3","3","2","3","3","2","3","3","4","4","4","4","4","3","4","3","4","3","3","3","5","2","2","3","2","4","2","3","3","2","0","0","1","0","0","0","0","0","0","1","1","0","0","0","1","2","3","2","3","4","2","3","4","2","2","697447755366268928","罗","271","","","","","","","","","","","","","","","","","","","","","","","","","","","","","","","","","","","","","","","",""
"588","<p style=""color:white; font-size: 35px;"">黑心</p>","i","categorize-html","115","272693","0.0-6.0-1.0-8.0-1.3","3","2","3","3","2","3","3","4","4","4","4","4","3","4","3","4","3","3","3","5","2","2","3","2","4","2","3","3","2","0","0","1","0","0","0","0","0","0","1","1","0","0","0","1","2","3","2","3","4","2","3","4","2","2","697447755366268928","罗","271","","","","","","","","","","","","","","","","","","","true","14","4","moral","588","negative","黑心","","","","","","","","","","","","","","",""
"null","","null","html-keyboard-response","116","272943","0.0-6.0-1.0-8.0-0.4","3","2","3","3","2","3","3","4","4","4","4","4","3","4","3","4","3","3","3","5","2","2","3","2","4","2","3","3","2","0","0","1","0","0","0","0","0","0","1","1","0","0","0","1","2","3","2","3","4","2","3","4","2","2","697447755366268928","罗","271","","","","","","","","","","","","","","","","","","","","","","","","","","","","","","","","","","","","","","","",""
"688","<p style=""color:rgb(150, 250, 100); font-size: 35px;"">别人</p>","i","categorize-html","117","273633","0.0-6.0-1.0-8.0-1.4","3","2","3","3","2","3","3","4","4","4","4","4","3","4","3","4","3","3","3","5","2","2","3","2","4","2","3","3","2","0","0","1","0","0","0","0","0","0","1","1","0","0","0","1","2","3","2","3","4","2","3","4","2","2","697447755366268928","罗","271","","","","","","","","","","","","","","","","","","","true","14","4","moral","688","other","别人","","","","","","","","","","","","","","",""
"null","","null","html-keyboard-response","118","273884","0.0-6.0-1.0-8.0-0.5","3","2","3","3","2","3","3","4","4","4","4","4","3","4","3","4","3","3","3","5","2","2","3","2","4","2","3","3","2","0","0","1","0","0","0","0","0","0","1","1","0","0","0","1","2","3","2","3","4","2","3","4","2","2","697447755366268928","罗","271","","","","","","","","","","","","","","","","","","","","","","","","","","","","","","","","","","","","","","","",""
"775","<p style=""color:white; font-size: 35px;"">诚信</p>","e","categorize-html","119","274661","0.0-6.0-1.0-8.0-1.5","3","2","3","3","2","3","3","4","4","4","4","4","3","4","3","4","3","3","3","5","2","2","3","2","4","2","3","3","2","0","0","1","0","0","0","0","0","0","1","1","0","0","0","1","2","3","2","3","4","2","3","4","2","2","697447755366268928","罗","271","","","","","","","","","","","","","","","","","","","true","14","4","moral","775","positive","诚信","","","","","","","","","","","","","","",""
"null","","null","html-keyboard-response","120","274912","0.0-6.0-1.0-8.0-0.6","3","2","3","3","2","3","3","4","4","4","4","4","3","4","3","4","3","3","3","5","2","2","3","2","4","2","3","3","2","0","0","1","0","0","0","0","0","0","1","1","0","0","0","1","2","3","2","3","4","2","3","4","2","2","697447755366268928","罗","271","","","","","","","","","","","","","","","","","","","","","","","","","","","","","","","","","","","","","","","",""
"665","<p style=""color:rgb(150, 250, 100); font-size: 35px;"">自己</p>","e","categorize-html","121","275578","0.0-6.0-1.0-8.0-1.6","3","2","3","3","2","3","3","4","4","4","4","4","3","4","3","4","3","3","3","5","2","2","3","2","4","2","3","3","2","0","0","1","0","0","0","0","0","0","1","1","0","0","0","1","2","3","2","3","4","2","3","4","2","2","697447755366268928","罗","271","","","","","","","","","","","","","","","","","","","true","14","4","moral","665","self","自己","","","","","","","","","","","","","","",""
"null","","null","html-keyboard-response","122","275829","0.0-6.0-1.0-8.0-0.7","3","2","3","3","2","3","3","4","4","4","4","4","3","4","3","4","3","3","3","5","2","2","3","2","4","2","3","3","2","0","0","1","0","0","0","0","0","0","1","1","0","0","0","1","2","3","2","3","4","2","3","4","2","2","697447755366268928","罗","271","","","","","","","","","","","","","","","","","","","","","","","","","","","","","","","","","","","","","","","",""
"844","<p style=""color:white; font-size: 35px;"">黑心</p>","i","categorize-html","123","276674","0.0-6.0-1.0-8.0-1.7","3","2","3","3","2","3","3","4","4","4","4","4","3","4","3","4","3","3","3","5","2","2","3","2","4","2","3","3","2","0","0","1","0","0","0","0","0","0","1","1","0","0","0","1","2","3","2","3","4","2","3","4","2","2","697447755366268928","罗","271","","","","","","","","","","","","","","","","","","","true","14","4","moral","844","negative","黑心","","","","","","","","","","","","","","",""
"null","","null","html-keyboard-response","124","276925","0.0-6.0-1.0-8.0-0.8","3","2","3","3","2","3","3","4","4","4","4","4","3","4","3","4","3","3","3","5","2","2","3","2","4","2","3","3","2","0","0","1","0","0","0","0","0","0","1","1","0","0","0","1","2","3","2","3","4","2","3","4","2","2","697447755366268928","罗","271","","","","","","","","","","","","","","","","","","","","","","","","","","","","","","","","","","","","","","","",""
"908","<p style=""color:rgb(150, 250, 100); font-size: 35px;"">他的</p>","i","categorize-html","125","277834","0.0-6.0-1.0-8.0-1.8","3","2","3","3","2","3","3","4","4","4","4","4","3","4","3","4","3","3","3","5","2","2","3","2","4","2","3","3","2","0","0","1","0","0","0","0","0","0","1","1","0","0","0","1","2","3","2","3","4","2","3","4","2","2","697447755366268928","罗","271","","","","","","","","","","","","","","","","","","","true","14","4","moral","908","other","他的","","","","","","","","","","","","","","",""
"null","","null","html-keyboard-response","126","278086","0.0-6.0-1.0-8.0-0.9","3","2","3","3","2","3","3","4","4","4","4","4","3","4","3","4","3","3","3","5","2","2","3","2","4","2","3","3","2","0","0","1","0","0","0","0","0","0","1","1","0","0","0","1","2","3","2","3","4","2","3","4","2","2","697447755366268928","罗","271","","","","","","","","","","","","","","","","","","","","","","","","","","","","","","","","","","","","","","","",""
"596","<p style=""color:white; font-size: 35px;"">缺德</p>","i","categorize-html","127","278684","0.0-6.0-1.0-8.0-1.9","3","2","3","3","2","3","3","4","4","4","4","4","3","4","3","4","3","3","3","5","2","2","3","2","4","2","3","3","2","0","0","1","0","0","0","0","0","0","1","1","0","0","0","1","2","3","2","3","4","2","3","4","2","2","697447755366268928","罗","271","","","","","","","","","","","","","","","","","","","true","14","4","moral","596","negative","缺德","","","","","","","","","","","","","","",""
"null","","null","html-keyboard-response","128","278935","0.0-6.0-1.0-8.0-0.10","3","2","3","3","2","3","3","4","4","4","4","4","3","4","3","4","3","3","3","5","2","2","3","2","4","2","3","3","2","0","0","1","0","0","0","0","0","0","1","1","0","0","0","1","2","3","2","3","4","2","3","4","2","2","697447755366268928","罗","271","","","","","","","","","","","","","","","","","","","","","","","","","","","","","","","","","","","","","","","",""
"665","<p style=""color:rgb(150, 250, 100); font-size: 35px;"">本人的</p>","e","categorize-html","129","279602","0.0-6.0-1.0-8.0-1.10","3","2","3","3","2","3","3","4","4","4","4","4","3","4","3","4","3","3","3","5","2","2","3","2","4","2","3","3","2","0","0","1","0","0","0","0","0","0","1","1","0","0","0","1","2","3","2","3","4","2","3","4","2","2","697447755366268928","罗","271","","","","","","","","","","","","","","","","","","","true","14","4","moral","665","self","本人的","","","","","","","","","","","","","","",""
"null","","null","html-keyboard-response","130","279853","0.0-6.0-1.0-8.0-0.11","3","2","3","3","2","3","3","4","4","4","4","4","3","4","3","4","3","3","3","5","2","2","3","2","4","2","3","3","2","0","0","1","0","0","0","0","0","0","1","1","0","0","0","1","2","3","2","3","4","2","3","4","2","2","697447755366268928","罗","271","","","","","","","","","","","","","","","","","","","","","","","","","","","","","","","","","","","","","","","",""
"576","<p style=""color:white; font-size: 35px;"">君子</p>","e","categorize-html","131","280431","0.0-6.0-1.0-8.0-1.11","3","2","3","3","2","3","3","4","4","4","4","4","3","4","3","4","3","3","3","5","2","2","3","2","4","2","3","3","2","0","0","1","0","0","0","0","0","0","1","1","0","0","0","1","2","3","2","3","4","2","3","4","2","2","697447755366268928","罗","271","","","","","","","","","","","","","","","","","","","true","14","4","moral","576","positive","君子","","","","","","","","","","","","","","",""
"null","","null","html-keyboard-response","132","280682","0.0-6.0-1.0-8.0-0.12","3","2","3","3","2","3","3","4","4","4","4","4","3","4","3","4","3","3","3","5","2","2","3","2","4","2","3","3","2","0","0","1","0","0","0","0","0","0","1","1","0","0","0","1","2","3","2","3","4","2","3","4","2","2","697447755366268928","罗","271","","","","","","","","","","","","","","","","","","","","","","","","","","","","","","","","","","","","","","","",""
"610","<p style=""color:rgb(150, 250, 100); font-size: 35px;"">我的</p>","e","categorize-html","133","281293","0.0-6.0-1.0-8.0-1.12","3","2","3","3","2","3","3","4","4","4","4","4","3","4","3","4","3","3","3","5","2","2","3","2","4","2","3","3","2","0","0","1","0","0","0","0","0","0","1","1","0","0","0","1","2","3","2","3","4","2","3","4","2","2","697447755366268928","罗","271","","","","","","","","","","","","","","","","","","","true","14","4","moral","610","self","我的","","","","","","","","","","","","","","",""
"null","","null","html-keyboard-response","134","281545","0.0-6.0-1.0-8.0-0.13","3","2","3","3","2","3","3","4","4","4","4","4","3","4","3","4","3","3","3","5","2","2","3","2","4","2","3","3","2","0","0","1","0","0","0","0","0","0","1","1","0","0","0","1","2","3","2","3","4","2","3","4","2","2","697447755366268928","罗","271","","","","","","","","","","","","","","","","","","","","","","","","","","","","","","","","","","","","","","","",""
"565","<p style=""color:white; font-size: 35px;"">正直</p>","e","categorize-html","135","282112","0.0-6.0-1.0-8.0-1.13","3","2","3","3","2","3","3","4","4","4","4","4","3","4","3","4","3","3","3","5","2","2","3","2","4","2","3","3","2","0","0","1","0","0","0","0","0","0","1","1","0","0","0","1","2","3","2","3","4","2","3","4","2","2","697447755366268928","罗","271","","","","","","","","","","","","","","","","","","","true","14","4","moral","565","positive","正直","","","","","","","","","","","","","","",""
"null","","null","html-keyboard-response","136","282376","0.0-6.0-1.0-8.0-0.14","3","2","3","3","2","3","3","4","4","4","4","4","3","4","3","4","3","3","3","5","2","2","3","2","4","2","3","3","2","0","0","1","0","0","0","0","0","0","1","1","0","0","0","1","2","3","2","3","4","2","3","4","2","2","697447755366268928","罗","271","","","","","","","","","","","","","","","","","","","","","","","","","","","","","","","","","","","","","","","",""
"663","<p style=""color:rgb(150, 250, 100); font-size: 35px;"">他人</p>","i","categorize-html","137","283040","0.0-6.0-1.0-8.0-1.14","3","2","3","3","2","3","3","4","4","4","4","4","3","4","3","4","3","3","3","5","2","2","3","2","4","2","3","3","2","0","0","1","0","0","0","0","0","0","1","1","0","0","0","1","2","3","2","3","4","2","3","4","2","2","697447755366268928","罗","271","","","","","","","","","","","","","","","","","","","true","14","4","moral","663","other","他人","","","","","","","","","","","","","","",""
"null","","null","html-keyboard-response","138","283291","0.0-6.0-1.0-8.0-0.15","3","2","3","3","2","3","3","4","4","4","4","4","3","4","3","4","3","3","3","5","2","2","3","2","4","2","3","3","2","0","0","1","0","0","0","0","0","0","1","1","0","0","0","1","2","3","2","3","4","2","3","4","2","2","697447755366268928","罗","271","","","","","","","","","","","","","","","","","","","","","","","","","","","","","","","","","","","","","","","",""
"708","<p style=""color:white; font-size: 35px;"">缺德</p>","i","categorize-html","139","284001","0.0-6.0-1.0-8.0-1.15","3","2","3","3","2","3","3","4","4","4","4","4","3","4","3","4","3","3","3","5","2","2","3","2","4","2","3","3","2","0","0","1","0","0","0","0","0","0","1","1","0","0","0","1","2","3","2","3","4","2","3","4","2","2","697447755366268928","罗","271","","","","","","","","","","","","","","","","","","","true","14","4","moral","708","negative","缺德","","","","","","","","","","","","","","",""
"null","","null","html-keyboard-response","140","284252","0.0-6.0-1.0-8.0-0.16","3","2","3","3","2","3","3","4","4","4","4","4","3","4","3","4","3","3","3","5","2","2","3","2","4","2","3","3","2","0","0","1","0","0","0","0","0","0","1","1","0","0","0","1","2","3","2","3","4","2","3","4","2","2","697447755366268928","罗","271","","","","","","","","","","","","","","","","","","","","","","","","","","","","","","","","","","","","","","","",""
"588","<p style=""color:rgb(150, 250, 100); font-size: 35px;"">我</p>","e","categorize-html","141","284842","0.0-6.0-1.0-8.0-1.16","3","2","3","3","2","3","3","4","4","4","4","4","3","4","3","4","3","3","3","5","2","2","3","2","4","2","3","3","2","0","0","1","0","0","0","0","0","0","1","1","0","0","0","1","2","3","2","3","4","2","3","4","2","2","697447755366268928","罗","271","","","","","","","","","","","","","","","","","","","true","14","4","moral","588","self","我","","","","","","","","","","","","","","",""
"null","","null","html-keyboard-response","142","285093","0.0-6.0-1.0-8.0-0.17","3","2","3","3","2","3","3","4","4","4","4","4","3","4","3","4","3","3","3","5","2","2","3","2","4","2","3","3","2","0","0","1","0","0","0","0","0","0","1","1","0","0","0","1","2","3","2","3","4","2","3","4","2","2","697447755366268928","罗","271","","","","","","","","","","","","","","","","","","","","","","","","","","","","","","","","","","","","","","","",""
"864","<p style=""color:white; font-size: 35px;"">廉正</p>","e","categorize-html","143","285958","0.0-6.0-1.0-8.0-1.17","3","2","3","3","2","3","3","4","4","4","4","4","3","4","3","4","3","3","3","5","2","2","3","2","4","2","3","3","2","0","0","1","0","0","0","0","0","0","1","1","0","0","0","1","2","3","2","3","4","2","3","4","2","2","697447755366268928","罗","271","","","","","","","","","","","","","","","","","","","true","14","4","moral","864","positive","廉正","","","","","","","","","","","","","","",""
"null","","null","html-keyboard-response","144","286209","0.0-6.0-1.0-8.0-0.18","3","2","3","3","2","3","3","4","4","4","4","4","3","4","3","4","3","3","3","5","2","2","3","2","4","2","3","3","2","0","0","1","0","0","0","0","0","0","1","1","0","0","0","1","2","3","2","3","4","2","3","4","2","2","697447755366268928","罗","271","","","","","","","","","","","","","","","","","","","","","","","","","","","","","","","","","","","","","","","",""
"1008","<p style=""color:rgb(150, 250, 100); font-size: 35px;"">他人的</p>","i","categorize-html","145","287218","0.0-6.0-1.0-8.0-1.18","3","2","3","3","2","3","3","4","4","4","4","4","3","4","3","4","3","3","3","5","2","2","3","2","4","2","3","3","2","0","0","1","0","0","0","0","0","0","1","1","0","0","0","1","2","3","2","3","4","2","3","4","2","2","697447755366268928","罗","271","","","","","","","","","","","","","","","","","","","true","14","4","moral","1008","other","他人的","","","","","","","","","","","","","","",""
"null","","null","html-keyboard-response","146","287468","0.0-6.0-1.0-8.0-0.19","3","2","3","3","2","3","3","4","4","4","4","4","3","4","3","4","3","3","3","5","2","2","3","2","4","2","3","3","2","0","0","1","0","0","0","0","0","0","1","1","0","0","0","1","2","3","2","3","4","2","3","4","2","2","697447755366268928","罗","271","","","","","","","","","","","","","","","","","","","","","","","","","","","","","","","","","","","","","","","",""
"621","<p style=""color:white; font-size: 35px;"">不孝</p>","i","categorize-html","147","288091","0.0-6.0-1.0-8.0-1.19","3","2","3","3","2","3","3","4","4","4","4","4","3","4","3","4","3","3","3","5","2","2","3","2","4","2","3","3","2","0","0","1","0","0","0","0","0","0","1","1","0","0","0","1","2","3","2","3","4","2","3","4","2","2","697447755366268928","罗","271","","","","","","","","","","","","","","","","","","","true","14","4","moral","621","negative","不孝","","","","","","","","","","","","","","",""
"null","","null","html-keyboard-response","148","288342","0.0-6.0-1.0-8.0-0.20","3","2","3","3","2","3","3","4","4","4","4","4","3","4","3","4","3","3","3","5","2","2","3","2","4","2","3","3","2","0","0","1","0","0","0","0","0","0","1","1","0","0","0","1","2","3","2","3","4","2","3","4","2","2","697447755366268928","罗","271","","","","","","","","","","","","","","","","","","","","","","","","","","","","","","","","","","","","","","","",""
"687","<p style=""color:rgb(150, 250, 100); font-size: 35px;"">他的</p>","i","categorize-html","149","289031","0.0-6.0-1.0-8.0-1.20","3","2","3","3","2","3","3","4","4","4","4","4","3","4","3","4","3","3","3","5","2","2","3","2","4","2","3","3","2","0","0","1","0","0","0","0","0","0","1","1","0","0","0","1","2","3","2","3","4","2","3","4","2","2","697447755366268928","罗","271","","","","","","","","","","","","","","","","","","","true","14","4","moral","687","other","他的","","","","","","","","","","","","","","",""
"null","","null","html-keyboard-response","150","289281","0.0-6.0-1.0-8.0-0.21","3","2","3","3","2","3","3","4","4","4","4","4","3","4","3","4","3","3","3","5","2","2","3","2","4","2","3","3","2","0","0","1","0","0","0","0","0","0","1","1","0","0","0","1","2","3","2","3","4","2","3","4","2","2","697447755366268928","罗","271","","","","","","","","","","","","","","","","","","","","","","","","","","","","","","","","","","","","","","","",""
"742","<p style=""color:white; font-size: 35px;"">不仁</p>","i","categorize-html","151","290024","0.0-6.0-1.0-8.0-1.21","3","2","3","3","2","3","3","4","4","4","4","4","3","4","3","4","3","3","3","5","2","2","3","2","4","2","3","3","2","0","0","1","0","0","0","0","0","0","1","1","0","0","0","1","2","3","2","3","4","2","3","4","2","2","697447755366268928","罗","271","","","","","","","","","","","","","","","","","","","true","14","4","moral","742","negative","不仁","","","","","","","","","","","","","","",""
"null","","null","html-keyboard-response","152","290275","0.0-6.0-1.0-8.0-0.22","3","2","3","3","2","3","3","4","4","4","4","4","3","4","3","4","3","3","3","5","2","2","3","2","4","2","3","3","2","0","0","1","0","0","0","0","0","0","1","1","0","0","0","1","2","3","2","3","4","2","3","4","2","2","697447755366268928","罗","271","","","","","","","","","","","","","","","","","","","","","","","","","","","","","","","","","","","","","","","",""
"688","<p style=""color:rgb(150, 250, 100); font-size: 35px;"">我的</p>","e","categorize-html","153","290965","0.0-6.0-1.0-8.0-1.22","3","2","3","3","2","3","3","4","4","4","4","4","3","4","3","4","3","3","3","5","2","2","3","2","4","2","3","3","2","0","0","1","0","0","0","0","0","0","1","1","0","0","0","1","2","3","2","3","4","2","3","4","2","2","697447755366268928","罗","271","","","","","","","","","","","","","","","","","","","true","14","4","moral","688","self","我的","","","","","","","","","","","","","","",""
"null","","null","html-keyboard-response","154","291216","0.0-6.0-1.0-8.0-0.23","3","2","3","3","2","3","3","4","4","4","4","4","3","4","3","4","3","3","3","5","2","2","3","2","4","2","3","3","2","0","0","1","0","0","0","0","0","0","1","1","0","0","0","1","2","3","2","3","4","2","3","4","2","2","697447755366268928","罗","271","","","","","","","","","","","","","","","","","","","","","","","","","","","","","","","","","","","","","","","",""
"963","<p style=""color:white; font-size: 35px;"">高尚</p>","e","categorize-html","155","292181","0.0-6.0-1.0-8.0-1.23","3","2","3","3","2","3","3","4","4","4","4","4","3","4","3","4","3","3","3","5","2","2","3","2","4","2","3","3","2","0","0","1","0","0","0","0","0","0","1","1","0","0","0","1","2","3","2","3","4","2","3","4","2","2","697447755366268928","罗","271","","","","","","","","","","","","","","","","","","","true","14","4","moral","963","positive","高尚","","","","","","","","","","","","","","",""
"null","","null","html-keyboard-response","156","292432","0.0-6.0-1.0-8.0-0.24","3","2","3","3","2","3","3","4","4","4","4","4","3","4","3","4","3","3","3","5","2","2","3","2","4","2","3","3","2","0","0","1","0","0","0","0","0","0","1","1","0","0","0","1","2","3","2","3","4","2","3","4","2","2","697447755366268928","罗","271","","","","","","","","","","","","","","","","","","","","","","","","","","","","","","","","","","","","","","","",""
"664","<p style=""color:rgb(150, 250, 100); font-size: 35px;"">本人</p>","e","categorize-html","157","293098","0.0-6.0-1.0-8.0-1.24","3","2","3","3","2","3","3","4","4","4","4","4","3","4","3","4","3","3","3","5","2","2","3","2","4","2","3","3","2","0","0","1","0","0","0","0","0","0","1","1","0","0","0","1","2","3","2","3","4","2","3","4","2","2","697447755366268928","罗","271","","","","","","","","","","","","","","","","","","","true","14","4","moral","664","self","本人","","","","","","","","","","","","","","",""
"null","","null","html-keyboard-response","158","293348","0.0-6.0-1.0-8.0-0.25","3","2","3","3","2","3","3","4","4","4","4","4","3","4","3","4","3","3","3","5","2","2","3","2","4","2","3","3","2","0","0","1","0","0","0","0","0","0","1","1","0","0","0","1","2","3","2","3","4","2","3","4","2","2","697447755366268928","罗","271","","","","","","","","","","","","","","","","","","","","","","","","","","","","","","","","","","","","","","","",""
"622","<p style=""color:white; font-size: 35px;"">高尚</p>","e","categorize-html","159","293972","0.0-6.0-1.0-8.0-1.25","3","2","3","3","2","3","3","4","4","4","4","4","3","4","3","4","3","3","3","5","2","2","3","2","4","2","3","3","2","0","0","1","0","0","0","0","0","0","1","1","0","0","0","1","2","3","2","3","4","2","3","4","2","2","697447755366268928","罗","271","","","","","","","","","","","","","","","","","","","true","14","4","moral","622","positive","高尚","","","","","","","","","","","","","","",""
"null","","null","html-keyboard-response","160","294222","0.0-6.0-1.0-8.0-0.26","3","2","3","3","2","3","3","4","4","4","4","4","3","4","3","4","3","3","3","5","2","2","3","2","4","2","3","3","2","0","0","1","0","0","0","0","0","0","1","1","0","0","0","1","2","3","2","3","4","2","3","4","2","2","697447755366268928","罗","271","","","","","","","","","","","","","","","","","","","","","","","","","","","","","","","","","","","","","","","",""
"710","<p style=""color:rgb(150, 250, 100); font-size: 35px;"">别人</p>","i","categorize-html","161","294933","0.0-6.0-1.0-8.0-1.26","3","2","3","3","2","3","3","4","4","4","4","4","3","4","3","4","3","3","3","5","2","2","3","2","4","2","3","3","2","0","0","1","0","0","0","0","0","0","1","1","0","0","0","1","2","3","2","3","4","2","3","4","2","2","697447755366268928","罗","271","","","","","","","","","","","","","","","","","","","true","14","4","moral","710","other","别人","","","","","","","","","","","","","","",""
"null","","null","html-keyboard-response","162","295184","0.0-6.0-1.0-8.0-0.27","3","2","3","3","2","3","3","4","4","4","4","4","3","4","3","4","3","3","3","5","2","2","3","2","4","2","3","3","2","0","0","1","0","0","0","0","0","0","1","1","0","0","0","1","2","3","2","3","4","2","3","4","2","2","697447755366268928","罗","271","","","","","","","","","","","","","","","","","","","","","","","","","","","","","","","","","","","","","","","",""
"754","<p style=""color:white; font-size: 35px;"">不孝</p>","i","categorize-html","163","295939","0.0-6.0-1.0-8.0-1.27","3","2","3","3","2","3","3","4","4","4","4","4","3","4","3","4","3","3","3","5","2","2","3","2","4","2","3","3","2","0","0","1","0","0","0","0","0","0","1","1","0","0","0","1","2","3","2","3","4","2","3","4","2","2","697447755366268928","罗","271","","","","","","","","","","","","","","","","","","","true","14","4","moral","754","negative","不孝","","","","","","","","","","","","","","",""
"null","","null","html-keyboard-response","164","296190","0.0-6.0-1.0-8.0-0.28","3","2","3","3","2","3","3","4","4","4","4","4","3","4","3","4","3","3","3","5","2","2","3","2","4","2","3","3","2","0","0","1","0","0","0","0","0","0","1","1","0","0","0","1","2","3","2","3","4","2","3","4","2","2","697447755366268928","罗","271","","","","","","","","","","","","","","","","","","","","","","","","","","","","","","","","","","","","","","","",""
"742","<p style=""color:rgb(150, 250, 100); font-size: 35px;"">自己</p>","e","categorize-html","165","296934","0.0-6.0-1.0-8.0-1.28","3","2","3","3","2","3","3","4","4","4","4","4","3","4","3","4","3","3","3","5","2","2","3","2","4","2","3","3","2","0","0","1","0","0","0","0","0","0","1","1","0","0","0","1","2","3","2","3","4","2","3","4","2","2","697447755366268928","罗","271","","","","","","","","","","","","","","","","","","","true","14","4","moral","742","self","自己","","","","","","","","","","","","","","",""
"null","","null","html-keyboard-response","166","297185","0.0-6.0-1.0-8.0-0.29","3","2","3","3","2","3","3","4","4","4","4","4","3","4","3","4","3","3","3","5","2","2","3","2","4","2","3","3","2","0","0","1","0","0","0","0","0","0","1","1","0","0","0","1","2","3","2","3","4","2","3","4","2","2","697447755366268928","罗","271","","","","","","","","","","","","","","","","","","","","","","","","","","","","","","","","","","","","","","","",""
"710","<p style=""color:white; font-size: 35px;"">不仁</p>","i","categorize-html","167","297896","0.0-6.0-1.0-8.0-1.29","3","2","3","3","2","3","3","4","4","4","4","4","3","4","3","4","3","3","3","5","2","2","3","2","4","2","3","3","2","0","0","1","0","0","0","0","0","0","1","1","0","0","0","1","2","3","2","3","4","2","3","4","2","2","697447755366268928","罗","271","","","","","","","","","","","","","","","","","","","true","14","4","moral","710","negative","不仁","","","","","","","","","","","","","","",""
"null","","null","html-keyboard-response","168","298147","0.0-6.0-1.0-8.0-0.30","3","2","3","3","2","3","3","4","4","4","4","4","3","4","3","4","3","3","3","5","2","2","3","2","4","2","3","3","2","0","0","1","0","0","0","0","0","0","1","1","0","0","0","1","2","3","2","3","4","2","3","4","2","2","697447755366268928","罗","271","","","","","","","","","","","","","","","","","","","","","","","","","","","","","","","","","","","","","","","",""
"699","<p style=""color:rgb(150, 250, 100); font-size: 35px;"">别人的</p>","i","categorize-html","169","298847","0.0-6.0-1.0-8.0-1.30","3","2","3","3","2","3","3","4","4","4","4","4","3","4","3","4","3","3","3","5","2","2","3","2","4","2","3","3","2","0","0","1","0","0","0","0","0","0","1","1","0","0","0","1","2","3","2","3","4","2","3","4","2","2","697447755366268928","罗","271","","","","","","","","","","","","","","","","","","","true","14","4","moral","699","other","别人的","","","","","","","","","","","","","","",""
"null","","null","html-keyboard-response","170","299098","0.0-6.0-1.0-8.0-0.31","3","2","3","3","2","3","3","4","4","4","4","4","3","4","3","4","3","3","3","5","2","2","3","2","4","2","3","3","2","0","0","1","0","0","0","0","0","0","1","1","0","0","0","1","2","3","2","3","4","2","3","4","2","2","697447755366268928","罗","271","","","","","","","","","","","","","","","","","","","","","","","","","","","","","","","","","","","","","","","",""
"632","<p style=""color:white; font-size: 35px;"">君子</p>","e","categorize-html","171","299731","0.0-6.0-1.0-8.0-1.31","3","2","3","3","2","3","3","4","4","4","4","4","3","4","3","4","3","3","3","5","2","2","3","2","4","2","3","3","2","0","0","1","0","0","0","0","0","0","1","1","0","0","0","1","2","3","2","3","4","2","3","4","2","2","697447755366268928","罗","271","","","","","","","","","","","","","","","","","","","true","14","4","moral","632","positive","君子","","","","","","","","","","","","","","",""
"null","","null","html-keyboard-response","172","299982","0.0-6.0-1.0-8.0-0.32","3","2","3","3","2","3","3","4","4","4","4","4","3","4","3","4","3","3","3","5","2","2","3","2","4","2","3","3","2","0","0","1","0","0","0","0","0","0","1","1","0","0","0","1","2","3","2","3","4","2","3","4","2","2","697447755366268928","罗","271","","","","","","","","","","","","","","","","","","","","","","","","","","","","","","","","","","","","","","","",""
"709","<p style=""color:rgb(150, 250, 100); font-size: 35px;"">本人</p>","e","categorize-html","173","300693","0.0-6.0-1.0-8.0-1.32","3","2","3","3","2","3","3","4","4","4","4","4","3","4","3","4","3","3","3","5","2","2","3","2","4","2","3","3","2","0","0","1","0","0","0","0","0","0","1","1","0","0","0","1","2","3","2","3","4","2","3","4","2","2","697447755366268928","罗","271","","","","","","","","","","","","","","","","","","","true","14","4","moral","709","self","本人","","","","","","","","","","","","","","",""
"null","","null","html-keyboard-response","174","300944","0.0-6.0-1.0-8.0-0.33","3","2","3","3","2","3","3","4","4","4","4","4","3","4","3","4","3","3","3","5","2","2","3","2","4","2","3","3","2","0","0","1","0","0","0","0","0","0","1","1","0","0","0","1","2","3","2","3","4","2","3","4","2","2","697447755366268928","罗","271","","","","","","","","","","","","","","","","","","","","","","","","","","","","","","","","","","","","","","","",""
"764","<p style=""color:white; font-size: 35px;"">小人</p>","i","categorize-html","175","301709","0.0-6.0-1.0-8.0-1.33","3","2","3","3","2","3","3","4","4","4","4","4","3","4","3","4","3","3","3","5","2","2","3","2","4","2","3","3","2","0","0","1","0","0","0","0","0","0","1","1","0","0","0","1","2","3","2","3","4","2","3","4","2","2","697447755366268928","罗","271","","","","","","","","","","","","","","","","","","","true","14","4","moral","764","negative","小人","","","","","","","","","","","","","","",""
"null","","null","html-keyboard-response","176","301959","0.0-6.0-1.0-8.0-0.34","3","2","3","3","2","3","3","4","4","4","4","4","3","4","3","4","3","3","3","5","2","2","3","2","4","2","3","3","2","0","0","1","0","0","0","0","0","0","1","1","0","0","0","1","2","3","2","3","4","2","3","4","2","2","697447755366268928","罗","271","","","","","","","","","","","","","","","","","","","","","","","","","","","","","","","","","","","","","","","",""
"721","<p style=""color:rgb(150, 250, 100); font-size: 35px;"">他</p>","i","categorize-html","177","302682","0.0-6.0-1.0-8.0-1.34","3","2","3","3","2","3","3","4","4","4","4","4","3","4","3","4","3","3","3","5","2","2","3","2","4","2","3","3","2","0","0","1","0","0","0","0","0","0","1","1","0","0","0","1","2","3","2","3","4","2","3","4","2","2","697447755366268928","罗","271","","","","","","","","","","","","","","","","","","","true","14","4","moral","721","other","他","","","","","","","","","","","","","","",""
"null","","null","html-keyboard-response","178","302933","0.0-6.0-1.0-8.0-0.35","3","2","3","3","2","3","3","4","4","4","4","4","3","4","3","4","3","3","3","5","2","2","3","2","4","2","3","3","2","0","0","1","0","0","0","0","0","0","1","1","0","0","0","1","2","3","2","3","4","2","3","4","2","2","697447755366268928","罗","271","","","","","","","","","","","","","","","","","","","","","","","","","","","","","","","","","","","","","","","",""
"720","<p style=""color:white; font-size: 35px;"">善良</p>","e","categorize-html","179","303655","0.0-6.0-1.0-8.0-1.35","3","2","3","3","2","3","3","4","4","4","4","4","3","4","3","4","3","3","3","5","2","2","3","2","4","2","3","3","2","0","0","1","0","0","0","0","0","0","1","1","0","0","0","1","2","3","2","3","4","2","3","4","2","2","697447755366268928","罗","271","","","","","","","","","","","","","","","","","","","true","14","4","moral","720","positive","善良","","","","","","","","","","","","","","",""
"null","","null","html-keyboard-response","180","303905","0.0-6.0-1.0-8.0-0.36","3","2","3","3","2","3","3","4","4","4","4","4","3","4","3","4","3","3","3","5","2","2","3","2","4","2","3","3","2","0","0","1","0","0","0","0","0","0","1","1","0","0","0","1","2","3","2","3","4","2","3","4","2","2","697447755366268928","罗","271","","","","","","","","","","","","","","","","","","","","","","","","","","","","","","","","","","","","","","","",""
"755","<p style=""color:rgb(150, 250, 100); font-size: 35px;"">他人</p>","i","categorize-html","181","304662","0.0-6.0-1.0-8.0-1.36","3","2","3","3","2","3","3","4","4","4","4","4","3","4","3","4","3","3","3","5","2","2","3","2","4","2","3","3","2","0","0","1","0","0","0","0","0","0","1","1","0","0","0","1","2","3","2","3","4","2","3","4","2","2","697447755366268928","罗","271","","","","","","","","","","","","","","","","","","","true","14","4","moral","755","other","他人","","","","","","","","","","","","","","",""
"null","","null","html-keyboard-response","182","304912","0.0-6.0-1.0-8.0-0.37","3","2","3","3","2","3","3","4","4","4","4","4","3","4","3","4","3","3","3","5","2","2","3","2","4","2","3","3","2","0","0","1","0","0","0","0","0","0","1","1","0","0","0","1","2","3","2","3","4","2","3","4","2","2","697447755366268928","罗","271","","","","","","","","","","","","","","","","","","","","","","","","","","","","","","","","","","","","","","","",""
"819","<p style=""color:white; font-size: 35px;"">正直</p>","e","categorize-html","183","305733","0.0-6.0-1.0-8.0-1.37","3","2","3","3","2","3","3","4","4","4","4","4","3","4","3","4","3","3","3","5","2","2","3","2","4","2","3","3","2","0","0","1","0","0","0","0","0","0","1","1","0","0","0","1","2","3","2","3","4","2","3","4","2","2","697447755366268928","罗","271","","","","","","","","","","","","","","","","","","","true","14","4","moral","819","positive","正直","","","","","","","","","","","","","","",""
"null","","null","html-keyboard-response","184","305984","0.0-6.0-1.0-8.0-0.38","3","2","3","3","2","3","3","4","4","4","4","4","3","4","3","4","3","3","3","5","2","2","3","2","4","2","3","3","2","0","0","1","0","0","0","0","0","0","1","1","0","0","0","1","2","3","2","3","4","2","3","4","2","2","697447755366268928","罗","271","","","","","","","","","","","","","","","","","","","","","","","","","","","","","","","","","","","","","","","",""
"654","<p style=""color:rgb(150, 250, 100); font-size: 35px;"">我</p>","e","categorize-html","185","306639","0.0-6.0-1.0-8.0-1.38","3","2","3","3","2","3","3","4","4","4","4","4","3","4","3","4","3","3","3","5","2","2","3","2","4","2","3","3","2","0","0","1","0","0","0","0","0","0","1","1","0","0","0","1","2","3","2","3","4","2","3","4","2","2","697447755366268928","罗","271","","","","","","","","","","","","","","","","","","","true","14","4","moral","654","self","我","","","","","","","","","","","","","","",""
"null","","null","html-keyboard-response","186","306890","0.0-6.0-1.0-8.0-0.39","3","2","3","3","2","3","3","4","4","4","4","4","3","4","3","4","3","3","3","5","2","2","3","2","4","2","3","3","2","0","0","1","0","0","0","0","0","0","1","1","0","0","0","1","2","3","2","3","4","2","3","4","2","2","697447755366268928","罗","271","","","","","","","","","","","","","","","","","","","","","","","","","","","","","","","","","","","","","","","",""
"854","<p style=""color:white; font-size: 35px;"">卑鄙</p>","i","categorize-html","187","307745","0.0-6.0-1.0-8.0-1.39","3","2","3","3","2","3","3","4","4","4","4","4","3","4","3","4","3","3","3","5","2","2","3","2","4","2","3","3","2","0","0","1","0","0","0","0","0","0","1","1","0","0","0","1","2","3","2","3","4","2","3","4","2","2","697447755366268928","罗","271","","","","","","","","","","","","","","","","","","","true","14","4","moral","854","negative","卑鄙","","","","","","","","","","","","","","",""
"null","","null","html-keyboard-response","188","307996","0.0-6.0-1.0-8.0-0.40","3","2","3","3","2","3","3","4","4","4","4","4","3","4","3","4","3","3","3","5","2","2","3","2","4","2","3","3","2","0","0","1","0","0","0","0","0","0","1","1","0","0","0","1","2","3","2","3","4","2","3","4","2","2","697447755366268928","罗","271","","","","","","","","","","","","","","","","","","","","","","","","","","","","","","","","","","","","","","","",""
"720","<p style=""color:rgb(150, 250, 100); font-size: 35px;"">自己的</p>","e","categorize-html","189","308717","0.0-6.0-1.0-8.0-1.40","3","2","3","3","2","3","3","4","4","4","4","4","3","4","3","4","3","3","3","5","2","2","3","2","4","2","3","3","2","0","0","1","0","0","0","0","0","0","1","1","0","0","0","1","2","3","2","3","4","2","3","4","2","2","697447755366268928","罗","271","","","","","","","","","","","","","","","","","","","true","14","4","moral","720","self","自己的","","","","","","","","","","","","","","",""
"null","","null","html-keyboard-response","190","308968","0.0-6.0-1.0-8.0-0.41","3","2","3","3","2","3","3","4","4","4","4","4","3","4","3","4","3","3","3","5","2","2","3","2","4","2","3","3","2","0","0","1","0","0","0","0","0","0","1","1","0","0","0","1","2","3","2","3","4","2","3","4","2","2","697447755366268928","罗","271","","","","","","","","","","","","","","","","","","","","","","","","","","","","","","","","","","","","","","","",""
"787","<p style=""color:white; font-size: 35px;"">诚信</p>","e","categorize-html","191","309757","0.0-6.0-1.0-8.0-1.41","3","2","3","3","2","3","3","4","4","4","4","4","3","4","3","4","3","3","3","5","2","2","3","2","4","2","3","3","2","0","0","1","0","0","0","0","0","0","1","1","0","0","0","1","2","3","2","3","4","2","3","4","2","2","697447755366268928","罗","271","","","","","","","","","","","","","","","","","","","true","14","4","moral","787","positive","诚信","","","","","","","","","","","","","","",""
"null","","null","html-keyboard-response","192","310008","0.0-6.0-1.0-8.0-0.42","3","2","3","3","2","3","3","4","4","4","4","4","3","4","3","4","3","3","3","5","2","2","3","2","4","2","3","3","2","0","0","1","0","0","0","0","0","0","1","1","0","0","0","1","2","3","2","3","4","2","3","4","2","2","697447755366268928","罗","271","","","","","","","","","","","","","","","","","","","","","","","","","","","","","","","","","","","","","","","",""
"731","<p style=""color:rgb(150, 250, 100); font-size: 35px;"">他</p>","e","categorize-html","193","313006","0.0-6.0-1.0-8.0-1.42","3","2","3","3","2","3","3","4","4","4","4","4","3","4","3","4","3","3","3","5","2","2","3","2","4","2","3","3","2","0","0","1","0","0","0","0","0","0","1","1","0","0","0","1","2","3","2","3","4","2","3","4","2","2","697447755366268928","罗","271","","","","","","","","","","","","","","","","","","","false","14","4","moral","1343.7872340425533","other","他","","","","","","","","","","","","","","",""
"null","","null","html-keyboard-response","194","313257","0.0-6.0-1.0-8.0-0.43","3","2","3","3","2","3","3","4","4","4","4","4","3","4","3","4","3","3","3","5","2","2","3","2","4","2","3","3","2","0","0","1","0","0","0","0","0","0","1","1","0","0","0","1","2","3","2","3","4","2","3","4","2","2","697447755366268928","罗","271","","","","","","","","","","","","","","","","","","","","","","","","","","","","","","","","","","","","","","","",""
"632","<p style=""color:white; font-size: 35px;"">小人</p>","i","categorize-html","195","313890","0.0-6.0-1.0-8.0-1.43","3","2","3","3","2","3","3","4","4","4","4","4","3","4","3","4","3","3","3","5","2","2","3","2","4","2","3","3","2","0","0","1","0","0","0","0","0","0","1","1","0","0","0","1","2","3","2","3","4","2","3","4","2","2","697447755366268928","罗","271","","","","","","","","","","","","","","","","","","","true","14","4","moral","632","negative","小人","","","","","","","","","","","","","","",""
"null","","null","html-keyboard-response","196","314146","0.0-6.0-1.0-8.0-0.44","3","2","3","3","2","3","3","4","4","4","4","4","3","4","3","4","3","3","3","5","2","2","3","2","4","2","3","3","2","0","0","1","0","0","0","0","0","0","1","1","0","0","0","1","2","3","2","3","4","2","3","4","2","2","697447755366268928","罗","271","","","","","","","","","","","","","","","","","","","","","","","","","","","","","","","","","","","","","","","",""
"716","<p style=""color:rgb(150, 250, 100); font-size: 35px;"">本人的</p>","e","categorize-html","197","314863","0.0-6.0-1.0-8.0-1.44","3","2","3","3","2","3","3","4","4","4","4","4","3","4","3","4","3","3","3","5","2","2","3","2","4","2","3","3","2","0","0","1","0","0","0","0","0","0","1","1","0","0","0","1","2","3","2","3","4","2","3","4","2","2","697447755366268928","罗","271","","","","","","","","","","","","","","","","","","","true","14","4","moral","716","self","本人的","","","","","","","","","","","","","","",""
