"rt","stimulus","response","trial_type","trial_index","time_elapsed","internal_node_id","ses_1","ses_2","ses_3","ses_4","ses_5","ses_6","ses_7","ses_8","ses_9","ses_10","coreself_1","coreself_2","coreself_3","coreself_4","coreself_5","coreself_6","coreself_7","coreself_8","coreself_9","coreself_10","SGPS_1","SGPS_2","SGPS_3","SGPS_4","SGPS_5","SGPS_6","SGPS_7","SGPS_8","SGPS_9","NPI1","NPI2","NPI3","NPI4","NPI5","NPI6","NPI7","NPI8","NPI9","NPI10","NPI11","NPI12","NPI13","NPI14","NPI15","hsns_1","hsns_2","hsns_3","hsns_4","hsns_5","hsns_6","hsns_7","hsns_8","hsns_9","hsns_10","subj_idx","friend_name","ParticipantID","value","success","user_agent","responses","item_order","radio_event_ids","radio_event_times","key_event_times","mouse_event_times","straightlining","zigzagging","honeypot","timeout","failed_images","failed_audio","failed_video","view_history","response_type","key_press","avg_frame_time","center_x","center_y","correct_response","correct","identity","Image","word","condition","task_id","screen_id","time_stamp","version_attrib","version_target","IAT","RT","varname","summary","version_attrib2","version_target2","question_order"
"40690","
   <p><div style = ""color: white;font-size:25px;"">您好，欢迎参加本次实验。</div> </p>
   <p><div style = ""color: white;font-size:25px;"">为充分保障您的权利，请确保您已经知晓并同意《参与实验同意书》以及《数据公开知情同意书》。</div></p>
   <p><div style = ""color: white;font-size:25px;"">如果您未见过上述内容，请咨询实验员。</div></p>
   <p><div style = ""color: white;font-size:25px;"">如果您选择继续实验，则表示您已经清楚两份知情同意书的内容并同意。</div></p>
   <p><div style = ""color: red;font-size:30px;"">请确保您记得day0的实验编号，您将在本次实验输入该编号，若您忘记，请咨询实验员后作答。</div></p>
   <p> <div style = ""color: green;font-size:25px;""><按空格键至下页></div> </p>
   "," ","html-keyboard-response","0","40691","0.0-0.0","3","3","3","3","3","3","3","3","3","3","3","4","2","4","4","4","3","4","4","4","2","2","2","2","2","2","2","4","2","1","0","1","1","0","0","1","1","1","1","1","0","1","0","1","4","2","2","4","4","2","2","4","2","2","708989653960622080","杨","192","","","","","","","","","","","","","","","","","","","","","","","","","","","","","","","","","","","","","","","",""
"","","","call-function","1","40692","0.0-1.0-0.0","3","3","3","3","3","3","3","3","3","3","3","4","2","4","4","4","3","4","4","4","2","2","2","2","2","2","2","4","2","1","0","1","1","0","0","1","1","1","1","1","0","1","0","1","4","2","2","4","4","2","2","4","2","2","708989653960622080","杨","192","","","","","","","","","","","","","","","","","","","","","","","","","","","","","","","","","","","","","","","",""
"18104","","{""friend_name"":""杨"",""ParticipantID"":""192""}","survey-html-form","2","58797","0.0-1.0-1.0","3","3","3","3","3","3","3","3","3","3","3","4","2","4","4","4","3","4","4","4","2","2","2","2","2","2","2","4","2","1","0","1","1","0","0","1","1","1","1","1","0","1","0","1","4","2","2","4","4","2","2","4","2","2","708989653960622080","杨","192","","","","","","","","","","","","","","","","","","","","","","","","","","","","","","","","","","","","","","","",""
"","","","fullscreen","3","66322","0.0-2.0","3","3","3","3","3","3","3","3","3","3","3","4","2","4","4","4","3","4","4","4","2","2","2","2","2","2","2","4","2","1","0","1","1","0","0","1","1","1","1","1","0","1","0","1","4","2","2","4","4","2","2","4","2","2","708989653960622080","杨","192","","true","{}","","","","","","","","","","","","","","","","","","","","","","","","","","","","","","","","","","","","",""
"45665.90000000596","","{""Q01"":""3"",""Q02"":""3"",""Q03"":""3"",""Q04"":""3"",""Q05"":""3"",""Q06"":""3"",""Q07"":""3"",""Q08"":""3"",""Q09"":""3"",""Q10"":""3""}","survey-template","4","111990","0.0-3.0","3","3","3","3","3","3","3","3","3","3","3","4","2","4","4","4","3","4","4","4","2","2","2","2","2","2","2","4","2","1","0","1","1","0","0","1","1","1","1","1","0","1","0","1","4","2","2","4","4","2","2","4","2","2","708989653960622080","杨","192","","","","{""Q01"":""3"",""Q02"":""3"",""Q03"":""3"",""Q04"":""3"",""Q05"":""3"",""Q06"":""3"",""Q07"":""3"",""Q08"":""3"",""Q09"":""3"",""Q10"":""3""}","[0,1,2,3,4,5,6,7,8,9]","[""Q01"",""Q02"",""Q03"",""Q04"",""Q05"",""Q06"",""Q05"",""Q07"",""Q08"",""Q09"",""Q10"",""Q09"",""Q09""]","[3825.5,5257.4000000059605,6025.4000000059605,7713.29999999702,15161.20000000298,17377.10000000894,18617.20000000298,20193.20000000298,23193.20000000298,24785.29999999702,25137.40000000596,26273,44897.10000000894]","[]","[3825.5,5257.4000000059605,6025.4000000059605,7713.29999999702,15161.20000000298,16833.29999999702,17377.10000000894,17945.20000000298,18617.20000000298,20193.20000000298,21785.40000000596,22833.10000000894,23193.20000000298,23777.70000000298,24417.20000000298,24785.29999999702,25137.40000000596,26273,44897.10000000894,45665.10000000894]","0.5","0.5555555555555556","0","","","","","","","","","","","","","","","","","","","","","","","","","","","",""
"25468.59999999404","","{""Q01"":""3"",""Q02"":""4"",""Q03"":""2"",""Q04"":""4"",""Q05"":""4"",""Q06"":""4"",""Q07"":""3"",""Q08"":""4"",""Q09"":""4"",""Q10"":""4""}","survey-template","5","137462","0.0-4.0","3","3","3","3","3","3","3","3","3","3","3","4","2","4","4","4","3","4","4","4","2","2","2","2","2","2","2","4","2","1","0","1","1","0","0","1","1","1","1","1","0","1","0","1","4","2","2","4","4","2","2","4","2","2","708989653960622080","杨","192","","","","{""Q01"":""3"",""Q02"":""4"",""Q03"":""2"",""Q04"":""4"",""Q05"":""4"",""Q06"":""4"",""Q07"":""3"",""Q08"":""4"",""Q09"":""4"",""Q10"":""4""}","[0,1,2,3,4,5,6,7,8,9]","[""Q01"",""Q01"",""Q02"",""Q03"",""Q04"",""Q05"",""Q06"",""Q07"",""Q08"",""Q09"",""Q10""]","[4419.70000000298,5555.79999999702,8803.79999999702,9515.79999999702,11611.89999999106,13628.09999999404,14523.79999999702,16859.59999999404,21116,22588,24811.89999999106]","[]","[4419.70000000298,5555.79999999702,7676,8411.89999999106,8803.79999999702,9515.79999999702,11611.89999999106,13628.09999999404,14523.79999999702,16859.59999999404,21116,22059.79999999702,22588,23628.09999999404,24459.5,24811.89999999106,25468]","0.4","0.3333333333333333","0","","","","","","","","","","","","","","","","","","","","","","","","","","","",""
"","","","preload","6","137810","0.0-5.0","3","3","3","3","3","3","3","3","3","3","3","4","2","4","4","4","3","4","4","4","2","2","2","2","2","2","2","4","2","1","0","1","1","0","0","1","1","1","1","1","0","1","0","1","4","2","2","4","4","2","2","4","2","2","708989653960622080","杨","192","","true","","","","","","","","","","","false","[]","[]","[]","","","","","","","","","","","","","","","","","","","","","","","",""
"20731","","","instructions","7","158541","0.0-6.0","3","3","3","3","3","3","3","3","3","3","3","4","2","4","4","4","3","4","4","4","2","2","2","2","2","2","2","4","2","1","0","1","1","0","0","1","1","1","1","1","0","1","0","1","4","2","2","4","4","2","2","4","2","2","708989653960622080","杨","192","","","","","","","","","","","","","","","","","[{""page_index"":0,""viewing_time"":20730}]","","","","","","","","","","","","","","","","","","","","","","",""
"31351","","","instructions","8","189893","0.0-7.0-0.0-0.0","3","3","3","3","3","3","3","3","3","3","3","4","2","4","4","4","3","4","4","4","2","2","2","2","2","2","2","4","2","1","0","1","1","0","0","1","1","1","1","1","0","1","0","1","4","2","2","4","4","2","2","4","2","2","708989653960622080","杨","192","","","","","","","","","","","","","","","","","[{""page_index"":0,""viewing_time"":22439},{""page_index"":1,""viewing_time"":1688},{""page_index"":2,""viewing_time"":2304},{""page_index"":1,""viewing_time"":3888},{""page_index"":2,""viewing_time"":1032}]","","","","","","","","","","","","","","","","","","","","","","",""
"null","","null","psychophysics","9","192097","0.0-7.0-0.0-1.0-0.0-0.0","3","3","3","3","3","3","3","3","3","3","3","4","2","4","4","4","3","4","4","4","2","2","2","2","2","2","2","4","2","1","0","1","1","0","0","1","1","1","1","1","0","1","0","1","4","2","2","4","4","2","2","4","2","2","708989653960622080","杨","192","","","","null","","","","","","","","","","","","","","key","null","16.679977099236567","1280","716","j","false","nonmatch","img/trapezoid.png","六边","梯形","ALT1_1","prac_ALT1_1","","","","","","","","","",""
"null","<span class='add_' style='color:yellow; font-size: 70px;'> 太慢! </span>","null","html-keyboard-response","10","192597","0.0-7.0-0.0-1.0-0.0-1.0","3","3","3","3","3","3","3","3","3","3","3","4","2","4","4","4","3","4","4","4","2","2","2","2","2","2","2","4","2","1","0","1","1","0","0","1","1","1","1","1","0","1","0","1","4","2","2","4","4","2","2","4","2","2","708989653960622080","杨","192","","","","","","","","","","","","","","","","","","","","","","","","","","","","","","feedback_test","","","","","","","","","",""
"null","","null","psychophysics","11","194803","0.0-7.0-0.0-1.0-0.0-0.1","3","3","3","3","3","3","3","3","3","3","3","4","2","4","4","4","3","4","4","4","2","2","2","2","2","2","2","4","2","1","0","1","1","0","0","1","1","1","1","1","0","1","0","1","4","2","2","4","4","2","2","4","2","2","708989653960622080","杨","192","","","","null","","","","","","","","","","","","","","key","null","16.680450381679357","1280","716","f","false","match","img/trapezoid.png","梯形","梯形","ALT1_1","prac_ALT1_1","","","","","","","","","",""
"null","<span class='add_' style='color:yellow; font-size: 70px;'> 太慢! </span>","null","html-keyboard-response","12","195304","0.0-7.0-0.0-1.0-0.0-1.1","3","3","3","3","3","3","3","3","3","3","3","4","2","4","4","4","3","4","4","4","2","2","2","2","2","2","2","4","2","1","0","1","1","0","0","1","1","1","1","1","0","1","0","1","4","2","2","4","4","2","2","4","2","2","708989653960622080","杨","192","","","","","","","","","","","","","","","","","","","","","","","","","","","","","","feedback_test","","","","","","","","","",""
"512","","f","psychophysics","13","196818","0.0-7.0-0.0-1.0-0.0-0.2","3","3","3","3","3","3","3","3","3","3","3","4","2","4","4","4","3","4","4","4","2","2","2","2","2","2","2","4","2","1","0","1","1","0","0","1","1","1","1","1","0","1","0","1","4","2","2","4","4","2","2","4","2","2","708989653960622080","杨","192","","","","match","","","","","","","","","","","","","","key","f","16.68367777777797","1280","716","j","false","nonmatch","img/ellipse.png","六边","椭圆","ALT1_1","prac_ALT1_1","","","","","","","","","",""
"null","<span style='color:red; font-size: 70px;'>错误! </span>","null","html-keyboard-response","14","197318","0.0-7.0-0.0-1.0-0.0-1.2","3","3","3","3","3","3","3","3","3","3","3","4","2","4","4","4","3","4","4","4","2","2","2","2","2","2","2","4","2","1","0","1","1","0","0","1","1","1","1","1","0","1","0","1","4","2","2","4","4","2","2","4","2","2","708989653960622080","杨","192","","","","","","","","","","","","","","","","","","","","","","","","","","","","","","feedback_test","","","","","","","","","",""
"865","","f","psychophysics","15","199185","0.0-7.0-0.0-1.0-0.0-0.3","3","3","3","3","3","3","3","3","3","3","3","4","2","4","4","4","3","4","4","4","2","2","2","2","2","2","2","4","2","1","0","1","1","0","0","1","1","1","1","1","0","1","0","1","4","2","2","4","4","2","2","4","2","2","708989653960622080","杨","192","","","","match","","","","","","","","","","","","","","key","f","16.680225225225005","1280","716","f","true","match","img/diamond.png","菱形","菱形","ALT1_1","prac_ALT1_1","","","","","","","","","",""
"null","<span style='color:GreenYellow; font-size: 70px;'>正确! </span>","null","html-keyboard-response","16","199701","0.0-7.0-0.0-1.0-0.0-1.3","3","3","3","3","3","3","3","3","3","3","3","4","2","4","4","4","3","4","4","4","2","2","2","2","2","2","2","4","2","1","0","1","1","0","0","1","1","1","1","1","0","1","0","1","4","2","2","4","4","2","2","4","2","2","708989653960622080","杨","192","","","","","","","","","","","","","","","","","","","","","","","","","","","","","","feedback_test","","","","","","","","","",""
"938","","f","psychophysics","17","201641","0.0-7.0-0.0-1.0-0.0-0.4","3","3","3","3","3","3","3","3","3","3","3","4","2","4","4","4","3","4","4","4","2","2","2","2","2","2","2","4","2","1","0","1","1","0","0","1","1","1","1","1","0","1","0","1","4","2","2","4","4","2","2","4","2","2","708989653960622080","杨","192","","","","match","","","","","","","","","","","","","","key","f","16.682469565217616","1280","716","j","false","nonmatch","img/hexagon.png","椭圆","六边","ALT1_1","prac_ALT1_1","","","","","","","","","",""
"null","<span style='color:red; font-size: 70px;'>错误! </span>","null","html-keyboard-response","18","202142","0.0-7.0-0.0-1.0-0.0-1.4","3","3","3","3","3","3","3","3","3","3","3","4","2","4","4","4","3","4","4","4","2","2","2","2","2","2","2","4","2","1","0","1","1","0","0","1","1","1","1","1","0","1","0","1","4","2","2","4","4","2","2","4","2","2","708989653960622080","杨","192","","","","","","","","","","","","","","","","","","","","","","","","","","","","","","feedback_test","","","","","","","","","",""
"1146","","f","psychophysics","19","204289","0.0-7.0-0.0-1.0-0.0-0.5","3","3","3","3","3","3","3","3","3","3","3","4","2","4","4","4","3","4","4","4","2","2","2","2","2","2","2","4","2","1","0","1","1","0","0","1","1","1","1","1","0","1","0","1","4","2","2","4","4","2","2","4","2","2","708989653960622080","杨","192","","","","match","","","","","","","","","","","","","","key","f","16.6798906250001","1280","716","f","true","match","img/hexagon.png","六边","六边","ALT1_1","prac_ALT1_1","","","","","","","","","",""
"null","<span style='color:GreenYellow; font-size: 70px;'>正确! </span>","null","html-keyboard-response","20","204790","0.0-7.0-0.0-1.0-0.0-1.5","3","3","3","3","3","3","3","3","3","3","3","4","2","4","4","4","3","4","4","4","2","2","2","2","2","2","2","4","2","1","0","1","1","0","0","1","1","1","1","1","0","1","0","1","4","2","2","4","4","2","2","4","2","2","708989653960622080","杨","192","","","","","","","","","","","","","","","","","","","","","","","","","","","","","","feedback_test","","","","","","","","","",""
"865","","f","psychophysics","21","206657","0.0-7.0-0.0-1.0-0.0-0.6","3","3","3","3","3","3","3","3","3","3","3","4","2","4","4","4","3","4","4","4","2","2","2","2","2","2","2","4","2","1","0","1","1","0","0","1","1","1","1","1","0","1","0","1","4","2","2","4","4","2","2","4","2","2","708989653960622080","杨","192","","","","match","","","","","","","","","","","","","","key","f","16.68047747747744","1280","716","f","true","match","img/ellipse.png","椭圆","椭圆","ALT1_1","prac_ALT1_1","","","","","","","","","",""
"null","<span style='color:GreenYellow; font-size: 70px;'>正确! </span>","null","html-keyboard-response","22","207158","0.0-7.0-0.0-1.0-0.0-1.6","3","3","3","3","3","3","3","3","3","3","3","4","2","4","4","4","3","4","4","4","2","2","2","2","2","2","2","4","2","1","0","1","1","0","0","1","1","1","1","1","0","1","0","1","4","2","2","4","4","2","2","4","2","2","708989653960622080","杨","192","","","","","","","","","","","","","","","","","","","","","","","","","","","","","","feedback_test","","","","","","","","","",""
"897","","f","psychophysics","23","209057","0.0-7.0-0.0-1.0-0.0-0.7","3","3","3","3","3","3","3","3","3","3","3","4","2","4","4","4","3","4","4","4","2","2","2","2","2","2","2","4","2","1","0","1","1","0","0","1","1","1","1","1","0","1","0","1","4","2","2","4","4","2","2","4","2","2","708989653960622080","杨","192","","","","match","","","","","","","","","","","","","","key","f","16.681982300884812","1280","716","f","true","match","img/ellipse.png","椭圆","椭圆","ALT1_1","prac_ALT1_1","","","","","","","","","",""
"null","<span style='color:GreenYellow; font-size: 70px;'>正确! </span>","null","html-keyboard-response","24","209558","0.0-7.0-0.0-1.0-0.0-1.7","3","3","3","3","3","3","3","3","3","3","3","4","2","4","4","4","3","4","4","4","2","2","2","2","2","2","2","4","2","1","0","1","1","0","0","1","1","1","1","1","0","1","0","1","4","2","2","4","4","2","2","4","2","2","708989653960622080","杨","192","","","","","","","","","","","","","","","","","","","","","","","","","","","","","","feedback_test","","","","","","","","","",""
"897","","f","psychophysics","25","211457","0.0-7.0-0.0-1.0-0.0-0.8","3","3","3","3","3","3","3","3","3","3","3","4","2","4","4","4","3","4","4","4","2","2","2","2","2","2","2","4","2","1","0","1","1","0","0","1","1","1","1","1","0","1","0","1","4","2","2","4","4","2","2","4","2","2","708989653960622080","杨","192","","","","match","","","","","","","","","","","","","","key","f","16.68238938053085","1280","716","f","true","match","img/diamond.png","菱形","菱形","ALT1_1","prac_ALT1_1","","","","","","","","","",""
"null","<span style='color:GreenYellow; font-size: 70px;'>正确! </span>","null","html-keyboard-response","26","211958","0.0-7.0-0.0-1.0-0.0-1.8","3","3","3","3","3","3","3","3","3","3","3","4","2","4","4","4","3","4","4","4","2","2","2","2","2","2","2","4","2","1","0","1","1","0","0","1","1","1","1","1","0","1","0","1","4","2","2","4","4","2","2","4","2","2","708989653960622080","杨","192","","","","","","","","","","","","","","","","","","","","","","","","","","","","","","feedback_test","","","","","","","","","",""
"962","","j","psychophysics","27","213921","0.0-7.0-0.0-1.0-0.0-0.9","3","3","3","3","3","3","3","3","3","3","3","4","2","4","4","4","3","4","4","4","2","2","2","2","2","2","2","4","2","1","0","1","1","0","0","1","1","1","1","1","0","1","0","1","4","2","2","4","4","2","2","4","2","2","708989653960622080","杨","192","","","","nonmatch","","","","","","","","","","","","","","key","j","16.680534482758457","1280","716","f","false","match","img/trapezoid.png","梯形","梯形","ALT1_1","prac_ALT1_1","","","","","","","","","",""
"null","<span style='color:red; font-size: 70px;'>错误! </span>","null","html-keyboard-response","28","214422","0.0-7.0-0.0-1.0-0.0-1.9","3","3","3","3","3","3","3","3","3","3","3","4","2","4","4","4","3","4","4","4","2","2","2","2","2","2","2","4","2","1","0","1","1","0","0","1","1","1","1","1","0","1","0","1","4","2","2","4","4","2","2","4","2","2","708989653960622080","杨","192","","","","","","","","","","","","","","","","","","","","","","","","","","","","","","feedback_test","","","","","","","","","",""
"1082","","j","psychophysics","29","216505","0.0-7.0-0.0-1.0-0.0-0.10","3","3","3","3","3","3","3","3","3","3","3","4","2","4","4","4","3","4","4","4","2","2","2","2","2","2","2","4","2","1","0","1","1","0","0","1","1","1","1","1","0","1","0","1","4","2","2","4","4","2","2","4","2","2","708989653960622080","杨","192","","","","nonmatch","","","","","","","","","","","","","","key","j","16.680357723577306","1280","716","j","true","nonmatch","img/diamond.png","六边","菱形","ALT1_1","prac_ALT1_1","","","","","","","","","",""
"null","<span style='color:GreenYellow; font-size: 70px;'>正确! </span>","null","html-keyboard-response","30","217006","0.0-7.0-0.0-1.0-0.0-1.10","3","3","3","3","3","3","3","3","3","3","3","4","2","4","4","4","3","4","4","4","2","2","2","2","2","2","2","4","2","1","0","1","1","0","0","1","1","1","1","1","0","1","0","1","4","2","2","4","4","2","2","4","2","2","708989653960622080","杨","192","","","","","","","","","","","","","","","","","","","","","","","","","","","","","","feedback_test","","","","","","","","","",""
"938","","j","psychophysics","31","218945","0.0-7.0-0.0-1.0-0.0-0.11","3","3","3","3","3","3","3","3","3","3","3","4","2","4","4","4","3","4","4","4","2","2","2","2","2","2","2","4","2","1","0","1","1","0","0","1","1","1","1","1","0","1","0","1","4","2","2","4","4","2","2","4","2","2","708989653960622080","杨","192","","","","nonmatch","","","","","","","","","","","","","","key","j","16.6801217391305","1280","716","j","true","nonmatch","img/ellipse.png","菱形","椭圆","ALT1_1","prac_ALT1_1","","","","","","","","","",""
"null","<span style='color:GreenYellow; font-size: 70px;'>正确! </span>","null","html-keyboard-response","32","219445","0.0-7.0-0.0-1.0-0.0-1.11","3","3","3","3","3","3","3","3","3","3","3","4","2","4","4","4","3","4","4","4","2","2","2","2","2","2","2","4","2","1","0","1","1","0","0","1","1","1","1","1","0","1","0","1","4","2","2","4","4","2","2","4","2","2","708989653960622080","杨","192","","","","","","","","","","","","","","","","","","","","","","","","","","","","","","feedback_test","","","","","","","","","",""
"null","","null","psychophysics","33","221650","0.0-7.0-0.0-1.0-0.0-0.12","3","3","3","3","3","3","3","3","3","3","3","4","2","4","4","4","3","4","4","4","2","2","2","2","2","2","2","4","2","1","0","1","1","0","0","1","1","1","1","1","0","1","0","1","4","2","2","4","4","2","2","4","2","2","708989653960622080","杨","192","","","","null","","","","","","","","","","","","","","key","null","16.68036641221372","1280","716","j","false","nonmatch","img/trapezoid.png","菱形","梯形","ALT1_1","prac_ALT1_1","","","","","","","","","",""
"null","<span class='add_' style='color:yellow; font-size: 70px;'> 太慢! </span>","null","html-keyboard-response","34","222150","0.0-7.0-0.0-1.0-0.0-1.12","3","3","3","3","3","3","3","3","3","3","3","4","2","4","4","4","3","4","4","4","2","2","2","2","2","2","2","4","2","1","0","1","1","0","0","1","1","1","1","1","0","1","0","1","4","2","2","4","4","2","2","4","2","2","708989653960622080","杨","192","","","","","","","","","","","","","","","","","","","","","","","","","","","","","","feedback_test","","","","","","","","","",""
"849","","f","psychophysics","35","224001","0.0-7.0-0.0-1.0-0.0-0.13","3","3","3","3","3","3","3","3","3","3","3","4","2","4","4","4","3","4","4","4","2","2","2","2","2","2","2","4","2","1","0","1","1","0","0","1","1","1","1","1","0","1","0","1","4","2","2","4","4","2","2","4","2","2","708989653960622080","杨","192","","","","match","","","","","","","","","","","","","","key","f","16.680390909091113","1280","716","f","true","match","img/hexagon.png","六边","六边","ALT1_1","prac_ALT1_1","","","","","","","","","",""
"null","<span style='color:GreenYellow; font-size: 70px;'>正确! </span>","null","html-keyboard-response","36","224502","0.0-7.0-0.0-1.0-0.0-1.13","3","3","3","3","3","3","3","3","3","3","3","4","2","4","4","4","3","4","4","4","2","2","2","2","2","2","2","4","2","1","0","1","1","0","0","1","1","1","1","1","0","1","0","1","4","2","2","4","4","2","2","4","2","2","708989653960622080","杨","192","","","","","","","","","","","","","","","","","","","","","","","","","","","","","","feedback_test","","","","","","","","","",""
"946","","f","psychophysics","37","226449","0.0-7.0-0.0-1.0-0.0-0.14","3","3","3","3","3","3","3","3","3","3","3","4","2","4","4","4","3","4","4","4","2","2","2","2","2","2","2","4","2","1","0","1","1","0","0","1","1","1","1","1","0","1","0","1","4","2","2","4","4","2","2","4","2","2","708989653960622080","杨","192","","","","match","","","","","","","","","","","","","","key","f","16.68011206896536","1280","716","j","false","nonmatch","img/diamond.png","梯形","菱形","ALT1_1","prac_ALT1_1","","","","","","","","","",""
"null","<span style='color:red; font-size: 70px;'>错误! </span>","null","html-keyboard-response","38","226950","0.0-7.0-0.0-1.0-0.0-1.14","3","3","3","3","3","3","3","3","3","3","3","4","2","4","4","4","3","4","4","4","2","2","2","2","2","2","2","4","2","1","0","1","1","0","0","1","1","1","1","1","0","1","0","1","4","2","2","4","4","2","2","4","2","2","708989653960622080","杨","192","","","","","","","","","","","","","","","","","","","","","","","","","","","","","","feedback_test","","","","","","","","","",""
"1178","","j","psychophysics","39","229129","0.0-7.0-0.0-1.0-0.0-0.15","3","3","3","3","3","3","3","3","3","3","3","4","2","4","4","4","3","4","4","4","2","2","2","2","2","2","2","4","2","1","0","1","1","0","0","1","1","1","1","1","0","1","0","1","4","2","2","4","4","2","2","4","2","2","708989653960622080","杨","192","","","","nonmatch","","","","","","","","","","","","","","key","j","16.678434108527217","1280","716","f","false","match","img/trapezoid.png","梯形","梯形","ALT1_1","prac_ALT1_1","","","","","","","","","",""
"null","<span style='color:red; font-size: 70px;'>错误! </span>","null","html-keyboard-response","40","229630","0.0-7.0-0.0-1.0-0.0-1.15","3","3","3","3","3","3","3","3","3","3","3","4","2","4","4","4","3","4","4","4","2","2","2","2","2","2","2","4","2","1","0","1","1","0","0","1","1","1","1","1","0","1","0","1","4","2","2","4","4","2","2","4","2","2","708989653960622080","杨","192","","","","","","","","","","","","","","","","","","","","","","","","","","","","","","feedback_test","","","","","","","","","",""
"1049","","j","psychophysics","41","231681","0.0-7.0-0.0-1.0-0.0-0.16","3","3","3","3","3","3","3","3","3","3","3","4","2","4","4","4","3","4","4","4","2","2","2","2","2","2","2","4","2","1","0","1","1","0","0","1","1","1","1","1","0","1","0","1","4","2","2","4","4","2","2","4","2","2","708989653960622080","杨","192","","","","nonmatch","","","","","","","","","","","","","","key","j","16.680057377049216","1280","716","j","true","nonmatch","img/hexagon.png","梯形","六边","ALT1_1","prac_ALT1_1","","","","","","","","","",""
"null","<span style='color:GreenYellow; font-size: 70px;'>正确! </span>","null","html-keyboard-response","42","232181","0.0-7.0-0.0-1.0-0.0-1.16","3","3","3","3","3","3","3","3","3","3","3","4","2","4","4","4","3","4","4","4","2","2","2","2","2","2","2","4","2","1","0","1","1","0","0","1","1","1","1","1","0","1","0","1","4","2","2","4","4","2","2","4","2","2","708989653960622080","杨","192","","","","","","","","","","","","","","","","","","","","","","","","","","","","","","feedback_test","","","","","","","","","",""
"1155","","j","psychophysics","43","234337","0.0-7.0-0.0-1.0-0.0-0.17","3","3","3","3","3","3","3","3","3","3","3","4","2","4","4","4","3","4","4","4","2","2","2","2","2","2","2","4","2","1","0","1","1","0","0","1","1","1","1","1","0","1","0","1","4","2","2","4","4","2","2","4","2","2","708989653960622080","杨","192","","","","nonmatch","","","","","","","","","","","","","","key","j","16.679875000000038","1280","716","j","true","nonmatch","img/ellipse.png","梯形","椭圆","ALT1_1","prac_ALT1_1","","","","","","","","","",""
"null","<span style='color:GreenYellow; font-size: 70px;'>正确! </span>","null","html-keyboard-response","44","234838","0.0-7.0-0.0-1.0-0.0-1.17","3","3","3","3","3","3","3","3","3","3","3","4","2","4","4","4","3","4","4","4","2","2","2","2","2","2","2","4","2","1","0","1","1","0","0","1","1","1","1","1","0","1","0","1","4","2","2","4","4","2","2","4","2","2","708989653960622080","杨","192","","","","","","","","","","","","","","","","","","","","","","","","","","","","","","feedback_test","","","","","","","","","",""
"818","","f","psychophysics","45","236656","0.0-7.0-0.0-1.0-0.0-0.18","3","3","3","3","3","3","3","3","3","3","3","4","2","4","4","4","3","4","4","4","2","2","2","2","2","2","2","4","2","1","0","1","1","0","0","1","1","1","1","1","0","1","0","1","4","2","2","4","4","2","2","4","2","2","708989653960622080","杨","192","","","","match","","","","","","","","","","","","","","key","f","16.680537037036967","1280","716","f","true","match","img/ellipse.png","椭圆","椭圆","ALT1_1","prac_ALT1_1","","","","","","","","","",""
"null","<span style='color:GreenYellow; font-size: 70px;'>正确! </span>","null","html-keyboard-response","46","237157","0.0-7.0-0.0-1.0-0.0-1.18","3","3","3","3","3","3","3","3","3","3","3","4","2","4","4","4","3","4","4","4","2","2","2","2","2","2","2","4","2","1","0","1","1","0","0","1","1","1","1","1","0","1","0","1","4","2","2","4","4","2","2","4","2","2","708989653960622080","杨","192","","","","","","","","","","","","","","","","","","","","","","","","","","","","","","feedback_test","","","","","","","","","",""
"842","","j","psychophysics","47","239000","0.0-7.0-0.0-1.0-0.0-0.19","3","3","3","3","3","3","3","3","3","3","3","4","2","4","4","4","3","4","4","4","2","2","2","2","2","2","2","4","2","1","0","1","1","0","0","1","1","1","1","1","0","1","0","1","4","2","2","4","4","2","2","4","2","2","708989653960622080","杨","192","","","","nonmatch","","","","","","","","","","","","","","key","j","16.67650458715571","1280","716","j","true","nonmatch","img/trapezoid.png","椭圆","梯形","ALT1_1","prac_ALT1_1","","","","","","","","","",""
"null","<span style='color:GreenYellow; font-size: 70px;'>正确! </span>","null","html-keyboard-response","48","239514","0.0-7.0-0.0-1.0-0.0-1.19","3","3","3","3","3","3","3","3","3","3","3","4","2","4","4","4","3","4","4","4","2","2","2","2","2","2","2","4","2","1","0","1","1","0","0","1","1","1","1","1","0","1","0","1","4","2","2","4","4","2","2","4","2","2","708989653960622080","杨","192","","","","","","","","","","","","","","","","","","","","","","","","","","","","","","feedback_test","","","","","","","","","",""
"901","","j","psychophysics","49","241416","0.0-7.0-0.0-1.0-0.0-0.20","3","3","3","3","3","3","3","3","3","3","3","4","2","4","4","4","3","4","4","4","2","2","2","2","2","2","2","4","2","1","0","1","1","0","0","1","1","1","1","1","0","1","0","1","4","2","2","4","4","2","2","4","2","2","708989653960622080","杨","192","","","","nonmatch","","","","","","","","","","","","","","key","j","16.680327433628385","1280","716","j","true","nonmatch","img/diamond.png","椭圆","菱形","ALT1_1","prac_ALT1_1","","","","","","","","","",""
"null","<span style='color:GreenYellow; font-size: 70px;'>正确! </span>","null","html-keyboard-response","50","241917","0.0-7.0-0.0-1.0-0.0-1.20","3","3","3","3","3","3","3","3","3","3","3","4","2","4","4","4","3","4","4","4","2","2","2","2","2","2","2","4","2","1","0","1","1","0","0","1","1","1","1","1","0","1","0","1","4","2","2","4","4","2","2","4","2","2","708989653960622080","杨","192","","","","","","","","","","","","","","","","","","","","","","","","","","","","","","feedback_test","","","","","","","","","",""
"849","","f","psychophysics","51","243768","0.0-7.0-0.0-1.0-0.0-0.21","3","3","3","3","3","3","3","3","3","3","3","4","2","4","4","4","3","4","4","4","2","2","2","2","2","2","2","4","2","1","0","1","1","0","0","1","1","1","1","1","0","1","0","1","4","2","2","4","4","2","2","4","2","2","708989653960622080","杨","192","","","","match","","","","","","","","","","","","","","key","f","16.680290909090864","1280","716","j","false","nonmatch","img/hexagon.png","菱形","六边","ALT1_1","prac_ALT1_1","","","","","","","","","",""
"null","<span style='color:red; font-size: 70px;'>错误! </span>","null","html-keyboard-response","52","244268","0.0-7.0-0.0-1.0-0.0-1.21","3","3","3","3","3","3","3","3","3","3","3","4","2","4","4","4","3","4","4","4","2","2","2","2","2","2","2","4","2","1","0","1","1","0","0","1","1","1","1","1","0","1","0","1","4","2","2","4","4","2","2","4","2","2","708989653960622080","杨","192","","","","","","","","","","","","","","","","","","","","","","","","","","","","","","feedback_test","","","","","","","","","",""
"874","","f","psychophysics","53","246144","0.0-7.0-0.0-1.0-0.0-0.22","3","3","3","3","3","3","3","3","3","3","3","4","2","4","4","4","3","4","4","4","2","2","2","2","2","2","2","4","2","1","0","1","1","0","0","1","1","1","1","1","0","1","0","1","4","2","2","4","4","2","2","4","2","2","708989653960622080","杨","192","","","","match","","","","","","","","","","","","","","key","f","16.68024324324309","1280","716","f","true","match","img/hexagon.png","六边","六边","ALT1_1","prac_ALT1_1","","","","","","","","","",""
"null","<span style='color:GreenYellow; font-size: 70px;'>正确! </span>","null","html-keyboard-response","54","246646","0.0-7.0-0.0-1.0-0.0-1.22","3","3","3","3","3","3","3","3","3","3","3","4","2","4","4","4","3","4","4","4","2","2","2","2","2","2","2","4","2","1","0","1","1","0","0","1","1","1","1","1","0","1","0","1","4","2","2","4","4","2","2","4","2","2","708989653960622080","杨","192","","","","","","","","","","","","","","","","","","","","","","","","","","","","","","feedback_test","","","","","","","","","",""
"904","","f","psychophysics","55","248552","0.0-7.0-0.0-1.0-0.0-0.23","3","3","3","3","3","3","3","3","3","3","3","4","2","4","4","4","3","4","4","4","2","2","2","2","2","2","2","4","2","1","0","1","1","0","0","1","1","1","1","1","0","1","0","1","4","2","2","4","4","2","2","4","2","2","708989653960622080","杨","192","","","","match","","","","","","","","","","","","","","key","f","16.672743362832023","1280","716","f","true","match","img/diamond.png","菱形","菱形","ALT1_1","prac_ALT1_1","","","","","","","","","",""
"null","<span style='color:GreenYellow; font-size: 70px;'>正确! </span>","null","html-keyboard-response","56","249053","0.0-7.0-0.0-1.0-0.0-1.23","3","3","3","3","3","3","3","3","3","3","3","4","2","4","4","4","3","4","4","4","2","2","2","2","2","2","2","4","2","1","0","1","1","0","0","1","1","1","1","1","0","1","0","1","4","2","2","4","4","2","2","4","2","2","708989653960622080","杨","192","","","","","","","","","","","","","","","","","","","","","","","","","","","","","","feedback_test","","","","","","","","","",""
"873","","f","psychophysics","57","250928","0.0-7.0-0.0-1.0-0.0-0.24","3","3","3","3","3","3","3","3","3","3","3","4","2","4","4","4","3","4","4","4","2","2","2","2","2","2","2","4","2","1","0","1","1","0","0","1","1","1","1","1","0","1","0","1","4","2","2","4","4","2","2","4","2","2","708989653960622080","杨","192","","","","match","","","","","","","","","","","","","","key","f","16.68090990990996","1280","716","f","true","match","img/diamond.png","菱形","菱形","ALT1_1","prac_ALT1_1","","","","","","","","","",""
"null","<span style='color:GreenYellow; font-size: 70px;'>正确! </span>","null","html-keyboard-response","58","251429","0.0-7.0-0.0-1.0-0.0-1.24","3","3","3","3","3","3","3","3","3","3","3","4","2","4","4","4","3","4","4","4","2","2","2","2","2","2","2","4","2","1","0","1","1","0","0","1","1","1","1","1","0","1","0","1","4","2","2","4","4","2","2","4","2","2","708989653960622080","杨","192","","","","","","","","","","","","","","","","","","","","","","","","","","","","","","feedback_test","","","","","","","","","",""
"755","","j","psychophysics","59","253184","0.0-7.0-0.0-1.0-0.0-0.25","3","3","3","3","3","3","3","3","3","3","3","4","2","4","4","4","3","4","4","4","2","2","2","2","2","2","2","4","2","1","0","1","1","0","0","1","1","1","1","1","0","1","0","1","4","2","2","4","4","2","2","4","2","2","708989653960622080","杨","192","","","","nonmatch","","","","","","","","","","","","","","key","j","16.680048076923132","1280","716","j","true","nonmatch","img/diamond.png","椭圆","菱形","ALT1_1","prac_ALT1_1","","","","","","","","","",""
"null","<span style='color:GreenYellow; font-size: 70px;'>正确! </span>","null","html-keyboard-response","60","253686","0.0-7.0-0.0-1.0-0.0-1.25","3","3","3","3","3","3","3","3","3","3","3","4","2","4","4","4","3","4","4","4","2","2","2","2","2","2","2","4","2","1","0","1","1","0","0","1","1","1","1","1","0","1","0","1","4","2","2","4","4","2","2","4","2","2","708989653960622080","杨","192","","","","","","","","","","","","","","","","","","","","","","","","","","","","","","feedback_test","","","","","","","","","",""
"825","","f","psychophysics","61","255512","0.0-7.0-0.0-1.0-0.0-0.26","3","3","3","3","3","3","3","3","3","3","3","4","2","4","4","4","3","4","4","4","2","2","2","2","2","2","2","4","2","1","0","1","1","0","0","1","1","1","1","1","0","1","0","1","4","2","2","4","4","2","2","4","2","2","708989653960622080","杨","192","","","","match","","","","","","","","","","","","","","key","f","16.67098148148162","1280","716","f","true","match","img/ellipse.png","椭圆","椭圆","ALT1_1","prac_ALT1_1","","","","","","","","","",""
"null","<span style='color:GreenYellow; font-size: 70px;'>正确! </span>","null","html-keyboard-response","62","256012","0.0-7.0-0.0-1.0-0.0-1.26","3","3","3","3","3","3","3","3","3","3","3","4","2","4","4","4","3","4","4","4","2","2","2","2","2","2","2","4","2","1","0","1","1","0","0","1","1","1","1","1","0","1","0","1","4","2","2","4","4","2","2","4","2","2","708989653960622080","杨","192","","","","","","","","","","","","","","","","","","","","","","","","","","","","","","feedback_test","","","","","","","","","",""
"850","","f","psychophysics","63","257864","0.0-7.0-0.0-1.0-0.0-0.27","3","3","3","3","3","3","3","3","3","3","3","4","2","4","4","4","3","4","4","4","2","2","2","2","2","2","2","4","2","1","0","1","1","0","0","1","1","1","1","1","0","1","0","1","4","2","2","4","4","2","2","4","2","2","708989653960622080","杨","192","","","","match","","","","","","","","","","","","","","key","f","16.680772727272814","1280","716","j","false","nonmatch","img/hexagon.png","菱形","六边","ALT1_1","prac_ALT1_1","","","","","","","","","",""
"null","<span style='color:red; font-size: 70px;'>错误! </span>","null","html-keyboard-response","64","258365","0.0-7.0-0.0-1.0-0.0-1.27","3","3","3","3","3","3","3","3","3","3","3","4","2","4","4","4","3","4","4","4","2","2","2","2","2","2","2","4","2","1","0","1","1","0","0","1","1","1","1","1","0","1","0","1","4","2","2","4","4","2","2","4","2","2","708989653960622080","杨","192","","","","","","","","","","","","","","","","","","","","","","","","","","","","","","feedback_test","","","","","","","","","",""
"827","","f","psychophysics","65","260192","0.0-7.0-0.0-1.0-0.0-0.28","3","3","3","3","3","3","3","3","3","3","3","4","2","4","4","4","3","4","4","4","2","2","2","2","2","2","2","4","2","1","0","1","1","0","0","1","1","1","1","1","0","1","0","1","4","2","2","4","4","2","2","4","2","2","708989653960622080","杨","192","","","","match","","","","","","","","","","","","","","key","f","16.68004587155963","1280","716","f","true","match","img/diamond.png","菱形","菱形","ALT1_1","prac_ALT1_1","","","","","","","","","",""
"null","<span style='color:GreenYellow; font-size: 70px;'>正确! </span>","null","html-keyboard-response","66","260693","0.0-7.0-0.0-1.0-0.0-1.28","3","3","3","3","3","3","3","3","3","3","3","4","2","4","4","4","3","4","4","4","2","2","2","2","2","2","2","4","2","1","0","1","1","0","0","1","1","1","1","1","0","1","0","1","4","2","2","4","4","2","2","4","2","2","708989653960622080","杨","192","","","","","","","","","","","","","","","","","","","","","","","","","","","","","","feedback_test","","","","","","","","","",""
"784","","j","psychophysics","67","262480","0.0-7.0-0.0-1.0-0.0-0.29","3","3","3","3","3","3","3","3","3","3","3","4","2","4","4","4","3","4","4","4","2","2","2","2","2","2","2","4","2","1","0","1","1","0","0","1","1","1","1","1","0","1","0","1","4","2","2","4","4","2","2","4","2","2","708989653960622080","杨","192","","","","nonmatch","","","","","","","","","","","","","","key","j","16.678820754717133","1280","716","j","true","nonmatch","img/trapezoid.png","菱形","梯形","ALT1_1","prac_ALT1_1","","","","","","","","","",""
"null","<span style='color:GreenYellow; font-size: 70px;'>正确! </span>","null","html-keyboard-response","68","262983","0.0-7.0-0.0-1.0-0.0-1.29","3","3","3","3","3","3","3","3","3","3","3","4","2","4","4","4","3","4","4","4","2","2","2","2","2","2","2","4","2","1","0","1","1","0","0","1","1","1","1","1","0","1","0","1","4","2","2","4","4","2","2","4","2","2","708989653960622080","杨","192","","","","","","","","","","","","","","","","","","","","","","","","","","","","","","feedback_test","","","","","","","","","",""
"815","","f","psychophysics","69","264800","0.0-7.0-0.0-1.0-0.0-0.30","3","3","3","3","3","3","3","3","3","3","3","4","2","4","4","4","3","4","4","4","2","2","2","2","2","2","2","4","2","1","0","1","1","0","0","1","1","1","1","1","0","1","0","1","4","2","2","4","4","2","2","4","2","2","708989653960622080","杨","192","","","","match","","","","","","","","","","","","","","key","f","16.68273148148135","1280","716","f","true","match","img/diamond.png","菱形","菱形","ALT1_1","prac_ALT1_1","","","","","","","","","",""
"null","<span style='color:GreenYellow; font-size: 70px;'>正确! </span>","null","html-keyboard-response","70","265300","0.0-7.0-0.0-1.0-0.0-1.30","3","3","3","3","3","3","3","3","3","3","3","4","2","4","4","4","3","4","4","4","2","2","2","2","2","2","2","4","2","1","0","1","1","0","0","1","1","1","1","1","0","1","0","1","4","2","2","4","4","2","2","4","2","2","708989653960622080","杨","192","","","","","","","","","","","","","","","","","","","","","","","","","","","","","","feedback_test","","","","","","","","","",""
"771","","j","psychophysics","71","267072","0.0-7.0-0.0-1.0-0.0-0.31","3","3","3","3","3","3","3","3","3","3","3","4","2","4","4","4","3","4","4","4","2","2","2","2","2","2","2","4","2","1","0","1","1","0","0","1","1","1","1","1","0","1","0","1","4","2","2","4","4","2","2","4","2","2","708989653960622080","杨","192","","","","nonmatch","","","","","","","","","","","","","","key","j","16.68051428571399","1280","716","j","true","nonmatch","img/hexagon.png","椭圆","六边","ALT1_1","prac_ALT1_1","","","","","","","","","",""
"null","<span style='color:GreenYellow; font-size: 70px;'>正确! </span>","null","html-keyboard-response","72","267572","0.0-7.0-0.0-1.0-0.0-1.31","3","3","3","3","3","3","3","3","3","3","3","4","2","4","4","4","3","4","4","4","2","2","2","2","2","2","2","4","2","1","0","1","1","0","0","1","1","1","1","1","0","1","0","1","4","2","2","4","4","2","2","4","2","2","708989653960622080","杨","192","","","","","","","","","","","","","","","","","","","","","","","","","","","","","","feedback_test","","","","","","","","","",""
"674","","f","psychophysics","73","269248","0.0-7.0-0.0-1.0-0.0-0.32","3","3","3","3","3","3","3","3","3","3","3","4","2","4","4","4","3","4","4","4","2","2","2","2","2","2","2","4","2","1","0","1","1","0","0","1","1","1","1","1","0","1","0","1","4","2","2","4","4","2","2","4","2","2","708989653960622080","杨","192","","","","match","","","","","","","","","","","","","","key","f","16.680262626262824","1280","716","f","true","match","img/ellipse.png","椭圆","椭圆","ALT1_1","prac_ALT1_1","","","","","","","","","",""
"null","<span style='color:GreenYellow; font-size: 70px;'>正确! </span>","null","html-keyboard-response","74","269749","0.0-7.0-0.0-1.0-0.0-1.32","3","3","3","3","3","3","3","3","3","3","3","4","2","4","4","4","3","4","4","4","2","2","2","2","2","2","2","4","2","1","0","1","1","0","0","1","1","1","1","1","0","1","0","1","4","2","2","4","4","2","2","4","2","2","708989653960622080","杨","192","","","","","","","","","","","","","","","","","","","","","","","","","","","","","","feedback_test","","","","","","","","","",""
"962","","j","psychophysics","75","271712","0.0-7.0-0.0-1.0-0.0-0.33","3","3","3","3","3","3","3","3","3","3","3","4","2","4","4","4","3","4","4","4","2","2","2","2","2","2","2","4","2","1","0","1","1","0","0","1","1","1","1","1","0","1","0","1","4","2","2","4","4","2","2","4","2","2","708989653960622080","杨","192","","","","nonmatch","","","","","","","","","","","","","","key","j","16.683500000000187","1280","716","f","false","match","img/trapezoid.png","梯形","梯形","ALT1_1","prac_ALT1_1","","","","","","","","","",""
"null","<span style='color:red; font-size: 70px;'>错误! </span>","null","html-keyboard-response","76","272213","0.0-7.0-0.0-1.0-0.0-1.33","3","3","3","3","3","3","3","3","3","3","3","4","2","4","4","4","3","4","4","4","2","2","2","2","2","2","2","4","2","1","0","1","1","0","0","1","1","1","1","1","0","1","0","1","4","2","2","4","4","2","2","4","2","2","708989653960622080","杨","192","","","","","","","","","","","","","","","","","","","","","","","","","","","","","","feedback_test","","","","","","","","","",""
"1106","","j","psychophysics","77","274320","0.0-7.0-0.0-1.0-0.0-0.34","3","3","3","3","3","3","3","3","3","3","3","4","2","4","4","4","3","4","4","4","2","2","2","2","2","2","2","4","2","1","0","1","1","0","0","1","1","1","1","1","0","1","0","1","4","2","2","4","4","2","2","4","2","2","708989653960622080","杨","192","","","","nonmatch","","","","","","","","","","","","","","key","j","16.680373015873123","1280","716","j","true","nonmatch","img/ellipse.png","菱形","椭圆","ALT1_1","prac_ALT1_1","","","","","","","","","",""
"null","<span style='color:GreenYellow; font-size: 70px;'>正确! </span>","null","html-keyboard-response","78","274821","0.0-7.0-0.0-1.0-0.0-1.34","3","3","3","3","3","3","3","3","3","3","3","4","2","4","4","4","3","4","4","4","2","2","2","2","2","2","2","4","2","1","0","1","1","0","0","1","1","1","1","1","0","1","0","1","4","2","2","4","4","2","2","4","2","2","708989653960622080","杨","192","","","","","","","","","","","","","","","","","","","","","","","","","","","","","","feedback_test","","","","","","","","","",""
"962","","j","psychophysics","79","276784","0.0-7.0-0.0-1.0-0.0-0.35","3","3","3","3","3","3","3","3","3","3","3","4","2","4","4","4","3","4","4","4","2","2","2","2","2","2","2","4","2","1","0","1","1","0","0","1","1","1","1","1","0","1","0","1","4","2","2","4","4","2","2","4","2","2","708989653960622080","杨","192","","","","nonmatch","","","","","","","","","","","","","","key","j","16.680525862068894","1280","716","j","true","nonmatch","img/hexagon.png","梯形","六边","ALT1_1","prac_ALT1_1","","","","","","","","","",""
"null","<span style='color:GreenYellow; font-size: 70px;'>正确! </span>","null","html-keyboard-response","80","277284","0.0-7.0-0.0-1.0-0.0-1.35","3","3","3","3","3","3","3","3","3","3","3","4","2","4","4","4","3","4","4","4","2","2","2","2","2","2","2","4","2","1","0","1","1","0","0","1","1","1","1","1","0","1","0","1","4","2","2","4","4","2","2","4","2","2","708989653960622080","杨","192","","","","","","","","","","","","","","","","","","","","","","","","","","","","","","feedback_test","","","","","","","","","",""
"762","","j","psychophysics","81","279047","0.0-7.0-0.0-1.0-0.0-0.36","3","3","3","3","3","3","3","3","3","3","3","4","2","4","4","4","3","4","4","4","2","2","2","2","2","2","2","4","2","1","0","1","1","0","0","1","1","1","1","1","0","1","0","1","4","2","2","4","4","2","2","4","2","2","708989653960622080","杨","192","","","","nonmatch","","","","","","","","","","","","","","key","j","16.682133333333436","1280","716","j","true","nonmatch","img/ellipse.png","六边","椭圆","ALT1_1","prac_ALT1_1","","","","","","","","","",""
"null","<span style='color:GreenYellow; font-size: 70px;'>正确! </span>","null","html-keyboard-response","82","279549","0.0-7.0-0.0-1.0-0.0-1.36","3","3","3","3","3","3","3","3","3","3","3","4","2","4","4","4","3","4","4","4","2","2","2","2","2","2","2","4","2","1","0","1","1","0","0","1","1","1","1","1","0","1","0","1","4","2","2","4","4","2","2","4","2","2","708989653960622080","杨","192","","","","","","","","","","","","","","","","","","","","","","","","","","","","","","feedback_test","","","","","","","","","",""
"666","","f","psychophysics","83","281216","0.0-7.0-0.0-1.0-0.0-0.37","3","3","3","3","3","3","3","3","3","3","3","4","2","4","4","4","3","4","4","4","2","2","2","2","2","2","2","4","2","1","0","1","1","0","0","1","1","1","1","1","0","1","0","1","4","2","2","4","4","2","2","4","2","2","708989653960622080","杨","192","","","","match","","","","","","","","","","","","","","key","f","16.682898989899172","1280","716","f","true","match","img/ellipse.png","椭圆","椭圆","ALT1_1","prac_ALT1_1","","","","","","","","","",""
"null","<span style='color:GreenYellow; font-size: 70px;'>正确! </span>","null","html-keyboard-response","84","281717","0.0-7.0-0.0-1.0-0.0-1.37","3","3","3","3","3","3","3","3","3","3","3","4","2","4","4","4","3","4","4","4","2","2","2","2","2","2","2","4","2","1","0","1","1","0","0","1","1","1","1","1","0","1","0","1","4","2","2","4","4","2","2","4","2","2","708989653960622080","杨","192","","","","","","","","","","","","","","","","","","","","","","","","","","","","","","feedback_test","","","","","","","","","",""
"794","","j","psychophysics","85","283512","0.0-7.0-0.0-1.0-0.0-0.38","3","3","3","3","3","3","3","3","3","3","3","4","2","4","4","4","3","4","4","4","2","2","2","2","2","2","2","4","2","1","0","1","1","0","0","1","1","1","1","1","0","1","0","1","4","2","2","4","4","2","2","4","2","2","708989653960622080","杨","192","","","","nonmatch","","","","","","","","","","","","","","key","j","16.684093457944233","1280","716","j","true","nonmatch","img/trapezoid.png","六边","梯形","ALT1_1","prac_ALT1_1","","","","","","","","","",""
"null","<span style='color:GreenYellow; font-size: 70px;'>正确! </span>","null","html-keyboard-response","86","284013","0.0-7.0-0.0-1.0-0.0-1.38","3","3","3","3","3","3","3","3","3","3","3","4","2","4","4","4","3","4","4","4","2","2","2","2","2","2","2","4","2","1","0","1","1","0","0","1","1","1","1","1","0","1","0","1","4","2","2","4","4","2","2","4","2","2","708989653960622080","杨","192","","","","","","","","","","","","","","","","","","","","","","","","","","","","","","feedback_test","","","","","","","","","",""
"857","","j","psychophysics","87","285871","0.0-7.0-0.0-1.0-0.0-0.39","3","3","3","3","3","3","3","3","3","3","3","4","2","4","4","4","3","4","4","4","2","2","2","2","2","2","2","4","2","1","0","1","1","0","0","1","1","1","1","1","0","1","0","1","4","2","2","4","4","2","2","4","2","2","708989653960622080","杨","192","","","","nonmatch","","","","","","","","","","","","","","key","j","16.68264545454559","1280","716","j","true","nonmatch","img/trapezoid.png","椭圆","梯形","ALT1_1","prac_ALT1_1","","","","","","","","","",""
"null","<span style='color:GreenYellow; font-size: 70px;'>正确! </span>","null","html-keyboard-response","88","286372","0.0-7.0-0.0-1.0-0.0-1.39","3","3","3","3","3","3","3","3","3","3","3","4","2","4","4","4","3","4","4","4","2","2","2","2","2","2","2","4","2","1","0","1","1","0","0","1","1","1","1","1","0","1","0","1","4","2","2","4","4","2","2","4","2","2","708989653960622080","杨","192","","","","","","","","","","","","","","","","","","","","","","","","","","","","","","feedback_test","","","","","","","","","",""
"978","","j","psychophysics","89","288352","0.0-7.0-0.0-1.0-0.0-0.40","3","3","3","3","3","3","3","3","3","3","3","4","2","4","4","4","3","4","4","4","2","2","2","2","2","2","2","4","2","1","0","1","1","0","0","1","1","1","1","1","0","1","0","1","4","2","2","4","4","2","2","4","2","2","708989653960622080","杨","192","","","","nonmatch","","","","","","","","","","","","","","key","j","16.6802542372878","1280","716","j","true","nonmatch","img/diamond.png","六边","菱形","ALT1_1","prac_ALT1_1","","","","","","","","","",""
"null","<span style='color:GreenYellow; font-size: 70px;'>正确! </span>","null","html-keyboard-response","90","288852","0.0-7.0-0.0-1.0-0.0-1.40","3","3","3","3","3","3","3","3","3","3","3","4","2","4","4","4","3","4","4","4","2","2","2","2","2","2","2","4","2","1","0","1","1","0","0","1","1","1","1","1","0","1","0","1","4","2","2","4","4","2","2","4","2","2","708989653960622080","杨","192","","","","","","","","","","","","","","","","","","","","","","","","","","","","","","feedback_test","","","","","","","","","",""
"1002","","f","psychophysics","91","290855","0.0-7.0-0.0-1.0-0.0-0.41","3","3","3","3","3","3","3","3","3","3","3","4","2","4","4","4","3","4","4","4","2","2","2","2","2","2","2","4","2","1","0","1","1","0","0","1","1","1","1","1","0","1","0","1","4","2","2","4","4","2","2","4","2","2","708989653960622080","杨","192","","","","match","","","","","","","","","","","","","","key","f","16.680142857143146","1280","716","f","true","match","img/trapezoid.png","梯形","梯形","ALT1_1","prac_ALT1_1","","","","","","","","","",""
"null","<span style='color:GreenYellow; font-size: 70px;'>正确! </span>","null","html-keyboard-response","92","291356","0.0-7.0-0.0-1.0-0.0-1.41","3","3","3","3","3","3","3","3","3","3","3","4","2","4","4","4","3","4","4","4","2","2","2","2","2","2","2","4","2","1","0","1","1","0","0","1","1","1","1","1","0","1","0","1","4","2","2","4","4","2","2","4","2","2","708989653960622080","杨","192","","","","","","","","","","","","","","","","","","","","","","","","","","","","","","feedback_test","","","","","","","","","",""
"1027","","j","psychophysics","93","293384","0.0-7.0-0.0-1.0-0.0-0.42","3","3","3","3","3","3","3","3","3","3","3","4","2","4","4","4","3","4","4","4","2","2","2","2","2","2","2","4","2","1","0","1","1","0","0","1","1","1","1","1","0","1","0","1","4","2","2","4","4","2","2","4","2","2","708989653960622080","杨","192","","","","nonmatch","","","","","","","","","","","","","","key","j","16.680325000000206","1280","716","f","false","match","img/hexagon.png","六边","六边","ALT1_1","prac_ALT1_1","","","","","","","","","",""
"null","<span style='color:red; font-size: 70px;'>错误! </span>","null","html-keyboard-response","94","293885","0.0-7.0-0.0-1.0-0.0-1.42","3","3","3","3","3","3","3","3","3","3","3","4","2","4","4","4","3","4","4","4","2","2","2","2","2","2","2","4","2","1","0","1","1","0","0","1","1","1","1","1","0","1","0","1","4","2","2","4","4","2","2","4","2","2","708989653960622080","杨","192","","","","","","","","","","","","","","","","","","","","","","","","","","","","","","feedback_test","","","","","","","","","",""
"1097","","f","psychophysics","95","295983","0.0-7.0-0.0-1.0-0.0-0.43","3","3","3","3","3","3","3","3","3","3","3","4","2","4","4","4","3","4","4","4","2","2","2","2","2","2","2","4","2","1","0","1","1","0","0","1","1","1","1","1","0","1","0","1","4","2","2","4","4","2","2","4","2","2","708989653960622080","杨","192","","","","match","","","","","","","","","","","","","","key","f","16.68137096774233","1280","716","f","true","match","img/trapezoid.png","梯形","梯形","ALT1_1","prac_ALT1_1","","","","","","","","","",""
"null","<span style='color:GreenYellow; font-size: 70px;'>正确! </span>","null","html-keyboard-response","96","296485","0.0-7.0-0.0-1.0-0.0-1.43","3","3","3","3","3","3","3","3","3","3","3","4","2","4","4","4","3","4","4","4","2","2","2","2","2","2","2","4","2","1","0","1","1","0","0","1","1","1","1","1","0","1","0","1","4","2","2","4","4","2","2","4","2","2","708989653960622080","杨","192","","","","","","","","","","","","","","","","","","","","","","","","","","","","","","feedback_test","","","","","","","","","",""
"963","","f","psychophysics","97","298448","0.0-7.0-0.0-1.0-0.0-0.44","3","3","3","3","3","3","3","3","3","3","3","4","2","4","4","4","3","4","4","4","2","2","2","2","2","2","2","4","2","1","0","1","1","0","0","1","1","1","1","1","0","1","0","1","4","2","2","4","4","2","2","4","2","2","708989653960622080","杨","192","","","","match","","","","","","","","","","","","","","key","f","16.68011965811985","1280","716","f","true","match","img/hexagon.png","六边","六边","ALT1_1","prac_ALT1_1","","","","","","","","","",""
"null","<span style='color:GreenYellow; font-size: 70px;'>正确! </span>","null","html-keyboard-response","98","298949","0.0-7.0-0.0-1.0-0.0-1.44","3","3","3","3","3","3","3","3","3","3","3","4","2","4","4","4","3","4","4","4","2","2","2","2","2","2","2","4","2","1","0","1","1","0","0","1","1","1","1","1","0","1","0","1","4","2","2","4","4","2","2","4","2","2","708989653960622080","杨","192","","","","","","","","","","","","","","","","","","","","","","","","","","","","","","feedback_test","","","","","","","","","",""
"802","","f","psychophysics","99","300752","0.0-7.0-0.0-1.0-0.0-0.45","3","3","3","3","3","3","3","3","3","3","3","4","2","4","4","4","3","4","4","4","2","2","2","2","2","2","2","4","2","1","0","1","1","0","0","1","1","1","1","1","0","1","0","1","4","2","2","4","4","2","2","4","2","2","708989653960622080","杨","192","","","","match","","","","","","","","","","","","","","key","f","16.68108411214943","1280","716","j","false","nonmatch","img/ellipse.png","梯形","椭圆","ALT1_1","prac_ALT1_1","","","","","","","","","",""
"null","<span style='color:red; font-size: 70px;'>错误! </span>","null","html-keyboard-response","100","301253","0.0-7.0-0.0-1.0-0.0-1.45","3","3","3","3","3","3","3","3","3","3","3","4","2","4","4","4","3","4","4","4","2","2","2","2","2","2","2","4","2","1","0","1","1","0","0","1","1","1","1","1","0","1","0","1","4","2","2","4","4","2","2","4","2","2","708989653960622080","杨","192","","","","","","","","","","","","","","","","","","","","","","","","","","","","","","feedback_test","","","","","","","","","",""
"937","","f","psychophysics","101","303192","0.0-7.0-0.0-1.0-0.0-0.46","3","3","3","3","3","3","3","3","3","3","3","4","2","4","4","4","3","4","4","4","2","2","2","2","2","2","2","4","2","1","0","1","1","0","0","1","1","1","1","1","0","1","0","1","4","2","2","4","4","2","2","4","2","2","708989653960622080","杨","192","","","","match","","","","","","","","","","","","","","key","f","16.680243478260895","1280","716","f","true","match","img/hexagon.png","六边","六边","ALT1_1","prac_ALT1_1","","","","","","","","","",""
"null","<span style='color:GreenYellow; font-size: 70px;'>正确! </span>","null","html-keyboard-response","102","303693","0.0-7.0-0.0-1.0-0.0-1.46","3","3","3","3","3","3","3","3","3","3","3","4","2","4","4","4","3","4","4","4","2","2","2","2","2","2","2","4","2","1","0","1","1","0","0","1","1","1","1","1","0","1","0","1","4","2","2","4","4","2","2","4","2","2","708989653960622080","杨","192","","","","","","","","","","","","","","","","","","","","","","","","","","","","","","feedback_test","","","","","","","","","",""
"905","","f","psychophysics","103","305600","0.0-7.0-0.0-1.0-0.0-0.47","3","3","3","3","3","3","3","3","3","3","3","4","2","4","4","4","3","4","4","4","2","2","2","2","2","2","2","4","2","1","0","1","1","0","0","1","1","1","1","1","0","1","0","1","4","2","2","4","4","2","2","4","2","2","708989653960622080","杨","192","","","","match","","","","","","","","","","","","","","key","f","16.6821061946906","1280","716","j","false","nonmatch","img/diamond.png","梯形","菱形","ALT1_1","prac_ALT1_1","","","","","","","","","",""
"null","<span style='color:red; font-size: 70px;'>错误! </span>","null","html-keyboard-response","104","306101","0.0-7.0-0.0-1.0-0.0-1.47","3","3","3","3","3","3","3","3","3","3","3","4","2","4","4","4","3","4","4","4","2","2","2","2","2","2","2","4","2","1","0","1","1","0","0","1","1","1","1","1","0","1","0","1","4","2","2","4","4","2","2","4","2","2","708989653960622080","杨","192","","","","","","","","","","","","","","","","","","","","","","","","","","","","","","feedback_test","","","","","","","","","",""
"18530","<style>.context{color:white; font-size: 35px; line-height:40px}</style>                            <div><p class='context'>您正确回答了71% 的试次。</p><p class='context'>您的平均反应时为898毫秒。</p><p class='context'>恭喜您完成练习。按空格键进入正式实验。</p><p class='footer' style='font-size: 35px; line-height:40px;'>请在进入正式实验之前将您的<span style='color: lightgreen;'>食指</span>放在电脑键盘的相应键位上进行按键。</p>"," ","html-keyboard-response","105","324632","0.0-7.0-0.0-2.0","3","3","3","3","3","3","3","3","3","3","3","4","2","4","4","4","3","4","4","4","2","2","2","2","2","2","2","4","2","1","0","1","1","0","0","1","1","1","1","1","0","1","0","1","4","2","2","4","4","2","2","4","2","2","708989653960622080","杨","192","","","","","","","","","","","","","","","","","","","","","","","","","","","","","","","","","","","","","","","",""
"1326","
    <p style='color: white; font-size: 22px'>请您将手指放在按键上，准备进入正式的匹配任务。</p>
    <p> <div style = ""color: green""><按空格键进入下一阶段的匹配任务></div></p>
    "," ","html-keyboard-response","106","325960","0.0-7.0-0.0-3.0","3","3","3","3","3","3","3","3","3","3","3","4","2","4","4","4","3","4","4","4","2","2","2","2","2","2","2","4","2","1","0","1","1","0","0","1","1","1","1","1","0","1","0","1","4","2","2","4","4","2","2","4","2","2","708989653960622080","杨","192","","","","","","","","","","","","","","","","","","","","","","","","","","","","","","","","","","","","","","","",""
"791","","j","psychophysics","107","327752","0.0-7.0-0.0-4.0-0.0-0.0","3","3","3","3","3","3","3","3","3","3","3","4","2","4","4","4","3","4","4","4","2","2","2","2","2","2","2","4","2","1","0","1","1","0","0","1","1","1","1","1","0","1","0","1","4","2","2","4","4","2","2","4","2","2","708989653960622080","杨","192","","","","nonmatch","","","","","","","","","","","","","","key","j","16.68007476635497","1280","716","j","true","nonmatch","img/ellipse.png","六边","椭圆","ALT1","formal_ALT1_1","","","","","","","","","",""
"null","<span style='color:GreenYellow; font-size: 70px;'>正确! </span>","null","html-keyboard-response","108","328252","0.0-7.0-0.0-4.0-0.0-1.0","3","3","3","3","3","3","3","3","3","3","3","4","2","4","4","4","3","4","4","4","2","2","2","2","2","2","2","4","2","1","0","1","1","0","0","1","1","1","1","1","0","1","0","1","4","2","2","4","4","2","2","4","2","2","708989653960622080","杨","192","","","","","","","","","","","","","","","","","","","","","","","","","","","","","","feedback_test","","","","","","","","","",""
"682","","f","psychophysics","109","329936","0.0-7.0-0.0-4.0-0.0-0.1","3","3","3","3","3","3","3","3","3","3","3","4","2","4","4","4","3","4","4","4","2","2","2","2","2","2","2","4","2","1","0","1","1","0","0","1","1","1","1","1","0","1","0","1","4","2","2","4","4","2","2","4","2","2","708989653960622080","杨","192","","","","match","","","","","","","","","","","","","","key","f","16.68277000000002","1280","716","f","true","match","img/ellipse.png","椭圆","椭圆","ALT1","formal_ALT1_1","","","","","","","","","",""
"null","<span style='color:GreenYellow; font-size: 70px;'>正确! </span>","null","html-keyboard-response","110","330436","0.0-7.0-0.0-4.0-0.0-1.1","3","3","3","3","3","3","3","3","3","3","3","4","2","4","4","4","3","4","4","4","2","2","2","2","2","2","2","4","2","1","0","1","1","0","0","1","1","1","1","1","0","1","0","1","4","2","2","4","4","2","2","4","2","2","708989653960622080","杨","192","","","","","","","","","","","","","","","","","","","","","","","","","","","","","","feedback_test","","","","","","","","","",""
"1098","","f","psychophysics","111","332536","0.0-7.0-0.0-4.0-0.0-0.2","3","3","3","3","3","3","3","3","3","3","3","4","2","4","4","4","3","4","4","4","2","2","2","2","2","2","2","4","2","1","0","1","1","0","0","1","1","1","1","1","0","1","0","1","4","2","2","4","4","2","2","4","2","2","708989653960622080","杨","192","","","","match","","","","","","","","","","","","","","key","f","16.680351999999957","1280","716","f","true","match","img/trapezoid.png","梯形","梯形","ALT1","formal_ALT1_1","","","","","","","","","",""
"null","<span style='color:GreenYellow; font-size: 70px;'>正确! </span>","null","html-keyboard-response","112","333037","0.0-7.0-0.0-4.0-0.0-1.2","3","3","3","3","3","3","3","3","3","3","3","4","2","4","4","4","3","4","4","4","2","2","2","2","2","2","2","4","2","1","0","1","1","0","0","1","1","1","1","1","0","1","0","1","4","2","2","4","4","2","2","4","2","2","708989653960622080","杨","192","","","","","","","","","","","","","","","","","","","","","","","","","","","","","","feedback_test","","","","","","","","","",""
"834","","j","psychophysics","113","334872","0.0-7.0-0.0-4.0-0.0-0.3","3","3","3","3","3","3","3","3","3","3","3","4","2","4","4","4","3","4","4","4","2","2","2","2","2","2","2","4","2","1","0","1","1","0","0","1","1","1","1","1","0","1","0","1","4","2","2","4","4","2","2","4","2","2","708989653960622080","杨","192","","","","nonmatch","","","","","","","","","","","","","","key","j","16.682807339449337","1280","716","j","true","nonmatch","img/hexagon.png","椭圆","六边","ALT1","formal_ALT1_1","","","","","","","","","",""
"null","<span style='color:GreenYellow; font-size: 70px;'>正确! </span>","null","html-keyboard-response","114","335372","0.0-7.0-0.0-4.0-0.0-1.3","3","3","3","3","3","3","3","3","3","3","3","4","2","4","4","4","3","4","4","4","2","2","2","2","2","2","2","4","2","1","0","1","1","0","0","1","1","1","1","1","0","1","0","1","4","2","2","4","4","2","2","4","2","2","708989653960622080","杨","192","","","","","","","","","","","","","","","","","","","","","","","","","","","","","","feedback_test","","","","","","","","","",""
"714","","f","psychophysics","115","337088","0.0-7.0-0.0-4.0-0.0-0.4","3","3","3","3","3","3","3","3","3","3","3","4","2","4","4","4","3","4","4","4","2","2","2","2","2","2","2","4","2","1","0","1","1","0","0","1","1","1","1","1","0","1","0","1","4","2","2","4","4","2","2","4","2","2","708989653960622080","杨","192","","","","match","","","","","","","","","","","","","","key","f","16.680158415841547","1280","716","f","true","match","img/ellipse.png","椭圆","椭圆","ALT1","formal_ALT1_1","","","","","","","","","",""
"null","<span style='color:GreenYellow; font-size: 70px;'>正确! </span>","null","html-keyboard-response","116","337589","0.0-7.0-0.0-4.0-0.0-1.4","3","3","3","3","3","3","3","3","3","3","3","4","2","4","4","4","3","4","4","4","2","2","2","2","2","2","2","4","2","1","0","1","1","0","0","1","1","1","1","1","0","1","0","1","4","2","2","4","4","2","2","4","2","2","708989653960622080","杨","192","","","","","","","","","","","","","","","","","","","","","","","","","","","","","","feedback_test","","","","","","","","","",""
"977","","j","psychophysics","117","339567","0.0-7.0-0.0-4.0-0.0-0.5","3","3","3","3","3","3","3","3","3","3","3","4","2","4","4","4","3","4","4","4","2","2","2","2","2","2","2","4","2","1","0","1","1","0","0","1","1","1","1","1","0","1","0","1","4","2","2","4","4","2","2","4","2","2","708989653960622080","杨","192","","","","nonmatch","","","","","","","","","","","","","","key","j","16.6800341880343","1280","716","j","true","nonmatch","img/trapezoid.png","菱形","梯形","ALT1","formal_ALT1_1","","","","","","","","","",""
"null","<span style='color:GreenYellow; font-size: 70px;'>正确! </span>","null","html-keyboard-response","118","340069","0.0-7.0-0.0-4.0-0.0-1.5","3","3","3","3","3","3","3","3","3","3","3","4","2","4","4","4","3","4","4","4","2","2","2","2","2","2","2","4","2","1","0","1","1","0","0","1","1","1","1","1","0","1","0","1","4","2","2","4","4","2","2","4","2","2","708989653960622080","杨","192","","","","","","","","","","","","","","","","","","","","","","","","","","","","","","feedback_test","","","","","","","","","",""
"849","","j","psychophysics","119","341920","0.0-7.0-0.0-4.0-0.0-0.6","3","3","3","3","3","3","3","3","3","3","3","4","2","4","4","4","3","4","4","4","2","2","2","2","2","2","2","4","2","1","0","1","1","0","0","1","1","1","1","1","0","1","0","1","4","2","2","4","4","2","2","4","2","2","708989653960622080","杨","192","","","","nonmatch","","","","","","","","","","","","","","key","j","16.680009090909415","1280","716","j","true","nonmatch","img/trapezoid.png","六边","梯形","ALT1","formal_ALT1_1","","","","","","","","","",""
"null","<span style='color:GreenYellow; font-size: 70px;'>正确! </span>","null","html-keyboard-response","120","342420","0.0-7.0-0.0-4.0-0.0-1.6","3","3","3","3","3","3","3","3","3","3","3","4","2","4","4","4","3","4","4","4","2","2","2","2","2","2","2","4","2","1","0","1","1","0","0","1","1","1","1","1","0","1","0","1","4","2","2","4","4","2","2","4","2","2","708989653960622080","杨","192","","","","","","","","","","","","","","","","","","","","","","","","","","","","","","feedback_test","","","","","","","","","",""
"1114","","j","psychophysics","121","344536","0.0-7.0-0.0-4.0-0.0-0.7","3","3","3","3","3","3","3","3","3","3","3","4","2","4","4","4","3","4","4","4","2","2","2","2","2","2","2","4","2","1","0","1","1","0","0","1","1","1","1","1","0","1","0","1","4","2","2","4","4","2","2","4","2","2","708989653960622080","杨","192","","","","nonmatch","","","","","","","","","","","","","","key","j","16.680396825396677","1280","716","j","true","nonmatch","img/hexagon.png","菱形","六边","ALT1","formal_ALT1_1","","","","","","","","","",""
"null","<span style='color:GreenYellow; font-size: 70px;'>正确! </span>","null","html-keyboard-response","122","345046","0.0-7.0-0.0-4.0-0.0-1.7","3","3","3","3","3","3","3","3","3","3","3","4","2","4","4","4","3","4","4","4","2","2","2","2","2","2","2","4","2","1","0","1","1","0","0","1","1","1","1","1","0","1","0","1","4","2","2","4","4","2","2","4","2","2","708989653960622080","杨","192","","","","","","","","","","","","","","","","","","","","","","","","","","","","","","feedback_test","","","","","","","","","",""
"1065","","f","psychophysics","123","347112","0.0-7.0-0.0-4.0-0.0-0.8","3","3","3","3","3","3","3","3","3","3","3","4","2","4","4","4","3","4","4","4","2","2","2","2","2","2","2","4","2","1","0","1","1","0","0","1","1","1","1","1","0","1","0","1","4","2","2","4","4","2","2","4","2","2","708989653960622080","杨","192","","","","match","","","","","","","","","","","","","","key","f","16.68030327868879","1280","716","f","true","match","img/trapezoid.png","梯形","梯形","ALT1","formal_ALT1_1","","","","","","","","","",""
"null","<span style='color:GreenYellow; font-size: 70px;'>正确! </span>","null","html-keyboard-response","124","347613","0.0-7.0-0.0-4.0-0.0-1.8","3","3","3","3","3","3","3","3","3","3","3","4","2","4","4","4","3","4","4","4","2","2","2","2","2","2","2","4","2","1","0","1","1","0","0","1","1","1","1","1","0","1","0","1","4","2","2","4","4","2","2","4","2","2","708989653960622080","杨","192","","","","","","","","","","","","","","","","","","","","","","","","","","","","","","feedback_test","","","","","","","","","",""
"1130","","j","psychophysics","125","349743","0.0-7.0-0.0-4.0-0.0-0.9","3","3","3","3","3","3","3","3","3","3","3","4","2","4","4","4","3","4","4","4","2","2","2","2","2","2","2","4","2","1","0","1","1","0","0","1","1","1","1","1","0","1","0","1","4","2","2","4","4","2","2","4","2","2","708989653960622080","杨","192","","","","nonmatch","","","","","","","","","","","","","","key","j","16.6796746031748","1280","716","j","true","nonmatch","img/diamond.png","梯形","菱形","ALT1","formal_ALT1_1","","","","","","","","","",""
"null","<span style='color:GreenYellow; font-size: 70px;'>正确! </span>","null","html-keyboard-response","126","350244","0.0-7.0-0.0-4.0-0.0-1.9","3","3","3","3","3","3","3","3","3","3","3","4","2","4","4","4","3","4","4","4","2","2","2","2","2","2","2","4","2","1","0","1","1","0","0","1","1","1","1","1","0","1","0","1","4","2","2","4","4","2","2","4","2","2","708989653960622080","杨","192","","","","","","","","","","","","","","","","","","","","","","","","","","","","","","feedback_test","","","","","","","","","",""
"971","","j","psychophysics","127","352215","0.0-7.0-0.0-4.0-0.0-0.10","3","3","3","3","3","3","3","3","3","3","3","4","2","4","4","4","3","4","4","4","2","2","2","2","2","2","2","4","2","1","0","1","1","0","0","1","1","1","1","1","0","1","0","1","4","2","2","4","4","2","2","4","2","2","708989653960622080","杨","192","","","","nonmatch","","","","","","","","","","","","","","key","j","16.680128205128305","1280","716","j","true","nonmatch","img/diamond.png","椭圆","菱形","ALT1","formal_ALT1_1","","","","","","","","","",""
"null","<span style='color:GreenYellow; font-size: 70px;'>正确! </span>","null","html-keyboard-response","128","352717","0.0-7.0-0.0-4.0-0.0-1.10","3","3","3","3","3","3","3","3","3","3","3","4","2","4","4","4","3","4","4","4","2","2","2","2","2","2","2","4","2","1","0","1","1","0","0","1","1","1","1","1","0","1","0","1","4","2","2","4","4","2","2","4","2","2","708989653960622080","杨","192","","","","","","","","","","","","","","","","","","","","","","","","","","","","","","feedback_test","","","","","","","","","",""
"778","","f","psychophysics","129","354496","0.0-7.0-0.0-4.0-0.0-0.11","3","3","3","3","3","3","3","3","3","3","3","4","2","4","4","4","3","4","4","4","2","2","2","2","2","2","2","4","2","1","0","1","1","0","0","1","1","1","1","1","0","1","0","1","4","2","2","4","4","2","2","4","2","2","708989653960622080","杨","192","","","","match","","","","","","","","","","","","","","key","f","16.680409523809793","1280","716","f","true","match","img/diamond.png","菱形","菱形","ALT1","formal_ALT1_1","","","","","","","","","",""
"null","<span style='color:GreenYellow; font-size: 70px;'>正确! </span>","null","html-keyboard-response","130","354996","0.0-7.0-0.0-4.0-0.0-1.11","3","3","3","3","3","3","3","3","3","3","3","4","2","4","4","4","3","4","4","4","2","2","2","2","2","2","2","4","2","1","0","1","1","0","0","1","1","1","1","1","0","1","0","1","4","2","2","4","4","2","2","4","2","2","708989653960622080","杨","192","","","","","","","","","","","","","","","","","","","","","","","","","","","","","","feedback_test","","","","","","","","","",""
"786","","f","psychophysics","131","356783","0.0-7.0-0.0-4.0-0.0-0.12","3","3","3","3","3","3","3","3","3","3","3","4","2","4","4","4","3","4","4","4","2","2","2","2","2","2","2","4","2","1","0","1","1","0","0","1","1","1","1","1","0","1","0","1","4","2","2","4","4","2","2","4","2","2","708989653960622080","杨","192","","","","match","","","","","","","","","","","","","","key","f","16.679566037736258","1280","716","f","true","match","img/hexagon.png","六边","六边","ALT1","formal_ALT1_1","","","","","","","","","",""
"null","<span style='color:GreenYellow; font-size: 70px;'>正确! </span>","null","html-keyboard-response","132","357284","0.0-7.0-0.0-4.0-0.0-1.12","3","3","3","3","3","3","3","3","3","3","3","4","2","4","4","4","3","4","4","4","2","2","2","2","2","2","2","4","2","1","0","1","1","0","0","1","1","1","1","1","0","1","0","1","4","2","2","4","4","2","2","4","2","2","708989653960622080","杨","192","","","","","","","","","","","","","","","","","","","","","","","","","","","","","","feedback_test","","","","","","","","","",""
"739","","f","psychophysics","133","359024","0.0-7.0-0.0-4.0-0.0-0.13","3","3","3","3","3","3","3","3","3","3","3","4","2","4","4","4","3","4","4","4","2","2","2","2","2","2","2","4","2","1","0","1","1","0","0","1","1","1","1","1","0","1","0","1","4","2","2","4","4","2","2","4","2","2","708989653960622080","杨","192","","","","match","","","","","","","","","","","","","","key","f","16.682384615384553","1280","716","f","true","match","img/ellipse.png","椭圆","椭圆","ALT1","formal_ALT1_1","","","","","","","","","",""
"null","<span style='color:GreenYellow; font-size: 70px;'>正确! </span>","null","html-keyboard-response","134","359525","0.0-7.0-0.0-4.0-0.0-1.13","3","3","3","3","3","3","3","3","3","3","3","4","2","4","4","4","3","4","4","4","2","2","2","2","2","2","2","4","2","1","0","1","1","0","0","1","1","1","1","1","0","1","0","1","4","2","2","4","4","2","2","4","2","2","708989653960622080","杨","192","","","","","","","","","","","","","","","","","","","","","","","","","","","","","","feedback_test","","","","","","","","","",""
"777","","f","psychophysics","135","361303","0.0-7.0-0.0-4.0-0.0-0.14","3","3","3","3","3","3","3","3","3","3","3","4","2","4","4","4","3","4","4","4","2","2","2","2","2","2","2","4","2","1","0","1","1","0","0","1","1","1","1","1","0","1","0","1","4","2","2","4","4","2","2","4","2","2","708989653960622080","杨","192","","","","match","","","","","","","","","","","","","","key","f","16.683885714285896","1280","716","f","true","match","img/hexagon.png","六边","六边","ALT1","formal_ALT1_1","","","","","","","","","",""
"null","<span style='color:GreenYellow; font-size: 70px;'>正确! </span>","null","html-keyboard-response","136","361804","0.0-7.0-0.0-4.0-0.0-1.14","3","3","3","3","3","3","3","3","3","3","3","4","2","4","4","4","3","4","4","4","2","2","2","2","2","2","2","4","2","1","0","1","1","0","0","1","1","1","1","1","0","1","0","1","4","2","2","4","4","2","2","4","2","2","708989653960622080","杨","192","","","","","","","","","","","","","","","","","","","","","","","","","","","","","","feedback_test","","","","","","","","","",""
"819","","j","psychophysics","137","363624","0.0-7.0-0.0-4.0-0.0-0.15","3","3","3","3","3","3","3","3","3","3","3","4","2","4","4","4","3","4","4","4","2","2","2","2","2","2","2","4","2","1","0","1","1","0","0","1","1","1","1","1","0","1","0","1","4","2","2","4","4","2","2","4","2","2","708989653960622080","杨","192","","","","nonmatch","","","","","","","","","","","","","","key","j","16.679972222222002","1280","716","j","true","nonmatch","img/trapezoid.png","椭圆","梯形","ALT1","formal_ALT1_1","","","","","","","","","",""
"null","<span style='color:GreenYellow; font-size: 70px;'>正确! </span>","null","html-keyboard-response","138","364124","0.0-7.0-0.0-4.0-0.0-1.15","3","3","3","3","3","3","3","3","3","3","3","4","2","4","4","4","3","4","4","4","2","2","2","2","2","2","2","4","2","1","0","1","1","0","0","1","1","1","1","1","0","1","0","1","4","2","2","4","4","2","2","4","2","2","708989653960622080","杨","192","","","","","","","","","","","","","","","","","","","","","","","","","","","","","","feedback_test","","","","","","","","","",""
"738","","f","psychophysics","139","365863","0.0-7.0-0.0-4.0-0.0-0.16","3","3","3","3","3","3","3","3","3","3","3","4","2","4","4","4","3","4","4","4","2","2","2","2","2","2","2","4","2","1","0","1","1","0","0","1","1","1","1","1","0","1","0","1","4","2","2","4","4","2","2","4","2","2","708989653960622080","杨","192","","","","match","","","","","","","","","","","","","","key","f","16.6802403846159","1280","716","f","true","match","img/diamond.png","菱形","菱形","ALT1","formal_ALT1_1","","","","","","","","","",""
"null","<span style='color:GreenYellow; font-size: 70px;'>正确! </span>","null","html-keyboard-response","140","366364","0.0-7.0-0.0-4.0-0.0-1.16","3","3","3","3","3","3","3","3","3","3","3","4","2","4","4","4","3","4","4","4","2","2","2","2","2","2","2","4","2","1","0","1","1","0","0","1","1","1","1","1","0","1","0","1","4","2","2","4","4","2","2","4","2","2","708989653960622080","杨","192","","","","","","","","","","","","","","","","","","","","","","","","","","","","","","feedback_test","","","","","","","","","",""
"995","","f","psychophysics","141","368359","0.0-7.0-0.0-4.0-0.0-0.17","3","3","3","3","3","3","3","3","3","3","3","4","2","4","4","4","3","4","4","4","2","2","2","2","2","2","2","4","2","1","0","1","1","0","0","1","1","1","1","1","0","1","0","1","4","2","2","4","4","2","2","4","2","2","708989653960622080","杨","192","","","","match","","","","","","","","","","","","","","key","f","16.68034745762677","1280","716","f","true","match","img/trapezoid.png","梯形","梯形","ALT1","formal_ALT1_1","","","","","","","","","",""
"null","<span style='color:GreenYellow; font-size: 70px;'>正确! </span>","null","html-keyboard-response","142","368860","0.0-7.0-0.0-4.0-0.0-1.17","3","3","3","3","3","3","3","3","3","3","3","4","2","4","4","4","3","4","4","4","2","2","2","2","2","2","2","4","2","1","0","1","1","0","0","1","1","1","1","1","0","1","0","1","4","2","2","4","4","2","2","4","2","2","708989653960622080","杨","192","","","","","","","","","","","","","","","","","","","","","","","","","","","","","","feedback_test","","","","","","","","","",""
"769","","f","psychophysics","143","370632","0.0-7.0-0.0-4.0-0.0-0.18","3","3","3","3","3","3","3","3","3","3","3","4","2","4","4","4","3","4","4","4","2","2","2","2","2","2","2","4","2","1","0","1","1","0","0","1","1","1","1","1","0","1","0","1","4","2","2","4","4","2","2","4","2","2","708989653960622080","杨","192","","","","match","","","","","","","","","","","","","","key","f","16.6821619047617","1280","716","f","true","match","img/diamond.png","菱形","菱形","ALT1","formal_ALT1_1","","","","","","","","","",""
"null","<span style='color:GreenYellow; font-size: 70px;'>正确! </span>","null","html-keyboard-response","144","371132","0.0-7.0-0.0-4.0-0.0-1.18","3","3","3","3","3","3","3","3","3","3","3","4","2","4","4","4","3","4","4","4","2","2","2","2","2","2","2","4","2","1","0","1","1","0","0","1","1","1","1","1","0","1","0","1","4","2","2","4","4","2","2","4","2","2","708989653960622080","杨","192","","","","","","","","","","","","","","","","","","","","","","","","","","","","","","feedback_test","","","","","","","","","",""
"938","","j","psychophysics","145","373071","0.0-7.0-0.0-4.0-0.0-0.19","3","3","3","3","3","3","3","3","3","3","3","4","2","4","4","4","3","4","4","4","2","2","2","2","2","2","2","4","2","1","0","1","1","0","0","1","1","1","1","1","0","1","0","1","4","2","2","4","4","2","2","4","2","2","708989653960622080","杨","192","","","","nonmatch","","","","","","","","","","","","","","key","j","16.67731304347829","1280","716","j","true","nonmatch","img/diamond.png","六边","菱形","ALT1","formal_ALT1_1","","","","","","","","","",""
"null","<span style='color:GreenYellow; font-size: 70px;'>正确! </span>","null","html-keyboard-response","146","373572","0.0-7.0-0.0-4.0-0.0-1.19","3","3","3","3","3","3","3","3","3","3","3","4","2","4","4","4","3","4","4","4","2","2","2","2","2","2","2","4","2","1","0","1","1","0","0","1","1","1","1","1","0","1","0","1","4","2","2","4","4","2","2","4","2","2","708989653960622080","杨","192","","","","","","","","","","","","","","","","","","","","","","","","","","","","","","feedback_test","","","","","","","","","",""
"802","","j","psychophysics","147","375375","0.0-7.0-0.0-4.0-0.0-0.20","3","3","3","3","3","3","3","3","3","3","3","4","2","4","4","4","3","4","4","4","2","2","2","2","2","2","2","4","2","1","0","1","1","0","0","1","1","1","1","1","0","1","0","1","4","2","2","4","4","2","2","4","2","2","708989653960622080","杨","192","","","","nonmatch","","","","","","","","","","","","","","key","j","16.680271028037286","1280","716","j","true","nonmatch","img/ellipse.png","菱形","椭圆","ALT1","formal_ALT1_1","","","","","","","","","",""
"null","<span style='color:GreenYellow; font-size: 70px;'>正确! </span>","null","html-keyboard-response","148","375876","0.0-7.0-0.0-4.0-0.0-1.20","3","3","3","3","3","3","3","3","3","3","3","4","2","4","4","4","3","4","4","4","2","2","2","2","2","2","2","4","2","1","0","1","1","0","0","1","1","1","1","1","0","1","0","1","4","2","2","4","4","2","2","4","2","2","708989653960622080","杨","192","","","","","","","","","","","","","","","","","","","","","","","","","","","","","","feedback_test","","","","","","","","","",""
"995","","j","psychophysics","149","377872","0.0-7.0-0.0-4.0-0.0-0.21","3","3","3","3","3","3","3","3","3","3","3","4","2","4","4","4","3","4","4","4","2","2","2","2","2","2","2","4","2","1","0","1","1","0","0","1","1","1","1","1","0","1","0","1","4","2","2","4","4","2","2","4","2","2","708989653960622080","杨","192","","","","nonmatch","","","","","","","","","","","","","","key","j","16.68021008403367","1280","716","j","true","nonmatch","img/ellipse.png","梯形","椭圆","ALT1","formal_ALT1_1","","","","","","","","","",""
"null","<span style='color:GreenYellow; font-size: 70px;'>正确! </span>","null","html-keyboard-response","150","378372","0.0-7.0-0.0-4.0-0.0-1.21","3","3","3","3","3","3","3","3","3","3","3","4","2","4","4","4","3","4","4","4","2","2","2","2","2","2","2","4","2","1","0","1","1","0","0","1","1","1","1","1","0","1","0","1","4","2","2","4","4","2","2","4","2","2","708989653960622080","杨","192","","","","","","","","","","","","","","","","","","","","","","","","","","","","","","feedback_test","","","","","","","","","",""
"699","","f","psychophysics","151","380071","0.0-7.0-0.0-4.0-0.0-0.22","3","3","3","3","3","3","3","3","3","3","3","4","2","4","4","4","3","4","4","4","2","2","2","2","2","2","2","4","2","1","0","1","1","0","0","1","1","1","1","1","0","1","0","1","4","2","2","4","4","2","2","4","2","2","708989653960622080","杨","192","","","","match","","","","","","","","","","","","","","key","f","16.680470000000206","1280","716","f","true","match","img/hexagon.png","六边","六边","ALT1","formal_ALT1_1","","","","","","","","","",""
"null","<span style='color:GreenYellow; font-size: 70px;'>正确! </span>","null","html-keyboard-response","152","380572","0.0-7.0-0.0-4.0-0.0-1.22","3","3","3","3","3","3","3","3","3","3","3","4","2","4","4","4","3","4","4","4","2","2","2","2","2","2","2","4","2","1","0","1","1","0","0","1","1","1","1","1","0","1","0","1","4","2","2","4","4","2","2","4","2","2","708989653960622080","杨","192","","","","","","","","","","","","","","","","","","","","","","","","","","","","","","feedback_test","","","","","","","","","",""
"1178","","f","psychophysics","153","382751","0.0-7.0-0.0-4.0-0.0-0.23","3","3","3","3","3","3","3","3","3","3","3","4","2","4","4","4","3","4","4","4","2","2","2","2","2","2","2","4","2","1","0","1","1","0","0","1","1","1","1","1","0","1","0","1","4","2","2","4","4","2","2","4","2","2","708989653960622080","杨","192","","","","match","","","","","","","","","","","","","","key","f","16.67678294573638","1280","716","j","false","nonmatch","img/hexagon.png","梯形","六边","ALT1","formal_ALT1_1","","","","","","","","","",""
"null","<span style='color:red; font-size: 70px;'>错误! </span>","null","html-keyboard-response","154","383252","0.0-7.0-0.0-4.0-0.0-1.23","3","3","3","3","3","3","3","3","3","3","3","4","2","4","4","4","3","4","4","4","2","2","2","2","2","2","2","4","2","1","0","1","1","0","0","1","1","1","1","1","0","1","0","1","4","2","2","4","4","2","2","4","2","2","708989653960622080","杨","192","","","","","","","","","","","","","","","","","","","","","","","","","","","","","","feedback_test","","","","","","","","","",""
"784","","f","psychophysics","155","385039","0.0-7.0-0.0-4.0-0.0-0.24","3","3","3","3","3","3","3","3","3","3","3","4","2","4","4","4","3","4","4","4","2","2","2","2","2","2","2","4","2","1","0","1","1","0","0","1","1","1","1","1","0","1","0","1","4","2","2","4","4","2","2","4","2","2","708989653960622080","杨","192","","","","match","","","","","","","","","","","","","","key","f","16.680037735849357","1280","716","f","true","match","img/hexagon.png","六边","六边","ALT1","formal_ALT1_1","","","","","","","","","",""
"null","<span style='color:GreenYellow; font-size: 70px;'>正确! </span>","null","html-keyboard-response","156","385539","0.0-7.0-0.0-4.0-0.0-1.24","3","3","3","3","3","3","3","3","3","3","3","4","2","4","4","4","3","4","4","4","2","2","2","2","2","2","2","4","2","1","0","1","1","0","0","1","1","1","1","1","0","1","0","1","4","2","2","4","4","2","2","4","2","2","708989653960622080","杨","192","","","","","","","","","","","","","","","","","","","","","","","","","","","","","","feedback_test","","","","","","","","","",""
"867","","j","psychophysics","157","387407","0.0-7.0-0.0-4.0-0.0-0.25","3","3","3","3","3","3","3","3","3","3","3","4","2","4","4","4","3","4","4","4","2","2","2","2","2","2","2","4","2","1","0","1","1","0","0","1","1","1","1","1","0","1","0","1","4","2","2","4","4","2","2","4","2","2","708989653960622080","杨","192","","","","nonmatch","","","","","","","","","","","","","","key","j","16.679594594594572","1280","716","j","true","nonmatch","img/diamond.png","六边","菱形","ALT1","formal_ALT1_1","","","","","","","","","",""
"null","<span style='color:GreenYellow; font-size: 70px;'>正确! </span>","null","html-keyboard-response","158","387908","0.0-7.0-0.0-4.0-0.0-1.25","3","3","3","3","3","3","3","3","3","3","3","4","2","4","4","4","3","4","4","4","2","2","2","2","2","2","2","4","2","1","0","1","1","0","0","1","1","1","1","1","0","1","0","1","4","2","2","4","4","2","2","4","2","2","708989653960622080","杨","192","","","","","","","","","","","","","","","","","","","","","","","","","","","","","","feedback_test","","","","","","","","","",""
"1074","","j","psychophysics","159","389983","0.0-7.0-0.0-4.0-0.0-0.26","3","3","3","3","3","3","3","3","3","3","3","4","2","4","4","4","3","4","4","4","2","2","2","2","2","2","2","4","2","1","0","1","1","0","0","1","1","1","1","1","0","1","0","1","4","2","2","4","4","2","2","4","2","2","708989653960622080","杨","192","","","","nonmatch","","","","","","","","","","","","","","key","j","16.679879032258476","1280","716","j","true","nonmatch","img/ellipse.png","菱形","椭圆","ALT1","formal_ALT1_1","","","","","","","","","",""
"null","<span style='color:GreenYellow; font-size: 70px;'>正确! </span>","null","html-keyboard-response","160","390484","0.0-7.0-0.0-4.0-0.0-1.26","3","3","3","3","3","3","3","3","3","3","3","4","2","4","4","4","3","4","4","4","2","2","2","2","2","2","2","4","2","1","0","1","1","0","0","1","1","1","1","1","0","1","0","1","4","2","2","4","4","2","2","4","2","2","708989653960622080","杨","192","","","","","","","","","","","","","","","","","","","","","","","","","","","","","","feedback_test","","","","","","","","","",""
"882","","f","psychophysics","161","392367","0.0-7.0-0.0-4.0-0.0-0.27","3","3","3","3","3","3","3","3","3","3","3","4","2","4","4","4","3","4","4","4","2","2","2","2","2","2","2","4","2","1","0","1","1","0","0","1","1","1","1","1","0","1","0","1","4","2","2","4","4","2","2","4","2","2","708989653960622080","杨","192","","","","match","","","","","","","","","","","","","","key","f","16.68030357142873","1280","716","f","true","match","img/hexagon.png","六边","六边","ALT1","formal_ALT1_1","","","","","","","","","",""
"null","<span style='color:GreenYellow; font-size: 70px;'>正确! </span>","null","html-keyboard-response","162","392868","0.0-7.0-0.0-4.0-0.0-1.27","3","3","3","3","3","3","3","3","3","3","3","4","2","4","4","4","3","4","4","4","2","2","2","2","2","2","2","4","2","1","0","1","1","0","0","1","1","1","1","1","0","1","0","1","4","2","2","4","4","2","2","4","2","2","708989653960622080","杨","192","","","","","","","","","","","","","","","","","","","","","","","","","","","","","","feedback_test","","","","","","","","","",""
"849","","f","psychophysics","163","394719","0.0-7.0-0.0-4.0-0.0-0.28","3","3","3","3","3","3","3","3","3","3","3","4","2","4","4","4","3","4","4","4","2","2","2","2","2","2","2","4","2","1","0","1","1","0","0","1","1","1","1","1","0","1","0","1","4","2","2","4","4","2","2","4","2","2","708989653960622080","杨","192","","","","match","","","","","","","","","","","","","","key","f","16.68025454545436","1280","716","j","false","nonmatch","img/trapezoid.png","菱形","梯形","ALT1","formal_ALT1_1","","","","","","","","","",""
"null","<span style='color:red; font-size: 70px;'>错误! </span>","null","html-keyboard-response","164","395220","0.0-7.0-0.0-4.0-0.0-1.28","3","3","3","3","3","3","3","3","3","3","3","4","2","4","4","4","3","4","4","4","2","2","2","2","2","2","2","4","2","1","0","1","1","0","0","1","1","1","1","1","0","1","0","1","4","2","2","4","4","2","2","4","2","2","708989653960622080","杨","192","","","","","","","","","","","","","","","","","","","","","","","","","","","","","","feedback_test","","","","","","","","","",""
"761","","f","psychophysics","165","396983","0.0-7.0-0.0-4.0-0.0-0.29","3","3","3","3","3","3","3","3","3","3","3","4","2","4","4","4","3","4","4","4","2","2","2","2","2","2","2","4","2","1","0","1","1","0","0","1","1","1","1","1","0","1","0","1","4","2","2","4","4","2","2","4","2","2","708989653960622080","杨","192","","","","match","","","","","","","","","","","","","","key","f","16.680096153845973","1280","716","f","true","match","img/diamond.png","菱形","菱形","ALT1","formal_ALT1_1","","","","","","","","","",""
"null","<span style='color:GreenYellow; font-size: 70px;'>正确! </span>","null","html-keyboard-response","166","397484","0.0-7.0-0.0-4.0-0.0-1.29","3","3","3","3","3","3","3","3","3","3","3","4","2","4","4","4","3","4","4","4","2","2","2","2","2","2","2","4","2","1","0","1","1","0","0","1","1","1","1","1","0","1","0","1","4","2","2","4","4","2","2","4","2","2","708989653960622080","杨","192","","","","","","","","","","","","","","","","","","","","","","","","","","","","","","feedback_test","","","","","","","","","",""
"null","","null","psychophysics","167","399689","0.0-7.0-0.0-4.0-0.0-0.30","3","3","3","3","3","3","3","3","3","3","3","4","2","4","4","4","3","4","4","4","2","2","2","2","2","2","2","4","2","1","0","1","1","0","0","1","1","1","1","1","0","1","0","1","4","2","2","4","4","2","2","4","2","2","708989653960622080","杨","192","","","","null","","","","","","","","","","","","","","key","null","16.68206106870211","1280","716","j","false","nonmatch","img/hexagon.png","梯形","六边","ALT1","formal_ALT1_1","","","","","","","","","",""
"null","<span class='add_' style='color:yellow; font-size: 70px;'> 太慢! </span>","null","html-keyboard-response","168","400189","0.0-7.0-0.0-4.0-0.0-1.30","3","3","3","3","3","3","3","3","3","3","3","4","2","4","4","4","3","4","4","4","2","2","2","2","2","2","2","4","2","1","0","1","1","0","0","1","1","1","1","1","0","1","0","1","4","2","2","4","4","2","2","4","2","2","708989653960622080","杨","192","","","","","","","","","","","","","","","","","","","","","","","","","","","","","","feedback_test","","","","","","","","","",""
"729","","f","psychophysics","169","401919","0.0-7.0-0.0-4.0-0.0-0.31","3","3","3","3","3","3","3","3","3","3","3","4","2","4","4","4","3","4","4","4","2","2","2","2","2","2","2","4","2","1","0","1","1","0","0","1","1","1","1","1","0","1","0","1","4","2","2","4","4","2","2","4","2","2","708989653960622080","杨","192","","","","match","","","","","","","","","","","","","","key","f","16.680058823529215","1280","716","f","true","match","img/hexagon.png","六边","六边","ALT1","formal_ALT1_1","","","","","","","","","",""
"null","<span style='color:GreenYellow; font-size: 70px;'>正确! </span>","null","html-keyboard-response","170","402420","0.0-7.0-0.0-4.0-0.0-1.31","3","3","3","3","3","3","3","3","3","3","3","4","2","4","4","4","3","4","4","4","2","2","2","2","2","2","2","4","2","1","0","1","1","0","0","1","1","1","1","1","0","1","0","1","4","2","2","4","4","2","2","4","2","2","708989653960622080","杨","192","","","","","","","","","","","","","","","","","","","","","","","","","","","","","","feedback_test","","","","","","","","","",""
"971","","j","psychophysics","171","404391","0.0-7.0-0.0-4.0-0.0-0.32","3","3","3","3","3","3","3","3","3","3","3","4","2","4","4","4","3","4","4","4","2","2","2","2","2","2","2","4","2","1","0","1","1","0","0","1","1","1","1","1","0","1","0","1","4","2","2","4","4","2","2","4","2","2","708989653960622080","杨","192","","","","nonmatch","","","","","","","","","","","","","","key","j","16.681905982905946","1280","716","j","true","nonmatch","img/ellipse.png","梯形","椭圆","ALT1","formal_ALT1_1","","","","","","","","","",""
"null","<span style='color:GreenYellow; font-size: 70px;'>正确! </span>","null","html-keyboard-response","172","404892","0.0-7.0-0.0-4.0-0.0-1.32","3","3","3","3","3","3","3","3","3","3","3","4","2","4","4","4","3","4","4","4","2","2","2","2","2","2","2","4","2","1","0","1","1","0","0","1","1","1","1","1","0","1","0","1","4","2","2","4","4","2","2","4","2","2","708989653960622080","杨","192","","","","","","","","","","","","","","","","","","","","","","","","","","","","","","feedback_test","","","","","","","","","",""
"611","","f","psychophysics","173","406503","0.0-7.0-0.0-4.0-0.0-0.33","3","3","3","3","3","3","3","3","3","3","3","4","2","4","4","4","3","4","4","4","2","2","2","2","2","2","2","4","2","1","0","1","1","0","0","1","1","1","1","1","0","1","0","1","4","2","2","4","4","2","2","4","2","2","708989653960622080","杨","192","","","","match","","","","","","","","","","","","","","key","f","16.68000000000029","1280","716","f","true","match","img/ellipse.png","椭圆","椭圆","ALT1","formal_ALT1_1","","","","","","","","","",""
"null","<span style='color:GreenYellow; font-size: 70px;'>正确! </span>","null","html-keyboard-response","174","407004","0.0-7.0-0.0-4.0-0.0-1.33","3","3","3","3","3","3","3","3","3","3","3","4","2","4","4","4","3","4","4","4","2","2","2","2","2","2","2","4","2","1","0","1","1","0","0","1","1","1","1","1","0","1","0","1","4","2","2","4","4","2","2","4","2","2","708989653960622080","杨","192","","","","","","","","","","","","","","","","","","","","","","","","","","","","","","feedback_test","","","","","","","","","",""
"970","","f","psychophysics","175","408975","0.0-7.0-0.0-4.0-0.0-0.34","3","3","3","3","3","3","3","3","3","3","3","4","2","4","4","4","3","4","4","4","2","2","2","2","2","2","2","4","2","1","0","1","1","0","0","1","1","1","1","1","0","1","0","1","4","2","2","4","4","2","2","4","2","2","708989653960622080","杨","192","","","","match","","","","","","","","","","","","","","key","f","16.68011965811985","1280","716","f","true","match","img/trapezoid.png","梯形","梯形","ALT1","formal_ALT1_1","","","","","","","","","",""
"null","<span style='color:GreenYellow; font-size: 70px;'>正确! </span>","null","html-keyboard-response","176","409476","0.0-7.0-0.0-4.0-0.0-1.34","3","3","3","3","3","3","3","3","3","3","3","4","2","4","4","4","3","4","4","4","2","2","2","2","2","2","2","4","2","1","0","1","1","0","0","1","1","1","1","1","0","1","0","1","4","2","2","4","4","2","2","4","2","2","708989653960622080","杨","192","","","","","","","","","","","","","","","","","","","","","","","","","","","","","","feedback_test","","","","","","","","","",""
"833","","j","psychophysics","177","411311","0.0-7.0-0.0-4.0-0.0-0.35","3","3","3","3","3","3","3","3","3","3","3","4","2","4","4","4","3","4","4","4","2","2","2","2","2","2","2","4","2","1","0","1","1","0","0","1","1","1","1","1","0","1","0","1","4","2","2","4","4","2","2","4","2","2","708989653960622080","杨","192","","","","nonmatch","","","","","","","","","","","","","","key","j","16.682339449541285","1280","716","j","true","nonmatch","img/diamond.png","椭圆","菱形","ALT1","formal_ALT1_1","","","","","","","","","",""
"null","<span style='color:GreenYellow; font-size: 70px;'>正确! </span>","null","html-keyboard-response","178","411811","0.0-7.0-0.0-4.0-0.0-1.35","3","3","3","3","3","3","3","3","3","3","3","4","2","4","4","4","3","4","4","4","2","2","2","2","2","2","2","4","2","1","0","1","1","0","0","1","1","1","1","1","0","1","0","1","4","2","2","4","4","2","2","4","2","2","708989653960622080","杨","192","","","","","","","","","","","","","","","","","","","","","","","","","","","","","","feedback_test","","","","","","","","","",""
"1010","","f","psychophysics","179","413823","0.0-7.0-0.0-4.0-0.0-0.36","3","3","3","3","3","3","3","3","3","3","3","4","2","4","4","4","3","4","4","4","2","2","2","2","2","2","2","4","2","1","0","1","1","0","0","1","1","1","1","1","0","1","0","1","4","2","2","4","4","2","2","4","2","2","708989653960622080","杨","192","","","","match","","","","","","","","","","","","","","key","f","16.680074999999974","1280","716","f","true","match","img/trapezoid.png","梯形","梯形","ALT1","formal_ALT1_1","","","","","","","","","",""
"null","<span style='color:GreenYellow; font-size: 70px;'>正确! </span>","null","html-keyboard-response","180","414323","0.0-7.0-0.0-4.0-0.0-1.36","3","3","3","3","3","3","3","3","3","3","3","4","2","4","4","4","3","4","4","4","2","2","2","2","2","2","2","4","2","1","0","1","1","0","0","1","1","1","1","1","0","1","0","1","4","2","2","4","4","2","2","4","2","2","708989653960622080","杨","192","","","","","","","","","","","","","","","","","","","","","","","","","","","","","","feedback_test","","","","","","","","","",""
"770","","j","psychophysics","181","416095","0.0-7.0-0.0-4.0-0.0-0.37","3","3","3","3","3","3","3","3","3","3","3","4","2","4","4","4","3","4","4","4","2","2","2","2","2","2","2","4","2","1","0","1","1","0","0","1","1","1","1","1","0","1","0","1","4","2","2","4","4","2","2","4","2","2","708989653960622080","杨","192","","","","nonmatch","","","","","","","","","","","","","","key","j","16.68042857142864","1280","716","j","true","nonmatch","img/trapezoid.png","六边","梯形","ALT1","formal_ALT1_1","","","","","","","","","",""
"null","<span style='color:GreenYellow; font-size: 70px;'>正确! </span>","null","html-keyboard-response","182","416596","0.0-7.0-0.0-4.0-0.0-1.37","3","3","3","3","3","3","3","3","3","3","3","4","2","4","4","4","3","4","4","4","2","2","2","2","2","2","2","4","2","1","0","1","1","0","0","1","1","1","1","1","0","1","0","1","4","2","2","4","4","2","2","4","2","2","708989653960622080","杨","192","","","","","","","","","","","","","","","","","","","","","","","","","","","","","","feedback_test","","","","","","","","","",""
"1145","","j","psychophysics","183","418743","0.0-7.0-0.0-4.0-0.0-0.38","3","3","3","3","3","3","3","3","3","3","3","4","2","4","4","4","3","4","4","4","2","2","2","2","2","2","2","4","2","1","0","1","1","0","0","1","1","1","1","1","0","1","0","1","4","2","2","4","4","2","2","4","2","2","708989653960622080","杨","192","","","","nonmatch","","","","","","","","","","","","","","key","j","16.680132812499778","1280","716","j","true","nonmatch","img/diamond.png","梯形","菱形","ALT1","formal_ALT1_1","","","","","","","","","",""
"null","<span style='color:GreenYellow; font-size: 70px;'>正确! </span>","null","html-keyboard-response","184","419244","0.0-7.0-0.0-4.0-0.0-1.38","3","3","3","3","3","3","3","3","3","3","3","4","2","4","4","4","3","4","4","4","2","2","2","2","2","2","2","4","2","1","0","1","1","0","0","1","1","1","1","1","0","1","0","1","4","2","2","4","4","2","2","4","2","2","708989653960622080","杨","192","","","","","","","","","","","","","","","","","","","","","","","","","","","","","","feedback_test","","","","","","","","","",""
