"rt","stimulus","response","trial_type","trial_index","time_elapsed","internal_node_id","ses_1","ses_2","ses_3","ses_4","ses_5","ses_6","ses_7","ses_8","ses_9","ses_10","coreself_1","coreself_2","coreself_3","coreself_4","coreself_5","coreself_6","coreself_7","coreself_8","coreself_9","coreself_10","SGPS_1","SGPS_2","SGPS_3","SGPS_4","SGPS_5","SGPS_6","SGPS_7","SGPS_8","SGPS_9","NPI1","NPI2","NPI3","NPI4","NPI5","NPI6","NPI7","NPI8","NPI9","NPI10","NPI11","NPI12","NPI13","NPI14","NPI15","hsns_1","hsns_2","hsns_3","hsns_4","hsns_5","hsns_6","hsns_7","hsns_8","hsns_9","hsns_10","subj_idx","friend_name","ParticipantID","value","success","user_agent","responses","item_order","radio_event_ids","radio_event_times","key_event_times","mouse_event_times","straightlining","zigzagging","honeypot","timeout","failed_images","failed_audio","failed_video","view_history","response_type","key_press","avg_frame_time","center_x","center_y","correct_response","correct","identity","Image","word","condition","task_id","screen_id","time_stamp","version_attrib","version_target","IAT","RT","varname","summary","version_attrib2","version_target2","question_order"
"17817","
   <p><div style = ""color: white;font-size:25px;"">您好，欢迎参加本次实验。</div> </p>
   <p><div style = ""color: white;font-size:25px;"">为充分保障您的权利，请确保您已经知晓并同意《参与实验同意书》以及《数据公开知情同意书》。</div></p>
   <p><div style = ""color: white;font-size:25px;"">如果您未见过上述内容，请咨询实验员。</div></p>
   <p><div style = ""color: white;font-size:25px;"">如果您选择继续实验，则表示您已经清楚两份知情同意书的内容并同意。</div></p>
   <p><div style = ""color: red;font-size:30px;"">请确保您记得day0的实验编号，您将在本次实验输入该编号，若您忘记，请咨询实验员后作答。</div></p>
   <p> <div style = ""color: green;font-size:25px;""><按空格键至下页></div> </p>
   "," ","html-keyboard-response","0","17822","0.0-0.0","3","3","3","3","3","3","3","2","3","3","4","3","2","3","3","4","3","3","3","3","2","2","2","3","2","2","4","4","2","1","0","1","1","0","0","1","1","0","1","1","0","1","0","1","4","3","3","3","3","3","4","2","4","2","682886971621638144","nyf","448","","","","","","","","","","","","","","","","","","","","","","","","","","","","","","","","","","","","","","","",""
"","","","call-function","1","17827","0.0-1.0-0.0","3","3","3","3","3","3","3","2","3","3","4","3","2","3","3","4","3","3","3","3","2","2","2","3","2","2","4","4","2","1","0","1","1","0","0","1","1","0","1","1","0","1","0","1","4","3","3","3","3","3","4","2","4","2","682886971621638144","nyf","448","","","","","","","","","","","","","","","","","","","","","","","","","","","","","","","","","","","","","","","",""
"17507","","{""friend_name"":""nyf"",""ParticipantID"":""448""}","survey-html-form","2","35336","0.0-1.0-1.0","3","3","3","3","3","3","3","2","3","3","4","3","2","3","3","4","3","3","3","3","2","2","2","3","2","2","4","4","2","1","0","1","1","0","0","1","1","0","1","1","0","1","0","1","4","3","3","3","3","3","4","2","4","2","682886971621638144","nyf","448","","","","","","","","","","","","","","","","","","","","","","","","","","","","","","","","","","","","","","","",""
"","","","fullscreen","3","62102","0.0-2.0","3","3","3","3","3","3","3","2","3","3","4","3","2","3","3","4","3","3","3","3","2","2","2","3","2","2","4","4","2","1","0","1","1","0","0","1","1","0","1","1","0","1","0","1","4","3","3","3","3","3","4","2","4","2","682886971621638144","nyf","448","","true","{}","","","","","","","","","","","","","","","","","","","","","","","","","","","","","","","","","","","","",""
"31618.10000000149","","{""Q01"":""3"",""Q02"":""3"",""Q03"":""3"",""Q04"":""3"",""Q05"":""3"",""Q06"":""3"",""Q07"":""3"",""Q08"":""2"",""Q09"":""3"",""Q10"":""3""}","survey-template","4","93724","0.0-3.0","3","3","3","3","3","3","3","2","3","3","4","3","2","3","3","4","3","3","3","3","2","2","2","3","2","2","4","4","2","1","0","1","1","0","0","1","1","0","1","1","0","1","0","1","4","3","3","3","3","3","4","2","4","2","682886971621638144","nyf","448","","","","{""Q01"":""3"",""Q02"":""3"",""Q03"":""3"",""Q04"":""3"",""Q05"":""3"",""Q06"":""3"",""Q07"":""3"",""Q08"":""2"",""Q09"":""3"",""Q10"":""3""}","[0,1,2,3,4,5,6,7,8,9]","[""Q01"",""Q02"",""Q03"",""Q04"",""Q05"",""Q06"",""Q07"",""Q08"",""Q09"",""Q10""]","[7839.800000000745,9831.400000000373,13191,15271,16719.400000000373,19023,20022.800000000745,27246.900000000373,30038.700000001118,30870.700000001118]","[]","[7839.800000000745,9831.400000000373,13191,15271,16719.400000000373,18039.200000001118,19023,20022.800000000745,27246.900000000373,30038.700000001118,30870.700000001118,31615]","0.6","0.5555555555555556","0","","","","","","","","","","","","","","","","","","","","","","","","","","","",""
"31816","","{""Q01"":""4"",""Q02"":""3"",""Q03"":""2"",""Q04"":""3"",""Q05"":""3"",""Q06"":""4"",""Q07"":""3"",""Q08"":""3"",""Q09"":""3"",""Q10"":""3""}","survey-template","5","125554","0.0-4.0","3","3","3","3","3","3","3","2","3","3","4","3","2","3","3","4","3","3","3","3","2","2","2","3","2","2","4","4","2","1","0","1","1","0","0","1","1","0","1","1","0","1","0","1","4","3","3","3","3","3","4","2","4","2","682886971621638144","nyf","448","","","","{""Q01"":""4"",""Q02"":""3"",""Q03"":""2"",""Q04"":""3"",""Q05"":""3"",""Q06"":""4"",""Q07"":""3"",""Q08"":""3"",""Q09"":""3"",""Q10"":""3""}","[0,1,2,3,4,5,6,7,8,9]","[""Q01"",""Q02"",""Q03"",""Q04"",""Q05"",""Q06"",""Q07"",""Q08"",""Q09"",""Q10""]","[5182.800000000745,8870.800000000745,13070.400000000373,14206.400000000373,16022.400000000373,18270.60000000149,19934.200000001118,23086.200000001118,25094,30949.900000000373]","[]","[5182.800000000745,8870.800000000745,13070.400000000373,14206.400000000373,16022.400000000373,18270.60000000149,19934.200000001118,23086.200000001118,25094,30949.900000000373,31814.200000001118]","0.7","0.5555555555555556","0","","","","","","","","","","","","","","","","","","","","","","","","","","","",""
"","","","preload","6","127161","0.0-5.0","3","3","3","3","3","3","3","2","3","3","4","3","2","3","3","4","3","3","3","3","2","2","2","3","2","2","4","4","2","1","0","1","1","0","0","1","1","0","1","1","0","1","0","1","4","3","3","3","3","3","4","2","4","2","682886971621638144","nyf","448","","true","","","","","","","","","","","false","[]","[]","[]","","","","","","","","","","","","","","","","","","","","","","","",""
"27990","","","instructions","7","155151","0.0-6.0","3","3","3","3","3","3","3","2","3","3","4","3","2","3","3","4","3","3","3","3","2","2","2","3","2","2","4","4","2","1","0","1","1","0","0","1","1","0","1","1","0","1","0","1","4","3","3","3","3","3","4","2","4","2","682886971621638144","nyf","448","","","","","","","","","","","","","","","","","[{""page_index"":0,""viewing_time"":27990}]","","","","","","","","","","","","","","","","","","","","","","",""
"29019","","","instructions","8","184175","0.0-7.0-1.0-0.0","3","3","3","3","3","3","3","2","3","3","4","3","2","3","3","4","3","3","3","3","2","2","2","3","2","2","4","4","2","1","0","1","1","0","0","1","1","0","1","1","0","1","0","1","4","3","3","3","3","3","4","2","4","2","682886971621638144","nyf","448","","","","","","","","","","","","","","","","","[{""page_index"":0,""viewing_time"":15211},{""page_index"":1,""viewing_time"":10143},{""page_index"":2,""viewing_time"":3664}]","","","","","","","","","","","","","","","","","","","","","","",""
"null","","null","psychophysics","9","186388","0.0-7.0-1.0-1.0-0.0-0.0","3","3","3","3","3","3","3","2","3","3","4","3","2","3","3","4","3","3","3","3","2","2","2","3","2","2","4","4","2","1","0","1","1","0","0","1","1","0","1","1","0","1","0","1","4","3","3","3","3","3","4","2","4","2","682886971621638144","nyf","448","","","","null","","","","","","","","","","","","","","key","null","16.760007633587687","680","380","f","false","match","img/hexagon.png","六边","六边","ALT1_2","prac_ALT1_2","","","","","","","","","",""
"null","<span class='add_' style='color:yellow; font-size: 70px;'> 太慢! </span>","null","html-keyboard-response","10","186890","0.0-7.0-1.0-1.0-0.0-1.0","3","3","3","3","3","3","3","2","3","3","4","3","2","3","3","4","3","3","3","3","2","2","2","3","2","2","4","4","2","1","0","1","1","0","0","1","1","0","1","1","0","1","0","1","4","3","3","3","3","3","4","2","4","2","682886971621638144","nyf","448","","","","","","","","","","","","","","","","","","","","","","","","","","","","","","feedback_test","","","","","","","","","",""
"823","","f","psychophysics","11","188715","0.0-7.0-1.0-1.0-0.0-0.1","3","3","3","3","3","3","3","2","3","3","4","3","2","3","3","4","3","3","3","3","2","2","2","3","2","2","4","4","2","1","0","1","1","0","0","1","1","0","1","1","0","1","0","1","4","3","3","3","3","3","4","2","4","2","682886971621638144","nyf","448","","","","match","","","","","","","","","","","","","","key","f","16.760574074074004","680","380","f","true","match","img/diamond.png","菱形","菱形","ALT1_2","prac_ALT1_2","","","","","","","","","",""
"null","<span style='color:GreenYellow; font-size: 70px;'>正确! </span>","null","html-keyboard-response","12","189216","0.0-7.0-1.0-1.0-0.0-1.1","3","3","3","3","3","3","3","2","3","3","4","3","2","3","3","4","3","3","3","3","2","2","2","3","2","2","4","4","2","1","0","1","1","0","0","1","1","0","1","1","0","1","0","1","4","3","3","3","3","3","4","2","4","2","682886971621638144","nyf","448","","","","","","","","","","","","","","","","","","","","","","","","","","","","","","feedback_test","","","","","","","","","",""
"785","","f","psychophysics","13","191003","0.0-7.0-1.0-1.0-0.0-0.2","3","3","3","3","3","3","3","2","3","3","4","3","2","3","3","4","3","3","3","3","2","2","2","3","2","2","4","4","2","1","0","1","1","0","0","1","1","0","1","1","0","1","0","1","4","3","3","3","3","3","4","2","4","2","682886971621638144","nyf","448","","","","match","","","","","","","","","","","","","","key","f","16.76161904761906","680","380","f","true","match","img/diamond.png","菱形","菱形","ALT1_2","prac_ALT1_2","","","","","","","","","",""
"null","<span style='color:GreenYellow; font-size: 70px;'>正确! </span>","null","html-keyboard-response","14","191505","0.0-7.0-1.0-1.0-0.0-1.2","3","3","3","3","3","3","3","2","3","3","4","3","2","3","3","4","3","3","3","3","2","2","2","3","2","2","4","4","2","1","0","1","1","0","0","1","1","0","1","1","0","1","0","1","4","3","3","3","3","3","4","2","4","2","682886971621638144","nyf","448","","","","","","","","","","","","","","","","","","","","","","","","","","","","","","feedback_test","","","","","","","","","",""
"711","","f","psychophysics","15","193218","0.0-7.0-1.0-1.0-0.0-0.3","3","3","3","3","3","3","3","2","3","3","4","3","2","3","3","4","3","3","3","3","2","2","2","3","2","2","4","4","2","1","0","1","1","0","0","1","1","0","1","1","0","1","0","1","4","3","3","3","3","3","4","2","4","2","682886971621638144","nyf","448","","","","match","","","","","","","","","","","","","","key","f","16.760732673267064","680","380","f","true","match","img/diamond.png","菱形","菱形","ALT1_2","prac_ALT1_2","","","","","","","","","",""
"null","<span style='color:GreenYellow; font-size: 70px;'>正确! </span>","null","html-keyboard-response","16","193720","0.0-7.0-1.0-1.0-0.0-1.3","3","3","3","3","3","3","3","2","3","3","4","3","2","3","3","4","3","3","3","3","2","2","2","3","2","2","4","4","2","1","0","1","1","0","0","1","1","0","1","1","0","1","0","1","4","3","3","3","3","3","4","2","4","2","682886971621638144","nyf","448","","","","","","","","","","","","","","","","","","","","","","","","","","","","","","feedback_test","","","","","","","","","",""
"744","","f","psychophysics","17","195466","0.0-7.0-1.0-1.0-0.0-0.4","3","3","3","3","3","3","3","2","3","3","4","3","2","3","3","4","3","3","3","3","2","2","2","3","2","2","4","4","2","1","0","1","1","0","0","1","1","0","1","1","0","1","0","1","4","3","3","3","3","3","4","2","4","2","682886971621638144","nyf","448","","","","match","","","","","","","","","","","","","","key","f","16.760098039215674","680","380","f","true","match","img/triangle.png","三角","三角","ALT1_2","prac_ALT1_2","","","","","","","","","",""
"null","<span style='color:GreenYellow; font-size: 70px;'>正确! </span>","null","html-keyboard-response","18","195968","0.0-7.0-1.0-1.0-0.0-1.4","3","3","3","3","3","3","3","2","3","3","4","3","2","3","3","4","3","3","3","3","2","2","2","3","2","2","4","4","2","1","0","1","1","0","0","1","1","0","1","1","0","1","0","1","4","3","3","3","3","3","4","2","4","2","682886971621638144","nyf","448","","","","","","","","","","","","","","","","","","","","","","","","","","","","","","feedback_test","","","","","","","","","",""
"873","","j","psychophysics","19","197842","0.0-7.0-1.0-1.0-0.0-0.5","3","3","3","3","3","3","3","2","3","3","4","3","2","3","3","4","3","3","3","3","2","2","2","3","2","2","4","4","2","1","0","1","1","0","0","1","1","0","1","1","0","1","0","1","4","3","3","3","3","3","4","2","4","2","682886971621638144","nyf","448","","","","nonmatch","","","","","","","","","","","","","","key","j","16.761648648648432","680","380","j","true","nonmatch","img/triangle.png","圆形","三角","ALT1_2","prac_ALT1_2","","","","","","","","","",""
"null","<span style='color:GreenYellow; font-size: 70px;'>正确! </span>","null","html-keyboard-response","20","198343","0.0-7.0-1.0-1.0-0.0-1.5","3","3","3","3","3","3","3","2","3","3","4","3","2","3","3","4","3","3","3","3","2","2","2","3","2","2","4","4","2","1","0","1","1","0","0","1","1","0","1","1","0","1","0","1","4","3","3","3","3","3","4","2","4","2","682886971621638144","nyf","448","","","","","","","","","","","","","","","","","","","","","","","","","","","","","","feedback_test","","","","","","","","","",""
"761","","j","psychophysics","21","200106","0.0-7.0-1.0-1.0-0.0-0.6","3","3","3","3","3","3","3","2","3","3","4","3","2","3","3","4","3","3","3","3","2","2","2","3","2","2","4","4","2","1","0","1","1","0","0","1","1","0","1","1","0","1","0","1","4","3","3","3","3","3","4","2","4","2","682886971621638144","nyf","448","","","","nonmatch","","","","","","","","","","","","","","key","j","16.759201923076873","680","380","j","true","nonmatch","img/hexagon.png","圆形","六边","ALT1_2","prac_ALT1_2","","","","","","","","","",""
"null","<span style='color:GreenYellow; font-size: 70px;'>正确! </span>","null","html-keyboard-response","22","200608","0.0-7.0-1.0-1.0-0.0-1.6","3","3","3","3","3","3","3","2","3","3","4","3","2","3","3","4","3","3","3","3","2","2","2","3","2","2","4","4","2","1","0","1","1","0","0","1","1","0","1","1","0","1","0","1","4","3","3","3","3","3","4","2","4","2","682886971621638144","nyf","448","","","","","","","","","","","","","","","","","","","","","","","","","","","","","","feedback_test","","","","","","","","","",""
"784","","f","psychophysics","23","202394","0.0-7.0-1.0-1.0-0.0-0.7","3","3","3","3","3","3","3","2","3","3","4","3","2","3","3","4","3","3","3","3","2","2","2","3","2","2","4","4","2","1","0","1","1","0","0","1","1","0","1","1","0","1","0","1","4","3","3","3","3","3","4","2","4","2","682886971621638144","nyf","448","","","","match","","","","","","","","","","","","","","key","f","16.758257142857126","680","380","f","true","match","img/hexagon.png","六边","六边","ALT1_2","prac_ALT1_2","","","","","","","","","",""
"null","<span style='color:GreenYellow; font-size: 70px;'>正确! </span>","null","html-keyboard-response","24","202896","0.0-7.0-1.0-1.0-0.0-1.7","3","3","3","3","3","3","3","2","3","3","4","3","2","3","3","4","3","3","3","3","2","2","2","3","2","2","4","4","2","1","0","1","1","0","0","1","1","0","1","1","0","1","0","1","4","3","3","3","3","3","4","2","4","2","682886971621638144","nyf","448","","","","","","","","","","","","","","","","","","","","","","","","","","","","","","feedback_test","","","","","","","","","",""
"752","","j","psychophysics","25","204650","0.0-7.0-1.0-1.0-0.0-0.8","3","3","3","3","3","3","3","2","3","3","4","3","2","3","3","4","3","3","3","3","2","2","2","3","2","2","4","4","2","1","0","1","1","0","0","1","1","0","1","1","0","1","0","1","4","3","3","3","3","3","4","2","4","2","682886971621638144","nyf","448","","","","nonmatch","","","","","","","","","","","","","","key","j","16.75876923076934","680","380","j","true","nonmatch","img/diamond.png","圆形","菱形","ALT1_2","prac_ALT1_2","","","","","","","","","",""
"null","<span style='color:GreenYellow; font-size: 70px;'>正确! </span>","null","html-keyboard-response","26","205151","0.0-7.0-1.0-1.0-0.0-1.8","3","3","3","3","3","3","3","2","3","3","4","3","2","3","3","4","3","3","3","3","2","2","2","3","2","2","4","4","2","1","0","1","1","0","0","1","1","0","1","1","0","1","0","1","4","3","3","3","3","3","4","2","4","2","682886971621638144","nyf","448","","","","","","","","","","","","","","","","","","","","","","","","","","","","","","feedback_test","","","","","","","","","",""
"640","","f","psychophysics","27","206794","0.0-7.0-1.0-1.0-0.0-0.9","3","3","3","3","3","3","3","2","3","3","4","3","2","3","3","4","3","3","3","3","2","2","2","3","2","2","4","4","2","1","0","1","1","0","0","1","1","0","1","1","0","1","0","1","4","3","3","3","3","3","4","2","4","2","682886971621638144","nyf","448","","","","match","","","","","","","","","","","","","","key","f","16.766216494845402","680","380","f","true","match","img/triangle.png","三角","三角","ALT1_2","prac_ALT1_2","","","","","","","","","",""
"null","<span style='color:GreenYellow; font-size: 70px;'>正确! </span>","null","html-keyboard-response","28","207295","0.0-7.0-1.0-1.0-0.0-1.9","3","3","3","3","3","3","3","2","3","3","4","3","2","3","3","4","3","3","3","3","2","2","2","3","2","2","4","4","2","1","0","1","1","0","0","1","1","0","1","1","0","1","0","1","4","3","3","3","3","3","4","2","4","2","682886971621638144","nyf","448","","","","","","","","","","","","","","","","","","","","","","","","","","","","","","feedback_test","","","","","","","","","",""
"831","","j","psychophysics","29","209130","0.0-7.0-1.0-1.0-0.0-0.10","3","3","3","3","3","3","3","2","3","3","4","3","2","3","3","4","3","3","3","3","2","2","2","3","2","2","4","4","2","1","0","1","1","0","0","1","1","0","1","1","0","1","0","1","4","3","3","3","3","3","4","2","4","2","682886971621638144","nyf","448","","","","nonmatch","","","","","","","","","","","","","","key","j","16.918169811320762","680","380","j","true","nonmatch","img/triangle.png","菱形","三角","ALT1_2","prac_ALT1_2","","","","","","","","","",""
"null","<span style='color:GreenYellow; font-size: 70px;'>正确! </span>","null","html-keyboard-response","30","209632","0.0-7.0-1.0-1.0-0.0-1.10","3","3","3","3","3","3","3","2","3","3","4","3","2","3","3","4","3","3","3","3","2","2","2","3","2","2","4","4","2","1","0","1","1","0","0","1","1","0","1","1","0","1","0","1","4","3","3","3","3","3","4","2","4","2","682886971621638144","nyf","448","","","","","","","","","","","","","","","","","","","","","","","","","","","","","","feedback_test","","","","","","","","","",""
"856","","j","psychophysics","31","211490","0.0-7.0-1.0-1.0-0.0-0.11","3","3","3","3","3","3","3","2","3","3","4","3","2","3","3","4","3","3","3","3","2","2","2","3","2","2","4","4","2","1","0","1","1","0","0","1","1","0","1","1","0","1","0","1","4","3","3","3","3","3","4","2","4","2","682886971621638144","nyf","448","","","","nonmatch","","","","","","","","","","","","","","key","j","16.760645454545475","680","380","j","true","nonmatch","img/diamond.png","三角","菱形","ALT1_2","prac_ALT1_2","","","","","","","","","",""
"null","<span style='color:GreenYellow; font-size: 70px;'>正确! </span>","null","html-keyboard-response","32","211992","0.0-7.0-1.0-1.0-0.0-1.11","3","3","3","3","3","3","3","2","3","3","4","3","2","3","3","4","3","3","3","3","2","2","2","3","2","2","4","4","2","1","0","1","1","0","0","1","1","0","1","1","0","1","0","1","4","3","3","3","3","3","4","2","4","2","682886971621638144","nyf","448","","","","","","","","","","","","","","","","","","","","","","","","","","","","","","feedback_test","","","","","","","","","",""
"721","","f","psychophysics","33","213714","0.0-7.0-1.0-1.0-0.0-0.12","3","3","3","3","3","3","3","2","3","3","4","3","2","3","3","4","3","3","3","3","2","2","2","3","2","2","4","4","2","1","0","1","1","0","0","1","1","0","1","1","0","1","0","1","4","3","3","3","3","3","4","2","4","2","682886971621638144","nyf","448","","","","match","","","","","","","","","","","","","","key","f","16.760168316831702","680","380","f","true","match","img/circle.png","圆形","圆形","ALT1_2","prac_ALT1_2","","","","","","","","","",""
"null","<span style='color:GreenYellow; font-size: 70px;'>正确! </span>","null","html-keyboard-response","34","214216","0.0-7.0-1.0-1.0-0.0-1.12","3","3","3","3","3","3","3","2","3","3","4","3","2","3","3","4","3","3","3","3","2","2","2","3","2","2","4","4","2","1","0","1","1","0","0","1","1","0","1","1","0","1","0","1","4","3","3","3","3","3","4","2","4","2","682886971621638144","nyf","448","","","","","","","","","","","","","","","","","","","","","","","","","","","","","","feedback_test","","","","","","","","","",""
"857","","j","psychophysics","35","216075","0.0-7.0-1.0-1.0-0.0-0.13","3","3","3","3","3","3","3","2","3","3","4","3","2","3","3","4","3","3","3","3","2","2","2","3","2","2","4","4","2","1","0","1","1","0","0","1","1","0","1","1","0","1","0","1","4","3","3","3","3","3","4","2","4","2","682886971621638144","nyf","448","","","","nonmatch","","","","","","","","","","","","","","key","j","16.761154545454403","680","380","j","true","nonmatch","img/triangle.png","六边","三角","ALT1_2","prac_ALT1_2","","","","","","","","","",""
"null","<span style='color:GreenYellow; font-size: 70px;'>正确! </span>","null","html-keyboard-response","36","216577","0.0-7.0-1.0-1.0-0.0-1.13","3","3","3","3","3","3","3","2","3","3","4","3","2","3","3","4","3","3","3","3","2","2","2","3","2","2","4","4","2","1","0","1","1","0","0","1","1","0","1","1","0","1","0","1","4","3","3","3","3","3","4","2","4","2","682886971621638144","nyf","448","","","","","","","","","","","","","","","","","","","","","","","","","","","","","","feedback_test","","","","","","","","","",""
"824","","j","psychophysics","37","218402","0.0-7.0-1.0-1.0-0.0-0.14","3","3","3","3","3","3","3","2","3","3","4","3","2","3","3","4","3","3","3","3","2","2","2","3","2","2","4","4","2","1","0","1","1","0","0","1","1","0","1","1","0","1","0","1","4","3","3","3","3","3","4","2","4","2","682886971621638144","nyf","448","","","","nonmatch","","","","","","","","","","","","","","key","j","16.76101869158882","680","380","j","true","nonmatch","img/circle.png","菱形","圆形","ALT1_2","prac_ALT1_2","","","","","","","","","",""
"null","<span style='color:GreenYellow; font-size: 70px;'>正确! </span>","null","html-keyboard-response","38","218906","0.0-7.0-1.0-1.0-0.0-1.14","3","3","3","3","3","3","3","2","3","3","4","3","2","3","3","4","3","3","3","3","2","2","2","3","2","2","4","4","2","1","0","1","1","0","0","1","1","0","1","1","0","1","0","1","4","3","3","3","3","3","4","2","4","2","682886971621638144","nyf","448","","","","","","","","","","","","","","","","","","","","","","","","","","","","","","feedback_test","","","","","","","","","",""
"893","","j","psychophysics","39","220802","0.0-7.0-1.0-1.0-0.0-0.15","3","3","3","3","3","3","3","2","3","3","4","3","2","3","3","4","3","3","3","3","2","2","2","3","2","2","4","4","2","1","0","1","1","0","0","1","1","0","1","1","0","1","0","1","4","3","3","3","3","3","4","2","4","2","682886971621638144","nyf","448","","","","nonmatch","","","","","","","","","","","","","","key","j","16.756072072072065","680","380","j","true","nonmatch","img/hexagon.png","三角","六边","ALT1_2","prac_ALT1_2","","","","","","","","","",""
"null","<span style='color:GreenYellow; font-size: 70px;'>正确! </span>","null","html-keyboard-response","40","221304","0.0-7.0-1.0-1.0-0.0-1.15","3","3","3","3","3","3","3","2","3","3","4","3","2","3","3","4","3","3","3","3","2","2","2","3","2","2","4","4","2","1","0","1","1","0","0","1","1","0","1","1","0","1","0","1","4","3","3","3","3","3","4","2","4","2","682886971621638144","nyf","448","","","","","","","","","","","","","","","","","","","","","","","","","","","","","","feedback_test","","","","","","","","","",""
"641","","f","psychophysics","41","222947","0.0-7.0-1.0-1.0-0.0-0.16","3","3","3","3","3","3","3","2","3","3","4","3","2","3","3","4","3","3","3","3","2","2","2","3","2","2","4","4","2","1","0","1","1","0","0","1","1","0","1","1","0","1","0","1","4","3","3","3","3","3","4","2","4","2","682886971621638144","nyf","448","","","","match","","","","","","","","","","","","","","key","f","16.763659793814554","680","380","f","true","match","img/triangle.png","三角","三角","ALT1_2","prac_ALT1_2","","","","","","","","","",""
"null","<span style='color:GreenYellow; font-size: 70px;'>正确! </span>","null","html-keyboard-response","42","223448","0.0-7.0-1.0-1.0-0.0-1.16","3","3","3","3","3","3","3","2","3","3","4","3","2","3","3","4","3","3","3","3","2","2","2","3","2","2","4","4","2","1","0","1","1","0","0","1","1","0","1","1","0","1","0","1","4","3","3","3","3","3","4","2","4","2","682886971621638144","nyf","448","","","","","","","","","","","","","","","","","","","","","","","","","","","","","","feedback_test","","","","","","","","","",""
"832","","f","psychophysics","43","225282","0.0-7.0-1.0-1.0-0.0-0.17","3","3","3","3","3","3","3","2","3","3","4","3","2","3","3","4","3","3","3","3","2","2","2","3","2","2","4","4","2","1","0","1","1","0","0","1","1","0","1","1","0","1","0","1","4","3","3","3","3","3","4","2","4","2","682886971621638144","nyf","448","","","","match","","","","","","","","","","","","","","key","f","16.75969158878488","680","380","f","true","match","img/circle.png","圆形","圆形","ALT1_2","prac_ALT1_2","","","","","","","","","",""
"null","<span style='color:GreenYellow; font-size: 70px;'>正确! </span>","null","html-keyboard-response","44","225783","0.0-7.0-1.0-1.0-0.0-1.17","3","3","3","3","3","3","3","2","3","3","4","3","2","3","3","4","3","3","3","3","2","2","2","3","2","2","4","4","2","1","0","1","1","0","0","1","1","0","1","1","0","1","0","1","4","3","3","3","3","3","4","2","4","2","682886971621638144","nyf","448","","","","","","","","","","","","","","","","","","","","","","","","","","","","","","feedback_test","","","","","","","","","",""
"721","","j","psychophysics","45","227507","0.0-7.0-1.0-1.0-0.0-0.18","3","3","3","3","3","3","3","2","3","3","4","3","2","3","3","4","3","3","3","3","2","2","2","3","2","2","4","4","2","1","0","1","1","0","0","1","1","0","1","1","0","1","0","1","4","3","3","3","3","3","4","2","4","2","682886971621638144","nyf","448","","","","nonmatch","","","","","","","","","","","","","","key","j","16.755356435643538","680","380","j","true","nonmatch","img/circle.png","六边","圆形","ALT1_2","prac_ALT1_2","","","","","","","","","",""
"null","<span style='color:GreenYellow; font-size: 70px;'>正确! </span>","null","html-keyboard-response","46","228008","0.0-7.0-1.0-1.0-0.0-1.18","3","3","3","3","3","3","3","2","3","3","4","3","2","3","3","4","3","3","3","3","2","2","2","3","2","2","4","4","2","1","0","1","1","0","0","1","1","0","1","1","0","1","0","1","4","3","3","3","3","3","4","2","4","2","682886971621638144","nyf","448","","","","","","","","","","","","","","","","","","","","","","","","","","","","","","feedback_test","","","","","","","","","",""
"695","","f","psychophysics","47","229705","0.0-7.0-1.0-1.0-0.0-0.19","3","3","3","3","3","3","3","2","3","3","4","3","2","3","3","4","3","3","3","3","2","2","2","3","2","2","4","4","2","1","0","1","1","0","0","1","1","0","1","1","0","1","0","1","4","3","3","3","3","3","4","2","4","2","682886971621638144","nyf","448","","","","match","","","","","","","","","","","","","","key","f","16.760899999999964","680","380","f","true","match","img/circle.png","圆形","圆形","ALT1_2","prac_ALT1_2","","","","","","","","","",""
"null","<span style='color:GreenYellow; font-size: 70px;'>正确! </span>","null","html-keyboard-response","48","230207","0.0-7.0-1.0-1.0-0.0-1.19","3","3","3","3","3","3","3","2","3","3","4","3","2","3","3","4","3","3","3","3","2","2","2","3","2","2","4","4","2","1","0","1","1","0","0","1","1","0","1","1","0","1","0","1","4","3","3","3","3","3","4","2","4","2","682886971621638144","nyf","448","","","","","","","","","","","","","","","","","","","","","","","","","","","","","","feedback_test","","","","","","","","","",""
"608","","f","psychophysics","49","231817","0.0-7.0-1.0-1.0-0.0-0.20","3","3","3","3","3","3","3","2","3","3","4","3","2","3","3","4","3","3","3","3","2","2","2","3","2","2","4","4","2","1","0","1","1","0","0","1","1","0","1","1","0","1","0","1","4","3","3","3","3","3","4","2","4","2","682886971621638144","nyf","448","","","","match","","","","","","","","","","","","","","key","f","16.762329787233885","680","380","j","false","nonmatch","img/hexagon.png","菱形","六边","ALT1_2","prac_ALT1_2","","","","","","","","","",""
"null","<span style='color:red; font-size: 70px;'>错误! </span>","null","html-keyboard-response","50","232318","0.0-7.0-1.0-1.0-0.0-1.20","3","3","3","3","3","3","3","2","3","3","4","3","2","3","3","4","3","3","3","3","2","2","2","3","2","2","4","4","2","1","0","1","1","0","0","1","1","0","1","1","0","1","0","1","4","3","3","3","3","3","4","2","4","2","682886971621638144","nyf","448","","","","","","","","","","","","","","","","","","","","","","","","","","","","","","feedback_test","","","","","","","","","",""
"848","","f","psychophysics","51","234169","0.0-7.0-1.0-1.0-0.0-0.21","3","3","3","3","3","3","3","2","3","3","4","3","2","3","3","4","3","3","3","3","2","2","2","3","2","2","4","4","2","1","0","1","1","0","0","1","1","0","1","1","0","1","0","1","4","3","3","3","3","3","4","2","4","2","682886971621638144","nyf","448","","","","match","","","","","","","","","","","","","","key","f","16.76001851851847","680","380","j","false","nonmatch","img/diamond.png","六边","菱形","ALT1_2","prac_ALT1_2","","","","","","","","","",""
"null","<span style='color:red; font-size: 70px;'>错误! </span>","null","html-keyboard-response","52","234671","0.0-7.0-1.0-1.0-0.0-1.21","3","3","3","3","3","3","3","2","3","3","4","3","2","3","3","4","3","3","3","3","2","2","2","3","2","2","4","4","2","1","0","1","1","0","0","1","1","0","1","1","0","1","0","1","4","3","3","3","3","3","4","2","4","2","682886971621638144","nyf","448","","","","","","","","","","","","","","","","","","","","","","","","","","","","","","feedback_test","","","","","","","","","",""
"730","","f","psychophysics","53","236402","0.0-7.0-1.0-1.0-0.0-0.22","3","3","3","3","3","3","3","2","3","3","4","3","2","3","3","4","3","3","3","3","2","2","2","3","2","2","4","4","2","1","0","1","1","0","0","1","1","0","1","1","0","1","0","1","4","3","3","3","3","3","4","2","4","2","682886971621638144","nyf","448","","","","match","","","","","","","","","","","","","","key","f","16.760168316831702","680","380","f","true","match","img/hexagon.png","六边","六边","ALT1_2","prac_ALT1_2","","","","","","","","","",""
"null","<span style='color:GreenYellow; font-size: 70px;'>正确! </span>","null","html-keyboard-response","54","236908","0.0-7.0-1.0-1.0-0.0-1.22","3","3","3","3","3","3","3","2","3","3","4","3","2","3","3","4","3","3","3","3","2","2","2","3","2","2","4","4","2","1","0","1","1","0","0","1","1","0","1","1","0","1","0","1","4","3","3","3","3","3","4","2","4","2","682886971621638144","nyf","448","","","","","","","","","","","","","","","","","","","","","","","","","","","","","","feedback_test","","","","","","","","","",""
"796","","j","psychophysics","55","238705","0.0-7.0-1.0-1.0-0.0-0.23","3","3","3","3","3","3","3","2","3","3","4","3","2","3","3","4","3","3","3","3","2","2","2","3","2","2","4","4","2","1","0","1","1","0","0","1","1","0","1","1","0","1","0","1","4","3","3","3","3","3","4","2","4","2","682886971621638144","nyf","448","","","","nonmatch","","","","","","","","","","","","","","key","j","16.76010476190464","680","380","j","true","nonmatch","img/circle.png","三角","圆形","ALT1_2","prac_ALT1_2","","","","","","","","","",""
"null","<span style='color:GreenYellow; font-size: 70px;'>正确! </span>","null","html-keyboard-response","56","239207","0.0-7.0-1.0-1.0-0.0-1.23","3","3","3","3","3","3","3","2","3","3","4","3","2","3","3","4","3","3","3","3","2","2","2","3","2","2","4","4","2","1","0","1","1","0","0","1","1","0","1","1","0","1","0","1","4","3","3","3","3","3","4","2","4","2","682886971621638144","nyf","448","","","","","","","","","","","","","","","","","","","","","","","","","","","","","","feedback_test","","","","","","","","","",""
"990","","f","psychophysics","57","241201","0.0-7.0-1.0-1.0-0.0-0.24","3","3","3","3","3","3","3","2","3","3","4","3","2","3","3","4","3","3","3","3","2","2","2","3","2","2","4","4","2","1","0","1","1","0","0","1","1","0","1","1","0","1","0","1","4","3","3","3","3","3","4","2","4","2","682886971621638144","nyf","448","","","","match","","","","","","","","","","","","","","key","f","16.760293103448177","680","380","f","true","match","img/diamond.png","菱形","菱形","ALT1_2","prac_ALT1_2","","","","","","","","","",""
"null","<span style='color:GreenYellow; font-size: 70px;'>正确! </span>","null","html-keyboard-response","58","241703","0.0-7.0-1.0-1.0-0.0-1.24","3","3","3","3","3","3","3","2","3","3","4","3","2","3","3","4","3","3","3","3","2","2","2","3","2","2","4","4","2","1","0","1","1","0","0","1","1","0","1","1","0","1","0","1","4","3","3","3","3","3","4","2","4","2","682886971621638144","nyf","448","","","","","","","","","","","","","","","","","","","","","","","","","","","","","","feedback_test","","","","","","","","","",""
"840","","j","psychophysics","59","243547","0.0-7.0-1.0-1.0-0.0-0.25","3","3","3","3","3","3","3","2","3","3","4","3","2","3","3","4","3","3","3","3","2","2","2","3","2","2","4","4","2","1","0","1","1","0","0","1","1","0","1","1","0","1","0","1","4","3","3","3","3","3","4","2","4","2","682886971621638144","nyf","448","","","","nonmatch","","","","","","","","","","","","","","key","j","16.75838532110109","680","380","j","true","nonmatch","img/triangle.png","六边","三角","ALT1_2","prac_ALT1_2","","","","","","","","","",""
"null","<span style='color:GreenYellow; font-size: 70px;'>正确! </span>","null","html-keyboard-response","60","244049","0.0-7.0-1.0-1.0-0.0-1.25","3","3","3","3","3","3","3","2","3","3","4","3","2","3","3","4","3","3","3","3","2","2","2","3","2","2","4","4","2","1","0","1","1","0","0","1","1","0","1","1","0","1","0","1","4","3","3","3","3","3","4","2","4","2","682886971621638144","nyf","448","","","","","","","","","","","","","","","","","","","","","","","","","","","","","","feedback_test","","","","","","","","","",""
"847","","j","psychophysics","61","245898","0.0-7.0-1.0-1.0-0.0-0.26","3","3","3","3","3","3","3","2","3","3","4","3","2","3","3","4","3","3","3","3","2","2","2","3","2","2","4","4","2","1","0","1","1","0","0","1","1","0","1","1","0","1","0","1","4","3","3","3","3","3","4","2","4","2","682886971621638144","nyf","448","","","","nonmatch","","","","","","","","","","","","","","key","j","16.760601851852023","680","380","j","true","nonmatch","img/diamond.png","三角","菱形","ALT1_2","prac_ALT1_2","","","","","","","","","",""
"null","<span style='color:GreenYellow; font-size: 70px;'>正确! </span>","null","html-keyboard-response","62","246399","0.0-7.0-1.0-1.0-0.0-1.26","3","3","3","3","3","3","3","2","3","3","4","3","2","3","3","4","3","3","3","3","2","2","2","3","2","2","4","4","2","1","0","1","1","0","0","1","1","0","1","1","0","1","0","1","4","3","3","3","3","3","4","2","4","2","682886971621638144","nyf","448","","","","","","","","","","","","","","","","","","","","","","","","","","","","","","feedback_test","","","","","","","","","",""
"794","","j","psychophysics","63","248194","0.0-7.0-1.0-1.0-0.0-0.27","3","3","3","3","3","3","3","2","3","3","4","3","2","3","3","4","3","3","3","3","2","2","2","3","2","2","4","4","2","1","0","1","1","0","0","1","1","0","1","1","0","1","0","1","4","3","3","3","3","3","4","2","4","2","682886971621638144","nyf","448","","","","nonmatch","","","","","","","","","","","","","","key","j","16.760771428571648","680","380","j","true","nonmatch","img/circle.png","六边","圆形","ALT1_2","prac_ALT1_2","","","","","","","","","",""
"null","<span style='color:GreenYellow; font-size: 70px;'>正确! </span>","null","html-keyboard-response","64","248696","0.0-7.0-1.0-1.0-0.0-1.27","3","3","3","3","3","3","3","2","3","3","4","3","2","3","3","4","3","3","3","3","2","2","2","3","2","2","4","4","2","1","0","1","1","0","0","1","1","0","1","1","0","1","0","1","4","3","3","3","3","3","4","2","4","2","682886971621638144","nyf","448","","","","","","","","","","","","","","","","","","","","","","","","","","","","","","feedback_test","","","","","","","","","",""
"824","","j","psychophysics","65","250522","0.0-7.0-1.0-1.0-0.0-0.28","3","3","3","3","3","3","3","2","3","3","4","3","2","3","3","4","3","3","3","3","2","2","2","3","2","2","4","4","2","1","0","1","1","0","0","1","1","0","1","1","0","1","0","1","4","3","3","3","3","3","4","2","4","2","682886971621638144","nyf","448","","","","nonmatch","","","","","","","","","","","","","","key","j","16.760878504673073","680","380","j","true","nonmatch","img/hexagon.png","三角","六边","ALT1_2","prac_ALT1_2","","","","","","","","","",""
"null","<span style='color:GreenYellow; font-size: 70px;'>正确! </span>","null","html-keyboard-response","66","251023","0.0-7.0-1.0-1.0-0.0-1.28","3","3","3","3","3","3","3","2","3","3","4","3","2","3","3","4","3","3","3","3","2","2","2","3","2","2","4","4","2","1","0","1","1","0","0","1","1","0","1","1","0","1","0","1","4","3","3","3","3","3","4","2","4","2","682886971621638144","nyf","448","","","","","","","","","","","","","","","","","","","","","","","","","","","","","","feedback_test","","","","","","","","","",""
"672","","f","psychophysics","67","252698","0.0-7.0-1.0-1.0-0.0-0.29","3","3","3","3","3","3","3","2","3","3","4","3","2","3","3","4","3","3","3","3","2","2","2","3","2","2","4","4","2","1","0","1","1","0","0","1","1","0","1","1","0","1","0","1","4","3","3","3","3","3","4","2","4","2","682886971621638144","nyf","448","","","","match","","","","","","","","","","","","","","key","f","16.759591836734717","680","380","f","true","match","img/triangle.png","三角","三角","ALT1_2","prac_ALT1_2","","","","","","","","","",""
"null","<span style='color:GreenYellow; font-size: 70px;'>正确! </span>","null","html-keyboard-response","68","253200","0.0-7.0-1.0-1.0-0.0-1.29","3","3","3","3","3","3","3","2","3","3","4","3","2","3","3","4","3","3","3","3","2","2","2","3","2","2","4","4","2","1","0","1","1","0","0","1","1","0","1","1","0","1","0","1","4","3","3","3","3","3","4","2","4","2","682886971621638144","nyf","448","","","","","","","","","","","","","","","","","","","","","","","","","","","","","","feedback_test","","","","","","","","","",""
"775","","j","psychophysics","69","254978","0.0-7.0-1.0-1.0-0.0-0.30","3","3","3","3","3","3","3","2","3","3","4","3","2","3","3","4","3","3","3","3","2","2","2","3","2","2","4","4","2","1","0","1","1","0","0","1","1","0","1","1","0","1","0","1","4","3","3","3","3","3","4","2","4","2","682886971621638144","nyf","448","","","","nonmatch","","","","","","","","","","","","","","key","j","16.75770192307671","680","380","j","true","nonmatch","img/triangle.png","菱形","三角","ALT1_2","prac_ALT1_2","","","","","","","","","",""
"null","<span style='color:GreenYellow; font-size: 70px;'>正确! </span>","null","html-keyboard-response","70","255479","0.0-7.0-1.0-1.0-0.0-1.30","3","3","3","3","3","3","3","2","3","3","4","3","2","3","3","4","3","3","3","3","2","2","2","3","2","2","4","4","2","1","0","1","1","0","0","1","1","0","1","1","0","1","0","1","4","3","3","3","3","3","4","2","4","2","682886971621638144","nyf","448","","","","","","","","","","","","","","","","","","","","","","","","","","","","","","feedback_test","","","","","","","","","",""
"720","","j","psychophysics","71","257201","0.0-7.0-1.0-1.0-0.0-0.31","3","3","3","3","3","3","3","2","3","3","4","3","2","3","3","4","3","3","3","3","2","2","2","3","2","2","4","4","2","1","0","1","1","0","0","1","1","0","1","1","0","1","0","1","4","3","3","3","3","3","4","2","4","2","682886971621638144","nyf","448","","","","nonmatch","","","","","","","","","","","","","","key","j","16.76078999999998","680","380","j","true","nonmatch","img/triangle.png","圆形","三角","ALT1_2","prac_ALT1_2","","","","","","","","","",""
"null","<span style='color:GreenYellow; font-size: 70px;'>正确! </span>","null","html-keyboard-response","72","257703","0.0-7.0-1.0-1.0-0.0-1.31","3","3","3","3","3","3","3","2","3","3","4","3","2","3","3","4","3","3","3","3","2","2","2","3","2","2","4","4","2","1","0","1","1","0","0","1","1","0","1","1","0","1","0","1","4","3","3","3","3","3","4","2","4","2","682886971621638144","nyf","448","","","","","","","","","","","","","","","","","","","","","","","","","","","","","","feedback_test","","","","","","","","","",""
"848","","j","psychophysics","73","259554","0.0-7.0-1.0-1.0-0.0-0.32","3","3","3","3","3","3","3","2","3","3","4","3","2","3","3","4","3","3","3","3","2","2","2","3","2","2","4","4","2","1","0","1","1","0","0","1","1","0","1","1","0","1","0","1","4","3","3","3","3","3","4","2","4","2","682886971621638144","nyf","448","","","","nonmatch","","","","","","","","","","","","","","key","j","16.761120370370378","680","380","j","true","nonmatch","img/diamond.png","圆形","菱形","ALT1_2","prac_ALT1_2","","","","","","","","","",""
"null","<span style='color:GreenYellow; font-size: 70px;'>正确! </span>","null","html-keyboard-response","74","260054","0.0-7.0-1.0-1.0-0.0-1.32","3","3","3","3","3","3","3","2","3","3","4","3","2","3","3","4","3","3","3","3","2","2","2","3","2","2","4","4","2","1","0","1","1","0","0","1","1","0","1","1","0","1","0","1","4","3","3","3","3","3","4","2","4","2","682886971621638144","nyf","448","","","","","","","","","","","","","","","","","","","","","","","","","","","","","","feedback_test","","","","","","","","","",""
"674","","f","psychophysics","75","261731","0.0-7.0-1.0-1.0-0.0-0.33","3","3","3","3","3","3","3","2","3","3","4","3","2","3","3","4","3","3","3","3","2","2","2","3","2","2","4","4","2","1","0","1","1","0","0","1","1","0","1","1","0","1","0","1","4","3","3","3","3","3","4","2","4","2","682886971621638144","nyf","448","","","","match","","","","","","","","","","","","","","key","f","16.761285714285414","680","380","f","true","match","img/circle.png","圆形","圆形","ALT1_2","prac_ALT1_2","","","","","","","","","",""
"null","<span style='color:GreenYellow; font-size: 70px;'>正确! </span>","null","html-keyboard-response","76","262233","0.0-7.0-1.0-1.0-0.0-1.33","3","3","3","3","3","3","3","2","3","3","4","3","2","3","3","4","3","3","3","3","2","2","2","3","2","2","4","4","2","1","0","1","1","0","0","1","1","0","1","1","0","1","0","1","4","3","3","3","3","3","4","2","4","2","682886971621638144","nyf","448","","","","","","","","","","","","","","","","","","","","","","","","","","","","","","feedback_test","","","","","","","","","",""
"727","","f","psychophysics","77","263962","0.0-7.0-1.0-1.0-0.0-0.34","3","3","3","3","3","3","3","2","3","3","4","3","2","3","3","4","3","3","3","3","2","2","2","3","2","2","4","4","2","1","0","1","1","0","0","1","1","0","1","1","0","1","0","1","4","3","3","3","3","3","4","2","4","2","682886971621638144","nyf","448","","","","match","","","","","","","","","","","","","","key","f","16.7605049504955","680","380","f","true","match","img/triangle.png","三角","三角","ALT1_2","prac_ALT1_2","","","","","","","","","",""
"null","<span style='color:GreenYellow; font-size: 70px;'>正确! </span>","null","html-keyboard-response","78","264464","0.0-7.0-1.0-1.0-0.0-1.34","3","3","3","3","3","3","3","2","3","3","4","3","2","3","3","4","3","3","3","3","2","2","2","3","2","2","4","4","2","1","0","1","1","0","0","1","1","0","1","1","0","1","0","1","4","3","3","3","3","3","4","2","4","2","682886971621638144","nyf","448","","","","","","","","","","","","","","","","","","","","","","","","","","","","","","feedback_test","","","","","","","","","",""
"693","","j","psychophysics","79","266161","0.0-7.0-1.0-1.0-0.0-0.35","3","3","3","3","3","3","3","2","3","3","4","3","2","3","3","4","3","3","3","3","2","2","2","3","2","2","4","4","2","1","0","1","1","0","0","1","1","0","1","1","0","1","0","1","4","3","3","3","3","3","4","2","4","2","682886971621638144","nyf","448","","","","nonmatch","","","","","","","","","","","","","","key","j","16.760050505050458","680","380","j","true","nonmatch","img/diamond.png","六边","菱形","ALT1_2","prac_ALT1_2","","","","","","","","","",""
"null","<span style='color:GreenYellow; font-size: 70px;'>正确! </span>","null","html-keyboard-response","80","266663","0.0-7.0-1.0-1.0-0.0-1.35","3","3","3","3","3","3","3","2","3","3","4","3","2","3","3","4","3","3","3","3","2","2","2","3","2","2","4","4","2","1","0","1","1","0","0","1","1","0","1","1","0","1","0","1","4","3","3","3","3","3","4","2","4","2","682886971621638144","nyf","448","","","","","","","","","","","","","","","","","","","","","","","","","","","","","","feedback_test","","","","","","","","","",""
"745","","j","psychophysics","81","268409","0.0-7.0-1.0-1.0-0.0-0.36","3","3","3","3","3","3","3","2","3","3","4","3","2","3","3","4","3","3","3","3","2","2","2","3","2","2","4","4","2","1","0","1","1","0","0","1","1","0","1","1","0","1","0","1","4","3","3","3","3","3","4","2","4","2","682886971621638144","nyf","448","","","","nonmatch","","","","","","","","","","","","","","key","j","16.762178217822175","680","380","j","true","nonmatch","img/circle.png","菱形","圆形","ALT1_2","prac_ALT1_2","","","","","","","","","",""
"null","<span style='color:GreenYellow; font-size: 70px;'>正确! </span>","null","html-keyboard-response","82","268911","0.0-7.0-1.0-1.0-0.0-1.36","3","3","3","3","3","3","3","2","3","3","4","3","2","3","3","4","3","3","3","3","2","2","2","3","2","2","4","4","2","1","0","1","1","0","0","1","1","0","1","1","0","1","0","1","4","3","3","3","3","3","4","2","4","2","682886971621638144","nyf","448","","","","","","","","","","","","","","","","","","","","","","","","","","","","","","feedback_test","","","","","","","","","",""
"834","","j","psychophysics","83","270747","0.0-7.0-1.0-1.0-0.0-0.37","3","3","3","3","3","3","3","2","3","3","4","3","2","3","3","4","3","3","3","3","2","2","2","3","2","2","4","4","2","1","0","1","1","0","0","1","1","0","1","1","0","1","0","1","4","3","3","3","3","3","4","2","4","2","682886971621638144","nyf","448","","","","nonmatch","","","","","","","","","","","","","","key","j","16.76141121495291","680","380","j","true","nonmatch","img/circle.png","三角","圆形","ALT1_2","prac_ALT1_2","","","","","","","","","",""
"null","<span style='color:GreenYellow; font-size: 70px;'>正确! </span>","null","html-keyboard-response","84","271249","0.0-7.0-1.0-1.0-0.0-1.37","3","3","3","3","3","3","3","2","3","3","4","3","2","3","3","4","3","3","3","3","2","2","2","3","2","2","4","4","2","1","0","1","1","0","0","1","1","0","1","1","0","1","0","1","4","3","3","3","3","3","4","2","4","2","682886971621638144","nyf","448","","","","","","","","","","","","","","","","","","","","","","","","","","","","","","feedback_test","","","","","","","","","",""
"1022","","f","psychophysics","85","273273","0.0-7.0-1.0-1.0-0.0-0.38","3","3","3","3","3","3","3","2","3","3","4","3","2","3","3","4","3","3","3","3","2","2","2","3","2","2","4","4","2","1","0","1","1","0","0","1","1","0","1","1","0","1","0","1","4","3","3","3","3","3","4","2","4","2","682886971621638144","nyf","448","","","","match","","","","","","","","","","","","","","key","f","16.759847457627213","680","380","j","false","nonmatch","img/hexagon.png","菱形","六边","ALT1_2","prac_ALT1_2","","","","","","","","","",""
"null","<span style='color:red; font-size: 70px;'>错误! </span>","null","html-keyboard-response","86","273775","0.0-7.0-1.0-1.0-0.0-1.38","3","3","3","3","3","3","3","2","3","3","4","3","2","3","3","4","3","3","3","3","2","2","2","3","2","2","4","4","2","1","0","1","1","0","0","1","1","0","1","1","0","1","0","1","4","3","3","3","3","3","4","2","4","2","682886971621638144","nyf","448","","","","","","","","","","","","","","","","","","","","","","","","","","","","","","feedback_test","","","","","","","","","",""
"968","","f","psychophysics","87","275745","0.0-7.0-1.0-1.0-0.0-0.39","3","3","3","3","3","3","3","2","3","3","4","3","2","3","3","4","3","3","3","3","2","2","2","3","2","2","4","4","2","1","0","1","1","0","0","1","1","0","1","1","0","1","0","1","4","3","3","3","3","3","4","2","4","2","682886971621638144","nyf","448","","","","match","","","","","","","","","","","","","","key","f","16.757686956521912","680","380","f","true","match","img/hexagon.png","六边","六边","ALT1_2","prac_ALT1_2","","","","","","","","","",""
"null","<span style='color:GreenYellow; font-size: 70px;'>正确! </span>","null","html-keyboard-response","88","276246","0.0-7.0-1.0-1.0-0.0-1.39","3","3","3","3","3","3","3","2","3","3","4","3","2","3","3","4","3","3","3","3","2","2","2","3","2","2","4","4","2","1","0","1","1","0","0","1","1","0","1","1","0","1","0","1","4","3","3","3","3","3","4","2","4","2","682886971621638144","nyf","448","","","","","","","","","","","","","","","","","","","","","","","","","","","","","","feedback_test","","","","","","","","","",""
"723","","f","psychophysics","89","277970","0.0-7.0-1.0-1.0-0.0-0.40","3","3","3","3","3","3","3","2","3","3","4","3","2","3","3","4","3","3","3","3","2","2","2","3","2","2","4","4","2","1","0","1","1","0","0","1","1","0","1","1","0","1","0","1","4","3","3","3","3","3","4","2","4","2","682886971621638144","nyf","448","","","","match","","","","","","","","","","","","","","key","f","16.76054999999993","680","380","f","true","match","img/circle.png","圆形","圆形","ALT1_2","prac_ALT1_2","","","","","","","","","",""
"null","<span style='color:GreenYellow; font-size: 70px;'>正确! </span>","null","html-keyboard-response","90","278472","0.0-7.0-1.0-1.0-0.0-1.40","3","3","3","3","3","3","3","2","3","3","4","3","2","3","3","4","3","3","3","3","2","2","2","3","2","2","4","4","2","1","0","1","1","0","0","1","1","0","1","1","0","1","0","1","4","3","3","3","3","3","4","2","4","2","682886971621638144","nyf","448","","","","","","","","","","","","","","","","","","","","","","","","","","","","","","feedback_test","","","","","","","","","",""
"767","","f","psychophysics","91","280241","0.0-7.0-1.0-1.0-0.0-0.41","3","3","3","3","3","3","3","2","3","3","4","3","2","3","3","4","3","3","3","3","2","2","2","3","2","2","4","4","2","1","0","1","1","0","0","1","1","0","1","1","0","1","0","1","4","3","3","3","3","3","4","2","4","2","682886971621638144","nyf","448","","","","match","","","","","","","","","","","","","","key","f","16.75890291262151","680","380","f","true","match","img/diamond.png","菱形","菱形","ALT1_2","prac_ALT1_2","","","","","","","","","",""
"null","<span style='color:GreenYellow; font-size: 70px;'>正确! </span>","null","html-keyboard-response","92","280743","0.0-7.0-1.0-1.0-0.0-1.41","3","3","3","3","3","3","3","2","3","3","4","3","2","3","3","4","3","3","3","3","2","2","2","3","2","2","4","4","2","1","0","1","1","0","0","1","1","0","1","1","0","1","0","1","4","3","3","3","3","3","4","2","4","2","682886971621638144","nyf","448","","","","","","","","","","","","","","","","","","","","","","","","","","","","","","feedback_test","","","","","","","","","",""
"744","","j","psychophysics","93","282490","0.0-7.0-1.0-1.0-0.0-0.42","3","3","3","3","3","3","3","2","3","3","4","3","2","3","3","4","3","3","3","3","2","2","2","3","2","2","4","4","2","1","0","1","1","0","0","1","1","0","1","1","0","1","0","1","4","3","3","3","3","3","4","2","4","2","682886971621638144","nyf","448","","","","nonmatch","","","","","","","","","","","","","","key","j","16.76812871287134","680","380","j","true","nonmatch","img/hexagon.png","圆形","六边","ALT1_2","prac_ALT1_2","","","","","","","","","",""
"null","<span style='color:GreenYellow; font-size: 70px;'>正确! </span>","null","html-keyboard-response","94","282991","0.0-7.0-1.0-1.0-0.0-1.42","3","3","3","3","3","3","3","2","3","3","4","3","2","3","3","4","3","3","3","3","2","2","2","3","2","2","4","4","2","1","0","1","1","0","0","1","1","0","1","1","0","1","0","1","4","3","3","3","3","3","4","2","4","2","682886971621638144","nyf","448","","","","","","","","","","","","","","","","","","","","","","","","","","","","","","feedback_test","","","","","","","","","",""
"895","","f","psychophysics","95","284889","0.0-7.0-1.0-1.0-0.0-0.43","3","3","3","3","3","3","3","2","3","3","4","3","2","3","3","4","3","3","3","3","2","2","2","3","2","2","4","4","2","1","0","1","1","0","0","1","1","0","1","1","0","1","0","1","4","3","3","3","3","3","4","2","4","2","682886971621638144","nyf","448","","","","match","","","","","","","","","","","","","","key","f","16.76133333333361","680","380","f","true","match","img/hexagon.png","六边","六边","ALT1_2","prac_ALT1_2","","","","","","","","","",""
"null","<span style='color:GreenYellow; font-size: 70px;'>正确! </span>","null","html-keyboard-response","96","285390","0.0-7.0-1.0-1.0-0.0-1.43","3","3","3","3","3","3","3","2","3","3","4","3","2","3","3","4","3","3","3","3","2","2","2","3","2","2","4","4","2","1","0","1","1","0","0","1","1","0","1","1","0","1","0","1","4","3","3","3","3","3","4","2","4","2","682886971621638144","nyf","448","","","","","","","","","","","","","","","","","","","","","","","","","","","","","","feedback_test","","","","","","","","","",""
"816","","f","psychophysics","97","287209","0.0-7.0-1.0-1.0-0.0-0.44","3","3","3","3","3","3","3","2","3","3","4","3","2","3","3","4","3","3","3","3","2","2","2","3","2","2","4","4","2","1","0","1","1","0","0","1","1","0","1","1","0","1","0","1","4","3","3","3","3","3","4","2","4","2","682886971621638144","nyf","448","","","","match","","","","","","","","","","","","","","key","f","16.916009433962348","680","380","f","true","match","img/circle.png","圆形","圆形","ALT1_2","prac_ALT1_2","","","","","","","","","",""
"null","<span style='color:GreenYellow; font-size: 70px;'>正确! </span>","null","html-keyboard-response","98","287711","0.0-7.0-1.0-1.0-0.0-1.44","3","3","3","3","3","3","3","2","3","3","4","3","2","3","3","4","3","3","3","3","2","2","2","3","2","2","4","4","2","1","0","1","1","0","0","1","1","0","1","1","0","1","0","1","4","3","3","3","3","3","4","2","4","2","682886971621638144","nyf","448","","","","","","","","","","","","","","","","","","","","","","","","","","","","","","feedback_test","","","","","","","","","",""
"728","","f","psychophysics","99","289441","0.0-7.0-1.0-1.0-0.0-0.45","3","3","3","3","3","3","3","2","3","3","4","3","2","3","3","4","3","3","3","3","2","2","2","3","2","2","4","4","2","1","0","1","1","0","0","1","1","0","1","1","0","1","0","1","4","3","3","3","3","3","4","2","4","2","682886971621638144","nyf","448","","","","match","","","","","","","","","","","","","","key","f","16.76015841584171","680","380","f","true","match","img/diamond.png","菱形","菱形","ALT1_2","prac_ALT1_2","","","","","","","","","",""
"null","<span style='color:GreenYellow; font-size: 70px;'>正确! </span>","null","html-keyboard-response","100","289943","0.0-7.0-1.0-1.0-0.0-1.45","3","3","3","3","3","3","3","2","3","3","4","3","2","3","3","4","3","3","3","3","2","2","2","3","2","2","4","4","2","1","0","1","1","0","0","1","1","0","1","1","0","1","0","1","4","3","3","3","3","3","4","2","4","2","682886971621638144","nyf","448","","","","","","","","","","","","","","","","","","","","","","","","","","","","","","feedback_test","","","","","","","","","",""
"712","","f","psychophysics","101","291657","0.0-7.0-1.0-1.0-0.0-0.46","3","3","3","3","3","3","3","2","3","3","4","3","2","3","3","4","3","3","3","3","2","2","2","3","2","2","4","4","2","1","0","1","1","0","0","1","1","0","1","1","0","1","0","1","4","3","3","3","3","3","4","2","4","2","682886971621638144","nyf","448","","","","match","","","","","","","","","","","","","","key","f","16.76011881188116","680","380","f","true","match","img/hexagon.png","六边","六边","ALT1_2","prac_ALT1_2","","","","","","","","","",""
"null","<span style='color:GreenYellow; font-size: 70px;'>正确! </span>","null","html-keyboard-response","102","292158","0.0-7.0-1.0-1.0-0.0-1.46","3","3","3","3","3","3","3","2","3","3","4","3","2","3","3","4","3","3","3","3","2","2","2","3","2","2","4","4","2","1","0","1","1","0","0","1","1","0","1","1","0","1","0","1","4","3","3","3","3","3","4","2","4","2","682886971621638144","nyf","448","","","","","","","","","","","","","","","","","","","","","","","","","","","","","","feedback_test","","","","","","","","","",""
"545","","f","psychophysics","103","293705","0.0-7.0-1.0-1.0-0.0-0.47","3","3","3","3","3","3","3","2","3","3","4","3","2","3","3","4","3","3","3","3","2","2","2","3","2","2","4","4","2","1","0","1","1","0","0","1","1","0","1","1","0","1","0","1","4","3","3","3","3","3","4","2","4","2","682886971621638144","nyf","448","","","","match","","","","","","","","","","","","","","key","f","16.759945054944723","680","380","f","true","match","img/triangle.png","三角","三角","ALT1_2","prac_ALT1_2","","","","","","","","","",""
"null","<span style='color:GreenYellow; font-size: 70px;'>正确! </span>","null","html-keyboard-response","104","294208","0.0-7.0-1.0-1.0-0.0-1.47","3","3","3","3","3","3","3","2","3","3","4","3","2","3","3","4","3","3","3","3","2","2","2","3","2","2","4","4","2","1","0","1","1","0","0","1","1","0","1","1","0","1","0","1","4","3","3","3","3","3","4","2","4","2","682886971621638144","nyf","448","","","","","","","","","","","","","","","","","","","","","","","","","","","","","","feedback_test","","","","","","","","","",""
"14012","<style>.context{color:white; font-size: 35px; line-height:40px}</style>                          <div><p class='context'>您正确回答了92% 的试次。</p><p class='context'>您的平均反应时为776毫秒。</p><p class='context'>恭喜您完成练习。按空格键进入正式实验。</p><p class='footer' style='font-size: 35px; line-height:40px;'>请在进入正式实验实验之前将您的<span style='color: lightgreen;'>食指</span>放在电脑键盘的相应键位上进行按键。</p>"," ","html-keyboard-response","105","308226","0.0-7.0-1.0-2.0","3","3","3","3","3","3","3","2","3","3","4","3","2","3","3","4","3","3","3","3","2","2","2","3","2","2","4","4","2","1","0","1","1","0","0","1","1","0","1","1","0","1","0","1","4","3","3","3","3","3","4","2","4","2","682886971621638144","nyf","448","","","","","","","","","","","","","","","","","","","","","","","","","","","","","","","","","","","","","","","",""
"2670","
  <p style='color: white; font-size: 22px'>请您将手指放在按键上，准备进入正式的匹配任务。</p>
  <p> <div style = ""color: green""><按空格键进入下一阶段的匹配任务></div></p>
  "," ","html-keyboard-response","106","310905","0.0-7.0-1.0-3.0","3","3","3","3","3","3","3","2","3","3","4","3","2","3","3","4","3","3","3","3","2","2","2","3","2","2","4","4","2","1","0","1","1","0","0","1","1","0","1","1","0","1","0","1","4","3","3","3","3","3","4","2","4","2","682886971621638144","nyf","448","","","","","","","","","","","","","","","","","","","","","","","","","","","","","","","","","","","","","","","",""
"693","","f","psychophysics","107","312601","0.0-7.0-1.0-4.0-0.0-0.0","3","3","3","3","3","3","3","2","3","3","4","3","2","3","3","4","3","3","3","3","2","2","2","3","2","2","4","4","2","1","0","1","1","0","0","1","1","0","1","1","0","1","0","1","4","3","3","3","3","3","4","2","4","2","682886971621638144","nyf","448","","","","match","","","","","","","","","","","","","","key","f","16.76003000000026","680","380","f","true","match","img/hexagon.png","六边","六边","ALT1","formal_ALT1_2","","","","","","","","","",""
"null","<span style='color:GreenYellow; font-size: 70px;'>正确! </span>","null","html-keyboard-response","108","313102","0.0-7.0-1.0-4.0-0.0-1.0","3","3","3","3","3","3","3","2","3","3","4","3","2","3","3","4","3","3","3","3","2","2","2","3","2","2","4","4","2","1","0","1","1","0","0","1","1","0","1","1","0","1","0","1","4","3","3","3","3","3","4","2","4","2","682886971621638144","nyf","448","","","","","","","","","","","","","","","","","","","","","","","","","","","","","","feedback_test","","","","","","","","","",""
"752","","j","psychophysics","109","314858","0.0-7.0-1.0-4.0-0.0-0.1","3","3","3","3","3","3","3","2","3","3","4","3","2","3","3","4","3","3","3","3","2","2","2","3","2","2","4","4","2","1","0","1","1","0","0","1","1","0","1","1","0","1","0","1","4","3","3","3","3","3","4","2","4","2","682886971621638144","nyf","448","","","","nonmatch","","","","","","","","","","","","","","key","j","16.92468316831665","680","380","j","true","nonmatch","img/circle.png","六边","圆形","ALT1","formal_ALT1_2","","","","","","","","","",""
"null","<span style='color:GreenYellow; font-size: 70px;'>正确! </span>","null","html-keyboard-response","110","315360","0.0-7.0-1.0-4.0-0.0-1.1","3","3","3","3","3","3","3","2","3","3","4","3","2","3","3","4","3","3","3","3","2","2","2","3","2","2","4","4","2","1","0","1","1","0","0","1","1","0","1","1","0","1","0","1","4","3","3","3","3","3","4","2","4","2","682886971621638144","nyf","448","","","","","","","","","","","","","","","","","","","","","","","","","","","","","","feedback_test","","","","","","","","","",""
"744","","j","psychophysics","111","317105","0.0-7.0-1.0-4.0-0.0-0.2","3","3","3","3","3","3","3","2","3","3","4","3","2","3","3","4","3","3","3","3","2","2","2","3","2","2","4","4","2","1","0","1","1","0","0","1","1","0","1","1","0","1","0","1","4","3","3","3","3","3","4","2","4","2","682886971621638144","nyf","448","","","","nonmatch","","","","","","","","","","","","","","key","j","16.761708737864133","680","380","j","true","nonmatch","img/triangle.png","圆形","三角","ALT1","formal_ALT1_2","","","","","","","","","",""
"null","<span style='color:GreenYellow; font-size: 70px;'>正确! </span>","null","html-keyboard-response","112","317607","0.0-7.0-1.0-4.0-0.0-1.2","3","3","3","3","3","3","3","2","3","3","4","3","2","3","3","4","3","3","3","3","2","2","2","3","2","2","4","4","2","1","0","1","1","0","0","1","1","0","1","1","0","1","0","1","4","3","3","3","3","3","4","2","4","2","682886971621638144","nyf","448","","","","","","","","","","","","","","","","","","","","","","","","","","","","","","feedback_test","","","","","","","","","",""
"776","","j","psychophysics","113","319386","0.0-7.0-1.0-4.0-0.0-0.3","3","3","3","3","3","3","3","2","3","3","4","3","2","3","3","4","3","3","3","3","2","2","2","3","2","2","4","4","2","1","0","1","1","0","0","1","1","0","1","1","0","1","0","1","4","3","3","3","3","3","4","2","4","2","682886971621638144","nyf","448","","","","nonmatch","","","","","","","","","","","","","","key","j","16.920884615384587","680","380","j","true","nonmatch","img/circle.png","菱形","圆形","ALT1","formal_ALT1_2","","","","","","","","","",""
"null","<span style='color:GreenYellow; font-size: 70px;'>正确! </span>","null","html-keyboard-response","114","319889","0.0-7.0-1.0-4.0-0.0-1.3","3","3","3","3","3","3","3","2","3","3","4","3","2","3","3","4","3","3","3","3","2","2","2","3","2","2","4","4","2","1","0","1","1","0","0","1","1","0","1","1","0","1","0","1","4","3","3","3","3","3","4","2","4","2","682886971621638144","nyf","448","","","","","","","","","","","","","","","","","","","","","","","","","","","","","","feedback_test","","","","","","","","","",""
"820","","j","psychophysics","115","321715","0.0-7.0-1.0-4.0-0.0-0.4","3","3","3","3","3","3","3","2","3","3","4","3","2","3","3","4","3","3","3","3","2","2","2","3","2","2","4","4","2","1","0","1","1","0","0","1","1","0","1","1","0","1","0","1","4","3","3","3","3","3","4","2","4","2","682886971621638144","nyf","448","","","","nonmatch","","","","","","","","","","","","","","key","j","16.761186915887716","680","380","j","true","nonmatch","img/diamond.png","三角","菱形","ALT1","formal_ALT1_2","","","","","","","","","",""
"null","<span style='color:GreenYellow; font-size: 70px;'>正确! </span>","null","html-keyboard-response","116","322217","0.0-7.0-1.0-4.0-0.0-1.4","3","3","3","3","3","3","3","2","3","3","4","3","2","3","3","4","3","3","3","3","2","2","2","3","2","2","4","4","2","1","0","1","1","0","0","1","1","0","1","1","0","1","0","1","4","3","3","3","3","3","4","2","4","2","682886971621638144","nyf","448","","","","","","","","","","","","","","","","","","","","","","","","","","","","","","feedback_test","","","","","","","","","",""
"806","","f","psychophysics","117","324026","0.0-7.0-1.0-4.0-0.0-0.5","3","3","3","3","3","3","3","2","3","3","4","3","2","3","3","4","3","3","3","3","2","2","2","3","2","2","4","4","2","1","0","1","1","0","0","1","1","0","1","1","0","1","0","1","4","3","3","3","3","3","4","2","4","2","682886971621638144","nyf","448","","","","match","","","","","","","","","","","","","","key","f","16.760273584905455","680","380","f","true","match","img/hexagon.png","六边","六边","ALT1","formal_ALT1_2","","","","","","","","","",""
"null","<span style='color:GreenYellow; font-size: 70px;'>正确! </span>","null","html-keyboard-response","118","324528","0.0-7.0-1.0-4.0-0.0-1.5","3","3","3","3","3","3","3","2","3","3","4","3","2","3","3","4","3","3","3","3","2","2","2","3","2","2","4","4","2","1","0","1","1","0","0","1","1","0","1","1","0","1","0","1","4","3","3","3","3","3","4","2","4","2","682886971621638144","nyf","448","","","","","","","","","","","","","","","","","","","","","","","","","","","","","","feedback_test","","","","","","","","","",""
"807","","j","psychophysics","119","326337","0.0-7.0-1.0-4.0-0.0-0.6","3","3","3","3","3","3","3","2","3","3","4","3","2","3","3","4","3","3","3","3","2","2","2","3","2","2","4","4","2","1","0","1","1","0","0","1","1","0","1","1","0","1","0","1","4","3","3","3","3","3","4","2","4","2","682886971621638144","nyf","448","","","","nonmatch","","","","","","","","","","","","","","key","j","16.76077142857137","680","380","j","true","nonmatch","img/hexagon.png","圆形","六边","ALT1","formal_ALT1_2","","","","","","","","","",""
"null","<span style='color:GreenYellow; font-size: 70px;'>正确! </span>","null","html-keyboard-response","120","326841","0.0-7.0-1.0-4.0-0.0-1.6","3","3","3","3","3","3","3","2","3","3","4","3","2","3","3","4","3","3","3","3","2","2","2","3","2","2","4","4","2","1","0","1","1","0","0","1","1","0","1","1","0","1","0","1","4","3","3","3","3","3","4","2","4","2","682886971621638144","nyf","448","","","","","","","","","","","","","","","","","","","","","","","","","","","","","","feedback_test","","","","","","","","","",""
"576","","f","psychophysics","121","328419","0.0-7.0-1.0-4.0-0.0-0.7","3","3","3","3","3","3","3","2","3","3","4","3","2","3","3","4","3","3","3","3","2","2","2","3","2","2","4","4","2","1","0","1","1","0","0","1","1","0","1","1","0","1","0","1","4","3","3","3","3","3","4","2","4","2","682886971621638144","nyf","448","","","","match","","","","","","","","","","","","","","key","f","16.760989247311798","680","380","f","true","match","img/triangle.png","三角","三角","ALT1","formal_ALT1_2","","","","","","","","","",""
"null","<span style='color:GreenYellow; font-size: 70px;'>正确! </span>","null","html-keyboard-response","122","328921","0.0-7.0-1.0-4.0-0.0-1.7","3","3","3","3","3","3","3","2","3","3","4","3","2","3","3","4","3","3","3","3","2","2","2","3","2","2","4","4","2","1","0","1","1","0","0","1","1","0","1","1","0","1","0","1","4","3","3","3","3","3","4","2","4","2","682886971621638144","nyf","448","","","","","","","","","","","","","","","","","","","","","","","","","","","","","","feedback_test","","","","","","","","","",""
"764","","f","psychophysics","123","330689","0.0-7.0-1.0-4.0-0.0-0.8","3","3","3","3","3","3","3","2","3","3","4","3","2","3","3","4","3","3","3","3","2","2","2","3","2","2","4","4","2","1","0","1","1","0","0","1","1","0","1","1","0","1","0","1","4","3","3","3","3","3","4","2","4","2","682886971621638144","nyf","448","","","","match","","","","","","","","","","","","","","key","f","16.76291262135938","680","380","f","true","match","img/circle.png","圆形","圆形","ALT1","formal_ALT1_2","","","","","","","","","",""
"null","<span style='color:GreenYellow; font-size: 70px;'>正确! </span>","null","html-keyboard-response","124","331191","0.0-7.0-1.0-4.0-0.0-1.8","3","3","3","3","3","3","3","2","3","3","4","3","2","3","3","4","3","3","3","3","2","2","2","3","2","2","4","4","2","1","0","1","1","0","0","1","1","0","1","1","0","1","0","1","4","3","3","3","3","3","4","2","4","2","682886971621638144","nyf","448","","","","","","","","","","","","","","","","","","","","","","","","","","","","","","feedback_test","","","","","","","","","",""
"672","","f","psychophysics","125","332865","0.0-7.0-1.0-4.0-0.0-0.9","3","3","3","3","3","3","3","2","3","3","4","3","2","3","3","4","3","3","3","3","2","2","2","3","2","2","4","4","2","1","0","1","1","0","0","1","1","0","1","1","0","1","0","1","4","3","3","3","3","3","4","2","4","2","682886971621638144","nyf","448","","","","match","","","","","","","","","","","","","","key","f","16.762193877550498","680","380","f","true","match","img/circle.png","圆形","圆形","ALT1","formal_ALT1_2","","","","","","","","","",""
"null","<span style='color:GreenYellow; font-size: 70px;'>正确! </span>","null","html-keyboard-response","126","333366","0.0-7.0-1.0-4.0-0.0-1.9","3","3","3","3","3","3","3","2","3","3","4","3","2","3","3","4","3","3","3","3","2","2","2","3","2","2","4","4","2","1","0","1","1","0","0","1","1","0","1","1","0","1","0","1","4","3","3","3","3","3","4","2","4","2","682886971621638144","nyf","448","","","","","","","","","","","","","","","","","","","","","","","","","","","","","","feedback_test","","","","","","","","","",""
"648","","f","psychophysics","127","335017","0.0-7.0-1.0-4.0-0.0-0.10","3","3","3","3","3","3","3","2","3","3","4","3","2","3","3","4","3","3","3","3","2","2","2","3","2","2","4","4","2","1","0","1","1","0","0","1","1","0","1","1","0","1","0","1","4","3","3","3","3","3","4","2","4","2","682886971621638144","nyf","448","","","","match","","","","","","","","","","","","","","key","f","16.760083333333267","680","380","f","true","match","img/diamond.png","菱形","菱形","ALT1","formal_ALT1_2","","","","","","","","","",""
"null","<span style='color:GreenYellow; font-size: 70px;'>正确! </span>","null","html-keyboard-response","128","335518","0.0-7.0-1.0-4.0-0.0-1.10","3","3","3","3","3","3","3","2","3","3","4","3","2","3","3","4","3","3","3","3","2","2","2","3","2","2","4","4","2","1","0","1","1","0","0","1","1","0","1","1","0","1","0","1","4","3","3","3","3","3","4","2","4","2","682886971621638144","nyf","448","","","","","","","","","","","","","","","","","","","","","","","","","","","","","","feedback_test","","","","","","","","","",""
"776","","f","psychophysics","129","337296","0.0-7.0-1.0-4.0-0.0-0.11","3","3","3","3","3","3","3","2","3","3","4","3","2","3","3","4","3","3","3","3","2","2","2","3","2","2","4","4","2","1","0","1","1","0","0","1","1","0","1","1","0","1","0","1","4","3","3","3","3","3","4","2","4","2","682886971621638144","nyf","448","","","","match","","","","","","","","","","","","","","key","f","16.919721153846275","680","380","f","true","match","img/hexagon.png","六边","六边","ALT1","formal_ALT1_2","","","","","","","","","",""
"null","<span style='color:GreenYellow; font-size: 70px;'>正确! </span>","null","html-keyboard-response","130","337797","0.0-7.0-1.0-4.0-0.0-1.11","3","3","3","3","3","3","3","2","3","3","4","3","2","3","3","4","3","3","3","3","2","2","2","3","2","2","4","4","2","1","0","1","1","0","0","1","1","0","1","1","0","1","0","1","4","3","3","3","3","3","4","2","4","2","682886971621638144","nyf","448","","","","","","","","","","","","","","","","","","","","","","","","","","","","","","feedback_test","","","","","","","","","",""
"650","","f","psychophysics","131","339449","0.0-7.0-1.0-4.0-0.0-0.12","3","3","3","3","3","3","3","2","3","3","4","3","2","3","3","4","3","3","3","3","2","2","2","3","2","2","4","4","2","1","0","1","1","0","0","1","1","0","1","1","0","1","0","1","4","3","3","3","3","3","4","2","4","2","682886971621638144","nyf","448","","","","match","","","","","","","","","","","","","","key","f","16.760364583333285","680","380","f","true","match","img/diamond.png","菱形","菱形","ALT1","formal_ALT1_2","","","","","","","","","",""
"null","<span style='color:GreenYellow; font-size: 70px;'>正确! </span>","null","html-keyboard-response","132","339950","0.0-7.0-1.0-4.0-0.0-1.12","3","3","3","3","3","3","3","2","3","3","4","3","2","3","3","4","3","3","3","3","2","2","2","3","2","2","4","4","2","1","0","1","1","0","0","1","1","0","1","1","0","1","0","1","4","3","3","3","3","3","4","2","4","2","682886971621638144","nyf","448","","","","","","","","","","","","","","","","","","","","","","","","","","","","","","feedback_test","","","","","","","","","",""
"744","","j","psychophysics","133","341697","0.0-7.0-1.0-4.0-0.0-0.13","3","3","3","3","3","3","3","2","3","3","4","3","2","3","3","4","3","3","3","3","2","2","2","3","2","2","4","4","2","1","0","1","1","0","0","1","1","0","1","1","0","1","0","1","4","3","3","3","3","3","4","2","4","2","682886971621638144","nyf","448","","","","nonmatch","","","","","","","","","","","","","","key","j","16.760058823529533","680","380","j","true","nonmatch","img/hexagon.png","三角","六边","ALT1","formal_ALT1_2","","","","","","","","","",""
"null","<span style='color:GreenYellow; font-size: 70px;'>正确! </span>","null","html-keyboard-response","134","342201","0.0-7.0-1.0-4.0-0.0-1.13","3","3","3","3","3","3","3","2","3","3","4","3","2","3","3","4","3","3","3","3","2","2","2","3","2","2","4","4","2","1","0","1","1","0","0","1","1","0","1","1","0","1","0","1","4","3","3","3","3","3","4","2","4","2","682886971621638144","nyf","448","","","","","","","","","","","","","","","","","","","","","","","","","","","","","","feedback_test","","","","","","","","","",""
"726","","j","psychophysics","135","343928","0.0-7.0-1.0-4.0-0.0-0.14","3","3","3","3","3","3","3","2","3","3","4","3","2","3","3","4","3","3","3","3","2","2","2","3","2","2","4","4","2","1","0","1","1","0","0","1","1","0","1","1","0","1","0","1","4","3","3","3","3","3","4","2","4","2","682886971621638144","nyf","448","","","","nonmatch","","","","","","","","","","","","","","key","j","16.760558823529315","680","380","j","true","nonmatch","img/triangle.png","菱形","三角","ALT1","formal_ALT1_2","","","","","","","","","",""
"null","<span style='color:GreenYellow; font-size: 70px;'>正确! </span>","null","html-keyboard-response","136","344430","0.0-7.0-1.0-4.0-0.0-1.14","3","3","3","3","3","3","3","2","3","3","4","3","2","3","3","4","3","3","3","3","2","2","2","3","2","2","4","4","2","1","0","1","1","0","0","1","1","0","1","1","0","1","0","1","4","3","3","3","3","3","4","2","4","2","682886971621638144","nyf","448","","","","","","","","","","","","","","","","","","","","","","","","","","","","","","feedback_test","","","","","","","","","",""
"742","","j","psychophysics","137","346176","0.0-7.0-1.0-4.0-0.0-0.15","3","3","3","3","3","3","3","2","3","3","4","3","2","3","3","4","3","3","3","3","2","2","2","3","2","2","4","4","2","1","0","1","1","0","0","1","1","0","1","1","0","1","0","1","4","3","3","3","3","3","4","2","4","2","682886971621638144","nyf","448","","","","nonmatch","","","","","","","","","","","","","","key","j","16.76390384615381","680","380","j","true","nonmatch","img/circle.png","三角","圆形","ALT1","formal_ALT1_2","","","","","","","","","",""
"null","<span style='color:GreenYellow; font-size: 70px;'>正确! </span>","null","html-keyboard-response","138","346678","0.0-7.0-1.0-4.0-0.0-1.15","3","3","3","3","3","3","3","2","3","3","4","3","2","3","3","4","3","3","3","3","2","2","2","3","2","2","4","4","2","1","0","1","1","0","0","1","1","0","1","1","0","1","0","1","4","3","3","3","3","3","4","2","4","2","682886971621638144","nyf","448","","","","","","","","","","","","","","","","","","","","","","","","","","","","","","feedback_test","","","","","","","","","",""
"1113","","j","psychophysics","139","348792","0.0-7.0-1.0-4.0-0.0-0.16","3","3","3","3","3","3","3","2","3","3","4","3","2","3","3","4","3","3","3","3","2","2","2","3","2","2","4","4","2","1","0","1","1","0","0","1","1","0","1","1","0","1","0","1","4","3","3","3","3","3","4","2","4","2","682886971621638144","nyf","448","","","","nonmatch","","","","","","","","","","","","","","key","j","16.762419354838542","680","380","f","false","match","img/diamond.png","菱形","菱形","ALT1","formal_ALT1_2","","","","","","","","","",""
"null","<span style='color:red; font-size: 70px;'>错误! </span>","null","html-keyboard-response","140","349295","0.0-7.0-1.0-4.0-0.0-1.16","3","3","3","3","3","3","3","2","3","3","4","3","2","3","3","4","3","3","3","3","2","2","2","3","2","2","4","4","2","1","0","1","1","0","0","1","1","0","1","1","0","1","0","1","4","3","3","3","3","3","4","2","4","2","682886971621638144","nyf","448","","","","","","","","","","","","","","","","","","","","","","","","","","","","","","feedback_test","","","","","","","","","",""
"800","","j","psychophysics","141","351097","0.0-7.0-1.0-4.0-0.0-0.17","3","3","3","3","3","3","3","2","3","3","4","3","2","3","3","4","3","3","3","3","2","2","2","3","2","2","4","4","2","1","0","1","1","0","0","1","1","0","1","1","0","1","0","1","4","3","3","3","3","3","4","2","4","2","682886971621638144","nyf","448","","","","nonmatch","","","","","","","","","","","","","","key","j","16.761438095238105","680","380","j","true","nonmatch","img/triangle.png","六边","三角","ALT1","formal_ALT1_2","","","","","","","","","",""
"null","<span style='color:GreenYellow; font-size: 70px;'>正确! </span>","null","html-keyboard-response","142","351599","0.0-7.0-1.0-4.0-0.0-1.17","3","3","3","3","3","3","3","2","3","3","4","3","2","3","3","4","3","3","3","3","2","2","2","3","2","2","4","4","2","1","0","1","1","0","0","1","1","0","1","1","0","1","0","1","4","3","3","3","3","3","4","2","4","2","682886971621638144","nyf","448","","","","","","","","","","","","","","","","","","","","","","","","","","","","","","feedback_test","","","","","","","","","",""
"1031","","j","psychophysics","143","353632","0.0-7.0-1.0-4.0-0.0-0.18","3","3","3","3","3","3","3","2","3","3","4","3","2","3","3","4","3","3","3","3","2","2","2","3","2","2","4","4","2","1","0","1","1","0","0","1","1","0","1","1","0","1","0","1","4","3","3","3","3","3","4","2","4","2","682886971621638144","nyf","448","","","","nonmatch","","","","","","","","","","","","","","key","j","16.75772268907558","680","380","j","true","nonmatch","img/hexagon.png","菱形","六边","ALT1","formal_ALT1_2","","","","","","","","","",""
"null","<span style='color:GreenYellow; font-size: 70px;'>正确! </span>","null","html-keyboard-response","144","354134","0.0-7.0-1.0-4.0-0.0-1.18","3","3","3","3","3","3","3","2","3","3","4","3","2","3","3","4","3","3","3","3","2","2","2","3","2","2","4","4","2","1","0","1","1","0","0","1","1","0","1","1","0","1","0","1","4","3","3","3","3","3","4","2","4","2","682886971621638144","nyf","448","","","","","","","","","","","","","","","","","","","","","","","","","","","","","","feedback_test","","","","","","","","","",""
"776","","j","psychophysics","145","355912","0.0-7.0-1.0-4.0-0.0-0.19","3","3","3","3","3","3","3","2","3","3","4","3","2","3","3","4","3","3","3","3","2","2","2","3","2","2","4","4","2","1","0","1","1","0","0","1","1","0","1","1","0","1","0","1","4","3","3","3","3","3","4","2","4","2","682886971621638144","nyf","448","","","","nonmatch","","","","","","","","","","","","","","key","j","16.763628571428402","680","380","j","true","nonmatch","img/diamond.png","圆形","菱形","ALT1","formal_ALT1_2","","","","","","","","","",""
"null","<span style='color:GreenYellow; font-size: 70px;'>正确! </span>","null","html-keyboard-response","146","356413","0.0-7.0-1.0-4.0-0.0-1.19","3","3","3","3","3","3","3","2","3","3","4","3","2","3","3","4","3","3","3","3","2","2","2","3","2","2","4","4","2","1","0","1","1","0","0","1","1","0","1","1","0","1","0","1","4","3","3","3","3","3","4","2","4","2","682886971621638144","nyf","448","","","","","","","","","","","","","","","","","","","","","","","","","","","","","","feedback_test","","","","","","","","","",""
"786","","f","psychophysics","147","358201","0.0-7.0-1.0-4.0-0.0-0.20","3","3","3","3","3","3","3","2","3","3","4","3","2","3","3","4","3","3","3","3","2","2","2","3","2","2","4","4","2","1","0","1","1","0","0","1","1","0","1","1","0","1","0","1","4","3","3","3","3","3","4","2","4","2","682886971621638144","nyf","448","","","","match","","","","","","","","","","","","","","key","f","16.761778846154183","680","380","f","true","match","img/circle.png","圆形","圆形","ALT1","formal_ALT1_2","","","","","","","","","",""
"null","<span style='color:GreenYellow; font-size: 70px;'>正确! </span>","null","html-keyboard-response","148","358703","0.0-7.0-1.0-4.0-0.0-1.20","3","3","3","3","3","3","3","2","3","3","4","3","2","3","3","4","3","3","3","3","2","2","2","3","2","2","4","4","2","1","0","1","1","0","0","1","1","0","1","1","0","1","0","1","4","3","3","3","3","3","4","2","4","2","682886971621638144","nyf","448","","","","","","","","","","","","","","","","","","","","","","","","","","","","","","feedback_test","","","","","","","","","",""
"624","","f","psychophysics","149","360329","0.0-7.0-1.0-4.0-0.0-0.21","3","3","3","3","3","3","3","2","3","3","4","3","2","3","3","4","3","3","3","3","2","2","2","3","2","2","4","4","2","1","0","1","1","0","0","1","1","0","1","1","0","1","0","1","4","3","3","3","3","3","4","2","4","2","682886971621638144","nyf","448","","","","match","","","","","","","","","","","","","","key","f","16.762791666666697","680","380","f","true","match","img/triangle.png","三角","三角","ALT1","formal_ALT1_2","","","","","","","","","",""
"null","<span style='color:GreenYellow; font-size: 70px;'>正确! </span>","null","html-keyboard-response","150","360832","0.0-7.0-1.0-4.0-0.0-1.21","3","3","3","3","3","3","3","2","3","3","4","3","2","3","3","4","3","3","3","3","2","2","2","3","2","2","4","4","2","1","0","1","1","0","0","1","1","0","1","1","0","1","0","1","4","3","3","3","3","3","4","2","4","2","682886971621638144","nyf","448","","","","","","","","","","","","","","","","","","","","","","","","","","","","","","feedback_test","","","","","","","","","",""
"815","","f","psychophysics","151","362648","0.0-7.0-1.0-4.0-0.0-0.22","3","3","3","3","3","3","3","2","3","3","4","3","2","3","3","4","3","3","3","3","2","2","2","3","2","2","4","4","2","1","0","1","1","0","0","1","1","0","1","1","0","1","0","1","4","3","3","3","3","3","4","2","4","2","682886971621638144","nyf","448","","","","match","","","","","","","","","","","","","","key","f","16.918490566037605","680","380","j","false","nonmatch","img/diamond.png","六边","菱形","ALT1","formal_ALT1_2","","","","","","","","","",""
"null","<span style='color:red; font-size: 70px;'>错误! </span>","null","html-keyboard-response","152","363149","0.0-7.0-1.0-4.0-0.0-1.22","3","3","3","3","3","3","3","2","3","3","4","3","2","3","3","4","3","3","3","3","2","2","2","3","2","2","4","4","2","1","0","1","1","0","0","1","1","0","1","1","0","1","0","1","4","3","3","3","3","3","4","2","4","2","682886971621638144","nyf","448","","","","","","","","","","","","","","","","","","","","","","","","","","","","","","feedback_test","","","","","","","","","",""
"825","","f","psychophysics","153","364976","0.0-7.0-1.0-4.0-0.0-0.23","3","3","3","3","3","3","3","2","3","3","4","3","2","3","3","4","3","3","3","3","2","2","2","3","2","2","4","4","2","1","0","1","1","0","0","1","1","0","1","1","0","1","0","1","4","3","3","3","3","3","4","2","4","2","682886971621638144","nyf","448","","","","match","","","","","","","","","","","","","","key","f","16.761233644859722","680","380","f","true","match","img/triangle.png","三角","三角","ALT1","formal_ALT1_2","","","","","","","","","",""
"null","<span style='color:GreenYellow; font-size: 70px;'>正确! </span>","null","html-keyboard-response","154","365478","0.0-7.0-1.0-4.0-0.0-1.23","3","3","3","3","3","3","3","2","3","3","4","3","2","3","3","4","3","3","3","3","2","2","2","3","2","2","4","4","2","1","0","1","1","0","0","1","1","0","1","1","0","1","0","1","4","3","3","3","3","3","4","2","4","2","682886971621638144","nyf","448","","","","","","","","","","","","","","","","","","","","","","","","","","","","","","feedback_test","","","","","","","","","",""
"854","","j","psychophysics","155","367336","0.0-7.0-1.0-4.0-0.0-0.24","3","3","3","3","3","3","3","2","3","3","4","3","2","3","3","4","3","3","3","3","2","2","2","3","2","2","4","4","2","1","0","1","1","0","0","1","1","0","1","1","0","1","0","1","4","3","3","3","3","3","4","2","4","2","682886971621638144","nyf","448","","","","nonmatch","","","","","","","","","","","","","","key","j","16.912348623853177","680","380","j","true","nonmatch","img/diamond.png","三角","菱形","ALT1","formal_ALT1_2","","","","","","","","","",""
"null","<span style='color:GreenYellow; font-size: 70px;'>正确! </span>","null","html-keyboard-response","156","367838","0.0-7.0-1.0-4.0-0.0-1.24","3","3","3","3","3","3","3","2","3","3","4","3","2","3","3","4","3","3","3","3","2","2","2","3","2","2","4","4","2","1","0","1","1","0","0","1","1","0","1","1","0","1","0","1","4","3","3","3","3","3","4","2","4","2","682886971621638144","nyf","448","","","","","","","","","","","","","","","","","","","","","","","","","","","","","","feedback_test","","","","","","","","","",""
"761","","j","psychophysics","157","369602","0.0-7.0-1.0-4.0-0.0-0.25","3","3","3","3","3","3","3","2","3","3","4","3","2","3","3","4","3","3","3","3","2","2","2","3","2","2","4","4","2","1","0","1","1","0","0","1","1","0","1","1","0","1","0","1","4","3","3","3","3","3","4","2","4","2","682886971621638144","nyf","448","","","","nonmatch","","","","","","","","","","","","","","key","j","16.760346153846164","680","380","j","true","nonmatch","img/diamond.png","六边","菱形","ALT1","formal_ALT1_2","","","","","","","","","",""
"null","<span style='color:GreenYellow; font-size: 70px;'>正确! </span>","null","html-keyboard-response","158","370105","0.0-7.0-1.0-4.0-0.0-1.25","3","3","3","3","3","3","3","2","3","3","4","3","2","3","3","4","3","3","3","3","2","2","2","3","2","2","4","4","2","1","0","1","1","0","0","1","1","0","1","1","0","1","0","1","4","3","3","3","3","3","4","2","4","2","682886971621638144","nyf","448","","","","","","","","","","","","","","","","","","","","","","","","","","","","","","feedback_test","","","","","","","","","",""
"647","","f","psychophysics","159","371753","0.0-7.0-1.0-4.0-0.0-0.26","3","3","3","3","3","3","3","2","3","3","4","3","2","3","3","4","3","3","3","3","2","2","2","3","2","2","4","4","2","1","0","1","1","0","0","1","1","0","1","1","0","1","0","1","4","3","3","3","3","3","4","2","4","2","682886971621638144","nyf","448","","","","match","","","","","","","","","","","","","","key","f","16.769000000000233","680","380","f","true","match","img/circle.png","圆形","圆形","ALT1","formal_ALT1_2","","","","","","","","","",""
"null","<span style='color:GreenYellow; font-size: 70px;'>正确! </span>","null","html-keyboard-response","160","372255","0.0-7.0-1.0-4.0-0.0-1.26","3","3","3","3","3","3","3","2","3","3","4","3","2","3","3","4","3","3","3","3","2","2","2","3","2","2","4","4","2","1","0","1","1","0","0","1","1","0","1","1","0","1","0","1","4","3","3","3","3","3","4","2","4","2","682886971621638144","nyf","448","","","","","","","","","","","","","","","","","","","","","","","","","","","","","","feedback_test","","","","","","","","","",""
"848","","j","psychophysics","161","374105","0.0-7.0-1.0-4.0-0.0-0.27","3","3","3","3","3","3","3","2","3","3","4","3","2","3","3","4","3","3","3","3","2","2","2","3","2","2","4","4","2","1","0","1","1","0","0","1","1","0","1","1","0","1","0","1","4","3","3","3","3","3","4","2","4","2","682886971621638144","nyf","448","","","","nonmatch","","","","","","","","","","","","","","key","j","16.76022222222215","680","380","j","true","nonmatch","img/hexagon.png","圆形","六边","ALT1","formal_ALT1_2","","","","","","","","","",""
"null","<span style='color:GreenYellow; font-size: 70px;'>正确! </span>","null","html-keyboard-response","162","374609","0.0-7.0-1.0-4.0-0.0-1.27","3","3","3","3","3","3","3","2","3","3","4","3","2","3","3","4","3","3","3","3","2","2","2","3","2","2","4","4","2","1","0","1","1","0","0","1","1","0","1","1","0","1","0","1","4","3","3","3","3","3","4","2","4","2","682886971621638144","nyf","448","","","","","","","","","","","","","","","","","","","","","","","","","","","","","","feedback_test","","","","","","","","","",""
"791","","j","psychophysics","163","376401","0.0-7.0-1.0-4.0-0.0-0.28","3","3","3","3","3","3","3","2","3","3","4","3","2","3","3","4","3","3","3","3","2","2","2","3","2","2","4","4","2","1","0","1","1","0","0","1","1","0","1","1","0","1","0","1","4","3","3","3","3","3","4","2","4","2","682886971621638144","nyf","448","","","","nonmatch","","","","","","","","","","","","","","key","j","16.761666666667","680","380","j","true","nonmatch","img/circle.png","三角","圆形","ALT1","formal_ALT1_2","","","","","","","","","",""
"null","<span style='color:GreenYellow; font-size: 70px;'>正确! </span>","null","html-keyboard-response","164","376904","0.0-7.0-1.0-4.0-0.0-1.28","3","3","3","3","3","3","3","2","3","3","4","3","2","3","3","4","3","3","3","3","2","2","2","3","2","2","4","4","2","1","0","1","1","0","0","1","1","0","1","1","0","1","0","1","4","3","3","3","3","3","4","2","4","2","682886971621638144","nyf","448","","","","","","","","","","","","","","","","","","","","","","","","","","","","","","feedback_test","","","","","","","","","",""
"743","","f","psychophysics","165","378651","0.0-7.0-1.0-4.0-0.0-0.29","3","3","3","3","3","3","3","2","3","3","4","3","2","3","3","4","3","3","3","3","2","2","2","3","2","2","4","4","2","1","0","1","1","0","0","1","1","0","1","1","0","1","0","1","4","3","3","3","3","3","4","2","4","2","682886971621638144","nyf","448","","","","match","","","","","","","","","","","","","","key","f","16.760303921568408","680","380","f","true","match","img/circle.png","圆形","圆形","ALT1","formal_ALT1_2","","","","","","","","","",""
"null","<span style='color:GreenYellow; font-size: 70px;'>正确! </span>","null","html-keyboard-response","166","379153","0.0-7.0-1.0-4.0-0.0-1.29","3","3","3","3","3","3","3","2","3","3","4","3","2","3","3","4","3","3","3","3","2","2","2","3","2","2","4","4","2","1","0","1","1","0","0","1","1","0","1","1","0","1","0","1","4","3","3","3","3","3","4","2","4","2","682886971621638144","nyf","448","","","","","","","","","","","","","","","","","","","","","","","","","","","","","","feedback_test","","","","","","","","","",""
"670","","f","psychophysics","167","380825","0.0-7.0-1.0-4.0-0.0-0.30","3","3","3","3","3","3","3","2","3","3","4","3","2","3","3","4","3","3","3","3","2","2","2","3","2","2","4","4","2","1","0","1","1","0","0","1","1","0","1","1","0","1","0","1","4","3","3","3","3","3","4","2","4","2","682886971621638144","nyf","448","","","","match","","","","","","","","","","","","","","key","f","16.763113402061826","680","380","f","true","match","img/triangle.png","三角","三角","ALT1","formal_ALT1_2","","","","","","","","","",""
"null","<span style='color:GreenYellow; font-size: 70px;'>正确! </span>","null","html-keyboard-response","168","381327","0.0-7.0-1.0-4.0-0.0-1.30","3","3","3","3","3","3","3","2","3","3","4","3","2","3","3","4","3","3","3","3","2","2","2","3","2","2","4","4","2","1","0","1","1","0","0","1","1","0","1","1","0","1","0","1","4","3","3","3","3","3","4","2","4","2","682886971621638144","nyf","448","","","","","","","","","","","","","","","","","","","","","","","","","","","","","","feedback_test","","","","","","","","","",""
"768","","f","psychophysics","169","383097","0.0-7.0-1.0-4.0-0.0-0.31","3","3","3","3","3","3","3","2","3","3","4","3","2","3","3","4","3","3","3","3","2","2","2","3","2","2","4","4","2","1","0","1","1","0","0","1","1","0","1","1","0","1","0","1","4","3","3","3","3","3","4","2","4","2","682886971621638144","nyf","448","","","","match","","","","","","","","","","","","","","key","f","16.9226538461539","680","380","f","true","match","img/diamond.png","菱形","菱形","ALT1","formal_ALT1_2","","","","","","","","","",""
"null","<span style='color:GreenYellow; font-size: 70px;'>正确! </span>","null","html-keyboard-response","170","383599","0.0-7.0-1.0-4.0-0.0-1.31","3","3","3","3","3","3","3","2","3","3","4","3","2","3","3","4","3","3","3","3","2","2","2","3","2","2","4","4","2","1","0","1","1","0","0","1","1","0","1","1","0","1","0","1","4","3","3","3","3","3","4","2","4","2","682886971621638144","nyf","448","","","","","","","","","","","","","","","","","","","","","","","","","","","","","","feedback_test","","","","","","","","","",""
"824","","j","psychophysics","171","385425","0.0-7.0-1.0-4.0-0.0-0.32","3","3","3","3","3","3","3","2","3","3","4","3","2","3","3","4","3","3","3","3","2","2","2","3","2","2","4","4","2","1","0","1","1","0","0","1","1","0","1","1","0","1","0","1","4","3","3","3","3","3","4","2","4","2","682886971621638144","nyf","448","","","","nonmatch","","","","","","","","","","","","","","key","j","16.7607196261682","680","380","j","true","nonmatch","img/hexagon.png","菱形","六边","ALT1","formal_ALT1_2","","","","","","","","","",""
"null","<span style='color:GreenYellow; font-size: 70px;'>正确! </span>","null","html-keyboard-response","172","385927","0.0-7.0-1.0-4.0-0.0-1.32","3","3","3","3","3","3","3","2","3","3","4","3","2","3","3","4","3","3","3","3","2","2","2","3","2","2","4","4","2","1","0","1","1","0","0","1","1","0","1","1","0","1","0","1","4","3","3","3","3","3","4","2","4","2","682886971621638144","nyf","448","","","","","","","","","","","","","","","","","","","","","","","","","","","","","","feedback_test","","","","","","","","","",""
"711","","f","psychophysics","173","387641","0.0-7.0-1.0-4.0-0.0-0.33","3","3","3","3","3","3","3","2","3","3","4","3","2","3","3","4","3","3","3","3","2","2","2","3","2","2","4","4","2","1","0","1","1","0","0","1","1","0","1","1","0","1","0","1","4","3","3","3","3","3","4","2","4","2","682886971621638144","nyf","448","","","","match","","","","","","","","","","","","","","key","f","16.759199999999836","680","380","f","true","match","img/hexagon.png","六边","六边","ALT1","formal_ALT1_2","","","","","","","","","",""
"null","<span style='color:GreenYellow; font-size: 70px;'>正确! </span>","null","html-keyboard-response","174","388143","0.0-7.0-1.0-4.0-0.0-1.33","3","3","3","3","3","3","3","2","3","3","4","3","2","3","3","4","3","3","3","3","2","2","2","3","2","2","4","4","2","1","0","1","1","0","0","1","1","0","1","1","0","1","0","1","4","3","3","3","3","3","4","2","4","2","682886971621638144","nyf","448","","","","","","","","","","","","","","","","","","","","","","","","","","","","","","feedback_test","","","","","","","","","",""
"776","","j","psychophysics","175","389921","0.0-7.0-1.0-4.0-0.0-0.34","3","3","3","3","3","3","3","2","3","3","4","3","2","3","3","4","3","3","3","3","2","2","2","3","2","2","4","4","2","1","0","1","1","0","0","1","1","0","1","1","0","1","0","1","4","3","3","3","3","3","4","2","4","2","682886971621638144","nyf","448","","","","nonmatch","","","","","","","","","","","","","","key","j","16.760133333333457","680","380","j","true","nonmatch","img/diamond.png","圆形","菱形","ALT1","formal_ALT1_2","","","","","","","","","",""
"null","<span style='color:GreenYellow; font-size: 70px;'>正确! </span>","null","html-keyboard-response","176","390423","0.0-7.0-1.0-4.0-0.0-1.34","3","3","3","3","3","3","3","2","3","3","4","3","2","3","3","4","3","3","3","3","2","2","2","3","2","2","4","4","2","1","0","1","1","0","0","1","1","0","1","1","0","1","0","1","4","3","3","3","3","3","4","2","4","2","682886971621638144","nyf","448","","","","","","","","","","","","","","","","","","","","","","","","","","","","","","feedback_test","","","","","","","","","",""
"729","","j","psychophysics","177","392153","0.0-7.0-1.0-4.0-0.0-0.35","3","3","3","3","3","3","3","2","3","3","4","3","2","3","3","4","3","3","3","3","2","2","2","3","2","2","4","4","2","1","0","1","1","0","0","1","1","0","1","1","0","1","0","1","4","3","3","3","3","3","4","2","4","2","682886971621638144","nyf","448","","","","nonmatch","","","","","","","","","","","","","","key","j","16.75939215686259","680","380","j","true","nonmatch","img/hexagon.png","三角","六边","ALT1","formal_ALT1_2","","","","","","","","","",""
"null","<span style='color:GreenYellow; font-size: 70px;'>正确! </span>","null","html-keyboard-response","178","392654","0.0-7.0-1.0-4.0-0.0-1.35","3","3","3","3","3","3","3","2","3","3","4","3","2","3","3","4","3","3","3","3","2","2","2","3","2","2","4","4","2","1","0","1","1","0","0","1","1","0","1","1","0","1","0","1","4","3","3","3","3","3","4","2","4","2","682886971621638144","nyf","448","","","","","","","","","","","","","","","","","","","","","","","","","","","","","","feedback_test","","","","","","","","","",""
"793","","f","psychophysics","179","394449","0.0-7.0-1.0-4.0-0.0-0.36","3","3","3","3","3","3","3","2","3","3","4","3","2","3","3","4","3","3","3","3","2","2","2","3","2","2","4","4","2","1","0","1","1","0","0","1","1","0","1","1","0","1","0","1","4","3","3","3","3","3","4","2","4","2","682886971621638144","nyf","448","","","","match","","","","","","","","","","","","","","key","f","16.758057692307585","680","380","f","true","match","img/hexagon.png","六边","六边","ALT1","formal_ALT1_2","","","","","","","","","",""
"null","<span style='color:GreenYellow; font-size: 70px;'>正确! </span>","null","html-keyboard-response","180","394950","0.0-7.0-1.0-4.0-0.0-1.36","3","3","3","3","3","3","3","2","3","3","4","3","2","3","3","4","3","3","3","3","2","2","2","3","2","2","4","4","2","1","0","1","1","0","0","1","1","0","1","1","0","1","0","1","4","3","3","3","3","3","4","2","4","2","682886971621638144","nyf","448","","","","","","","","","","","","","","","","","","","","","","","","","","","","","","feedback_test","","","","","","","","","",""
"634","","f","psychophysics","181","396585","0.0-7.0-1.0-4.0-0.0-0.37","3","3","3","3","3","3","3","2","3","3","4","3","2","3","3","4","3","3","3","3","2","2","2","3","2","2","4","4","2","1","0","1","1","0","0","1","1","0","1","1","0","1","0","1","4","3","3","3","3","3","4","2","4","2","682886971621638144","nyf","448","","","","match","","","","","","","","","","","","","","key","f","16.759874999999738","680","380","f","true","match","img/triangle.png","三角","三角","ALT1","formal_ALT1_2","","","","","","","","","",""
"null","<span style='color:GreenYellow; font-size: 70px;'>正确! </span>","null","html-keyboard-response","182","397088","0.0-7.0-1.0-4.0-0.0-1.37","3","3","3","3","3","3","3","2","3","3","4","3","2","3","3","4","3","3","3","3","2","2","2","3","2","2","4","4","2","1","0","1","1","0","0","1","1","0","1","1","0","1","0","1","4","3","3","3","3","3","4","2","4","2","682886971621638144","nyf","448","","","","","","","","","","","","","","","","","","","","","","","","","","","","","","feedback_test","","","","","","","","","",""
"751","","j","psychophysics","183","398841","0.0-7.0-1.0-4.0-0.0-0.38","3","3","3","3","3","3","3","2","3","3","4","3","2","3","3","4","3","3","3","3","2","2","2","3","2","2","4","4","2","1","0","1","1","0","0","1","1","0","1","1","0","1","0","1","4","3","3","3","3","3","4","2","4","2","682886971621638144","nyf","448","","","","nonmatch","","","","","","","","","","","","","","key","j","16.76028431372548","680","380","j","true","nonmatch","img/circle.png","菱形","圆形","ALT1","formal_ALT1_2","","","","","","","","","",""
"null","<span style='color:GreenYellow; font-size: 70px;'>正确! </span>","null","html-keyboard-response","184","399343","0.0-7.0-1.0-4.0-0.0-1.38","3","3","3","3","3","3","3","2","3","3","4","3","2","3","3","4","3","3","3","3","2","2","2","3","2","2","4","4","2","1","0","1","1","0","0","1","1","0","1","1","0","1","0","1","4","3","3","3","3","3","4","2","4","2","682886971621638144","nyf","448","","","","","","","","","","","","","","","","","","","","","","","","","","","","","","feedback_test","","","","","","","","","",""
