"rt","stimulus","response","trial_type","trial_index","time_elapsed","internal_node_id","ses_1","ses_2","ses_3","ses_4","ses_5","ses_6","ses_7","ses_8","ses_9","ses_10","coreself_1","coreself_2","coreself_3","coreself_4","coreself_5","coreself_6","coreself_7","coreself_8","coreself_9","coreself_10","SGPS_1","SGPS_2","SGPS_3","SGPS_4","SGPS_5","SGPS_6","SGPS_7","SGPS_8","SGPS_9","NPI1","NPI2","NPI3","NPI4","NPI5","NPI6","NPI7","NPI8","NPI9","NPI10","NPI11","NPI12","NPI13","NPI14","NPI15","hsns_1","hsns_2","hsns_3","hsns_4","hsns_5","hsns_6","hsns_7","hsns_8","hsns_9","hsns_10","subj_idx","friend_name","ParticipantID","value","success","user_agent","responses","item_order","radio_event_ids","radio_event_times","key_event_times","mouse_event_times","straightlining","zigzagging","honeypot","timeout","failed_images","failed_audio","failed_video","version_attrib2","version_target2","correct","IAT","screen_id","task_id","RT","condition","word","varname","summary","version_attrib","version_target","time_stamp","view_history","response_type","key_press","avg_frame_time","center_x","center_y","correct_response","identity","Image","question_order"
"1376","
   <p><div style = ""color: white;font-size:25px;"">您好，欢迎参加本次实验。</div> </p>
   <p><div style = ""color: white;font-size:25px;"">为充分保障您的权利，请确保您已经知晓并同意《参与实验同意书》以及《数据公开知情同意书》。</div></p>
   <p><div style = ""color: white;font-size:25px;"">如果您未见过上述内容，请咨询实验员。</div></p>
   <p><div style = ""color: white;font-size:25px;"">如果您选择继续实验，则表示您已经清楚两份知情同意书的内容并同意。</div></p>
   <p><div style = ""color: red;font-size:30px;"">请确保您记得day0的实验编号，您将在本次实验输入该编号，若您忘记，请咨询实验员后作答。</div></p>
   <p> <div style = ""color: green;font-size:25px;""><按空格键至下页></div> </p>
   "," ","html-keyboard-response","0","1380","0.0-0.0","3","4","4","3","2","4","3","3","4","4","5","4","5","4","4","4","5","4","4","5","1","1","1","2","2","1","1","2","1","0","0","1","1","0","0","1","0","0","1","1","1","1","0","1","5","2","1","2","1","3","2","5","1","2","634030444760793088","宋","698","","","","","","","","","","","","","","","","","","","","","","","","","","","","","","","","","","","","","","","",""
"","","","call-function","1","1382","0.0-1.0-0.0","3","4","4","3","2","4","3","3","4","4","5","4","5","4","4","4","5","4","4","5","1","1","1","2","2","1","1","2","1","0","0","1","1","0","0","1","0","0","1","1","1","1","0","1","5","2","1","2","1","3","2","5","1","2","634030444760793088","宋","698","","","","","","","","","","","","","","","","","","","","","","","","","","","","","","","","","","","","","","","",""
"39399","","{""friend_name"":""宋"",""ParticipantID"":""698""}","survey-html-form","2","40786","0.0-1.0-1.0","3","4","4","3","2","4","3","3","4","4","5","4","5","4","4","4","5","4","4","5","1","1","1","2","2","1","1","2","1","0","0","1","1","0","0","1","0","0","1","1","1","1","0","1","5","2","1","2","1","3","2","5","1","2","634030444760793088","宋","698","","","","","","","","","","","","","","","","","","","","","","","","","","","","","","","","","","","","","","","",""
"","","","fullscreen","3","42308","0.0-2.0","3","4","4","3","2","4","3","3","4","4","5","4","5","4","4","4","5","4","4","5","1","1","1","2","2","1","1","2","1","0","0","1","1","0","0","1","0","0","1","1","1","1","0","1","5","2","1","2","1","3","2","5","1","2","634030444760793088","宋","698","","true","{}","","","","","","","","","","","","","","","","","","","","","","","","","","","","","","","","","","","","",""
"47504.10000002384","","{""Q01"":""3"",""Q02"":""4"",""Q03"":""4"",""Q04"":""3"",""Q05"":""2"",""Q06"":""4"",""Q07"":""3"",""Q08"":""3"",""Q09"":""4"",""Q10"":""4""}","survey-template","4","89822","0.0-3.0","3","4","4","3","2","4","3","3","4","4","5","4","5","4","4","4","5","4","4","5","1","1","1","2","2","1","1","2","1","0","0","1","1","0","0","1","0","0","1","1","1","1","0","1","5","2","1","2","1","3","2","5","1","2","634030444760793088","宋","698","","","","{""Q01"":""3"",""Q02"":""4"",""Q03"":""4"",""Q04"":""3"",""Q05"":""2"",""Q06"":""4"",""Q07"":""3"",""Q08"":""3"",""Q09"":""4"",""Q10"":""4""}","[0,1,2,3,4,5,6,7,8,9]","[""Q01"",""Q02"",""Q03"",""Q04"",""Q05"",""Q06"",""Q07"",""Q08"",""Q09"",""Q10""]","[17628.80000001192,20145.600000023842,22948.90000000596,25519,29667,31800.40000000596,34104.80000001192,38592.30000001192,41713.30000001192,46347.10000002384]","[]","[16570,17628.80000001192,20145.600000023842,22948.90000000596,25519,29011.30000001192,29667,31800.40000000596,34104.80000001192,38592.30000001192,41713.30000001192,46347.10000002384,47502.80000001192]","0.4","0.6666666666666666","0","","","","","","","","","","","","","","","","","","","","","","","","","","","",""
"40368.90000000596","","{""Q01"":""5"",""Q02"":""4"",""Q03"":""5"",""Q04"":""4"",""Q05"":""4"",""Q06"":""4"",""Q07"":""5"",""Q08"":""4"",""Q09"":""4"",""Q10"":""5""}","survey-template","5","130199","0.0-4.0","3","4","4","3","2","4","3","3","4","4","5","4","5","4","4","4","5","4","4","5","1","1","1","2","2","1","1","2","1","0","0","1","1","0","0","1","0","0","1","1","1","1","0","1","5","2","1","2","1","3","2","5","1","2","634030444760793088","宋","698","","","","{""Q01"":""5"",""Q02"":""4"",""Q03"":""5"",""Q04"":""4"",""Q05"":""4"",""Q06"":""4"",""Q07"":""5"",""Q08"":""4"",""Q09"":""4"",""Q10"":""5""}","[0,1,2,3,4,5,6,7,8,9]","[""Q01"",""Q02"",""Q03"",""Q04"",""Q05"",""Q06"",""Q07"",""Q08"",""Q09"",""Q10""]","[10617.59999999404,11982.700000017881,13701.800000011921,16437.80000001192,19247.30000001192,21691.59999999404,26219.59999999404,28683.70000001788,31105.90000000596,37965.80000001192]","[]","[10617.59999999404,11982.700000017881,13701.800000011921,16437.80000001192,19247.30000001192,21691.59999999404,26219.59999999404,28683.70000001788,31105.90000000596,37965.80000001192,40367.5]","0.3","0.2222222222222222","0","","","","","","","","","","","","","","","","","","","","","","","","","","","",""
"","","","preload","6","130240","0.0-5.0","3","4","4","3","2","4","3","3","4","4","5","4","5","4","4","4","5","4","4","5","1","1","1","2","2","1","1","2","1","0","0","1","1","0","0","1","0","0","1","1","1","1","0","1","5","2","1","2","1","3","2","5","1","2","634030444760793088","宋","698","","true","","","","","","","","","","","false","[]","[]","[]","","","","","","","","","","","","","","","","","","","","","","","",""
"12124","
    <h3>词语分类任务</h3>
    <p>在接下来的任务中，你需要对一系列词语进行分类。<p/>
    请先熟悉这些词语，这有利于你完成接下来的任务。</p>
    <table align=""center"" border=1 cellpadding=3 cellspacing=0>
    <tr> <th>类别</th> <th>词语</th> </tr>
    <tr> <td>&emsp;积极&emsp;</td> <td>&emsp;高尚、诚信、善良、君子、廉正、正直&emsp;</td> </tr>
    <tr> <td>&emsp;消极&emsp;</td> <td>&emsp;缺德、卑鄙、不孝、不仁、小人、黑心&emsp;</td> </tr>
    <tr> <td>&emsp;自我&emsp;</td> <td>&emsp;我、我的、自己、自己的、本人、本人的&emsp;</td> </tr>
    <tr> <td>&emsp;他人&emsp;</td> <td>&emsp;他、他的、别人、别人的、他人、他人的&emsp;</td> </tr>
    </table><br/>","0","html-button-response","7","142366","0.0-6.0-1.0-0.0","3","4","4","3","2","4","3","3","4","4","5","4","5","4","4","4","5","4","4","5","1","1","1","2","2","1","1","2","1","0","0","1","1","0","0","1","0","0","1","1","1","1","0","1","5","2","1","2","1","3","2","5","1","2","634030444760793088","宋","698","","","","","","","","","","","","","","","","","2","1","","","","","","","","","","","","","","","","","","","","","",""
"5392","
    <div class=""tag-bottom""><p>
    —— 任务1：对“自我”词和“他人”词分类 ——<p/>
    不同词语会出现在屏幕中央，类别标签将始终显示在屏幕上方<p/>   
    <span style=""color:#FFD866""><b>请根据上方标签的提示，尽可能正确并且快速地做出按键反应</b></span><p/>
    当按键错误时屏幕中会出现<span style=""color:red""> X </span>，需要按另一个键纠正才能继续<br/><p/>
    请把双手食指分别放在键盘的“E”键和“I”键上<p/>
    按<空格键>开始
    </p></div>"," ","html-keyboard-response","8","147764","0.0-6.0-1.0-1.0","3","4","4","3","2","4","3","3","4","4","5","4","5","4","4","4","5","4","4","5","1","1","1","2","2","1","1","2","1","0","0","1","1","0","0","1","0","0","1","1","1","1","0","1","5","2","1","2","1","3","2","5","1","2","634030444760793088","宋","698","","","","","","","","","","","","","","","","","","","","","","","","","","","","","","","","","","","","","","","",""
"null","","null","html-keyboard-response","9","148015","0.0-6.0-1.0-2.0-0.0","3","4","4","3","2","4","3","3","4","4","5","4","5","4","4","4","5","4","4","5","1","1","1","2","2","1","1","2","1","0","0","1","1","0","0","1","0","0","1","1","1","1","0","1","5","2","1","2","1","3","2","5","1","2","634030444760793088","宋","698","","","","","","","","","","","","","","","","","","","","","","","","","","","","","","","","","","","","","","","",""
"730","<p style=""color:rgb(150, 250, 100); font-size: 35px;"">他的</p>","i","categorize-html","10","148749","0.0-6.0-1.0-2.0-1.0","3","4","4","3","2","4","3","3","4","4","5","4","5","4","4","4","5","4","4","5","1","1","1","2","2","1","1","2","1","0","0","1","1","0","0","1","0","0","1","1","1","1","0","1","5","2","1","2","1","3","2","5","1","2","634030444760793088","宋","698","","","","","","","","","","","","","","","","","","","true","11","1","moral","730","other","他的","","","","","","","","","","","","","","",""
"null","","null","html-keyboard-response","11","149001","0.0-6.0-1.0-2.0-0.1","3","4","4","3","2","4","3","3","4","4","5","4","5","4","4","4","5","4","4","5","1","1","1","2","2","1","1","2","1","0","0","1","1","0","0","1","0","0","1","1","1","1","0","1","5","2","1","2","1","3","2","5","1","2","634030444760793088","宋","698","","","","","","","","","","","","","","","","","","","","","","","","","","","","","","","","","","","","","","","",""
"462","<p style=""color:rgb(150, 250, 100); font-size: 35px;"">我</p>","e","categorize-html","12","149465","0.0-6.0-1.0-2.0-1.1","3","4","4","3","2","4","3","3","4","4","5","4","5","4","4","4","5","4","4","5","1","1","1","2","2","1","1","2","1","0","0","1","1","0","0","1","0","0","1","1","1","1","0","1","5","2","1","2","1","3","2","5","1","2","634030444760793088","宋","698","","","","","","","","","","","","","","","","","","","true","11","1","moral","462","self","我","","","","","","","","","","","","","","",""
"null","","null","html-keyboard-response","13","149718","0.0-6.0-1.0-2.0-0.2","3","4","4","3","2","4","3","3","4","4","5","4","5","4","4","4","5","4","4","5","1","1","1","2","2","1","1","2","1","0","0","1","1","0","0","1","0","0","1","1","1","1","0","1","5","2","1","2","1","3","2","5","1","2","634030444760793088","宋","698","","","","","","","","","","","","","","","","","","","","","","","","","","","","","","","","","","","","","","","",""
"536","<p style=""color:rgb(150, 250, 100); font-size: 35px;"">他人的</p>","i","categorize-html","14","150256","0.0-6.0-1.0-2.0-1.2","3","4","4","3","2","4","3","3","4","4","5","4","5","4","4","4","5","4","4","5","1","1","1","2","2","1","1","2","1","0","0","1","1","0","0","1","0","0","1","1","1","1","0","1","5","2","1","2","1","3","2","5","1","2","634030444760793088","宋","698","","","","","","","","","","","","","","","","","","","true","11","1","moral","536","other","他人的","","","","","","","","","","","","","","",""
"null","","null","html-keyboard-response","15","150507","0.0-6.0-1.0-2.0-0.3","3","4","4","3","2","4","3","3","4","4","5","4","5","4","4","4","5","4","4","5","1","1","1","2","2","1","1","2","1","0","0","1","1","0","0","1","0","0","1","1","1","1","0","1","5","2","1","2","1","3","2","5","1","2","634030444760793088","宋","698","","","","","","","","","","","","","","","","","","","","","","","","","","","","","","","","","","","","","","","",""
"478","<p style=""color:rgb(150, 250, 100); font-size: 35px;"">他人</p>","i","categorize-html","16","150987","0.0-6.0-1.0-2.0-1.3","3","4","4","3","2","4","3","3","4","4","5","4","5","4","4","4","5","4","4","5","1","1","1","2","2","1","1","2","1","0","0","1","1","0","0","1","0","0","1","1","1","1","0","1","5","2","1","2","1","3","2","5","1","2","634030444760793088","宋","698","","","","","","","","","","","","","","","","","","","true","11","1","moral","478","other","他人","","","","","","","","","","","","","","",""
"null","","null","html-keyboard-response","17","151239","0.0-6.0-1.0-2.0-0.4","3","4","4","3","2","4","3","3","4","4","5","4","5","4","4","4","5","4","4","5","1","1","1","2","2","1","1","2","1","0","0","1","1","0","0","1","0","0","1","1","1","1","0","1","5","2","1","2","1","3","2","5","1","2","634030444760793088","宋","698","","","","","","","","","","","","","","","","","","","","","","","","","","","","","","","","","","","","","","","",""
"488","<p style=""color:rgb(150, 250, 100); font-size: 35px;"">自己</p>","e","categorize-html","18","151730","0.0-6.0-1.0-2.0-1.4","3","4","4","3","2","4","3","3","4","4","5","4","5","4","4","4","5","4","4","5","1","1","1","2","2","1","1","2","1","0","0","1","1","0","0","1","0","0","1","1","1","1","0","1","5","2","1","2","1","3","2","5","1","2","634030444760793088","宋","698","","","","","","","","","","","","","","","","","","","true","11","1","moral","488","self","自己","","","","","","","","","","","","","","",""
"null","","null","html-keyboard-response","19","151981","0.0-6.0-1.0-2.0-0.5","3","4","4","3","2","4","3","3","4","4","5","4","5","4","4","4","5","4","4","5","1","1","1","2","2","1","1","2","1","0","0","1","1","0","0","1","0","0","1","1","1","1","0","1","5","2","1","2","1","3","2","5","1","2","634030444760793088","宋","698","","","","","","","","","","","","","","","","","","","","","","","","","","","","","","","","","","","","","","","",""
"596","<p style=""color:rgb(150, 250, 100); font-size: 35px;"">我的</p>","e","categorize-html","20","152579","0.0-6.0-1.0-2.0-1.5","3","4","4","3","2","4","3","3","4","4","5","4","5","4","4","4","5","4","4","5","1","1","1","2","2","1","1","2","1","0","0","1","1","0","0","1","0","0","1","1","1","1","0","1","5","2","1","2","1","3","2","5","1","2","634030444760793088","宋","698","","","","","","","","","","","","","","","","","","","true","11","1","moral","596","self","我的","","","","","","","","","","","","","","",""
"null","","null","html-keyboard-response","21","152830","0.0-6.0-1.0-2.0-0.6","3","4","4","3","2","4","3","3","4","4","5","4","5","4","4","4","5","4","4","5","1","1","1","2","2","1","1","2","1","0","0","1","1","0","0","1","0","0","1","1","1","1","0","1","5","2","1","2","1","3","2","5","1","2","634030444760793088","宋","698","","","","","","","","","","","","","","","","","","","","","","","","","","","","","","","","","","","","","","","",""
"519","<p style=""color:rgb(150, 250, 100); font-size: 35px;"">别人的</p>","i","categorize-html","22","153351","0.0-6.0-1.0-2.0-1.6","3","4","4","3","2","4","3","3","4","4","5","4","5","4","4","4","5","4","4","5","1","1","1","2","2","1","1","2","1","0","0","1","1","0","0","1","0","0","1","1","1","1","0","1","5","2","1","2","1","3","2","5","1","2","634030444760793088","宋","698","","","","","","","","","","","","","","","","","","","true","11","1","moral","519","other","别人的","","","","","","","","","","","","","","",""
"null","","null","html-keyboard-response","23","153603","0.0-6.0-1.0-2.0-0.7","3","4","4","3","2","4","3","3","4","4","5","4","5","4","4","4","5","4","4","5","1","1","1","2","2","1","1","2","1","0","0","1","1","0","0","1","0","0","1","1","1","1","0","1","5","2","1","2","1","3","2","5","1","2","634030444760793088","宋","698","","","","","","","","","","","","","","","","","","","","","","","","","","","","","","","","","","","","","","","",""
"396","<p style=""color:rgb(150, 250, 100); font-size: 35px;"">别人</p>","i","categorize-html","24","154001","0.0-6.0-1.0-2.0-1.7","3","4","4","3","2","4","3","3","4","4","5","4","5","4","4","4","5","4","4","5","1","1","1","2","2","1","1","2","1","0","0","1","1","0","0","1","0","0","1","1","1","1","0","1","5","2","1","2","1","3","2","5","1","2","634030444760793088","宋","698","","","","","","","","","","","","","","","","","","","true","11","1","moral","396","other","别人","","","","","","","","","","","","","","",""
"null","","null","html-keyboard-response","25","154253","0.0-6.0-1.0-2.0-0.8","3","4","4","3","2","4","3","3","4","4","5","4","5","4","4","4","5","4","4","5","1","1","1","2","2","1","1","2","1","0","0","1","1","0","0","1","0","0","1","1","1","1","0","1","5","2","1","2","1","3","2","5","1","2","634030444760793088","宋","698","","","","","","","","","","","","","","","","","","","","","","","","","","","","","","","","","","","","","","","",""
"440","<p style=""color:rgb(150, 250, 100); font-size: 35px;"">本人</p>","e","categorize-html","26","154695","0.0-6.0-1.0-2.0-1.8","3","4","4","3","2","4","3","3","4","4","5","4","5","4","4","4","5","4","4","5","1","1","1","2","2","1","1","2","1","0","0","1","1","0","0","1","0","0","1","1","1","1","0","1","5","2","1","2","1","3","2","5","1","2","634030444760793088","宋","698","","","","","","","","","","","","","","","","","","","true","11","1","moral","440","self","本人","","","","","","","","","","","","","","",""
"null","","null","html-keyboard-response","27","154947","0.0-6.0-1.0-2.0-0.9","3","4","4","3","2","4","3","3","4","4","5","4","5","4","4","4","5","4","4","5","1","1","1","2","2","1","1","2","1","0","0","1","1","0","0","1","0","0","1","1","1","1","0","1","5","2","1","2","1","3","2","5","1","2","634030444760793088","宋","698","","","","","","","","","","","","","","","","","","","","","","","","","","","","","","","","","","","","","","","",""
"437","<p style=""color:rgb(150, 250, 100); font-size: 35px;"">本人的</p>","e","categorize-html","28","155386","0.0-6.0-1.0-2.0-1.9","3","4","4","3","2","4","3","3","4","4","5","4","5","4","4","4","5","4","4","5","1","1","1","2","2","1","1","2","1","0","0","1","1","0","0","1","0","0","1","1","1","1","0","1","5","2","1","2","1","3","2","5","1","2","634030444760793088","宋","698","","","","","","","","","","","","","","","","","","","true","11","1","moral","437","self","本人的","","","","","","","","","","","","","","",""
"null","","null","html-keyboard-response","29","155636","0.0-6.0-1.0-2.0-0.10","3","4","4","3","2","4","3","3","4","4","5","4","5","4","4","4","5","4","4","5","1","1","1","2","2","1","1","2","1","0","0","1","1","0","0","1","0","0","1","1","1","1","0","1","5","2","1","2","1","3","2","5","1","2","634030444760793088","宋","698","","","","","","","","","","","","","","","","","","","","","","","","","","","","","","","","","","","","","","","",""
"530","<p style=""color:rgb(150, 250, 100); font-size: 35px;"">他</p>","i","categorize-html","30","156168","0.0-6.0-1.0-2.0-1.10","3","4","4","3","2","4","3","3","4","4","5","4","5","4","4","4","5","4","4","5","1","1","1","2","2","1","1","2","1","0","0","1","1","0","0","1","0","0","1","1","1","1","0","1","5","2","1","2","1","3","2","5","1","2","634030444760793088","宋","698","","","","","","","","","","","","","","","","","","","true","11","1","moral","530","other","他","","","","","","","","","","","","","","",""
"null","","null","html-keyboard-response","31","156419","0.0-6.0-1.0-2.0-0.11","3","4","4","3","2","4","3","3","4","4","5","4","5","4","4","4","5","4","4","5","1","1","1","2","2","1","1","2","1","0","0","1","1","0","0","1","0","0","1","1","1","1","0","1","5","2","1","2","1","3","2","5","1","2","634030444760793088","宋","698","","","","","","","","","","","","","","","","","","","","","","","","","","","","","","","","","","","","","","","",""
"519","<p style=""color:rgb(150, 250, 100); font-size: 35px;"">自己的</p>","e","categorize-html","32","156940","0.0-6.0-1.0-2.0-1.11","3","4","4","3","2","4","3","3","4","4","5","4","5","4","4","4","5","4","4","5","1","1","1","2","2","1","1","2","1","0","0","1","1","0","0","1","0","0","1","1","1","1","0","1","5","2","1","2","1","3","2","5","1","2","634030444760793088","宋","698","","","","","","","","","","","","","","","","","","","true","11","1","moral","519","self","自己的","","","","","","","","","","","","","","",""
"959","
    <div class=""tag-bottom""><p>
    —— 任务2：对“消极”词和“积极”词分类 ——<p/>   
    <span style=""color:#78DCE8""><b>注意上方，类别标签和需要分类的词语都已经改变</b></span><p/>
    <span style=""color:#FFD866""><b>请根据上方标签的提示，尽可能正确并且快速地做出按键反应</b></span><p/>
    当按键错误时屏幕中会出现<span style=""color:red""> X </span>，需要按另一个键纠正才能继续<br/><p/>
    请把双手食指分别放在键盘的“E”键和“I”键上<p/>
    按<空格键>开始
    </p></div>"," ","html-keyboard-response","33","157900","0.0-6.0-1.0-3.0","3","4","4","3","2","4","3","3","4","4","5","4","5","4","4","4","5","4","4","5","1","1","1","2","2","1","1","2","1","0","0","1","1","0","0","1","0","0","1","1","1","1","0","1","5","2","1","2","1","3","2","5","1","2","634030444760793088","宋","698","","","","","","","","","","","","","","","","","","","","","","","","","","","","","","","","","","","","","","","",""
"null","","null","html-keyboard-response","34","158152","0.0-6.0-1.0-4.0-0.0","3","4","4","3","2","4","3","3","4","4","5","4","5","4","4","4","5","4","4","5","1","1","1","2","2","1","1","2","1","0","0","1","1","0","0","1","0","0","1","1","1","1","0","1","5","2","1","2","1","3","2","5","1","2","634030444760793088","宋","698","","","","","","","","","","","","","","","","","","","","","","","","","","","","","","","","","","","","","","","",""
"921","<p style=""color:white; font-size: 35px;"">诚信</p>","e","categorize-html","35","159397","0.0-6.0-1.0-4.0-1.0","3","4","4","3","2","4","3","3","4","4","5","4","5","4","4","4","5","4","4","5","1","1","1","2","2","1","1","2","1","0","0","1","1","0","0","1","0","0","1","1","1","1","0","1","5","2","1","2","1","3","2","5","1","2","634030444760793088","宋","698","","","","","","","","","","","","","","","","","","","false","12","2","moral","921","positive","诚信","","","","","","","","","","","","","","",""
"null","","null","html-keyboard-response","36","159649","0.0-6.0-1.0-4.0-0.1","3","4","4","3","2","4","3","3","4","4","5","4","5","4","4","4","5","4","4","5","1","1","1","2","2","1","1","2","1","0","0","1","1","0","0","1","0","0","1","1","1","1","0","1","5","2","1","2","1","3","2","5","1","2","634030444760793088","宋","698","","","","","","","","","","","","","","","","","","","","","","","","","","","","","","","","","","","","","","","",""
"546","<p style=""color:white; font-size: 35px;"">善良</p>","i","categorize-html","37","160198","0.0-6.0-1.0-4.0-1.1","3","4","4","3","2","4","3","3","4","4","5","4","5","4","4","4","5","4","4","5","1","1","1","2","2","1","1","2","1","0","0","1","1","0","0","1","0","0","1","1","1","1","0","1","5","2","1","2","1","3","2","5","1","2","634030444760793088","宋","698","","","","","","","","","","","","","","","","","","","true","12","2","moral","546","positive","善良","","","","","","","","","","","","","","",""
"null","","null","html-keyboard-response","38","160449","0.0-6.0-1.0-4.0-0.2","3","4","4","3","2","4","3","3","4","4","5","4","5","4","4","4","5","4","4","5","1","1","1","2","2","1","1","2","1","0","0","1","1","0","0","1","0","0","1","1","1","1","0","1","5","2","1","2","1","3","2","5","1","2","634030444760793088","宋","698","","","","","","","","","","","","","","","","","","","","","","","","","","","","","","","","","","","","","","","",""
"434","<p style=""color:white; font-size: 35px;"">君子</p>","i","categorize-html","39","160885","0.0-6.0-1.0-4.0-1.2","3","4","4","3","2","4","3","3","4","4","5","4","5","4","4","4","5","4","4","5","1","1","1","2","2","1","1","2","1","0","0","1","1","0","0","1","0","0","1","1","1","1","0","1","5","2","1","2","1","3","2","5","1","2","634030444760793088","宋","698","","","","","","","","","","","","","","","","","","","true","12","2","moral","434","positive","君子","","","","","","","","","","","","","","",""
"null","","null","html-keyboard-response","40","161137","0.0-6.0-1.0-4.0-0.3","3","4","4","3","2","4","3","3","4","4","5","4","5","4","4","4","5","4","4","5","1","1","1","2","2","1","1","2","1","0","0","1","1","0","0","1","0","0","1","1","1","1","0","1","5","2","1","2","1","3","2","5","1","2","634030444760793088","宋","698","","","","","","","","","","","","","","","","","","","","","","","","","","","","","","","","","","","","","","","",""
"578","<p style=""color:white; font-size: 35px;"">不仁</p>","e","categorize-html","41","161718","0.0-6.0-1.0-4.0-1.3","3","4","4","3","2","4","3","3","4","4","5","4","5","4","4","4","5","4","4","5","1","1","1","2","2","1","1","2","1","0","0","1","1","0","0","1","0","0","1","1","1","1","0","1","5","2","1","2","1","3","2","5","1","2","634030444760793088","宋","698","","","","","","","","","","","","","","","","","","","true","12","2","moral","578","negative","不仁","","","","","","","","","","","","","","",""
"null","","null","html-keyboard-response","42","161969","0.0-6.0-1.0-4.0-0.4","3","4","4","3","2","4","3","3","4","4","5","4","5","4","4","4","5","4","4","5","1","1","1","2","2","1","1","2","1","0","0","1","1","0","0","1","0","0","1","1","1","1","0","1","5","2","1","2","1","3","2","5","1","2","634030444760793088","宋","698","","","","","","","","","","","","","","","","","","","","","","","","","","","","","","","","","","","","","","","",""
"470","<p style=""color:white; font-size: 35px;"">不孝</p>","e","categorize-html","43","162442","0.0-6.0-1.0-4.0-1.4","3","4","4","3","2","4","3","3","4","4","5","4","5","4","4","4","5","4","4","5","1","1","1","2","2","1","1","2","1","0","0","1","1","0","0","1","0","0","1","1","1","1","0","1","5","2","1","2","1","3","2","5","1","2","634030444760793088","宋","698","","","","","","","","","","","","","","","","","","","true","12","2","moral","470","negative","不孝","","","","","","","","","","","","","","",""
"null","","null","html-keyboard-response","44","162694","0.0-6.0-1.0-4.0-0.5","3","4","4","3","2","4","3","3","4","4","5","4","5","4","4","4","5","4","4","5","1","1","1","2","2","1","1","2","1","0","0","1","1","0","0","1","0","0","1","1","1","1","0","1","5","2","1","2","1","3","2","5","1","2","634030444760793088","宋","698","","","","","","","","","","","","","","","","","","","","","","","","","","","","","","","","","","","","","","","",""
"536","<p style=""color:white; font-size: 35px;"">卑鄙</p>","e","categorize-html","45","163231","0.0-6.0-1.0-4.0-1.5","3","4","4","3","2","4","3","3","4","4","5","4","5","4","4","4","5","4","4","5","1","1","1","2","2","1","1","2","1","0","0","1","1","0","0","1","0","0","1","1","1","1","0","1","5","2","1","2","1","3","2","5","1","2","634030444760793088","宋","698","","","","","","","","","","","","","","","","","","","true","12","2","moral","536","negative","卑鄙","","","","","","","","","","","","","","",""
"null","","null","html-keyboard-response","46","163483","0.0-6.0-1.0-4.0-0.6","3","4","4","3","2","4","3","3","4","4","5","4","5","4","4","4","5","4","4","5","1","1","1","2","2","1","1","2","1","0","0","1","1","0","0","1","0","0","1","1","1","1","0","1","5","2","1","2","1","3","2","5","1","2","634030444760793088","宋","698","","","","","","","","","","","","","","","","","","","","","","","","","","","","","","","","","","","","","","","",""
"528","<p style=""color:white; font-size: 35px;"">小人</p>","e","categorize-html","47","164013","0.0-6.0-1.0-4.0-1.6","3","4","4","3","2","4","3","3","4","4","5","4","5","4","4","4","5","4","4","5","1","1","1","2","2","1","1","2","1","0","0","1","1","0","0","1","0","0","1","1","1","1","0","1","5","2","1","2","1","3","2","5","1","2","634030444760793088","宋","698","","","","","","","","","","","","","","","","","","","true","12","2","moral","528","negative","小人","","","","","","","","","","","","","","",""
"null","","null","html-keyboard-response","48","164265","0.0-6.0-1.0-4.0-0.7","3","4","4","3","2","4","3","3","4","4","5","4","5","4","4","4","5","4","4","5","1","1","1","2","2","1","1","2","1","0","0","1","1","0","0","1","0","0","1","1","1","1","0","1","5","2","1","2","1","3","2","5","1","2","634030444760793088","宋","698","","","","","","","","","","","","","","","","","","","","","","","","","","","","","","","","","","","","","","","",""
"541","<p style=""color:white; font-size: 35px;"">黑心</p>","e","categorize-html","49","164808","0.0-6.0-1.0-4.0-1.7","3","4","4","3","2","4","3","3","4","4","5","4","5","4","4","4","5","4","4","5","1","1","1","2","2","1","1","2","1","0","0","1","1","0","0","1","0","0","1","1","1","1","0","1","5","2","1","2","1","3","2","5","1","2","634030444760793088","宋","698","","","","","","","","","","","","","","","","","","","true","12","2","moral","541","negative","黑心","","","","","","","","","","","","","","",""
"null","","null","html-keyboard-response","50","165059","0.0-6.0-1.0-4.0-0.8","3","4","4","3","2","4","3","3","4","4","5","4","5","4","4","4","5","4","4","5","1","1","1","2","2","1","1","2","1","0","0","1","1","0","0","1","0","0","1","1","1","1","0","1","5","2","1","2","1","3","2","5","1","2","634030444760793088","宋","698","","","","","","","","","","","","","","","","","","","","","","","","","","","","","","","","","","","","","","","",""
"582","<p style=""color:white; font-size: 35px;"">高尚</p>","i","categorize-html","51","165643","0.0-6.0-1.0-4.0-1.8","3","4","4","3","2","4","3","3","4","4","5","4","5","4","4","4","5","4","4","5","1","1","1","2","2","1","1","2","1","0","0","1","1","0","0","1","0","0","1","1","1","1","0","1","5","2","1","2","1","3","2","5","1","2","634030444760793088","宋","698","","","","","","","","","","","","","","","","","","","true","12","2","moral","582","positive","高尚","","","","","","","","","","","","","","",""
"null","","null","html-keyboard-response","52","165894","0.0-6.0-1.0-4.0-0.9","3","4","4","3","2","4","3","3","4","4","5","4","5","4","4","4","5","4","4","5","1","1","1","2","2","1","1","2","1","0","0","1","1","0","0","1","0","0","1","1","1","1","0","1","5","2","1","2","1","3","2","5","1","2","634030444760793088","宋","698","","","","","","","","","","","","","","","","","","","","","","","","","","","","","","","","","","","","","","","",""
"530","<p style=""color:white; font-size: 35px;"">正直</p>","i","categorize-html","53","166426","0.0-6.0-1.0-4.0-1.9","3","4","4","3","2","4","3","3","4","4","5","4","5","4","4","4","5","4","4","5","1","1","1","2","2","1","1","2","1","0","0","1","1","0","0","1","0","0","1","1","1","1","0","1","5","2","1","2","1","3","2","5","1","2","634030444760793088","宋","698","","","","","","","","","","","","","","","","","","","true","12","2","moral","530","positive","正直","","","","","","","","","","","","","","",""
"null","","null","html-keyboard-response","54","166678","0.0-6.0-1.0-4.0-0.10","3","4","4","3","2","4","3","3","4","4","5","4","5","4","4","4","5","4","4","5","1","1","1","2","2","1","1","2","1","0","0","1","1","0","0","1","0","0","1","1","1","1","0","1","5","2","1","2","1","3","2","5","1","2","634030444760793088","宋","698","","","","","","","","","","","","","","","","","","","","","","","","","","","","","","","","","","","","","","","",""
"617","<p style=""color:white; font-size: 35px;"">缺德</p>","e","categorize-html","55","167297","0.0-6.0-1.0-4.0-1.10","3","4","4","3","2","4","3","3","4","4","5","4","5","4","4","4","5","4","4","5","1","1","1","2","2","1","1","2","1","0","0","1","1","0","0","1","0","0","1","1","1","1","0","1","5","2","1","2","1","3","2","5","1","2","634030444760793088","宋","698","","","","","","","","","","","","","","","","","","","true","12","2","moral","617","negative","缺德","","","","","","","","","","","","","","",""
"null","","null","html-keyboard-response","56","167548","0.0-6.0-1.0-4.0-0.11","3","4","4","3","2","4","3","3","4","4","5","4","5","4","4","4","5","4","4","5","1","1","1","2","2","1","1","2","1","0","0","1","1","0","0","1","0","0","1","1","1","1","0","1","5","2","1","2","1","3","2","5","1","2","634030444760793088","宋","698","","","","","","","","","","","","","","","","","","","","","","","","","","","","","","","","","","","","","","","",""
"660","<p style=""color:white; font-size: 35px;"">廉正</p>","i","categorize-html","57","168211","0.0-6.0-1.0-4.0-1.11","3","4","4","3","2","4","3","3","4","4","5","4","5","4","4","4","5","4","4","5","1","1","1","2","2","1","1","2","1","0","0","1","1","0","0","1","0","0","1","1","1","1","0","1","5","2","1","2","1","3","2","5","1","2","634030444760793088","宋","698","","","","","","","","","","","","","","","","","","","true","12","2","moral","660","positive","廉正","","","","","","","","","","","","","","",""
"860","
    <div class=""tag-bottom""><p>
    —— 任务3：对“自我/消极”词和“他人/积极”词分类 ——<p/>
    <span style=""color:#78DCE8""><b>注意上方，之前的四类词语将混合在一起交替呈现</b></span><p/>
    <span style=""color:#FFD866""><b>请根据上方标签的提示，尽可能正确并且快速地做出按键反应</b></span><p/>
    当按键错误时屏幕中会出现<span style=""color:red""> X </span>，需要按另一个键纠正才能继续<br/><p/>
    请把双手食指分别放在键盘的“E”键和“I”键上<p/>
    按<空格键>开始
    </p></div>"," ","html-keyboard-response","58","169071","0.0-6.0-1.0-5.0","3","4","4","3","2","4","3","3","4","4","5","4","5","4","4","4","5","4","4","5","1","1","1","2","2","1","1","2","1","0","0","1","1","0","0","1","0","0","1","1","1","1","0","1","5","2","1","2","1","3","2","5","1","2","634030444760793088","宋","698","","","","","","","","","","","","","","","","","","","","","","","","","","","","","","","","","","","","","","","",""
"null","","null","html-keyboard-response","59","169322","0.0-6.0-1.0-6.0-0.0","3","4","4","3","2","4","3","3","4","4","5","4","5","4","4","4","5","4","4","5","1","1","1","2","2","1","1","2","1","0","0","1","1","0","0","1","0","0","1","1","1","1","0","1","5","2","1","2","1","3","2","5","1","2","634030444760793088","宋","698","","","","","","","","","","","","","","","","","","","","","","","","","","","","","","","","","","","","","","","",""
"771","<p style=""color:rgb(150, 250, 100); font-size: 35px;"">他人的</p>","i","categorize-html","60","170096","0.0-6.0-1.0-6.0-1.0","3","4","4","3","2","4","3","3","4","4","5","4","5","4","4","4","5","4","4","5","1","1","1","2","2","1","1","2","1","0","0","1","1","0","0","1","0","0","1","1","1","1","0","1","5","2","1","2","1","3","2","5","1","2","634030444760793088","宋","698","","","","","","","","","","","","","","","","","","","true","13","3","moral","771","other","他人的","","","","","","","","","","","","","","",""
"null","","null","html-keyboard-response","61","170347","0.0-6.0-1.0-6.0-0.1","3","4","4","3","2","4","3","3","4","4","5","4","5","4","4","4","5","4","4","5","1","1","1","2","2","1","1","2","1","0","0","1","1","0","0","1","0","0","1","1","1","1","0","1","5","2","1","2","1","3","2","5","1","2","634030444760793088","宋","698","","","","","","","","","","","","","","","","","","","","","","","","","","","","","","","","","","","","","","","",""
"647","<p style=""color:white; font-size: 35px;"">不孝</p>","e","categorize-html","62","170995","0.0-6.0-1.0-6.0-1.1","3","4","4","3","2","4","3","3","4","4","5","4","5","4","4","4","5","4","4","5","1","1","1","2","2","1","1","2","1","0","0","1","1","0","0","1","0","0","1","1","1","1","0","1","5","2","1","2","1","3","2","5","1","2","634030444760793088","宋","698","","","","","","","","","","","","","","","","","","","true","13","3","moral","647","negative","不孝","","","","","","","","","","","","","","",""
"null","","null","html-keyboard-response","63","171246","0.0-6.0-1.0-6.0-0.2","3","4","4","3","2","4","3","3","4","4","5","4","5","4","4","4","5","4","4","5","1","1","1","2","2","1","1","2","1","0","0","1","1","0","0","1","0","0","1","1","1","1","0","1","5","2","1","2","1","3","2","5","1","2","634030444760793088","宋","698","","","","","","","","","","","","","","","","","","","","","","","","","","","","","","","","","","","","","","","",""
"614","<p style=""color:rgb(150, 250, 100); font-size: 35px;"">本人</p>","e","categorize-html","64","171863","0.0-6.0-1.0-6.0-1.2","3","4","4","3","2","4","3","3","4","4","5","4","5","4","4","4","5","4","4","5","1","1","1","2","2","1","1","2","1","0","0","1","1","0","0","1","0","0","1","1","1","1","0","1","5","2","1","2","1","3","2","5","1","2","634030444760793088","宋","698","","","","","","","","","","","","","","","","","","","true","13","3","moral","614","self","本人","","","","","","","","","","","","","","",""
"null","","null","html-keyboard-response","65","172114","0.0-6.0-1.0-6.0-0.3","3","4","4","3","2","4","3","3","4","4","5","4","5","4","4","4","5","4","4","5","1","1","1","2","2","1","1","2","1","0","0","1","1","0","0","1","0","0","1","1","1","1","0","1","5","2","1","2","1","3","2","5","1","2","634030444760793088","宋","698","","","","","","","","","","","","","","","","","","","","","","","","","","","","","","","","","","","","","","","",""
"829","<p style=""color:white; font-size: 35px;"">君子</p>","i","categorize-html","66","172945","0.0-6.0-1.0-6.0-1.3","3","4","4","3","2","4","3","3","4","4","5","4","5","4","4","4","5","4","4","5","1","1","1","2","2","1","1","2","1","0","0","1","1","0","0","1","0","0","1","1","1","1","0","1","5","2","1","2","1","3","2","5","1","2","634030444760793088","宋","698","","","","","","","","","","","","","","","","","","","true","13","3","moral","829","positive","君子","","","","","","","","","","","","","","",""
"null","","null","html-keyboard-response","67","173197","0.0-6.0-1.0-6.0-0.4","3","4","4","3","2","4","3","3","4","4","5","4","5","4","4","4","5","4","4","5","1","1","1","2","2","1","1","2","1","0","0","1","1","0","0","1","0","0","1","1","1","1","0","1","5","2","1","2","1","3","2","5","1","2","634030444760793088","宋","698","","","","","","","","","","","","","","","","","","","","","","","","","","","","","","","","","","","","","","","",""
"671","<p style=""color:rgb(150, 250, 100); font-size: 35px;"">自己</p>","e","categorize-html","68","173870","0.0-6.0-1.0-6.0-1.4","3","4","4","3","2","4","3","3","4","4","5","4","5","4","4","4","5","4","4","5","1","1","1","2","2","1","1","2","1","0","0","1","1","0","0","1","0","0","1","1","1","1","0","1","5","2","1","2","1","3","2","5","1","2","634030444760793088","宋","698","","","","","","","","","","","","","","","","","","","true","13","3","moral","671","self","自己","","","","","","","","","","","","","","",""
"null","","null","html-keyboard-response","69","174122","0.0-6.0-1.0-6.0-0.5","3","4","4","3","2","4","3","3","4","4","5","4","5","4","4","4","5","4","4","5","1","1","1","2","2","1","1","2","1","0","0","1","1","0","0","1","0","0","1","1","1","1","0","1","5","2","1","2","1","3","2","5","1","2","634030444760793088","宋","698","","","","","","","","","","","","","","","","","","","","","","","","","","","","","","","","","","","","","","","",""
"711","<p style=""color:white; font-size: 35px;"">廉正</p>","i","categorize-html","70","174836","0.0-6.0-1.0-6.0-1.5","3","4","4","3","2","4","3","3","4","4","5","4","5","4","4","4","5","4","4","5","1","1","1","2","2","1","1","2","1","0","0","1","1","0","0","1","0","0","1","1","1","1","0","1","5","2","1","2","1","3","2","5","1","2","634030444760793088","宋","698","","","","","","","","","","","","","","","","","","","true","13","3","moral","711","positive","廉正","","","","","","","","","","","","","","",""
"null","","null","html-keyboard-response","71","175087","0.0-6.0-1.0-6.0-0.6","3","4","4","3","2","4","3","3","4","4","5","4","5","4","4","4","5","4","4","5","1","1","1","2","2","1","1","2","1","0","0","1","1","0","0","1","0","0","1","1","1","1","0","1","5","2","1","2","1","3","2","5","1","2","634030444760793088","宋","698","","","","","","","","","","","","","","","","","","","","","","","","","","","","","","","","","","","","","","","",""
"788","<p style=""color:rgb(150, 250, 100); font-size: 35px;"">别人</p>","i","categorize-html","72","175876","0.0-6.0-1.0-6.0-1.6","3","4","4","3","2","4","3","3","4","4","5","4","5","4","4","4","5","4","4","5","1","1","1","2","2","1","1","2","1","0","0","1","1","0","0","1","0","0","1","1","1","1","0","1","5","2","1","2","1","3","2","5","1","2","634030444760793088","宋","698","","","","","","","","","","","","","","","","","","","true","13","3","moral","788","other","别人","","","","","","","","","","","","","","",""
"null","","null","html-keyboard-response","73","176127","0.0-6.0-1.0-6.0-0.7","3","4","4","3","2","4","3","3","4","4","5","4","5","4","4","4","5","4","4","5","1","1","1","2","2","1","1","2","1","0","0","1","1","0","0","1","0","0","1","1","1","1","0","1","5","2","1","2","1","3","2","5","1","2","634030444760793088","宋","698","","","","","","","","","","","","","","","","","","","","","","","","","","","","","","","","","","","","","","","",""
"536","<p style=""color:white; font-size: 35px;"">黑心</p>","e","categorize-html","74","176665","0.0-6.0-1.0-6.0-1.7","3","4","4","3","2","4","3","3","4","4","5","4","5","4","4","4","5","4","4","5","1","1","1","2","2","1","1","2","1","0","0","1","1","0","0","1","0","0","1","1","1","1","0","1","5","2","1","2","1","3","2","5","1","2","634030444760793088","宋","698","","","","","","","","","","","","","","","","","","","true","13","3","moral","536","negative","黑心","","","","","","","","","","","","","","",""
"null","","null","html-keyboard-response","75","176916","0.0-6.0-1.0-6.0-0.8","3","4","4","3","2","4","3","3","4","4","5","4","5","4","4","4","5","4","4","5","1","1","1","2","2","1","1","2","1","0","0","1","1","0","0","1","0","0","1","1","1","1","0","1","5","2","1","2","1","3","2","5","1","2","634030444760793088","宋","698","","","","","","","","","","","","","","","","","","","","","","","","","","","","","","","","","","","","","","","",""
"932","<p style=""color:rgb(150, 250, 100); font-size: 35px;"">他的</p>","i","categorize-html","76","177851","0.0-6.0-1.0-6.0-1.8","3","4","4","3","2","4","3","3","4","4","5","4","5","4","4","4","5","4","4","5","1","1","1","2","2","1","1","2","1","0","0","1","1","0","0","1","0","0","1","1","1","1","0","1","5","2","1","2","1","3","2","5","1","2","634030444760793088","宋","698","","","","","","","","","","","","","","","","","","","true","13","3","moral","932","other","他的","","","","","","","","","","","","","","",""
"null","","null","html-keyboard-response","77","178101","0.0-6.0-1.0-6.0-0.9","3","4","4","3","2","4","3","3","4","4","5","4","5","4","4","4","5","4","4","5","1","1","1","2","2","1","1","2","1","0","0","1","1","0","0","1","0","0","1","1","1","1","0","1","5","2","1","2","1","3","2","5","1","2","634030444760793088","宋","698","","","","","","","","","","","","","","","","","","","","","","","","","","","","","","","","","","","","","","","",""
"712","<p style=""color:white; font-size: 35px;"">缺德</p>","e","categorize-html","78","178815","0.0-6.0-1.0-6.0-1.9","3","4","4","3","2","4","3","3","4","4","5","4","5","4","4","4","5","4","4","5","1","1","1","2","2","1","1","2","1","0","0","1","1","0","0","1","0","0","1","1","1","1","0","1","5","2","1","2","1","3","2","5","1","2","634030444760793088","宋","698","","","","","","","","","","","","","","","","","","","true","13","3","moral","712","negative","缺德","","","","","","","","","","","","","","",""
"null","","null","html-keyboard-response","79","179066","0.0-6.0-1.0-6.0-0.10","3","4","4","3","2","4","3","3","4","4","5","4","5","4","4","4","5","4","4","5","1","1","1","2","2","1","1","2","1","0","0","1","1","0","0","1","0","0","1","1","1","1","0","1","5","2","1","2","1","3","2","5","1","2","634030444760793088","宋","698","","","","","","","","","","","","","","","","","","","","","","","","","","","","","","","","","","","","","","","",""
"539","<p style=""color:rgb(150, 250, 100); font-size: 35px;"">我的</p>","e","categorize-html","80","179608","0.0-6.0-1.0-6.0-1.10","3","4","4","3","2","4","3","3","4","4","5","4","5","4","4","4","5","4","4","5","1","1","1","2","2","1","1","2","1","0","0","1","1","0","0","1","0","0","1","1","1","1","0","1","5","2","1","2","1","3","2","5","1","2","634030444760793088","宋","698","","","","","","","","","","","","","","","","","","","true","13","3","moral","539","self","我的","","","","","","","","","","","","","","",""
"null","","null","html-keyboard-response","81","179859","0.0-6.0-1.0-6.0-0.11","3","4","4","3","2","4","3","3","4","4","5","4","5","4","4","4","5","4","4","5","1","1","1","2","2","1","1","2","1","0","0","1","1","0","0","1","0","0","1","1","1","1","0","1","5","2","1","2","1","3","2","5","1","2","634030444760793088","宋","698","","","","","","","","","","","","","","","","","","","","","","","","","","","","","","","","","","","","","","","",""
"879","<p style=""color:white; font-size: 35px;"">诚信</p>","i","categorize-html","82","180740","0.0-6.0-1.0-6.0-1.11","3","4","4","3","2","4","3","3","4","4","5","4","5","4","4","4","5","4","4","5","1","1","1","2","2","1","1","2","1","0","0","1","1","0","0","1","0","0","1","1","1","1","0","1","5","2","1","2","1","3","2","5","1","2","634030444760793088","宋","698","","","","","","","","","","","","","","","","","","","true","13","3","moral","879","positive","诚信","","","","","","","","","","","","","","",""
"null","","null","html-keyboard-response","83","180991","0.0-6.0-1.0-6.0-0.12","3","4","4","3","2","4","3","3","4","4","5","4","5","4","4","4","5","4","4","5","1","1","1","2","2","1","1","2","1","0","0","1","1","0","0","1","0","0","1","1","1","1","0","1","5","2","1","2","1","3","2","5","1","2","634030444760793088","宋","698","","","","","","","","","","","","","","","","","","","","","","","","","","","","","","","","","","","","","","","",""
"749","<p style=""color:rgb(150, 250, 100); font-size: 35px;"">他人</p>","i","categorize-html","84","181742","0.0-6.0-1.0-6.0-1.12","3","4","4","3","2","4","3","3","4","4","5","4","5","4","4","4","5","4","4","5","1","1","1","2","2","1","1","2","1","0","0","1","1","0","0","1","0","0","1","1","1","1","0","1","5","2","1","2","1","3","2","5","1","2","634030444760793088","宋","698","","","","","","","","","","","","","","","","","","","true","13","3","moral","749","other","他人","","","","","","","","","","","","","","",""
"null","","null","html-keyboard-response","85","181993","0.0-6.0-1.0-6.0-0.13","3","4","4","3","2","4","3","3","4","4","5","4","5","4","4","4","5","4","4","5","1","1","1","2","2","1","1","2","1","0","0","1","1","0","0","1","0","0","1","1","1","1","0","1","5","2","1","2","1","3","2","5","1","2","634030444760793088","宋","698","","","","","","","","","","","","","","","","","","","","","","","","","","","","","","","","","","","","","","","",""
"557","<p style=""color:white; font-size: 35px;"">正直</p>","i","categorize-html","86","182551","0.0-6.0-1.0-6.0-1.13","3","4","4","3","2","4","3","3","4","4","5","4","5","4","4","4","5","4","4","5","1","1","1","2","2","1","1","2","1","0","0","1","1","0","0","1","0","0","1","1","1","1","0","1","5","2","1","2","1","3","2","5","1","2","634030444760793088","宋","698","","","","","","","","","","","","","","","","","","","true","13","3","moral","557","positive","正直","","","","","","","","","","","","","","",""
"null","","null","html-keyboard-response","87","182802","0.0-6.0-1.0-6.0-0.14","3","4","4","3","2","4","3","3","4","4","5","4","5","4","4","4","5","4","4","5","1","1","1","2","2","1","1","2","1","0","0","1","1","0","0","1","0","0","1","1","1","1","0","1","5","2","1","2","1","3","2","5","1","2","634030444760793088","宋","698","","","","","","","","","","","","","","","","","","","","","","","","","","","","","","","","","","","","","","","",""
"721","<p style=""color:rgb(150, 250, 100); font-size: 35px;"">本人的</p>","e","categorize-html","88","183526","0.0-6.0-1.0-6.0-1.14","3","4","4","3","2","4","3","3","4","4","5","4","5","4","4","4","5","4","4","5","1","1","1","2","2","1","1","2","1","0","0","1","1","0","0","1","0","0","1","1","1","1","0","1","5","2","1","2","1","3","2","5","1","2","634030444760793088","宋","698","","","","","","","","","","","","","","","","","","","true","13","3","moral","721","self","本人的","","","","","","","","","","","","","","",""
"null","","null","html-keyboard-response","89","183777","0.0-6.0-1.0-6.0-0.15","3","4","4","3","2","4","3","3","4","4","5","4","5","4","4","4","5","4","4","5","1","1","1","2","2","1","1","2","1","0","0","1","1","0","0","1","0","0","1","1","1","1","0","1","5","2","1","2","1","3","2","5","1","2","634030444760793088","宋","698","","","","","","","","","","","","","","","","","","","","","","","","","","","","","","","","","","","","","","","",""
"510","<p style=""color:white; font-size: 35px;"">不仁</p>","e","categorize-html","90","184289","0.0-6.0-1.0-6.0-1.15","3","4","4","3","2","4","3","3","4","4","5","4","5","4","4","4","5","4","4","5","1","1","1","2","2","1","1","2","1","0","0","1","1","0","0","1","0","0","1","1","1","1","0","1","5","2","1","2","1","3","2","5","1","2","634030444760793088","宋","698","","","","","","","","","","","","","","","","","","","true","13","3","moral","510","negative","不仁","","","","","","","","","","","","","","",""
"null","","null","html-keyboard-response","91","184541","0.0-6.0-1.0-6.0-0.16","3","4","4","3","2","4","3","3","4","4","5","4","5","4","4","4","5","4","4","5","1","1","1","2","2","1","1","2","1","0","0","1","1","0","0","1","0","0","1","1","1","1","0","1","5","2","1","2","1","3","2","5","1","2","634030444760793088","宋","698","","","","","","","","","","","","","","","","","","","","","","","","","","","","","","","","","","","","","","","",""
"598","<p style=""color:rgb(150, 250, 100); font-size: 35px;"">自己的</p>","e","categorize-html","92","185142","0.0-6.0-1.0-6.0-1.16","3","4","4","3","2","4","3","3","4","4","5","4","5","4","4","4","5","4","4","5","1","1","1","2","2","1","1","2","1","0","0","1","1","0","0","1","0","0","1","1","1","1","0","1","5","2","1","2","1","3","2","5","1","2","634030444760793088","宋","698","","","","","","","","","","","","","","","","","","","true","13","3","moral","598","self","自己的","","","","","","","","","","","","","","",""
"null","","null","html-keyboard-response","93","185393","0.0-6.0-1.0-6.0-0.17","3","4","4","3","2","4","3","3","4","4","5","4","5","4","4","4","5","4","4","5","1","1","1","2","2","1","1","2","1","0","0","1","1","0","0","1","0","0","1","1","1","1","0","1","5","2","1","2","1","3","2","5","1","2","634030444760793088","宋","698","","","","","","","","","","","","","","","","","","","","","","","","","","","","","","","","","","","","","","","",""
"561","<p style=""color:white; font-size: 35px;"">卑鄙</p>","e","categorize-html","94","185957","0.0-6.0-1.0-6.0-1.17","3","4","4","3","2","4","3","3","4","4","5","4","5","4","4","4","5","4","4","5","1","1","1","2","2","1","1","2","1","0","0","1","1","0","0","1","0","0","1","1","1","1","0","1","5","2","1","2","1","3","2","5","1","2","634030444760793088","宋","698","","","","","","","","","","","","","","","","","","","true","13","3","moral","561","negative","卑鄙","","","","","","","","","","","","","","",""
"null","","null","html-keyboard-response","95","186208","0.0-6.0-1.0-6.0-0.18","3","4","4","3","2","4","3","3","4","4","5","4","5","4","4","4","5","4","4","5","1","1","1","2","2","1","1","2","1","0","0","1","1","0","0","1","0","0","1","1","1","1","0","1","5","2","1","2","1","3","2","5","1","2","634030444760793088","宋","698","","","","","","","","","","","","","","","","","","","","","","","","","","","","","","","","","","","","","","","",""
"702","<p style=""color:rgb(150, 250, 100); font-size: 35px;"">他</p>","i","categorize-html","96","186912","0.0-6.0-1.0-6.0-1.18","3","4","4","3","2","4","3","3","4","4","5","4","5","4","4","4","5","4","4","5","1","1","1","2","2","1","1","2","1","0","0","1","1","0","0","1","0","0","1","1","1","1","0","1","5","2","1","2","1","3","2","5","1","2","634030444760793088","宋","698","","","","","","","","","","","","","","","","","","","true","13","3","moral","702","other","他","","","","","","","","","","","","","","",""
"null","","null","html-keyboard-response","97","187163","0.0-6.0-1.0-6.0-0.19","3","4","4","3","2","4","3","3","4","4","5","4","5","4","4","4","5","4","4","5","1","1","1","2","2","1","1","2","1","0","0","1","1","0","0","1","0","0","1","1","1","1","0","1","5","2","1","2","1","3","2","5","1","2","634030444760793088","宋","698","","","","","","","","","","","","","","","","","","","","","","","","","","","","","","","","","","","","","","","",""
"693","<p style=""color:white; font-size: 35px;"">高尚</p>","i","categorize-html","98","187859","0.0-6.0-1.0-6.0-1.19","3","4","4","3","2","4","3","3","4","4","5","4","5","4","4","4","5","4","4","5","1","1","1","2","2","1","1","2","1","0","0","1","1","0","0","1","0","0","1","1","1","1","0","1","5","2","1","2","1","3","2","5","1","2","634030444760793088","宋","698","","","","","","","","","","","","","","","","","","","true","13","3","moral","693","positive","高尚","","","","","","","","","","","","","","",""
"null","","null","html-keyboard-response","99","188110","0.0-6.0-1.0-6.0-0.20","3","4","4","3","2","4","3","3","4","4","5","4","5","4","4","4","5","4","4","5","1","1","1","2","2","1","1","2","1","0","0","1","1","0","0","1","0","0","1","1","1","1","0","1","5","2","1","2","1","3","2","5","1","2","634030444760793088","宋","698","","","","","","","","","","","","","","","","","","","","","","","","","","","","","","","","","","","","","","","",""
"571","<p style=""color:rgb(150, 250, 100); font-size: 35px;"">别人的</p>","i","categorize-html","100","188683","0.0-6.0-1.0-6.0-1.20","3","4","4","3","2","4","3","3","4","4","5","4","5","4","4","4","5","4","4","5","1","1","1","2","2","1","1","2","1","0","0","1","1","0","0","1","0","0","1","1","1","1","0","1","5","2","1","2","1","3","2","5","1","2","634030444760793088","宋","698","","","","","","","","","","","","","","","","","","","true","13","3","moral","571","other","别人的","","","","","","","","","","","","","","",""
"null","","null","html-keyboard-response","101","188935","0.0-6.0-1.0-6.0-0.21","3","4","4","3","2","4","3","3","4","4","5","4","5","4","4","4","5","4","4","5","1","1","1","2","2","1","1","2","1","0","0","1","1","0","0","1","0","0","1","1","1","1","0","1","5","2","1","2","1","3","2","5","1","2","634030444760793088","宋","698","","","","","","","","","","","","","","","","","","","","","","","","","","","","","","","","","","","","","","","",""
"692","<p style=""color:white; font-size: 35px;"">小人</p>","e","categorize-html","102","189629","0.0-6.0-1.0-6.0-1.21","3","4","4","3","2","4","3","3","4","4","5","4","5","4","4","4","5","4","4","5","1","1","1","2","2","1","1","2","1","0","0","1","1","0","0","1","0","0","1","1","1","1","0","1","5","2","1","2","1","3","2","5","1","2","634030444760793088","宋","698","","","","","","","","","","","","","","","","","","","true","13","3","moral","692","negative","小人","","","","","","","","","","","","","","",""
"null","","null","html-keyboard-response","103","189881","0.0-6.0-1.0-6.0-0.22","3","4","4","3","2","4","3","3","4","4","5","4","5","4","4","4","5","4","4","5","1","1","1","2","2","1","1","2","1","0","0","1","1","0","0","1","0","0","1","1","1","1","0","1","5","2","1","2","1","3","2","5","1","2","634030444760793088","宋","698","","","","","","","","","","","","","","","","","","","","","","","","","","","","","","","","","","","","","","","",""
"986","<p style=""color:rgb(150, 250, 100); font-size: 35px;"">我</p>","i","categorize-html","104","191745","0.0-6.0-1.0-6.0-1.22","3","4","4","3","2","4","3","3","4","4","5","4","5","4","4","4","5","4","4","5","1","1","1","2","2","1","1","2","1","0","0","1","1","0","0","1","0","0","1","1","1","1","0","1","5","2","1","2","1","3","2","5","1","2","634030444760793088","宋","698","","","","","","","","","","","","","","","","","","","false","13","3","moral","1291.9565217391305","self","我","","","","","","","","","","","","","","",""
"null","","null","html-keyboard-response","105","191996","0.0-6.0-1.0-6.0-0.23","3","4","4","3","2","4","3","3","4","4","5","4","5","4","4","4","5","4","4","5","1","1","1","2","2","1","1","2","1","0","0","1","1","0","0","1","0","0","1","1","1","1","0","1","5","2","1","2","1","3","2","5","1","2","634030444760793088","宋","698","","","","","","","","","","","","","","","","","","","","","","","","","","","","","","","","","","","","","","","",""
"932","<p style=""color:white; font-size: 35px;"">善良</p>","i","categorize-html","106","192930","0.0-6.0-1.0-6.0-1.23","3","4","4","3","2","4","3","3","4","4","5","4","5","4","4","4","5","4","4","5","1","1","1","2","2","1","1","2","1","0","0","1","1","0","0","1","0","0","1","1","1","1","0","1","5","2","1","2","1","3","2","5","1","2","634030444760793088","宋","698","","","","","","","","","","","","","","","","","","","true","13","3","moral","932","positive","善良","","","","","","","","","","","","","","",""
"660","
    <div class=""tag-bottom""><p>
    —— 任务4：对“自我/消极”词和“他人/积极”词分类 ——<p/>
    <span style=""color:#78DCE8""><b>与刚才的任务完全相同，请再次对这四类词语分类</b></span><p/>
    <span style=""color:#FFD866""><b>请根据上方标签的提示，尽可能正确并且快速地做出按键反应</b></span><p/>
    当按键错误时屏幕中会出现<span style=""color:red""> X </span>，需要按另一个键纠正才能继续<br/><p/>
    请把双手食指分别放在键盘的“E”键和“I”键上<p/>
    按<空格键>开始
    </p></div>"," ","html-keyboard-response","107","193591","0.0-6.0-1.0-7.0","3","4","4","3","2","4","3","3","4","4","5","4","5","4","4","4","5","4","4","5","1","1","1","2","2","1","1","2","1","0","0","1","1","0","0","1","0","0","1","1","1","1","0","1","5","2","1","2","1","3","2","5","1","2","634030444760793088","宋","698","","","","","","","","","","","","","","","","","","","","","","","","","","","","","","","","","","","","","","","",""
"null","","null","html-keyboard-response","108","193842","0.0-6.0-1.0-8.0-0.0","3","4","4","3","2","4","3","3","4","4","5","4","5","4","4","4","5","4","4","5","1","1","1","2","2","1","1","2","1","0","0","1","1","0","0","1","0","0","1","1","1","1","0","1","5","2","1","2","1","3","2","5","1","2","634030444760793088","宋","698","","","","","","","","","","","","","","","","","","","","","","","","","","","","","","","","","","","","","","","",""
"963","<p style=""color:rgb(150, 250, 100); font-size: 35px;"">他</p>","i","categorize-html","109","194810","0.0-6.0-1.0-8.0-1.0","3","4","4","3","2","4","3","3","4","4","5","4","5","4","4","4","5","4","4","5","1","1","1","2","2","1","1","2","1","0","0","1","1","0","0","1","0","0","1","1","1","1","0","1","5","2","1","2","1","3","2","5","1","2","634030444760793088","宋","698","","","","","","","","","","","","","","","","","","","true","14","4","moral","963","other","他","","","","","","","","","","","","","","",""
"null","","null","html-keyboard-response","110","195062","0.0-6.0-1.0-8.0-0.1","3","4","4","3","2","4","3","3","4","4","5","4","5","4","4","4","5","4","4","5","1","1","1","2","2","1","1","2","1","0","0","1","1","0","0","1","0","0","1","1","1","1","0","1","5","2","1","2","1","3","2","5","1","2","634030444760793088","宋","698","","","","","","","","","","","","","","","","","","","","","","","","","","","","","","","","","","","","","","","",""
"712","<p style=""color:white; font-size: 35px;"">卑鄙</p>","e","categorize-html","111","195776","0.0-6.0-1.0-8.0-1.1","3","4","4","3","2","4","3","3","4","4","5","4","5","4","4","4","5","4","4","5","1","1","1","2","2","1","1","2","1","0","0","1","1","0","0","1","0","0","1","1","1","1","0","1","5","2","1","2","1","3","2","5","1","2","634030444760793088","宋","698","","","","","","","","","","","","","","","","","","","true","14","4","moral","712","negative","卑鄙","","","","","","","","","","","","","","",""
"null","","null","html-keyboard-response","112","196034","0.0-6.0-1.0-8.0-0.2","3","4","4","3","2","4","3","3","4","4","5","4","5","4","4","4","5","4","4","5","1","1","1","2","2","1","1","2","1","0","0","1","1","0","0","1","0","0","1","1","1","1","0","1","5","2","1","2","1","3","2","5","1","2","634030444760793088","宋","698","","","","","","","","","","","","","","","","","","","","","","","","","","","","","","","","","","","","","","","",""
"503","<p style=""color:rgb(150, 250, 100); font-size: 35px;"">我的</p>","e","categorize-html","113","196539","0.0-6.0-1.0-8.0-1.2","3","4","4","3","2","4","3","3","4","4","5","4","5","4","4","4","5","4","4","5","1","1","1","2","2","1","1","2","1","0","0","1","1","0","0","1","0","0","1","1","1","1","0","1","5","2","1","2","1","3","2","5","1","2","634030444760793088","宋","698","","","","","","","","","","","","","","","","","","","true","14","4","moral","503","self","我的","","","","","","","","","","","","","","",""
"null","","null","html-keyboard-response","114","196792","0.0-6.0-1.0-8.0-0.3","3","4","4","3","2","4","3","3","4","4","5","4","5","4","4","4","5","4","4","5","1","1","1","2","2","1","1","2","1","0","0","1","1","0","0","1","0","0","1","1","1","1","0","1","5","2","1","2","1","3","2","5","1","2","634030444760793088","宋","698","","","","","","","","","","","","","","","","","","","","","","","","","","","","","","","","","","","","","","","",""
"756","<p style=""color:white; font-size: 35px;"">廉正</p>","e","categorize-html","115","197747","0.0-6.0-1.0-8.0-1.3","3","4","4","3","2","4","3","3","4","4","5","4","5","4","4","4","5","4","4","5","1","1","1","2","2","1","1","2","1","0","0","1","1","0","0","1","0","0","1","1","1","1","0","1","5","2","1","2","1","3","2","5","1","2","634030444760793088","宋","698","","","","","","","","","","","","","","","","","","","false","14","4","moral","1371.0227272727273","positive","廉正","","","","","","","","","","","","","","",""
"null","","null","html-keyboard-response","116","197999","0.0-6.0-1.0-8.0-0.4","3","4","4","3","2","4","3","3","4","4","5","4","5","4","4","4","5","4","4","5","1","1","1","2","2","1","1","2","1","0","0","1","1","0","0","1","0","0","1","1","1","1","0","1","5","2","1","2","1","3","2","5","1","2","634030444760793088","宋","698","","","","","","","","","","","","","","","","","","","","","","","","","","","","","","","","","","","","","","","",""
"1087","<p style=""color:rgb(150, 250, 100); font-size: 35px;"">自己的</p>","e","categorize-html","117","199089","0.0-6.0-1.0-8.0-1.4","3","4","4","3","2","4","3","3","4","4","5","4","5","4","4","4","5","4","4","5","1","1","1","2","2","1","1","2","1","0","0","1","1","0","0","1","0","0","1","1","1","1","0","1","5","2","1","2","1","3","2","5","1","2","634030444760793088","宋","698","","","","","","","","","","","","","","","","","","","true","14","4","moral","1087","self","自己的","","","","","","","","","","","","","","",""
"null","","null","html-keyboard-response","118","199341","0.0-6.0-1.0-8.0-0.5","3","4","4","3","2","4","3","3","4","4","5","4","5","4","4","4","5","4","4","5","1","1","1","2","2","1","1","2","1","0","0","1","1","0","0","1","0","0","1","1","1","1","0","1","5","2","1","2","1","3","2","5","1","2","634030444760793088","宋","698","","","","","","","","","","","","","","","","","","","","","","","","","","","","","","","","","","","","","","","",""
"941","<p style=""color:white; font-size: 35px;"">黑心</p>","i","categorize-html","119","200543","0.0-6.0-1.0-8.0-1.5","3","4","4","3","2","4","3","3","4","4","5","4","5","4","4","4","5","4","4","5","1","1","1","2","2","1","1","2","1","0","0","1","1","0","0","1","0","0","1","1","1","1","0","1","5","2","1","2","1","3","2","5","1","2","634030444760793088","宋","698","","","","","","","","","","","","","","","","","","","false","14","4","moral","1371.0227272727273","negative","黑心","","","","","","","","","","","","","","",""
"null","","null","html-keyboard-response","120","200794","0.0-6.0-1.0-8.0-0.6","3","4","4","3","2","4","3","3","4","4","5","4","5","4","4","4","5","4","4","5","1","1","1","2","2","1","1","2","1","0","0","1","1","0","0","1","0","0","1","1","1","1","0","1","5","2","1","2","1","3","2","5","1","2","634030444760793088","宋","698","","","","","","","","","","","","","","","","","","","","","","","","","","","","","","","","","","","","","","","",""
"891","<p style=""color:rgb(150, 250, 100); font-size: 35px;"">他的</p>","i","categorize-html","121","201688","0.0-6.0-1.0-8.0-1.6","3","4","4","3","2","4","3","3","4","4","5","4","5","4","4","4","5","4","4","5","1","1","1","2","2","1","1","2","1","0","0","1","1","0","0","1","0","0","1","1","1","1","0","1","5","2","1","2","1","3","2","5","1","2","634030444760793088","宋","698","","","","","","","","","","","","","","","","","","","true","14","4","moral","891","other","他的","","","","","","","","","","","","","","",""
"null","","null","html-keyboard-response","122","201940","0.0-6.0-1.0-8.0-0.7","3","4","4","3","2","4","3","3","4","4","5","4","5","4","4","4","5","4","4","5","1","1","1","2","2","1","1","2","1","0","0","1","1","0","0","1","0","0","1","1","1","1","0","1","5","2","1","2","1","3","2","5","1","2","634030444760793088","宋","698","","","","","","","","","","","","","","","","","","","","","","","","","","","","","","","","","","","","","","","",""
"692","<p style=""color:white; font-size: 35px;"">君子</p>","i","categorize-html","123","202634","0.0-6.0-1.0-8.0-1.7","3","4","4","3","2","4","3","3","4","4","5","4","5","4","4","4","5","4","4","5","1","1","1","2","2","1","1","2","1","0","0","1","1","0","0","1","0","0","1","1","1","1","0","1","5","2","1","2","1","3","2","5","1","2","634030444760793088","宋","698","","","","","","","","","","","","","","","","","","","true","14","4","moral","692","positive","君子","","","","","","","","","","","","","","",""
"null","","null","html-keyboard-response","124","202885","0.0-6.0-1.0-8.0-0.8","3","4","4","3","2","4","3","3","4","4","5","4","5","4","4","4","5","4","4","5","1","1","1","2","2","1","1","2","1","0","0","1","1","0","0","1","0","0","1","1","1","1","0","1","5","2","1","2","1","3","2","5","1","2","634030444760793088","宋","698","","","","","","","","","","","","","","","","","","","","","","","","","","","","","","","","","","","","","","","",""
"836","<p style=""color:rgb(150, 250, 100); font-size: 35px;"">自己</p>","e","categorize-html","125","203724","0.0-6.0-1.0-8.0-1.8","3","4","4","3","2","4","3","3","4","4","5","4","5","4","4","4","5","4","4","5","1","1","1","2","2","1","1","2","1","0","0","1","1","0","0","1","0","0","1","1","1","1","0","1","5","2","1","2","1","3","2","5","1","2","634030444760793088","宋","698","","","","","","","","","","","","","","","","","","","true","14","4","moral","836","self","自己","","","","","","","","","","","","","","",""
"null","","null","html-keyboard-response","126","203975","0.0-6.0-1.0-8.0-0.9","3","4","4","3","2","4","3","3","4","4","5","4","5","4","4","4","5","4","4","5","1","1","1","2","2","1","1","2","1","0","0","1","1","0","0","1","0","0","1","1","1","1","0","1","5","2","1","2","1","3","2","5","1","2","634030444760793088","宋","698","","","","","","","","","","","","","","","","","","","","","","","","","","","","","","","","","","","","","","","",""
"890","<p style=""color:white; font-size: 35px;"">卑鄙</p>","e","categorize-html","127","204868","0.0-6.0-1.0-8.0-1.9","3","4","4","3","2","4","3","3","4","4","5","4","5","4","4","4","5","4","4","5","1","1","1","2","2","1","1","2","1","0","0","1","1","0","0","1","0","0","1","1","1","1","0","1","5","2","1","2","1","3","2","5","1","2","634030444760793088","宋","698","","","","","","","","","","","","","","","","","","","true","14","4","moral","890","negative","卑鄙","","","","","","","","","","","","","","",""
"null","","null","html-keyboard-response","128","205129","0.0-6.0-1.0-8.0-0.10","3","4","4","3","2","4","3","3","4","4","5","4","5","4","4","4","5","4","4","5","1","1","1","2","2","1","1","2","1","0","0","1","1","0","0","1","0","0","1","1","1","1","0","1","5","2","1","2","1","3","2","5","1","2","634030444760793088","宋","698","","","","","","","","","","","","","","","","","","","","","","","","","","","","","","","","","","","","","","","",""
"595","<p style=""color:rgb(150, 250, 100); font-size: 35px;"">他人的</p>","i","categorize-html","129","205726","0.0-6.0-1.0-8.0-1.10","3","4","4","3","2","4","3","3","4","4","5","4","5","4","4","4","5","4","4","5","1","1","1","2","2","1","1","2","1","0","0","1","1","0","0","1","0","0","1","1","1","1","0","1","5","2","1","2","1","3","2","5","1","2","634030444760793088","宋","698","","","","","","","","","","","","","","","","","","","true","14","4","moral","595","other","他人的","","","","","","","","","","","","","","",""
"null","","null","html-keyboard-response","130","205978","0.0-6.0-1.0-8.0-0.11","3","4","4","3","2","4","3","3","4","4","5","4","5","4","4","4","5","4","4","5","1","1","1","2","2","1","1","2","1","0","0","1","1","0","0","1","0","0","1","1","1","1","0","1","5","2","1","2","1","3","2","5","1","2","634030444760793088","宋","698","","","","","","","","","","","","","","","","","","","","","","","","","","","","","","","","","","","","","","","",""
"676","<p style=""color:white; font-size: 35px;"">正直</p>","i","categorize-html","131","206656","0.0-6.0-1.0-8.0-1.11","3","4","4","3","2","4","3","3","4","4","5","4","5","4","4","4","5","4","4","5","1","1","1","2","2","1","1","2","1","0","0","1","1","0","0","1","0","0","1","1","1","1","0","1","5","2","1","2","1","3","2","5","1","2","634030444760793088","宋","698","","","","","","","","","","","","","","","","","","","true","14","4","moral","676","positive","正直","","","","","","","","","","","","","","",""
"null","","null","html-keyboard-response","132","206907","0.0-6.0-1.0-8.0-0.12","3","4","4","3","2","4","3","3","4","4","5","4","5","4","4","4","5","4","4","5","1","1","1","2","2","1","1","2","1","0","0","1","1","0","0","1","0","0","1","1","1","1","0","1","5","2","1","2","1","3","2","5","1","2","634030444760793088","宋","698","","","","","","","","","","","","","","","","","","","","","","","","","","","","","","","","","","","","","","","",""
"780","<p style=""color:rgb(150, 250, 100); font-size: 35px;"">本人</p>","e","categorize-html","133","207689","0.0-6.0-1.0-8.0-1.12","3","4","4","3","2","4","3","3","4","4","5","4","5","4","4","4","5","4","4","5","1","1","1","2","2","1","1","2","1","0","0","1","1","0","0","1","0","0","1","1","1","1","0","1","5","2","1","2","1","3","2","5","1","2","634030444760793088","宋","698","","","","","","","","","","","","","","","","","","","true","14","4","moral","780","self","本人","","","","","","","","","","","","","","",""
"null","","null","html-keyboard-response","134","207940","0.0-6.0-1.0-8.0-0.13","3","4","4","3","2","4","3","3","4","4","5","4","5","4","4","4","5","4","4","5","1","1","1","2","2","1","1","2","1","0","0","1","1","0","0","1","0","0","1","1","1","1","0","1","5","2","1","2","1","3","2","5","1","2","634030444760793088","宋","698","","","","","","","","","","","","","","","","","","","","","","","","","","","","","","","","","","","","","","","",""
"912","<p style=""color:white; font-size: 35px;"">黑心</p>","i","categorize-html","135","209227","0.0-6.0-1.0-8.0-1.13","3","4","4","3","2","4","3","3","4","4","5","4","5","4","4","4","5","4","4","5","1","1","1","2","2","1","1","2","1","0","0","1","1","0","0","1","0","0","1","1","1","1","0","1","5","2","1","2","1","3","2","5","1","2","634030444760793088","宋","698","","","","","","","","","","","","","","","","","","","false","14","4","moral","1371.0227272727273","negative","黑心","","","","","","","","","","","","","","",""
"null","","null","html-keyboard-response","136","209478","0.0-6.0-1.0-8.0-0.14","3","4","4","3","2","4","3","3","4","4","5","4","5","4","4","4","5","4","4","5","1","1","1","2","2","1","1","2","1","0","0","1","1","0","0","1","0","0","1","1","1","1","0","1","5","2","1","2","1","3","2","5","1","2","634030444760793088","宋","698","","","","","","","","","","","","","","","","","","","","","","","","","","","","","","","","","","","","","","","",""
"1052","<p style=""color:rgb(150, 250, 100); font-size: 35px;"">别人的</p>","i","categorize-html","137","210532","0.0-6.0-1.0-8.0-1.14","3","4","4","3","2","4","3","3","4","4","5","4","5","4","4","4","5","4","4","5","1","1","1","2","2","1","1","2","1","0","0","1","1","0","0","1","0","0","1","1","1","1","0","1","5","2","1","2","1","3","2","5","1","2","634030444760793088","宋","698","","","","","","","","","","","","","","","","","","","true","14","4","moral","1052","other","别人的","","","","","","","","","","","","","","",""
"null","","null","html-keyboard-response","138","210783","0.0-6.0-1.0-8.0-0.15","3","4","4","3","2","4","3","3","4","4","5","4","5","4","4","4","5","4","4","5","1","1","1","2","2","1","1","2","1","0","0","1","1","0","0","1","0","0","1","1","1","1","0","1","5","2","1","2","1","3","2","5","1","2","634030444760793088","宋","698","","","","","","","","","","","","","","","","","","","","","","","","","","","","","","","","","","","","","","","",""
"777","<p style=""color:white; font-size: 35px;"">君子</p>","e","categorize-html","139","212054","0.0-6.0-1.0-8.0-1.15","3","4","4","3","2","4","3","3","4","4","5","4","5","4","4","4","5","4","4","5","1","1","1","2","2","1","1","2","1","0","0","1","1","0","0","1","0","0","1","1","1","1","0","1","5","2","1","2","1","3","2","5","1","2","634030444760793088","宋","698","","","","","","","","","","","","","","","","","","","false","14","4","moral","1371.0227272727273","positive","君子","","","","","","","","","","","","","","",""
"null","","null","html-keyboard-response","140","212305","0.0-6.0-1.0-8.0-0.16","3","4","4","3","2","4","3","3","4","4","5","4","5","4","4","4","5","4","4","5","1","1","1","2","2","1","1","2","1","0","0","1","1","0","0","1","0","0","1","1","1","1","0","1","5","2","1","2","1","3","2","5","1","2","634030444760793088","宋","698","","","","","","","","","","","","","","","","","","","","","","","","","","","","","","","","","","","","","","","",""
"1180","<p style=""color:rgb(150, 250, 100); font-size: 35px;"">自己</p>","e","categorize-html","141","213487","0.0-6.0-1.0-8.0-1.16","3","4","4","3","2","4","3","3","4","4","5","4","5","4","4","4","5","4","4","5","1","1","1","2","2","1","1","2","1","0","0","1","1","0","0","1","0","0","1","1","1","1","0","1","5","2","1","2","1","3","2","5","1","2","634030444760793088","宋","698","","","","","","","","","","","","","","","","","","","true","14","4","moral","1180","self","自己","","","","","","","","","","","","","","",""
"null","","null","html-keyboard-response","142","213738","0.0-6.0-1.0-8.0-0.17","3","4","4","3","2","4","3","3","4","4","5","4","5","4","4","4","5","4","4","5","1","1","1","2","2","1","1","2","1","0","0","1","1","0","0","1","0","0","1","1","1","1","0","1","5","2","1","2","1","3","2","5","1","2","634030444760793088","宋","698","","","","","","","","","","","","","","","","","","","","","","","","","","","","","","","","","","","","","","","",""
"606","<p style=""color:white; font-size: 35px;"">缺德</p>","e","categorize-html","143","214345","0.0-6.0-1.0-8.0-1.17","3","4","4","3","2","4","3","3","4","4","5","4","5","4","4","4","5","4","4","5","1","1","1","2","2","1","1","2","1","0","0","1","1","0","0","1","0","0","1","1","1","1","0","1","5","2","1","2","1","3","2","5","1","2","634030444760793088","宋","698","","","","","","","","","","","","","","","","","","","true","14","4","moral","606","negative","缺德","","","","","","","","","","","","","","",""
"null","","null","html-keyboard-response","144","214597","0.0-6.0-1.0-8.0-0.18","3","4","4","3","2","4","3","3","4","4","5","4","5","4","4","4","5","4","4","5","1","1","1","2","2","1","1","2","1","0","0","1","1","0","0","1","0","0","1","1","1","1","0","1","5","2","1","2","1","3","2","5","1","2","634030444760793088","宋","698","","","","","","","","","","","","","","","","","","","","","","","","","","","","","","","","","","","","","","","",""
"631","<p style=""color:rgb(150, 250, 100); font-size: 35px;"">他人</p>","i","categorize-html","145","215230","0.0-6.0-1.0-8.0-1.18","3","4","4","3","2","4","3","3","4","4","5","4","5","4","4","4","5","4","4","5","1","1","1","2","2","1","1","2","1","0","0","1","1","0","0","1","0","0","1","1","1","1","0","1","5","2","1","2","1","3","2","5","1","2","634030444760793088","宋","698","","","","","","","","","","","","","","","","","","","true","14","4","moral","631","other","他人","","","","","","","","","","","","","","",""
"null","","null","html-keyboard-response","146","215481","0.0-6.0-1.0-8.0-0.19","3","4","4","3","2","4","3","3","4","4","5","4","5","4","4","4","5","4","4","5","1","1","1","2","2","1","1","2","1","0","0","1","1","0","0","1","0","0","1","1","1","1","0","1","5","2","1","2","1","3","2","5","1","2","634030444760793088","宋","698","","","","","","","","","","","","","","","","","","","","","","","","","","","","","","","","","","","","","","","",""
"777","<p style=""color:white; font-size: 35px;"">诚信</p>","i","categorize-html","147","216260","0.0-6.0-1.0-8.0-1.19","3","4","4","3","2","4","3","3","4","4","5","4","5","4","4","4","5","4","4","5","1","1","1","2","2","1","1","2","1","0","0","1","1","0","0","1","0","0","1","1","1","1","0","1","5","2","1","2","1","3","2","5","1","2","634030444760793088","宋","698","","","","","","","","","","","","","","","","","","","true","14","4","moral","777","positive","诚信","","","","","","","","","","","","","","",""
"null","","null","html-keyboard-response","148","216512","0.0-6.0-1.0-8.0-0.20","3","4","4","3","2","4","3","3","4","4","5","4","5","4","4","4","5","4","4","5","1","1","1","2","2","1","1","2","1","0","0","1","1","0","0","1","0","0","1","1","1","1","0","1","5","2","1","2","1","3","2","5","1","2","634030444760793088","宋","698","","","","","","","","","","","","","","","","","","","","","","","","","","","","","","","","","","","","","","","",""
"524","<p style=""color:rgb(150, 250, 100); font-size: 35px;"">别人</p>","i","categorize-html","149","217038","0.0-6.0-1.0-8.0-1.20","3","4","4","3","2","4","3","3","4","4","5","4","5","4","4","4","5","4","4","5","1","1","1","2","2","1","1","2","1","0","0","1","1","0","0","1","0","0","1","1","1","1","0","1","5","2","1","2","1","3","2","5","1","2","634030444760793088","宋","698","","","","","","","","","","","","","","","","","","","true","14","4","moral","524","other","别人","","","","","","","","","","","","","","",""
"null","","null","html-keyboard-response","150","217289","0.0-6.0-1.0-8.0-0.21","3","4","4","3","2","4","3","3","4","4","5","4","5","4","4","4","5","4","4","5","1","1","1","2","2","1","1","2","1","0","0","1","1","0","0","1","0","0","1","1","1","1","0","1","5","2","1","2","1","3","2","5","1","2","634030444760793088","宋","698","","","","","","","","","","","","","","","","","","","","","","","","","","","","","","","","","","","","","","","",""
"699","<p style=""color:white; font-size: 35px;"">廉正</p>","i","categorize-html","151","217991","0.0-6.0-1.0-8.0-1.21","3","4","4","3","2","4","3","3","4","4","5","4","5","4","4","4","5","4","4","5","1","1","1","2","2","1","1","2","1","0","0","1","1","0","0","1","0","0","1","1","1","1","0","1","5","2","1","2","1","3","2","5","1","2","634030444760793088","宋","698","","","","","","","","","","","","","","","","","","","true","14","4","moral","699","positive","廉正","","","","","","","","","","","","","","",""
"null","","null","html-keyboard-response","152","218242","0.0-6.0-1.0-8.0-0.22","3","4","4","3","2","4","3","3","4","4","5","4","5","4","4","4","5","4","4","5","1","1","1","2","2","1","1","2","1","0","0","1","1","0","0","1","0","0","1","1","1","1","0","1","5","2","1","2","1","3","2","5","1","2","634030444760793088","宋","698","","","","","","","","","","","","","","","","","","","","","","","","","","","","","","","","","","","","","","","",""
"581","<p style=""color:rgb(150, 250, 100); font-size: 35px;"">我</p>","e","categorize-html","153","218826","0.0-6.0-1.0-8.0-1.22","3","4","4","3","2","4","3","3","4","4","5","4","5","4","4","4","5","4","4","5","1","1","1","2","2","1","1","2","1","0","0","1","1","0","0","1","0","0","1","1","1","1","0","1","5","2","1","2","1","3","2","5","1","2","634030444760793088","宋","698","","","","","","","","","","","","","","","","","","","true","14","4","moral","581","self","我","","","","","","","","","","","","","","",""
"null","","null","html-keyboard-response","154","219077","0.0-6.0-1.0-8.0-0.23","3","4","4","3","2","4","3","3","4","4","5","4","5","4","4","4","5","4","4","5","1","1","1","2","2","1","1","2","1","0","0","1","1","0","0","1","0","0","1","1","1","1","0","1","5","2","1","2","1","3","2","5","1","2","634030444760793088","宋","698","","","","","","","","","","","","","","","","","","","","","","","","","","","","","","","","","","","","","","","",""
"881","<p style=""color:white; font-size: 35px;"">不孝</p>","e","categorize-html","155","219960","0.0-6.0-1.0-8.0-1.23","3","4","4","3","2","4","3","3","4","4","5","4","5","4","4","4","5","4","4","5","1","1","1","2","2","1","1","2","1","0","0","1","1","0","0","1","0","0","1","1","1","1","0","1","5","2","1","2","1","3","2","5","1","2","634030444760793088","宋","698","","","","","","","","","","","","","","","","","","","true","14","4","moral","881","negative","不孝","","","","","","","","","","","","","","",""
"null","","null","html-keyboard-response","156","220211","0.0-6.0-1.0-8.0-0.24","3","4","4","3","2","4","3","3","4","4","5","4","5","4","4","4","5","4","4","5","1","1","1","2","2","1","1","2","1","0","0","1","1","0","0","1","0","0","1","1","1","1","0","1","5","2","1","2","1","3","2","5","1","2","634030444760793088","宋","698","","","","","","","","","","","","","","","","","","","","","","","","","","","","","","","","","","","","","","","",""
"782","<p style=""color:rgb(150, 250, 100); font-size: 35px;"">他人</p>","i","categorize-html","157","220995","0.0-6.0-1.0-8.0-1.24","3","4","4","3","2","4","3","3","4","4","5","4","5","4","4","4","5","4","4","5","1","1","1","2","2","1","1","2","1","0","0","1","1","0","0","1","0","0","1","1","1","1","0","1","5","2","1","2","1","3","2","5","1","2","634030444760793088","宋","698","","","","","","","","","","","","","","","","","","","true","14","4","moral","782","other","他人","","","","","","","","","","","","","","",""
"null","","null","html-keyboard-response","158","221246","0.0-6.0-1.0-8.0-0.25","3","4","4","3","2","4","3","3","4","4","5","4","5","4","4","4","5","4","4","5","1","1","1","2","2","1","1","2","1","0","0","1","1","0","0","1","0","0","1","1","1","1","0","1","5","2","1","2","1","3","2","5","1","2","634030444760793088","宋","698","","","","","","","","","","","","","","","","","","","","","","","","","","","","","","","","","","","","","","","",""
"728","<p style=""color:white; font-size: 35px;"">不孝</p>","e","categorize-html","159","221975","0.0-6.0-1.0-8.0-1.25","3","4","4","3","2","4","3","3","4","4","5","4","5","4","4","4","5","4","4","5","1","1","1","2","2","1","1","2","1","0","0","1","1","0","0","1","0","0","1","1","1","1","0","1","5","2","1","2","1","3","2","5","1","2","634030444760793088","宋","698","","","","","","","","","","","","","","","","","","","true","14","4","moral","728","negative","不孝","","","","","","","","","","","","","","",""
"null","","null","html-keyboard-response","160","222226","0.0-6.0-1.0-8.0-0.26","3","4","4","3","2","4","3","3","4","4","5","4","5","4","4","4","5","4","4","5","1","1","1","2","2","1","1","2","1","0","0","1","1","0","0","1","0","0","1","1","1","1","0","1","5","2","1","2","1","3","2","5","1","2","634030444760793088","宋","698","","","","","","","","","","","","","","","","","","","","","","","","","","","","","","","","","","","","","","","",""
"763","<p style=""color:rgb(150, 250, 100); font-size: 35px;"">我</p>","e","categorize-html","161","222991","0.0-6.0-1.0-8.0-1.26","3","4","4","3","2","4","3","3","4","4","5","4","5","4","4","4","5","4","4","5","1","1","1","2","2","1","1","2","1","0","0","1","1","0","0","1","0","0","1","1","1","1","0","1","5","2","1","2","1","3","2","5","1","2","634030444760793088","宋","698","","","","","","","","","","","","","","","","","","","true","14","4","moral","763","self","我","","","","","","","","","","","","","","",""
"null","","null","html-keyboard-response","162","223242","0.0-6.0-1.0-8.0-0.27","3","4","4","3","2","4","3","3","4","4","5","4","5","4","4","4","5","4","4","5","1","1","1","2","2","1","1","2","1","0","0","1","1","0","0","1","0","0","1","1","1","1","0","1","5","2","1","2","1","3","2","5","1","2","634030444760793088","宋","698","","","","","","","","","","","","","","","","","","","","","","","","","","","","","","","","","","","","","","","",""
"904","<p style=""color:white; font-size: 35px;"">正直</p>","i","categorize-html","163","224149","0.0-6.0-1.0-8.0-1.27","3","4","4","3","2","4","3","3","4","4","5","4","5","4","4","4","5","4","4","5","1","1","1","2","2","1","1","2","1","0","0","1","1","0","0","1","0","0","1","1","1","1","0","1","5","2","1","2","1","3","2","5","1","2","634030444760793088","宋","698","","","","","","","","","","","","","","","","","","","true","14","4","moral","904","positive","正直","","","","","","","","","","","","","","",""
"null","","null","html-keyboard-response","164","224399","0.0-6.0-1.0-8.0-0.28","3","4","4","3","2","4","3","3","4","4","5","4","5","4","4","4","5","4","4","5","1","1","1","2","2","1","1","2","1","0","0","1","1","0","0","1","0","0","1","1","1","1","0","1","5","2","1","2","1","3","2","5","1","2","634030444760793088","宋","698","","","","","","","","","","","","","","","","","","","","","","","","","","","","","","","","","","","","","","","",""
"773","<p style=""color:rgb(150, 250, 100); font-size: 35px;"">本人</p>","e","categorize-html","165","225175","0.0-6.0-1.0-8.0-1.28","3","4","4","3","2","4","3","3","4","4","5","4","5","4","4","4","5","4","4","5","1","1","1","2","2","1","1","2","1","0","0","1","1","0","0","1","0","0","1","1","1","1","0","1","5","2","1","2","1","3","2","5","1","2","634030444760793088","宋","698","","","","","","","","","","","","","","","","","","","true","14","4","moral","773","self","本人","","","","","","","","","","","","","","",""
"null","","null","html-keyboard-response","166","225426","0.0-6.0-1.0-8.0-0.29","3","4","4","3","2","4","3","3","4","4","5","4","5","4","4","4","5","4","4","5","1","1","1","2","2","1","1","2","1","0","0","1","1","0","0","1","0","0","1","1","1","1","0","1","5","2","1","2","1","3","2","5","1","2","634030444760793088","宋","698","","","","","","","","","","","","","","","","","","","","","","","","","","","","","","","","","","","","","","","",""
"765","<p style=""color:white; font-size: 35px;"">不仁</p>","e","categorize-html","167","226193","0.0-6.0-1.0-8.0-1.29","3","4","4","3","2","4","3","3","4","4","5","4","5","4","4","4","5","4","4","5","1","1","1","2","2","1","1","2","1","0","0","1","1","0","0","1","0","0","1","1","1","1","0","1","5","2","1","2","1","3","2","5","1","2","634030444760793088","宋","698","","","","","","","","","","","","","","","","","","","true","14","4","moral","765","negative","不仁","","","","","","","","","","","","","","",""
"null","","null","html-keyboard-response","168","226445","0.0-6.0-1.0-8.0-0.30","3","4","4","3","2","4","3","3","4","4","5","4","5","4","4","4","5","4","4","5","1","1","1","2","2","1","1","2","1","0","0","1","1","0","0","1","0","0","1","1","1","1","0","1","5","2","1","2","1","3","2","5","1","2","634030444760793088","宋","698","","","","","","","","","","","","","","","","","","","","","","","","","","","","","","","","","","","","","","","",""
"682","<p style=""color:rgb(150, 250, 100); font-size: 35px;"">别人</p>","i","categorize-html","169","227129","0.0-6.0-1.0-8.0-1.30","3","4","4","3","2","4","3","3","4","4","5","4","5","4","4","4","5","4","4","5","1","1","1","2","2","1","1","2","1","0","0","1","1","0","0","1","0","0","1","1","1","1","0","1","5","2","1","2","1","3","2","5","1","2","634030444760793088","宋","698","","","","","","","","","","","","","","","","","","","true","14","4","moral","682","other","别人","","","","","","","","","","","","","","",""
"null","","null","html-keyboard-response","170","227380","0.0-6.0-1.0-8.0-0.31","3","4","4","3","2","4","3","3","4","4","5","4","5","4","4","4","5","4","4","5","1","1","1","2","2","1","1","2","1","0","0","1","1","0","0","1","0","0","1","1","1","1","0","1","5","2","1","2","1","3","2","5","1","2","634030444760793088","宋","698","","","","","","","","","","","","","","","","","","","","","","","","","","","","","","","","","","","","","","","",""
"803","<p style=""color:white; font-size: 35px;"">善良</p>","i","categorize-html","171","228185","0.0-6.0-1.0-8.0-1.31","3","4","4","3","2","4","3","3","4","4","5","4","5","4","4","4","5","4","4","5","1","1","1","2","2","1","1","2","1","0","0","1","1","0","0","1","0","0","1","1","1","1","0","1","5","2","1","2","1","3","2","5","1","2","634030444760793088","宋","698","","","","","","","","","","","","","","","","","","","true","14","4","moral","803","positive","善良","","","","","","","","","","","","","","",""
"null","","null","html-keyboard-response","172","228437","0.0-6.0-1.0-8.0-0.32","3","4","4","3","2","4","3","3","4","4","5","4","5","4","4","4","5","4","4","5","1","1","1","2","2","1","1","2","1","0","0","1","1","0","0","1","0","0","1","1","1","1","0","1","5","2","1","2","1","3","2","5","1","2","634030444760793088","宋","698","","","","","","","","","","","","","","","","","","","","","","","","","","","","","","","","","","","","","","","",""
"685","<p style=""color:rgb(150, 250, 100); font-size: 35px;"">本人的</p>","e","categorize-html","173","229124","0.0-6.0-1.0-8.0-1.32","3","4","4","3","2","4","3","3","4","4","5","4","5","4","4","4","5","4","4","5","1","1","1","2","2","1","1","2","1","0","0","1","1","0","0","1","0","0","1","1","1","1","0","1","5","2","1","2","1","3","2","5","1","2","634030444760793088","宋","698","","","","","","","","","","","","","","","","","","","true","14","4","moral","685","self","本人的","","","","","","","","","","","","","","",""
"null","","null","html-keyboard-response","174","229376","0.0-6.0-1.0-8.0-0.33","3","4","4","3","2","4","3","3","4","4","5","4","5","4","4","4","5","4","4","5","1","1","1","2","2","1","1","2","1","0","0","1","1","0","0","1","0","0","1","1","1","1","0","1","5","2","1","2","1","3","2","5","1","2","634030444760793088","宋","698","","","","","","","","","","","","","","","","","","","","","","","","","","","","","","","","","","","","","","","",""
"1308","<p style=""color:white; font-size: 35px;"">小人</p>","e","categorize-html","175","230686","0.0-6.0-1.0-8.0-1.33","3","4","4","3","2","4","3","3","4","4","5","4","5","4","4","4","5","4","4","5","1","1","1","2","2","1","1","2","1","0","0","1","1","0","0","1","0","0","1","1","1","1","0","1","5","2","1","2","1","3","2","5","1","2","634030444760793088","宋","698","","","","","","","","","","","","","","","","","","","true","14","4","moral","1308","negative","小人","","","","","","","","","","","","","","",""
"null","","null","html-keyboard-response","176","230937","0.0-6.0-1.0-8.0-0.34","3","4","4","3","2","4","3","3","4","4","5","4","5","4","4","4","5","4","4","5","1","1","1","2","2","1","1","2","1","0","0","1","1","0","0","1","0","0","1","1","1","1","0","1","5","2","1","2","1","3","2","5","1","2","634030444760793088","宋","698","","","","","","","","","","","","","","","","","","","","","","","","","","","","","","","","","","","","","","","",""
"769","<p style=""color:rgb(150, 250, 100); font-size: 35px;"">他的</p>","i","categorize-html","177","231710","0.0-6.0-1.0-8.0-1.34","3","4","4","3","2","4","3","3","4","4","5","4","5","4","4","4","5","4","4","5","1","1","1","2","2","1","1","2","1","0","0","1","1","0","0","1","0","0","1","1","1","1","0","1","5","2","1","2","1","3","2","5","1","2","634030444760793088","宋","698","","","","","","","","","","","","","","","","","","","true","14","4","moral","769","other","他的","","","","","","","","","","","","","","",""
"null","","null","html-keyboard-response","178","231961","0.0-6.0-1.0-8.0-0.35","3","4","4","3","2","4","3","3","4","4","5","4","5","4","4","4","5","4","4","5","1","1","1","2","2","1","1","2","1","0","0","1","1","0","0","1","0","0","1","1","1","1","0","1","5","2","1","2","1","3","2","5","1","2","634030444760793088","宋","698","","","","","","","","","","","","","","","","","","","","","","","","","","","","","","","","","","","","","","","",""
"793","<p style=""color:white; font-size: 35px;"">诚信</p>","i","categorize-html","179","232756","0.0-6.0-1.0-8.0-1.35","3","4","4","3","2","4","3","3","4","4","5","4","5","4","4","4","5","4","4","5","1","1","1","2","2","1","1","2","1","0","0","1","1","0","0","1","0","0","1","1","1","1","0","1","5","2","1","2","1","3","2","5","1","2","634030444760793088","宋","698","","","","","","","","","","","","","","","","","","","true","14","4","moral","793","positive","诚信","","","","","","","","","","","","","","",""
"null","","null","html-keyboard-response","180","233007","0.0-6.0-1.0-8.0-0.36","3","4","4","3","2","4","3","3","4","4","5","4","5","4","4","4","5","4","4","5","1","1","1","2","2","1","1","2","1","0","0","1","1","0","0","1","0","0","1","1","1","1","0","1","5","2","1","2","1","3","2","5","1","2","634030444760793088","宋","698","","","","","","","","","","","","","","","","","","","","","","","","","","","","","","","","","","","","","","","",""
"708","<p style=""color:rgb(150, 250, 100); font-size: 35px;"">他</p>","i","categorize-html","181","233717","0.0-6.0-1.0-8.0-1.36","3","4","4","3","2","4","3","3","4","4","5","4","5","4","4","4","5","4","4","5","1","1","1","2","2","1","1","2","1","0","0","1","1","0","0","1","0","0","1","1","1","1","0","1","5","2","1","2","1","3","2","5","1","2","634030444760793088","宋","698","","","","","","","","","","","","","","","","","","","true","14","4","moral","708","other","他","","","","","","","","","","","","","","",""
"null","","null","html-keyboard-response","182","233968","0.0-6.0-1.0-8.0-0.37","3","4","4","3","2","4","3","3","4","4","5","4","5","4","4","4","5","4","4","5","1","1","1","2","2","1","1","2","1","0","0","1","1","0","0","1","0","0","1","1","1","1","0","1","5","2","1","2","1","3","2","5","1","2","634030444760793088","宋","698","","","","","","","","","","","","","","","","","","","","","","","","","","","","","","","","","","","","","","","",""
"605","<p style=""color:white; font-size: 35px;"">善良</p>","i","categorize-html","183","234575","0.0-6.0-1.0-8.0-1.37","3","4","4","3","2","4","3","3","4","4","5","4","5","4","4","4","5","4","4","5","1","1","1","2","2","1","1","2","1","0","0","1","1","0","0","1","0","0","1","1","1","1","0","1","5","2","1","2","1","3","2","5","1","2","634030444760793088","宋","698","","","","","","","","","","","","","","","","","","","true","14","4","moral","605","positive","善良","","","","","","","","","","","","","","",""
"null","","null","html-keyboard-response","184","234828","0.0-6.0-1.0-8.0-0.38","3","4","4","3","2","4","3","3","4","4","5","4","5","4","4","4","5","4","4","5","1","1","1","2","2","1","1","2","1","0","0","1","1","0","0","1","0","0","1","1","1","1","0","1","5","2","1","2","1","3","2","5","1","2","634030444760793088","宋","698","","","","","","","","","","","","","","","","","","","","","","","","","","","","","","","","","","","","","","","",""
"758","<p style=""color:rgb(150, 250, 100); font-size: 35px;"">本人的</p>","e","categorize-html","185","235589","0.0-6.0-1.0-8.0-1.38","3","4","4","3","2","4","3","3","4","4","5","4","5","4","4","4","5","4","4","5","1","1","1","2","2","1","1","2","1","0","0","1","1","0","0","1","0","0","1","1","1","1","0","1","5","2","1","2","1","3","2","5","1","2","634030444760793088","宋","698","","","","","","","","","","","","","","","","","","","true","14","4","moral","758","self","本人的","","","","","","","","","","","","","","",""
"null","","null","html-keyboard-response","186","235840","0.0-6.0-1.0-8.0-0.39","3","4","4","3","2","4","3","3","4","4","5","4","5","4","4","4","5","4","4","5","1","1","1","2","2","1","1","2","1","0","0","1","1","0","0","1","0","0","1","1","1","1","0","1","5","2","1","2","1","3","2","5","1","2","634030444760793088","宋","698","","","","","","","","","","","","","","","","","","","","","","","","","","","","","","","","","","","","","","","",""
"1224","<p style=""color:white; font-size: 35px;"">缺德</p>","e","categorize-html","187","237066","0.0-6.0-1.0-8.0-1.39","3","4","4","3","2","4","3","3","4","4","5","4","5","4","4","4","5","4","4","5","1","1","1","2","2","1","1","2","1","0","0","1","1","0","0","1","0","0","1","1","1","1","0","1","5","2","1","2","1","3","2","5","1","2","634030444760793088","宋","698","","","","","","","","","","","","","","","","","","","true","14","4","moral","1224","negative","缺德","","","","","","","","","","","","","","",""
"null","","null","html-keyboard-response","188","237318","0.0-6.0-1.0-8.0-0.40","3","4","4","3","2","4","3","3","4","4","5","4","5","4","4","4","5","4","4","5","1","1","1","2","2","1","1","2","1","0","0","1","1","0","0","1","0","0","1","1","1","1","0","1","5","2","1","2","1","3","2","5","1","2","634030444760793088","宋","698","","","","","","","","","","","","","","","","","","","","","","","","","","","","","","","","","","","","","","","",""
"689","<p style=""color:rgb(150, 250, 100); font-size: 35px;"">别人的</p>","i","categorize-html","189","238009","0.0-6.0-1.0-8.0-1.40","3","4","4","3","2","4","3","3","4","4","5","4","5","4","4","4","5","4","4","5","1","1","1","2","2","1","1","2","1","0","0","1","1","0","0","1","0","0","1","1","1","1","0","1","5","2","1","2","1","3","2","5","1","2","634030444760793088","宋","698","","","","","","","","","","","","","","","","","","","true","14","4","moral","689","other","别人的","","","","","","","","","","","","","","",""
"null","","null","html-keyboard-response","190","238261","0.0-6.0-1.0-8.0-0.41","3","4","4","3","2","4","3","3","4","4","5","4","5","4","4","4","5","4","4","5","1","1","1","2","2","1","1","2","1","0","0","1","1","0","0","1","0","0","1","1","1","1","0","1","5","2","1","2","1","3","2","5","1","2","634030444760793088","宋","698","","","","","","","","","","","","","","","","","","","","","","","","","","","","","","","","","","","","","","","",""
"819","<p style=""color:white; font-size: 35px;"">高尚</p>","i","categorize-html","191","239082","0.0-6.0-1.0-8.0-1.41","3","4","4","3","2","4","3","3","4","4","5","4","5","4","4","4","5","4","4","5","1","1","1","2","2","1","1","2","1","0","0","1","1","0","0","1","0","0","1","1","1","1","0","1","5","2","1","2","1","3","2","5","1","2","634030444760793088","宋","698","","","","","","","","","","","","","","","","","","","true","14","4","moral","819","positive","高尚","","","","","","","","","","","","","","",""
"null","","null","html-keyboard-response","192","239334","0.0-6.0-1.0-8.0-0.42","3","4","4","3","2","4","3","3","4","4","5","4","5","4","4","4","5","4","4","5","1","1","1","2","2","1","1","2","1","0","0","1","1","0","0","1","0","0","1","1","1","1","0","1","5","2","1","2","1","3","2","5","1","2","634030444760793088","宋","698","","","","","","","","","","","","","","","","","","","","","","","","","","","","","","","","","","","","","","","",""
"639","<p style=""color:rgb(150, 250, 100); font-size: 35px;"">我的</p>","e","categorize-html","193","239975","0.0-6.0-1.0-8.0-1.42","3","4","4","3","2","4","3","3","4","4","5","4","5","4","4","4","5","4","4","5","1","1","1","2","2","1","1","2","1","0","0","1","1","0","0","1","0","0","1","1","1","1","0","1","5","2","1","2","1","3","2","5","1","2","634030444760793088","宋","698","","","","","","","","","","","","","","","","","","","true","14","4","moral","639","self","我的","","","","","","","","","","","","","","",""
"null","","null","html-keyboard-response","194","240227","0.0-6.0-1.0-8.0-0.43","3","4","4","3","2","4","3","3","4","4","5","4","5","4","4","4","5","4","4","5","1","1","1","2","2","1","1","2","1","0","0","1","1","0","0","1","0","0","1","1","1","1","0","1","5","2","1","2","1","3","2","5","1","2","634030444760793088","宋","698","","","","","","","","","","","","","","","","","","","","","","","","","","","","","","","","","","","","","","","",""
"524","<p style=""color:white; font-size: 35px;"">小人</p>","e","categorize-html","195","240753","0.0-6.0-1.0-8.0-1.43","3","4","4","3","2","4","3","3","4","4","5","4","5","4","4","4","5","4","4","5","1","1","1","2","2","1","1","2","1","0","0","1","1","0","0","1","0","0","1","1","1","1","0","1","5","2","1","2","1","3","2","5","1","2","634030444760793088","宋","698","","","","","","","","","","","","","","","","","","","true","14","4","moral","524","negative","小人","","","","","","","","","","","","","","",""
"null","","null","html-keyboard-response","196","241005","0.0-6.0-1.0-8.0-0.44","3","4","4","3","2","4","3","3","4","4","5","4","5","4","4","4","5","4","4","5","1","1","1","2","2","1","1","2","1","0","0","1","1","0","0","1","0","0","1","1","1","1","0","1","5","2","1","2","1","3","2","5","1","2","634030444760793088","宋","698","","","","","","","","","","","","","","","","","","","","","","","","","","","","","","","","","","","","","","","",""
"491","<p style=""color:rgb(150, 250, 100); font-size: 35px;"">自己的</p>","e","categorize-html","197","241498","0.0-6.0-1.0-8.0-1.44","3","4","4","3","2","4","3","3","4","4","5","4","5","4","4","4","5","4","4","5","1","1","1","2","2","1","1","2","1","0","0","1","1","0","0","1","0","0","1","1","1","1","0","1","5","2","1","2","1","3","2","5","1","2","634030444760793088","宋","698","","","","","","","","","","","","","","","","","","","true","14","4","moral","491","self","自己的","","","","","","","","","","","","","","",""
