"rt","stimulus","response","trial_type","trial_index","time_elapsed","internal_node_id","ses_1","ses_2","ses_3","ses_4","ses_5","ses_6","ses_7","ses_8","ses_9","ses_10","coreself_1","coreself_2","coreself_3","coreself_4","coreself_5","coreself_6","coreself_7","coreself_8","coreself_9","coreself_10","SGPS_1","SGPS_2","SGPS_3","SGPS_4","SGPS_5","SGPS_6","SGPS_7","SGPS_8","SGPS_9","NPI1","NPI2","NPI3","NPI4","NPI5","NPI6","NPI7","NPI8","NPI9","NPI10","NPI11","NPI12","NPI13","NPI14","NPI15","hsns_1","hsns_2","hsns_3","hsns_4","hsns_5","hsns_6","hsns_7","hsns_8","hsns_9","hsns_10","subj_idx","friend_name","ParticipantID","value","success","user_agent","responses","item_order","radio_event_ids","radio_event_times","key_event_times","mouse_event_times","straightlining","zigzagging","honeypot","timeout","failed_images","failed_audio","failed_video","view_history","response_type","key_press","avg_frame_time","center_x","center_y","correct_response","correct","identity","Image","word","condition","task_id","screen_id","time_stamp","version_attrib2","version_target2","IAT","RT","varname","summary","version_attrib","version_target","question_order"
"1107","
   <p><div style = ""color: white;font-size:25px;"">您好，欢迎参加本次实验。</div> </p>
   <p><div style = ""color: white;font-size:25px;"">为充分保障您的权利，请确保您已经知晓并同意《参与实验同意书》以及《数据公开知情同意书》。</div></p>
   <p><div style = ""color: white;font-size:25px;"">如果您未见过上述内容，请咨询实验员。</div></p>
   <p><div style = ""color: white;font-size:25px;"">如果您选择继续实验，则表示您已经清楚两份知情同意书的内容并同意。</div></p>
   <p><div style = ""color: red;font-size:30px;"">请确保您记得day0的实验编号，您将在本次实验输入该编号，若您忘记，请咨询实验员后作答。</div></p>
   <p> <div style = ""color: green;font-size:25px;""><按空格键至下页></div> </p>
   "," ","html-keyboard-response","0","1113","0.0-0.0","4","4","3","3","4","3","3","3","3","4","4","3","3","4","3","4","3","3","4","4","1","1","2","2","2","2","2","2","1","1","0","1","1","0","0","1","1","0","1","1","0","1","0","1","5","3","3","1","3","3","4","4","3","2","740167970172702721","陈","48","","","","","","","","","","","","","","","","","","","","","","","","","","","","","","","","","","","","","","","",""
"","","","call-function","1","1115","0.0-1.0-0.0","4","4","3","3","4","3","3","3","3","4","4","3","3","4","3","4","3","3","4","4","1","1","2","2","2","2","2","2","1","1","0","1","1","0","0","1","1","0","1","1","0","1","0","1","5","3","3","1","3","3","4","4","3","2","740167970172702721","陈","48","","","","","","","","","","","","","","","","","","","","","","","","","","","","","","","","","","","","","","","",""
"17067","","{""friend_name"":""陈"",""ParticipantID"":""48""}","survey-html-form","2","18184","0.0-1.0-1.0","4","4","3","3","4","3","3","3","3","4","4","3","3","4","3","4","3","3","4","4","1","1","2","2","2","2","2","2","1","1","0","1","1","0","0","1","1","0","1","1","0","1","0","1","5","3","3","1","3","3","4","4","3","2","740167970172702721","陈","48","","","","","","","","","","","","","","","","","","","","","","","","","","","","","","","","","","","","","","","",""
"","","","fullscreen","3","19305","0.0-2.0","4","4","3","3","4","3","3","3","3","4","4","3","3","4","3","4","3","3","4","4","1","1","2","2","2","2","2","2","1","1","0","1","1","0","0","1","1","0","1","1","0","1","0","1","5","3","3","1","3","3","4","4","3","2","740167970172702721","陈","48","","true","{}","","","","","","","","","","","","","","","","","","","","","","","","","","","","","","","","","","","","",""
"15509.699999999255","","{""Q01"":""4"",""Q02"":""4"",""Q03"":""3"",""Q04"":""3"",""Q05"":""4"",""Q06"":""3"",""Q07"":""3"",""Q08"":""3"",""Q09"":""3"",""Q10"":""4""}","survey-template","4","34820","0.0-3.0","4","4","3","3","4","3","3","3","3","4","4","3","3","4","3","4","3","3","4","4","1","1","2","2","2","2","2","2","1","1","0","1","1","0","0","1","1","0","1","1","0","1","0","1","5","3","3","1","3","3","4","4","3","2","740167970172702721","陈","48","","","","{""Q01"":""4"",""Q02"":""4"",""Q03"":""3"",""Q04"":""3"",""Q05"":""4"",""Q06"":""3"",""Q07"":""3"",""Q08"":""3"",""Q09"":""3"",""Q10"":""4""}","[0,1,2,3,4,5,6,7,8,9]","[""Q01"",""Q02"",""Q03"",""Q04"",""Q05"",""Q06"",""Q07"",""Q08"",""Q09"",""Q10""]","[2498.800000000745,3690.9000000003725,5722.800000000745,6730.800000000745,9946.800000000745,10594.300000000745,11826.599999999627,13410.400000000373,14130.400000000373,14674.5]","[]","[2498.800000000745,3690.9000000003725,5722.800000000745,6314.9000000003725,6730.800000000745,8898.699999999255,9682.699999999255,9946.800000000745,10594.300000000745,11826.599999999627,13410.400000000373,14130.400000000373,14674.5,15506.599999999627]","0.3","0.3333333333333333","0","","","","","","","","","","","","","","","","","","","","","","","","","","","",""
"19612.299999998882","","{""Q01"":""4"",""Q02"":""3"",""Q03"":""3"",""Q04"":""4"",""Q05"":""3"",""Q06"":""4"",""Q07"":""3"",""Q08"":""3"",""Q09"":""4"",""Q10"":""4""}","survey-template","5","54451","0.0-4.0","4","4","3","3","4","3","3","3","3","4","4","3","3","4","3","4","3","3","4","4","1","1","2","2","2","2","2","2","1","1","0","1","1","0","0","1","1","0","1","1","0","1","0","1","5","3","3","1","3","3","4","4","3","2","740167970172702721","陈","48","","","","{""Q01"":""4"",""Q02"":""3"",""Q03"":""3"",""Q04"":""4"",""Q05"":""3"",""Q06"":""4"",""Q07"":""3"",""Q08"":""3"",""Q09"":""4"",""Q10"":""4""}","[0,1,2,3,4,5,6,7,8,9]","[""Q01"",""Q02"",""Q03"",""Q04"",""Q05"",""Q06"",""Q07"",""Q08"",""Q09"",""Q10""]","[4688.5,5849.0999999996275,7592.799999998882,8520.89999999851,10153,13896.89999999851,14616.89999999851,16512.799999998882,17552.799999998882,18944.699999999255]","[]","[4688.5,5849.0999999996275,7592.799999998882,8520.89999999851,10153,13896.89999999851,14616.89999999851,16512.799999998882,17552.799999998882,18688.89999999851,18944.699999999255,19608.89999999851]","0.5","0.6666666666666666","0","","","","","","","","","","","","","","","","","","","","","","","","","","","",""
"","","","preload","6","54708","0.0-5.0","4","4","3","3","4","3","3","3","3","4","4","3","3","4","3","4","3","3","4","4","1","1","2","2","2","2","2","2","1","1","0","1","1","0","0","1","1","0","1","1","0","1","0","1","5","3","3","1","3","3","4","4","3","2","740167970172702721","陈","48","","true","","","","","","","","","","","false","[]","[]","[]","","","","","","","","","","","","","","","","","","","","","","","",""
"992","","","instructions","7","55702","0.0-6.0","4","4","3","3","4","3","3","3","3","4","4","3","3","4","3","4","3","3","4","4","1","1","2","2","2","2","2","2","1","1","0","1","1","0","0","1","1","0","1","1","0","1","0","1","5","3","3","1","3","3","4","4","3","2","740167970172702721","陈","48","","","","","","","","","","","","","","","","","[{""page_index"":0,""viewing_time"":992}]","","","","","","","","","","","","","","","","","","","","","","",""
"12189","","","instructions","8","67896","0.0-7.0-0.0-0.0","4","4","3","3","4","3","3","3","3","4","4","3","3","4","3","4","3","3","4","4","1","1","2","2","2","2","2","2","1","1","0","1","1","0","0","1","1","0","1","1","0","1","0","1","5","3","3","1","3","3","4","4","3","2","740167970172702721","陈","48","","","","","","","","","","","","","","","","","[{""page_index"":0,""viewing_time"":10013},{""page_index"":1,""viewing_time"":1128},{""page_index"":2,""viewing_time"":1048}]","","","","","","","","","","","","","","","","","","","","","","",""
"897","","j","psychophysics","9","69807","0.0-7.0-0.0-1.0-0.0-0.0","4","4","3","3","4","3","3","3","3","4","4","3","3","4","3","4","3","3","4","4","1","1","2","2","2","2","2","2","1","1","0","1","1","0","0","1","1","0","1","1","0","1","0","1","5","3","3","1","3","3","4","4","3","2","740167970172702721","陈","48","","","","nonmatch","","","","","","","","","","","","","","key","j","16.969354545454554","683","380","j","true","nonmatch","img/hexagon.png","梯形","六边","ALT1_1","prac_ALT1_1","","","","","","","","","",""
"null","<span style='color:GreenYellow; font-size: 70px;'>正确! </span>","null","html-keyboard-response","10","70310","0.0-7.0-0.0-1.0-0.0-1.0","4","4","3","3","4","3","3","3","3","4","4","3","3","4","3","4","3","3","4","4","1","1","2","2","2","2","2","2","1","1","0","1","1","0","0","1","1","0","1","1","0","1","0","1","5","3","3","1","3","3","4","4","3","2","740167970172702721","陈","48","","","","","","","","","","","","","","","","","","","","","","","","","","","","","","feedback_test","","","","","","","","","",""
"670","","f","psychophysics","11","71984","0.0-7.0-0.0-1.0-0.0-0.1","4","4","3","3","4","3","3","3","3","4","4","3","3","4","3","4","3","3","4","4","1","1","2","2","2","2","2","2","1","1","0","1","1","0","0","1","1","0","1","1","0","1","0","1","5","3","3","1","3","3","4","4","3","2","740167970172702721","陈","48","","","","match","","","","","","","","","","","","","","key","f","16.66889898989904","683","380","f","true","match","img/ellipse.png","椭圆","椭圆","ALT1_1","prac_ALT1_1","","","","","","","","","",""
"null","<span style='color:GreenYellow; font-size: 70px;'>正确! </span>","null","html-keyboard-response","12","72486","0.0-7.0-0.0-1.0-0.0-1.1","4","4","3","3","4","3","3","3","3","4","4","3","3","4","3","4","3","3","4","4","1","1","2","2","2","2","2","2","1","1","0","1","1","0","0","1","1","0","1","1","0","1","0","1","5","3","3","1","3","3","4","4","3","2","740167970172702721","陈","48","","","","","","","","","","","","","","","","","","","","","","","","","","","","","","feedback_test","","","","","","","","","",""
"687","","f","psychophysics","13","74183","0.0-7.0-0.0-1.0-0.0-0.2","4","4","3","3","4","3","3","3","3","4","4","3","3","4","3","4","3","3","4","4","1","1","2","2","2","2","2","2","1","1","0","1","1","0","0","1","1","0","1","1","0","1","0","1","5","3","3","1","3","3","4","4","3","2","740167970172702721","陈","48","","","","match","","","","","","","","","","","","","","key","f","16.836010000000098","683","380","f","true","match","img/trapezoid.png","梯形","梯形","ALT1_1","prac_ALT1_1","","","","","","","","","",""
"null","<span style='color:GreenYellow; font-size: 70px;'>正确! </span>","null","html-keyboard-response","14","74686","0.0-7.0-0.0-1.0-0.0-1.2","4","4","3","3","4","3","3","3","3","4","4","3","3","4","3","4","3","3","4","4","1","1","2","2","2","2","2","2","1","1","0","1","1","0","0","1","1","0","1","1","0","1","0","1","5","3","3","1","3","3","4","4","3","2","740167970172702721","陈","48","","","","","","","","","","","","","","","","","","","","","","","","","","","","","","feedback_test","","","","","","","","","",""
"668","","f","psychophysics","15","76367","0.0-7.0-0.0-1.0-0.0-0.3","4","4","3","3","4","3","3","3","3","4","4","3","3","4","3","4","3","3","4","4","1","1","2","2","2","2","2","2","1","1","0","1","1","0","0","1","1","0","1","1","0","1","0","1","5","3","3","1","3","3","4","4","3","2","740167970172702721","陈","48","","","","match","","","","","","","","","","","","","","key","f","16.998846938775536","683","380","f","true","match","img/hexagon.png","六边","六边","ALT1_1","prac_ALT1_1","","","","","","","","","",""
"null","<span style='color:GreenYellow; font-size: 70px;'>正确! </span>","null","html-keyboard-response","16","76870","0.0-7.0-0.0-1.0-0.0-1.3","4","4","3","3","4","3","3","3","3","4","4","3","3","4","3","4","3","3","4","4","1","1","2","2","2","2","2","2","1","1","0","1","1","0","0","1","1","0","1","1","0","1","0","1","5","3","3","1","3","3","4","4","3","2","740167970172702721","陈","48","","","","","","","","","","","","","","","","","","","","","","","","","","","","","","feedback_test","","","","","","","","","",""
"648","","f","psychophysics","17","78530","0.0-7.0-0.0-1.0-0.0-0.4","4","4","3","3","4","3","3","3","3","4","4","3","3","4","3","4","3","3","4","4","1","1","2","2","2","2","2","2","1","1","0","1","1","0","0","1","1","0","1","1","0","1","0","1","5","3","3","1","3","3","4","4","3","2","740167970172702721","陈","48","","","","match","","","","","","","","","","","","","","key","f","16.6631734693877","683","380","f","true","match","img/hexagon.png","六边","六边","ALT1_1","prac_ALT1_1","","","","","","","","","",""
"null","<span style='color:GreenYellow; font-size: 70px;'>正确! </span>","null","html-keyboard-response","18","79038","0.0-7.0-0.0-1.0-0.0-1.4","4","4","3","3","4","3","3","3","3","4","4","3","3","4","3","4","3","3","4","4","1","1","2","2","2","2","2","2","1","1","0","1","1","0","0","1","1","0","1","1","0","1","0","1","5","3","3","1","3","3","4","4","3","2","740167970172702721","陈","48","","","","","","","","","","","","","","","","","","","","","","","","","","","","","","feedback_test","","","","","","","","","",""
"881","","f","psychophysics","19","80928","0.0-7.0-0.0-1.0-0.0-0.5","4","4","3","3","4","3","3","3","3","4","4","3","3","4","3","4","3","3","4","4","1","1","2","2","2","2","2","2","1","1","0","1","1","0","0","1","1","0","1","1","0","1","0","1","5","3","3","1","3","3","4","4","3","2","740167970172702721","陈","48","","","","match","","","","","","","","","","","","","","key","f","16.658928571428596","683","380","f","true","match","img/diamond.png","菱形","菱形","ALT1_1","prac_ALT1_1","","","","","","","","","",""
"null","<span style='color:GreenYellow; font-size: 70px;'>正确! </span>","null","html-keyboard-response","20","81438","0.0-7.0-0.0-1.0-0.0-1.5","4","4","3","3","4","3","3","3","3","4","4","3","3","4","3","4","3","3","4","4","1","1","2","2","2","2","2","2","1","1","0","1","1","0","0","1","1","0","1","1","0","1","0","1","5","3","3","1","3","3","4","4","3","2","740167970172702721","陈","48","","","","","","","","","","","","","","","","","","","","","","","","","","","","","","feedback_test","","","","","","","","","",""
"1027","","j","psychophysics","21","83470","0.0-7.0-0.0-1.0-0.0-0.6","4","4","3","3","4","3","3","3","3","4","4","3","3","4","3","4","3","3","4","4","1","1","2","2","2","2","2","2","1","1","0","1","1","0","0","1","1","0","1","1","0","1","0","1","5","3","3","1","3","3","4","4","3","2","740167970172702721","陈","48","","","","nonmatch","","","","","","","","","","","","","","key","j","16.657842975206506","683","380","j","true","nonmatch","img/hexagon.png","椭圆","六边","ALT1_1","prac_ALT1_1","","","","","","","","","",""
"null","<span style='color:GreenYellow; font-size: 70px;'>正确! </span>","null","html-keyboard-response","22","83973","0.0-7.0-0.0-1.0-0.0-1.6","4","4","3","3","4","3","3","3","3","4","4","3","3","4","3","4","3","3","4","4","1","1","2","2","2","2","2","2","1","1","0","1","1","0","0","1","1","0","1","1","0","1","0","1","5","3","3","1","3","3","4","4","3","2","740167970172702721","陈","48","","","","","","","","","","","","","","","","","","","","","","","","","","","","","","feedback_test","","","","","","","","","",""
"756","","f","psychophysics","23","85735","0.0-7.0-0.0-1.0-0.0-0.7","4","4","3","3","4","3","3","3","3","4","4","3","3","4","3","4","3","3","4","4","1","1","2","2","2","2","2","2","1","1","0","1","1","0","0","1","1","0","1","1","0","1","0","1","5","3","3","1","3","3","4","4","3","2","740167970172702721","陈","48","","","","match","","","","","","","","","","","","","","key","f","16.678320388349498","683","380","f","true","match","img/trapezoid.png","梯形","梯形","ALT1_1","prac_ALT1_1","","","","","","","","","",""
"null","<span style='color:GreenYellow; font-size: 70px;'>正确! </span>","null","html-keyboard-response","24","86237","0.0-7.0-0.0-1.0-0.0-1.7","4","4","3","3","4","3","3","3","3","4","4","3","3","4","3","4","3","3","4","4","1","1","2","2","2","2","2","2","1","1","0","1","1","0","0","1","1","0","1","1","0","1","0","1","5","3","3","1","3","3","4","4","3","2","740167970172702721","陈","48","","","","","","","","","","","","","","","","","","","","","","","","","","","","","","feedback_test","","","","","","","","","",""
"903","","j","psychophysics","25","88151","0.0-7.0-0.0-1.0-0.0-0.8","4","4","3","3","4","3","3","3","3","4","4","3","3","4","3","4","3","3","4","4","1","1","2","2","2","2","2","2","1","1","0","1","1","0","0","1","1","0","1","1","0","1","0","1","5","3","3","1","3","3","4","4","3","2","740167970172702721","陈","48","","","","nonmatch","","","","","","","","","","","","","","key","j","16.811805309734613","683","380","j","true","nonmatch","img/ellipse.png","梯形","椭圆","ALT1_1","prac_ALT1_1","","","","","","","","","",""
"null","<span style='color:GreenYellow; font-size: 70px;'>正确! </span>","null","html-keyboard-response","26","88653","0.0-7.0-0.0-1.0-0.0-1.8","4","4","3","3","4","3","3","3","3","4","4","3","3","4","3","4","3","3","4","4","1","1","2","2","2","2","2","2","1","1","0","1","1","0","0","1","1","0","1","1","0","1","0","1","5","3","3","1","3","3","4","4","3","2","740167970172702721","陈","48","","","","","","","","","","","","","","","","","","","","","","","","","","","","","","feedback_test","","","","","","","","","",""
"720","","f","psychophysics","27","90383","0.0-7.0-0.0-1.0-0.0-0.9","4","4","3","3","4","3","3","3","3","4","4","3","3","4","3","4","3","3","4","4","1","1","2","2","2","2","2","2","1","1","0","1","1","0","0","1","1","0","1","1","0","1","0","1","5","3","3","1","3","3","4","4","3","2","740167970172702721","陈","48","","","","match","","","","","","","","","","","","","","key","f","16.659475728155265","683","380","f","true","match","img/hexagon.png","六边","六边","ALT1_1","prac_ALT1_1","","","","","","","","","",""
"null","<span style='color:GreenYellow; font-size: 70px;'>正确! </span>","null","html-keyboard-response","28","90885","0.0-7.0-0.0-1.0-0.0-1.9","4","4","3","3","4","3","3","3","3","4","4","3","3","4","3","4","3","3","4","4","1","1","2","2","2","2","2","2","1","1","0","1","1","0","0","1","1","0","1","1","0","1","0","1","5","3","3","1","3","3","4","4","3","2","740167970172702721","陈","48","","","","","","","","","","","","","","","","","","","","","","","","","","","","","","feedback_test","","","","","","","","","",""
"637","","f","psychophysics","29","92534","0.0-7.0-0.0-1.0-0.0-0.10","4","4","3","3","4","3","3","3","3","4","4","3","3","4","3","4","3","3","4","4","1","1","2","2","2","2","2","2","1","1","0","1","1","0","0","1","1","0","1","1","0","1","0","1","5","3","3","1","3","3","4","4","3","2","740167970172702721","陈","48","","","","match","","","","","","","","","","","","","","key","f","16.66870408163261","683","380","f","true","match","img/ellipse.png","椭圆","椭圆","ALT1_1","prac_ALT1_1","","","","","","","","","",""
"null","<span style='color:GreenYellow; font-size: 70px;'>正确! </span>","null","html-keyboard-response","30","93038","0.0-7.0-0.0-1.0-0.0-1.10","4","4","3","3","4","3","3","3","3","4","4","3","3","4","3","4","3","3","4","4","1","1","2","2","2","2","2","2","1","1","0","1","1","0","0","1","1","0","1","1","0","1","0","1","5","3","3","1","3","3","4","4","3","2","740167970172702721","陈","48","","","","","","","","","","","","","","","","","","","","","","","","","","","","","","feedback_test","","","","","","","","","",""
"985","","j","psychophysics","31","95031","0.0-7.0-0.0-1.0-0.0-0.11","4","4","3","3","4","3","3","3","3","4","4","3","3","4","3","4","3","3","4","4","1","1","2","2","2","2","2","2","1","1","0","1","1","0","0","1","1","0","1","1","0","1","0","1","5","3","3","1","3","3","4","4","3","2","740167970172702721","陈","48","","","","nonmatch","","","","","","","","","","","","","","key","j","16.665432203389773","683","380","j","true","nonmatch","img/ellipse.png","六边","椭圆","ALT1_1","prac_ALT1_1","","","","","","","","","",""
"null","<span style='color:GreenYellow; font-size: 70px;'>正确! </span>","null","html-keyboard-response","32","95534","0.0-7.0-0.0-1.0-0.0-1.11","4","4","3","3","4","3","3","3","3","4","4","3","3","4","3","4","3","3","4","4","1","1","2","2","2","2","2","2","1","1","0","1","1","0","0","1","1","0","1","1","0","1","0","1","5","3","3","1","3","3","4","4","3","2","740167970172702721","陈","48","","","","","","","","","","","","","","","","","","","","","","","","","","","","","","feedback_test","","","","","","","","","",""
"825","","f","psychophysics","33","97366","0.0-7.0-0.0-1.0-0.0-0.12","4","4","3","3","4","3","3","3","3","4","4","3","3","4","3","4","3","3","4","4","1","1","2","2","2","2","2","2","1","1","0","1","1","0","0","1","1","0","1","1","0","1","0","1","5","3","3","1","3","3","4","4","3","2","740167970172702721","陈","48","","","","match","","","","","","","","","","","","","","key","f","16.672467889908248","683","380","f","true","match","img/trapezoid.png","梯形","梯形","ALT1_1","prac_ALT1_1","","","","","","","","","",""
"null","<span style='color:GreenYellow; font-size: 70px;'>正确! </span>","null","html-keyboard-response","34","97870","0.0-7.0-0.0-1.0-0.0-1.12","4","4","3","3","4","3","3","3","3","4","4","3","3","4","3","4","3","3","4","4","1","1","2","2","2","2","2","2","1","1","0","1","1","0","0","1","1","0","1","1","0","1","0","1","5","3","3","1","3","3","4","4","3","2","740167970172702721","陈","48","","","","","","","","","","","","","","","","","","","","","","","","","","","","","","feedback_test","","","","","","","","","",""
"728","","f","psychophysics","35","99606","0.0-7.0-0.0-1.0-0.0-0.13","4","4","3","3","4","3","3","3","3","4","4","3","3","4","3","4","3","3","4","4","1","1","2","2","2","2","2","2","1","1","0","1","1","0","0","1","1","0","1","1","0","1","0","1","5","3","3","1","3","3","4","4","3","2","740167970172702721","陈","48","","","","match","","","","","","","","","","","","","","key","f","16.83787254901964","683","380","f","true","match","img/diamond.png","菱形","菱形","ALT1_1","prac_ALT1_1","","","","","","","","","",""
"null","<span style='color:GreenYellow; font-size: 70px;'>正确! </span>","null","html-keyboard-response","36","100110","0.0-7.0-0.0-1.0-0.0-1.13","4","4","3","3","4","3","3","3","3","4","4","3","3","4","3","4","3","3","4","4","1","1","2","2","2","2","2","2","1","1","0","1","1","0","0","1","1","0","1","1","0","1","0","1","5","3","3","1","3","3","4","4","3","2","740167970172702721","陈","48","","","","","","","","","","","","","","","","","","","","","","","","","","","","","","feedback_test","","","","","","","","","",""
"850","","j","psychophysics","37","101962","0.0-7.0-0.0-1.0-0.0-0.14","4","4","3","3","4","3","3","3","3","4","4","3","3","4","3","4","3","3","4","4","1","1","2","2","2","2","2","2","1","1","0","1","1","0","0","1","1","0","1","1","0","1","0","1","5","3","3","1","3","3","4","4","3","2","740167970172702721","陈","48","","","","nonmatch","","","","","","","","","","","","","","key","j","16.66660000000001","683","380","j","true","nonmatch","img/trapezoid.png","六边","梯形","ALT1_1","prac_ALT1_1","","","","","","","","","",""
"null","<span style='color:GreenYellow; font-size: 70px;'>正确! </span>","null","html-keyboard-response","38","102470","0.0-7.0-0.0-1.0-0.0-1.14","4","4","3","3","4","3","3","3","3","4","4","3","3","4","3","4","3","3","4","4","1","1","2","2","2","2","2","2","1","1","0","1","1","0","0","1","1","0","1","1","0","1","0","1","5","3","3","1","3","3","4","4","3","2","740167970172702721","陈","48","","","","","","","","","","","","","","","","","","","","","","","","","","","","","","feedback_test","","","","","","","","","",""
"855","","j","psychophysics","39","104334","0.0-7.0-0.0-1.0-0.0-0.15","4","4","3","3","4","3","3","3","3","4","4","3","3","4","3","4","3","3","4","4","1","1","2","2","2","2","2","2","1","1","0","1","1","0","0","1","1","0","1","1","0","1","0","1","5","3","3","1","3","3","4","4","3","2","740167970172702721","陈","48","","","","nonmatch","","","","","","","","","","","","","","key","j","16.656666666666663","683","380","j","true","nonmatch","img/trapezoid.png","菱形","梯形","ALT1_1","prac_ALT1_1","","","","","","","","","",""
"null","<span style='color:GreenYellow; font-size: 70px;'>正确! </span>","null","html-keyboard-response","40","104838","0.0-7.0-0.0-1.0-0.0-1.15","4","4","3","3","4","3","3","3","3","4","4","3","3","4","3","4","3","3","4","4","1","1","2","2","2","2","2","2","1","1","0","1","1","0","0","1","1","0","1","1","0","1","0","1","5","3","3","1","3","3","4","4","3","2","740167970172702721","陈","48","","","","","","","","","","","","","","","","","","","","","","","","","","","","","","feedback_test","","","","","","","","","",""
"898","","j","psychophysics","41","106745","0.0-7.0-0.0-1.0-0.0-0.16","4","4","3","3","4","3","3","3","3","4","4","3","3","4","3","4","3","3","4","4","1","1","2","2","2","2","2","2","1","1","0","1","1","0","0","1","1","0","1","1","0","1","0","1","5","3","3","1","3","3","4","4","3","2","740167970172702721","陈","48","","","","nonmatch","","","","","","","","","","","","","","key","j","16.812723214285793","683","380","j","true","nonmatch","img/trapezoid.png","椭圆","梯形","ALT1_1","prac_ALT1_1","","","","","","","","","",""
"null","<span style='color:GreenYellow; font-size: 70px;'>正确! </span>","null","html-keyboard-response","42","107254","0.0-7.0-0.0-1.0-0.0-1.16","4","4","3","3","4","3","3","3","3","4","4","3","3","4","3","4","3","3","4","4","1","1","2","2","2","2","2","2","1","1","0","1","1","0","0","1","1","0","1","1","0","1","0","1","5","3","3","1","3","3","4","4","3","2","740167970172702721","陈","48","","","","","","","","","","","","","","","","","","","","","","","","","","","","","","feedback_test","","","","","","","","","",""
"1114","","j","psychophysics","43","109375","0.0-7.0-0.0-1.0-0.0-0.17","4","4","3","3","4","3","3","3","3","4","4","3","3","4","3","4","3","3","4","4","1","1","2","2","2","2","2","2","1","1","0","1","1","0","0","1","1","0","1","1","0","1","0","1","5","3","3","1","3","3","4","4","3","2","740167970172702721","陈","48","","","","nonmatch","","","","","","","","","","","","","","key","j","16.78918400000001","683","380","j","true","nonmatch","img/diamond.png","梯形","菱形","ALT1_1","prac_ALT1_1","","","","","","","","","",""
"null","<span style='color:GreenYellow; font-size: 70px;'>正确! </span>","null","html-keyboard-response","44","109885","0.0-7.0-0.0-1.0-0.0-1.17","4","4","3","3","4","3","3","3","3","4","4","3","3","4","3","4","3","3","4","4","1","1","2","2","2","2","2","2","1","1","0","1","1","0","0","1","1","0","1","1","0","1","0","1","5","3","3","1","3","3","4","4","3","2","740167970172702721","陈","48","","","","","","","","","","","","","","","","","","","","","","","","","","","","","","feedback_test","","","","","","","","","",""
"737","","j","psychophysics","45","111631","0.0-7.0-0.0-1.0-0.0-0.18","4","4","3","3","4","3","3","3","3","4","4","3","3","4","3","4","3","3","4","4","1","1","2","2","2","2","2","2","1","1","0","1","1","0","0","1","1","0","1","1","0","1","0","1","5","3","3","1","3","3","4","4","3","2","740167970172702721","陈","48","","","","nonmatch","","","","","","","","","","","","","","key","j","16.662865384615333","683","380","j","true","nonmatch","img/diamond.png","椭圆","菱形","ALT1_1","prac_ALT1_1","","","","","","","","","",""
"null","<span style='color:GreenYellow; font-size: 70px;'>正确! </span>","null","html-keyboard-response","46","112133","0.0-7.0-0.0-1.0-0.0-1.18","4","4","3","3","4","3","3","3","3","4","4","3","3","4","3","4","3","3","4","4","1","1","2","2","2","2","2","2","1","1","0","1","1","0","0","1","1","0","1","1","0","1","0","1","5","3","3","1","3","3","4","4","3","2","740167970172702721","陈","48","","","","","","","","","","","","","","","","","","","","","","","","","","","","","","feedback_test","","","","","","","","","",""
"900","","j","psychophysics","47","114046","0.0-7.0-0.0-1.0-0.0-0.19","4","4","3","3","4","3","3","3","3","4","4","3","3","4","3","4","3","3","4","4","1","1","2","2","2","2","2","2","1","1","0","1","1","0","0","1","1","0","1","1","0","1","0","1","5","3","3","1","3","3","4","4","3","2","740167970172702721","陈","48","","","","nonmatch","","","","","","","","","","","","","","key","j","16.667315789473626","683","380","j","true","nonmatch","img/diamond.png","六边","菱形","ALT1_1","prac_ALT1_1","","","","","","","","","",""
"null","<span style='color:GreenYellow; font-size: 70px;'>正确! </span>","null","html-keyboard-response","48","114549","0.0-7.0-0.0-1.0-0.0-1.19","4","4","3","3","4","3","3","3","3","4","4","3","3","4","3","4","3","3","4","4","1","1","2","2","2","2","2","2","1","1","0","1","1","0","0","1","1","0","1","1","0","1","0","1","5","3","3","1","3","3","4","4","3","2","740167970172702721","陈","48","","","","","","","","","","","","","","","","","","","","","","","","","","","","","","feedback_test","","","","","","","","","",""
"687","","f","psychophysics","49","116246","0.0-7.0-0.0-1.0-0.0-0.20","4","4","3","3","4","3","3","3","3","4","4","3","3","4","3","4","3","3","4","4","1","1","2","2","2","2","2","2","1","1","0","1","1","0","0","1","1","0","1","1","0","1","0","1","5","3","3","1","3","3","4","4","3","2","740167970172702721","陈","48","","","","match","","","","","","","","","","","","","","key","f","16.6690297029703","683","380","f","true","match","img/ellipse.png","椭圆","椭圆","ALT1_1","prac_ALT1_1","","","","","","","","","",""
"null","<span style='color:GreenYellow; font-size: 70px;'>正确! </span>","null","html-keyboard-response","50","116749","0.0-7.0-0.0-1.0-0.0-1.20","4","4","3","3","4","3","3","3","3","4","4","3","3","4","3","4","3","3","4","4","1","1","2","2","2","2","2","2","1","1","0","1","1","0","0","1","1","0","1","1","0","1","0","1","5","3","3","1","3","3","4","4","3","2","740167970172702721","陈","48","","","","","","","","","","","","","","","","","","","","","","","","","","","","","","feedback_test","","","","","","","","","",""
"null","","null","psychophysics","51","118964","0.0-7.0-0.0-1.0-0.0-0.21","4","4","3","3","4","3","3","3","3","4","4","3","3","4","3","4","3","3","4","4","1","1","2","2","2","2","2","2","1","1","0","1","1","0","0","1","1","0","1","1","0","1","0","1","5","3","3","1","3","3","4","4","3","2","740167970172702721","陈","48","","","","null","","","","","","","","","","","","","","key","null","16.66687878787883","683","380","j","false","nonmatch","img/ellipse.png","菱形","椭圆","ALT1_1","prac_ALT1_1","","","","","","","","","",""
"null","<span class='add_' style='color:yellow; font-size: 70px;'> 太慢! </span>","null","html-keyboard-response","52","119469","0.0-7.0-0.0-1.0-0.0-1.21","4","4","3","3","4","3","3","3","3","4","4","3","3","4","3","4","3","3","4","4","1","1","2","2","2","2","2","2","1","1","0","1","1","0","0","1","1","0","1","1","0","1","0","1","5","3","3","1","3","3","4","4","3","2","740167970172702721","陈","48","","","","","","","","","","","","","","","","","","","","","","","","","","","","","","feedback_test","","","","","","","","","",""
"800","","f","psychophysics","53","121279","0.0-7.0-0.0-1.0-0.0-0.22","4","4","3","3","4","3","3","3","3","4","4","3","3","4","3","4","3","3","4","4","1","1","2","2","2","2","2","2","1","1","0","1","1","0","0","1","1","0","1","1","0","1","0","1","5","3","3","1","3","3","4","4","3","2","740167970172702721","陈","48","","","","match","","","","","","","","","","","","","","key","f","16.66367592592589","683","380","j","false","nonmatch","img/hexagon.png","菱形","六边","ALT1_1","prac_ALT1_1","","","","","","","","","",""
"null","<span style='color:red; font-size: 70px;'>错误! </span>","null","html-keyboard-response","54","121782","0.0-7.0-0.0-1.0-0.0-1.22","4","4","3","3","4","3","3","3","3","4","4","3","3","4","3","4","3","3","4","4","1","1","2","2","2","2","2","2","1","1","0","1","1","0","0","1","1","0","1","1","0","1","0","1","5","3","3","1","3","3","4","4","3","2","740167970172702721","陈","48","","","","","","","","","","","","","","","","","","","","","","","","","","","","","","feedback_test","","","","","","","","","",""
"872","","f","psychophysics","55","123663","0.0-7.0-0.0-1.0-0.0-0.23","4","4","3","3","4","3","3","3","3","4","4","3","3","4","3","4","3","3","4","4","1","1","2","2","2","2","2","2","1","1","0","1","1","0","0","1","1","0","1","1","0","1","0","1","5","3","3","1","3","3","4","4","3","2","740167970172702721","陈","48","","","","match","","","","","","","","","","","","","","key","f","16.664821428571486","683","380","f","true","match","img/diamond.png","菱形","菱形","ALT1_1","prac_ALT1_1","","","","","","","","","",""
"null","<span style='color:GreenYellow; font-size: 70px;'>正确! </span>","null","html-keyboard-response","56","124166","0.0-7.0-0.0-1.0-0.0-1.23","4","4","3","3","4","3","3","3","3","4","4","3","3","4","3","4","3","3","4","4","1","1","2","2","2","2","2","2","1","1","0","1","1","0","0","1","1","0","1","1","0","1","0","1","5","3","3","1","3","3","4","4","3","2","740167970172702721","陈","48","","","","","","","","","","","","","","","","","","","","","","","","","","","","","","feedback_test","","","","","","","","","",""
"891","","j","psychophysics","57","126071","0.0-7.0-0.0-1.0-0.0-0.24","4","4","3","3","4","3","3","3","3","4","4","3","3","4","3","4","3","3","4","4","1","1","2","2","2","2","2","2","1","1","0","1","1","0","0","1","1","0","1","1","0","1","0","1","5","3","3","1","3","3","4","4","3","2","740167970172702721","陈","48","","","","nonmatch","","","","","","","","","","","","","","key","j","16.670353982300885","683","380","j","true","nonmatch","img/trapezoid.png","菱形","梯形","ALT1_1","prac_ALT1_1","","","","","","","","","",""
"null","<span style='color:GreenYellow; font-size: 70px;'>正确! </span>","null","html-keyboard-response","58","126575","0.0-7.0-0.0-1.0-0.0-1.24","4","4","3","3","4","3","3","3","3","4","4","3","3","4","3","4","3","3","4","4","1","1","2","2","2","2","2","2","1","1","0","1","1","0","0","1","1","0","1","1","0","1","0","1","5","3","3","1","3","3","4","4","3","2","740167970172702721","陈","48","","","","","","","","","","","","","","","","","","","","","","","","","","","","","","feedback_test","","","","","","","","","",""
"837","","f","psychophysics","59","128415","0.0-7.0-0.0-1.0-0.0-0.25","4","4","3","3","4","3","3","3","3","4","4","3","3","4","3","4","3","3","4","4","1","1","2","2","2","2","2","2","1","1","0","1","1","0","0","1","1","0","1","1","0","1","0","1","5","3","3","1","3","3","4","4","3","2","740167970172702721","陈","48","","","","match","","","","","","","","","","","","","","key","f","16.67514678899083","683","380","j","false","nonmatch","img/diamond.png","梯形","菱形","ALT1_1","prac_ALT1_1","","","","","","","","","",""
"null","<span style='color:red; font-size: 70px;'>错误! </span>","null","html-keyboard-response","60","128919","0.0-7.0-0.0-1.0-0.0-1.25","4","4","3","3","4","3","3","3","3","4","4","3","3","4","3","4","3","3","4","4","1","1","2","2","2","2","2","2","1","1","0","1","1","0","0","1","1","0","1","1","0","1","0","1","5","3","3","1","3","3","4","4","3","2","740167970172702721","陈","48","","","","","","","","","","","","","","","","","","","","","","","","","","","","","","feedback_test","","","","","","","","","",""
"639","","f","psychophysics","61","130567","0.0-7.0-0.0-1.0-0.0-0.26","4","4","3","3","4","3","3","3","3","4","4","3","3","4","3","4","3","3","4","4","1","1","2","2","2","2","2","2","1","1","0","1","1","0","0","1","1","0","1","1","0","1","0","1","5","3","3","1","3","3","4","4","3","2","740167970172702721","陈","48","","","","match","","","","","","","","","","","","","","key","f","16.659572916666548","683","380","f","true","match","img/ellipse.png","椭圆","椭圆","ALT1_1","prac_ALT1_1","","","","","","","","","",""
"null","<span style='color:GreenYellow; font-size: 70px;'>正确! </span>","null","html-keyboard-response","62","131071","0.0-7.0-0.0-1.0-0.0-1.26","4","4","3","3","4","3","3","3","3","4","4","3","3","4","3","4","3","3","4","4","1","1","2","2","2","2","2","2","1","1","0","1","1","0","0","1","1","0","1","1","0","1","0","1","5","3","3","1","3","3","4","4","3","2","740167970172702721","陈","48","","","","","","","","","","","","","","","","","","","","","","","","","","","","","","feedback_test","","","","","","","","","",""
"692","","f","psychophysics","63","132767","0.0-7.0-0.0-1.0-0.0-0.27","4","4","3","3","4","3","3","3","3","4","4","3","3","4","3","4","3","3","4","4","1","1","2","2","2","2","2","2","1","1","0","1","1","0","0","1","1","0","1","1","0","1","0","1","5","3","3","1","3","3","4","4","3","2","740167970172702721","陈","48","","","","match","","","","","","","","","","","","","","key","f","16.673445544554564","683","380","f","true","match","img/trapezoid.png","梯形","梯形","ALT1_1","prac_ALT1_1","","","","","","","","","",""
"null","<span style='color:GreenYellow; font-size: 70px;'>正确! </span>","null","html-keyboard-response","64","133271","0.0-7.0-0.0-1.0-0.0-1.27","4","4","3","3","4","3","3","3","3","4","4","3","3","4","3","4","3","3","4","4","1","1","2","2","2","2","2","2","1","1","0","1","1","0","0","1","1","0","1","1","0","1","0","1","5","3","3","1","3","3","4","4","3","2","740167970172702721","陈","48","","","","","","","","","","","","","","","","","","","","","","","","","","","","","","feedback_test","","","","","","","","","",""
"885","","f","psychophysics","65","135163","0.0-7.0-0.0-1.0-0.0-0.28","4","4","3","3","4","3","3","3","3","4","4","3","3","4","3","4","3","3","4","4","1","1","2","2","2","2","2","2","1","1","0","1","1","0","0","1","1","0","1","1","0","1","0","1","5","3","3","1","3","3","4","4","3","2","740167970172702721","陈","48","","","","match","","","","","","","","","","","","","","key","f","16.669566371681352","683","380","f","true","match","img/diamond.png","菱形","菱形","ALT1_1","prac_ALT1_1","","","","","","","","","",""
"null","<span style='color:GreenYellow; font-size: 70px;'>正确! </span>","null","html-keyboard-response","66","135670","0.0-7.0-0.0-1.0-0.0-1.28","4","4","3","3","4","3","3","3","3","4","4","3","3","4","3","4","3","3","4","4","1","1","2","2","2","2","2","2","1","1","0","1","1","0","0","1","1","0","1","1","0","1","0","1","5","3","3","1","3","3","4","4","3","2","740167970172702721","陈","48","","","","","","","","","","","","","","","","","","","","","","","","","","","","","","feedback_test","","","","","","","","","",""
"800","","j","psychophysics","67","137479","0.0-7.0-0.0-1.0-0.0-0.29","4","4","3","3","4","3","3","3","3","4","4","3","3","4","3","4","3","3","4","4","1","1","2","2","2","2","2","2","1","1","0","1","1","0","0","1","1","0","1","1","0","1","0","1","5","3","3","1","3","3","4","4","3","2","740167970172702721","陈","48","","","","nonmatch","","","","","","","","","","","","","","key","j","16.661490740740664","683","380","j","true","nonmatch","img/diamond.png","六边","菱形","ALT1_1","prac_ALT1_1","","","","","","","","","",""
"null","<span style='color:GreenYellow; font-size: 70px;'>正确! </span>","null","html-keyboard-response","68","137982","0.0-7.0-0.0-1.0-0.0-1.29","4","4","3","3","4","3","3","3","3","4","4","3","3","4","3","4","3","3","4","4","1","1","2","2","2","2","2","2","1","1","0","1","1","0","0","1","1","0","1","1","0","1","0","1","5","3","3","1","3","3","4","4","3","2","740167970172702721","陈","48","","","","","","","","","","","","","","","","","","","","","","","","","","","","","","feedback_test","","","","","","","","","",""
"466","","f","psychophysics","69","139463","0.0-7.0-0.0-1.0-0.0-0.30","4","4","3","3","4","3","3","3","3","4","4","3","3","4","3","4","3","3","4","4","1","1","2","2","2","2","2","2","1","1","0","1","1","0","0","1","1","0","1","1","0","1","0","1","5","3","3","1","3","3","4","4","3","2","740167970172702721","陈","48","","","","match","","","","","","","","","","","","","","key","f","16.65811363636385","683","380","j","false","nonmatch","img/ellipse.png","六边","椭圆","ALT1_1","prac_ALT1_1","","","","","","","","","",""
"null","<span style='color:red; font-size: 70px;'>错误! </span>","null","html-keyboard-response","70","139966","0.0-7.0-0.0-1.0-0.0-1.30","4","4","3","3","4","3","3","3","3","4","4","3","3","4","3","4","3","3","4","4","1","1","2","2","2","2","2","2","1","1","0","1","1","0","0","1","1","0","1","1","0","1","0","1","5","3","3","1","3","3","4","4","3","2","740167970172702721","陈","48","","","","","","","","","","","","","","","","","","","","","","","","","","","","","","feedback_test","","","","","","","","","",""
"1008","","j","psychophysics","71","141983","0.0-7.0-0.0-1.0-0.0-0.31","4","4","3","3","4","3","3","3","3","4","4","3","3","4","3","4","3","3","4","4","1","1","2","2","2","2","2","2","1","1","0","1","1","0","0","1","1","0","1","1","0","1","0","1","5","3","3","1","3","3","4","4","3","2","740167970172702721","陈","48","","","","nonmatch","","","","","","","","","","","","","","key","j","16.659049999999844","683","380","j","true","nonmatch","img/hexagon.png","梯形","六边","ALT1_1","prac_ALT1_1","","","","","","","","","",""
"null","<span style='color:GreenYellow; font-size: 70px;'>正确! </span>","null","html-keyboard-response","72","142486","0.0-7.0-0.0-1.0-0.0-1.31","4","4","3","3","4","3","3","3","3","4","4","3","3","4","3","4","3","3","4","4","1","1","2","2","2","2","2","2","1","1","0","1","1","0","0","1","1","0","1","1","0","1","0","1","5","3","3","1","3","3","4","4","3","2","740167970172702721","陈","48","","","","","","","","","","","","","","","","","","","","","","","","","","","","","","feedback_test","","","","","","","","","",""
"666","","f","psychophysics","73","144161","0.0-7.0-0.0-1.0-0.0-0.32","4","4","3","3","4","3","3","3","3","4","4","3","3","4","3","4","3","3","4","4","1","1","2","2","2","2","2","2","1","1","0","1","1","0","0","1","1","0","1","1","0","1","0","1","5","3","3","1","3","3","4","4","3","2","740167970172702721","陈","48","","","","match","","","","","","","","","","","","","","key","f","16.67072999999975","683","380","f","true","match","img/trapezoid.png","梯形","梯形","ALT1_1","prac_ALT1_1","","","","","","","","","",""
"null","<span style='color:GreenYellow; font-size: 70px;'>正确! </span>","null","html-keyboard-response","74","144670","0.0-7.0-0.0-1.0-0.0-1.32","4","4","3","3","4","3","3","3","3","4","4","3","3","4","3","4","3","3","4","4","1","1","2","2","2","2","2","2","1","1","0","1","1","0","0","1","1","0","1","1","0","1","0","1","5","3","3","1","3","3","4","4","3","2","740167970172702721","陈","48","","","","","","","","","","","","","","","","","","","","","","","","","","","","","","feedback_test","","","","","","","","","",""
"760","","f","psychophysics","75","146439","0.0-7.0-0.0-1.0-0.0-0.33","4","4","3","3","4","3","3","3","3","4","4","3","3","4","3","4","3","3","4","4","1","1","2","2","2","2","2","2","1","1","0","1","1","0","0","1","1","0","1","1","0","1","0","1","5","3","3","1","3","3","4","4","3","2","740167970172702721","陈","48","","","","match","","","","","","","","","","","","","","key","f","16.670838095238043","683","380","f","true","match","img/hexagon.png","六边","六边","ALT1_1","prac_ALT1_1","","","","","","","","","",""
"null","<span style='color:GreenYellow; font-size: 70px;'>正确! </span>","null","html-keyboard-response","76","146950","0.0-7.0-0.0-1.0-0.0-1.33","4","4","3","3","4","3","3","3","3","4","4","3","3","4","3","4","3","3","4","4","1","1","2","2","2","2","2","2","1","1","0","1","1","0","0","1","1","0","1","1","0","1","0","1","5","3","3","1","3","3","4","4","3","2","740167970172702721","陈","48","","","","","","","","","","","","","","","","","","","","","","","","","","","","","","feedback_test","","","","","","","","","",""
"749","","j","psychophysics","77","148712","0.0-7.0-0.0-1.0-0.0-0.34","4","4","3","3","4","3","3","3","3","4","4","3","3","4","3","4","3","3","4","4","1","1","2","2","2","2","2","2","1","1","0","1","1","0","0","1","1","0","1","1","0","1","0","1","5","3","3","1","3","3","4","4","3","2","740167970172702721","陈","48","","","","nonmatch","","","","","","","","","","","","","","key","j","16.66747619047639","683","380","j","true","nonmatch","img/diamond.png","椭圆","菱形","ALT1_1","prac_ALT1_1","","","","","","","","","",""
"null","<span style='color:GreenYellow; font-size: 70px;'>正确! </span>","null","html-keyboard-response","78","149215","0.0-7.0-0.0-1.0-0.0-1.34","4","4","3","3","4","3","3","3","3","4","4","3","3","4","3","4","3","3","4","4","1","1","2","2","2","2","2","2","1","1","0","1","1","0","0","1","1","0","1","1","0","1","0","1","5","3","3","1","3","3","4","4","3","2","740167970172702721","陈","48","","","","","","","","","","","","","","","","","","","","","","","","","","","","","","feedback_test","","","","","","","","","",""
"543","","f","psychophysics","79","150766","0.0-7.0-0.0-1.0-0.0-0.35","4","4","3","3","4","3","3","3","3","4","4","3","3","4","3","4","3","3","4","4","1","1","2","2","2","2","2","2","1","1","0","1","1","0","0","1","1","0","1","1","0","1","0","1","5","3","3","1","3","3","4","4","3","2","740167970172702721","陈","48","","","","match","","","","","","","","","","","","","","key","f","16.657934782608685","683","380","f","true","match","img/ellipse.png","椭圆","椭圆","ALT1_1","prac_ALT1_1","","","","","","","","","",""
"null","<span style='color:GreenYellow; font-size: 70px;'>正确! </span>","null","html-keyboard-response","80","151271","0.0-7.0-0.0-1.0-0.0-1.35","4","4","3","3","4","3","3","3","3","4","4","3","3","4","3","4","3","3","4","4","1","1","2","2","2","2","2","2","1","1","0","1","1","0","0","1","1","0","1","1","0","1","0","1","5","3","3","1","3","3","4","4","3","2","740167970172702721","陈","48","","","","","","","","","","","","","","","","","","","","","","","","","","","","","","feedback_test","","","","","","","","","",""
"732","","f","psychophysics","81","153008","0.0-7.0-0.0-1.0-0.0-0.36","4","4","3","3","4","3","3","3","3","4","4","3","3","4","3","4","3","3","4","4","1","1","2","2","2","2","2","2","1","1","0","1","1","0","0","1","1","0","1","1","0","1","0","1","5","3","3","1","3","3","4","4","3","2","740167970172702721","陈","48","","","","match","","","","","","","","","","","","","","key","f","16.655359223301044","683","380","j","false","nonmatch","img/hexagon.png","菱形","六边","ALT1_1","prac_ALT1_1","","","","","","","","","",""
"null","<span style='color:red; font-size: 70px;'>错误! </span>","null","html-keyboard-response","82","153511","0.0-7.0-0.0-1.0-0.0-1.36","4","4","3","3","4","3","3","3","3","4","4","3","3","4","3","4","3","3","4","4","1","1","2","2","2","2","2","2","1","1","0","1","1","0","0","1","1","0","1","1","0","1","0","1","5","3","3","1","3","3","4","4","3","2","740167970172702721","陈","48","","","","","","","","","","","","","","","","","","","","","","","","","","","","","","feedback_test","","","","","","","","","",""
"751","","j","psychophysics","83","155270","0.0-7.0-0.0-1.0-0.0-0.37","4","4","3","3","4","3","3","3","3","4","4","3","3","4","3","4","3","3","4","4","1","1","2","2","2","2","2","2","1","1","0","1","1","0","0","1","1","0","1","1","0","1","0","1","5","3","3","1","3","3","4","4","3","2","740167970172702721","陈","48","","","","nonmatch","","","","","","","","","","","","","","key","j","16.67532692307689","683","380","j","true","nonmatch","img/hexagon.png","椭圆","六边","ALT1_1","prac_ALT1_1","","","","","","","","","",""
"null","<span style='color:GreenYellow; font-size: 70px;'>正确! </span>","null","html-keyboard-response","84","155775","0.0-7.0-0.0-1.0-0.0-1.37","4","4","3","3","4","3","3","3","3","4","4","3","3","4","3","4","3","3","4","4","1","1","2","2","2","2","2","2","1","1","0","1","1","0","0","1","1","0","1","1","0","1","0","1","5","3","3","1","3","3","4","4","3","2","740167970172702721","陈","48","","","","","","","","","","","","","","","","","","","","","","","","","","","","","","feedback_test","","","","","","","","","",""
"983","","f","psychophysics","85","157766","0.0-7.0-0.0-1.0-0.0-0.38","4","4","3","3","4","3","3","3","3","4","4","3","3","4","3","4","3","3","4","4","1","1","2","2","2","2","2","2","1","1","0","1","1","0","0","1","1","0","1","1","0","1","0","1","5","3","3","1","3","3","4","4","3","2","740167970172702721","陈","48","","","","match","","","","","","","","","","","","","","key","f","16.669830508474647","683","380","f","true","match","img/diamond.png","菱形","菱形","ALT1_1","prac_ALT1_1","","","","","","","","","",""
"null","<span style='color:GreenYellow; font-size: 70px;'>正确! </span>","null","html-keyboard-response","86","158271","0.0-7.0-0.0-1.0-0.0-1.38","4","4","3","3","4","3","3","3","3","4","4","3","3","4","3","4","3","3","4","4","1","1","2","2","2","2","2","2","1","1","0","1","1","0","0","1","1","0","1","1","0","1","0","1","5","3","3","1","3","3","4","4","3","2","740167970172702721","陈","48","","","","","","","","","","","","","","","","","","","","","","","","","","","","","","feedback_test","","","","","","","","","",""
"706","","f","psychophysics","87","159982","0.0-7.0-0.0-1.0-0.0-0.39","4","4","3","3","4","3","3","3","3","4","4","3","3","4","3","4","3","3","4","4","1","1","2","2","2","2","2","2","1","1","0","1","1","0","0","1","1","0","1","1","0","1","0","1","5","3","3","1","3","3","4","4","3","2","740167970172702721","陈","48","","","","match","","","","","","","","","","","","","","key","f","16.66098039215699","683","380","f","true","match","img/trapezoid.png","梯形","梯形","ALT1_1","prac_ALT1_1","","","","","","","","","",""
"null","<span style='color:GreenYellow; font-size: 70px;'>正确! </span>","null","html-keyboard-response","88","160487","0.0-7.0-0.0-1.0-0.0-1.39","4","4","3","3","4","3","3","3","3","4","4","3","3","4","3","4","3","3","4","4","1","1","2","2","2","2","2","2","1","1","0","1","1","0","0","1","1","0","1","1","0","1","0","1","5","3","3","1","3","3","4","4","3","2","740167970172702721","陈","48","","","","","","","","","","","","","","","","","","","","","","","","","","","","","","feedback_test","","","","","","","","","",""
"787","","f","psychophysics","89","162278","0.0-7.0-0.0-1.0-0.0-0.40","4","4","3","3","4","3","3","3","3","4","4","3","3","4","3","4","3","3","4","4","1","1","2","2","2","2","2","2","1","1","0","1","1","0","0","1","1","0","1","1","0","1","0","1","5","3","3","1","3","3","4","4","3","2","740167970172702721","陈","48","","","","match","","","","","","","","","","","","","","key","f","16.671216981132122","683","380","f","true","match","img/diamond.png","菱形","菱形","ALT1_1","prac_ALT1_1","","","","","","","","","",""
"null","<span style='color:GreenYellow; font-size: 70px;'>正确! </span>","null","html-keyboard-response","90","162782","0.0-7.0-0.0-1.0-0.0-1.40","4","4","3","3","4","3","3","3","3","4","4","3","3","4","3","4","3","3","4","4","1","1","2","2","2","2","2","2","1","1","0","1","1","0","0","1","1","0","1","1","0","1","0","1","5","3","3","1","3","3","4","4","3","2","740167970172702721","陈","48","","","","","","","","","","","","","","","","","","","","","","","","","","","","","","feedback_test","","","","","","","","","",""
"743","","f","psychophysics","91","164534","0.0-7.0-0.0-1.0-0.0-0.41","4","4","3","3","4","3","3","3","3","4","4","3","3","4","3","4","3","3","4","4","1","1","2","2","2","2","2","2","1","1","0","1","1","0","0","1","1","0","1","1","0","1","0","1","5","3","3","1","3","3","4","4","3","2","740167970172702721","陈","48","","","","match","","","","","","","","","","","","","","key","f","16.667682692307817","683","380","f","true","match","img/hexagon.png","六边","六边","ALT1_1","prac_ALT1_1","","","","","","","","","",""
"null","<span style='color:GreenYellow; font-size: 70px;'>正确! </span>","null","html-keyboard-response","92","165038","0.0-7.0-0.0-1.0-0.0-1.41","4","4","3","3","4","3","3","3","3","4","4","3","3","4","3","4","3","3","4","4","1","1","2","2","2","2","2","2","1","1","0","1","1","0","0","1","1","0","1","1","0","1","0","1","5","3","3","1","3","3","4","4","3","2","740167970172702721","陈","48","","","","","","","","","","","","","","","","","","","","","","","","","","","","","","feedback_test","","","","","","","","","",""
"708","","f","psychophysics","93","166750","0.0-7.0-0.0-1.0-0.0-0.42","4","4","3","3","4","3","3","3","3","4","4","3","3","4","3","4","3","3","4","4","1","1","2","2","2","2","2","2","1","1","0","1","1","0","0","1","1","0","1","1","0","1","0","1","5","3","3","1","3","3","4","4","3","2","740167970172702721","陈","48","","","","match","","","","","","","","","","","","","","key","f","16.661970297029672","683","380","j","false","nonmatch","img/trapezoid.png","椭圆","梯形","ALT1_1","prac_ALT1_1","","","","","","","","","",""
"null","<span style='color:red; font-size: 70px;'>错误! </span>","null","html-keyboard-response","94","167254","0.0-7.0-0.0-1.0-0.0-1.42","4","4","3","3","4","3","3","3","3","4","4","3","3","4","3","4","3","3","4","4","1","1","2","2","2","2","2","2","1","1","0","1","1","0","0","1","1","0","1","1","0","1","0","1","5","3","3","1","3","3","4","4","3","2","740167970172702721","陈","48","","","","","","","","","","","","","","","","","","","","","","","","","","","","","","feedback_test","","","","","","","","","",""
"620","","j","psychophysics","95","168878","0.0-7.0-0.0-1.0-0.0-0.43","4","4","3","3","4","3","3","3","3","4","4","3","3","4","3","4","3","3","4","4","1","1","2","2","2","2","2","2","1","1","0","1","1","0","0","1","1","0","1","1","0","1","0","1","5","3","3","1","3","3","4","4","3","2","740167970172702721","陈","48","","","","nonmatch","","","","","","","","","","","","","","key","j","16.670374999999996","683","380","f","false","match","img/hexagon.png","六边","六边","ALT1_1","prac_ALT1_1","","","","","","","","","",""
"null","<span style='color:red; font-size: 70px;'>错误! </span>","null","html-keyboard-response","96","169382","0.0-7.0-0.0-1.0-0.0-1.43","4","4","3","3","4","3","3","3","3","4","4","3","3","4","3","4","3","3","4","4","1","1","2","2","2","2","2","2","1","1","0","1","1","0","0","1","1","0","1","1","0","1","0","1","5","3","3","1","3","3","4","4","3","2","740167970172702721","陈","48","","","","","","","","","","","","","","","","","","","","","","","","","","","","","","feedback_test","","","","","","","","","",""
"1032","","j","psychophysics","97","171425","0.0-7.0-0.0-1.0-0.0-0.44","4","4","3","3","4","3","3","3","3","4","4","3","3","4","3","4","3","3","4","4","1","1","2","2","2","2","2","2","1","1","0","1","1","0","0","1","1","0","1","1","0","1","0","1","5","3","3","1","3","3","4","4","3","2","740167970172702721","陈","48","","","","nonmatch","","","","","","","","","","","","","","key","j","16.807867768595106","683","380","j","true","nonmatch","img/trapezoid.png","六边","梯形","ALT1_1","prac_ALT1_1","","","","","","","","","",""
"null","<span style='color:GreenYellow; font-size: 70px;'>正确! </span>","null","html-keyboard-response","98","171934","0.0-7.0-0.0-1.0-0.0-1.44","4","4","3","3","4","3","3","3","3","4","4","3","3","4","3","4","3","3","4","4","1","1","2","2","2","2","2","2","1","1","0","1","1","0","0","1","1","0","1","1","0","1","0","1","5","3","3","1","3","3","4","4","3","2","740167970172702721","陈","48","","","","","","","","","","","","","","","","","","","","","","","","","","","","","","feedback_test","","","","","","","","","",""
"763","","f","psychophysics","99","173702","0.0-7.0-0.0-1.0-0.0-0.45","4","4","3","3","4","3","3","3","3","4","4","3","3","4","3","4","3","3","4","4","1","1","2","2","2","2","2","2","1","1","0","1","1","0","0","1","1","0","1","1","0","1","0","1","5","3","3","1","3","3","4","4","3","2","740167970172702721","陈","48","","","","match","","","","","","","","","","","","","","key","f","16.674533333333343","683","380","j","false","nonmatch","img/ellipse.png","梯形","椭圆","ALT1_1","prac_ALT1_1","","","","","","","","","",""
"null","<span style='color:red; font-size: 70px;'>错误! </span>","null","html-keyboard-response","100","174206","0.0-7.0-0.0-1.0-0.0-1.45","4","4","3","3","4","3","3","3","3","4","4","3","3","4","3","4","3","3","4","4","1","1","2","2","2","2","2","2","1","1","0","1","1","0","0","1","1","0","1","1","0","1","0","1","5","3","3","1","3","3","4","4","3","2","740167970172702721","陈","48","","","","","","","","","","","","","","","","","","","","","","","","","","","","","","feedback_test","","","","","","","","","",""
"766","","f","psychophysics","101","175975","0.0-7.0-0.0-1.0-0.0-0.46","4","4","3","3","4","3","3","3","3","4","4","3","3","4","3","4","3","3","4","4","1","1","2","2","2","2","2","2","1","1","0","1","1","0","0","1","1","0","1","1","0","1","0","1","5","3","3","1","3","3","4","4","3","2","740167970172702721","陈","48","","","","match","","","","","","","","","","","","","","key","f","16.6663238095236","683","380","f","true","match","img/ellipse.png","椭圆","椭圆","ALT1_1","prac_ALT1_1","","","","","","","","","",""
"null","<span style='color:GreenYellow; font-size: 70px;'>正确! </span>","null","html-keyboard-response","102","176479","0.0-7.0-0.0-1.0-0.0-1.46","4","4","3","3","4","3","3","3","3","4","4","3","3","4","3","4","3","3","4","4","1","1","2","2","2","2","2","2","1","1","0","1","1","0","0","1","1","0","1","1","0","1","0","1","5","3","3","1","3","3","4","4","3","2","740167970172702721","陈","48","","","","","","","","","","","","","","","","","","","","","","","","","","","","","","feedback_test","","","","","","","","","",""
"759","","f","psychophysics","103","178246","0.0-7.0-0.0-1.0-0.0-0.47","4","4","3","3","4","3","3","3","3","4","4","3","3","4","3","4","3","3","4","4","1","1","2","2","2","2","2","2","1","1","0","1","1","0","0","1","1","0","1","1","0","1","0","1","5","3","3","1","3","3","4","4","3","2","740167970172702721","陈","48","","","","match","","","","","","","","","","","","","","key","f","16.661942857142726","683","380","j","false","nonmatch","img/ellipse.png","菱形","椭圆","ALT1_1","prac_ALT1_1","","","","","","","","","",""
"null","<span style='color:red; font-size: 70px;'>错误! </span>","null","html-keyboard-response","104","178751","0.0-7.0-0.0-1.0-0.0-1.47","4","4","3","3","4","3","3","3","3","4","4","3","3","4","3","4","3","3","4","4","1","1","2","2","2","2","2","2","1","1","0","1","1","0","0","1","1","0","1","1","0","1","0","1","5","3","3","1","3","3","4","4","3","2","740167970172702721","陈","48","","","","","","","","","","","","","","","","","","","","","","","","","","","","","","feedback_test","","","","","","","","","",""
"2144","<style>.context{color:white; font-size: 35px; line-height:40px}</style>                            <div><p class='context'>您正确回答了81% 的试次。</p><p class='context'>您的平均反应时为804毫秒。</p><p class='context'>恭喜您完成练习。按空格键进入正式实验。</p><p class='footer' style='font-size: 35px; line-height:40px;'>请在进入正式实验之前将您的<span style='color: lightgreen;'>食指</span>放在电脑键盘的相应键位上进行按键。</p>"," ","html-keyboard-response","105","180902","0.0-7.0-0.0-2.0","4","4","3","3","4","3","3","3","3","4","4","3","3","4","3","4","3","3","4","4","1","1","2","2","2","2","2","2","1","1","0","1","1","0","0","1","1","0","1","1","0","1","0","1","5","3","3","1","3","3","4","4","3","2","740167970172702721","陈","48","","","","","","","","","","","","","","","","","","","","","","","","","","","","","","","","","","","","","","","",""
"591","
    <p style='color: white; font-size: 22px'>请您将手指放在按键上，准备进入正式的匹配任务。</p>
    <p> <div style = ""color: green""><按空格键进入下一阶段的匹配任务></div></p>
    "," ","html-keyboard-response","106","181502","0.0-7.0-0.0-3.0","4","4","3","3","4","3","3","3","3","4","4","3","3","4","3","4","3","3","4","4","1","1","2","2","2","2","2","2","1","1","0","1","1","0","0","1","1","0","1","1","0","1","0","1","5","3","3","1","3","3","4","4","3","2","740167970172702721","陈","48","","","","","","","","","","","","","","","","","","","","","","","","","","","","","","","","","","","","","","","",""
"753","","j","psychophysics","107","183262","0.0-7.0-0.0-4.0-0.0-0.0","4","4","3","3","4","3","3","3","3","4","4","3","3","4","3","4","3","3","4","4","1","1","2","2","2","2","2","2","1","1","0","1","1","0","0","1","1","0","1","1","0","1","0","1","5","3","3","1","3","3","4","4","3","2","740167970172702721","陈","48","","","","nonmatch","","","","","","","","","","","","","","key","j","16.83055769230794","683","380","j","true","nonmatch","img/ellipse.png","菱形","椭圆","ALT1","formal_ALT1_1","","","","","","","","","",""
"null","<span style='color:GreenYellow; font-size: 70px;'>正确! </span>","null","html-keyboard-response","108","183767","0.0-7.0-0.0-4.0-0.0-1.0","4","4","3","3","4","3","3","3","3","4","4","3","3","4","3","4","3","3","4","4","1","1","2","2","2","2","2","2","1","1","0","1","1","0","0","1","1","0","1","1","0","1","0","1","5","3","3","1","3","3","4","4","3","2","740167970172702721","陈","48","","","","","","","","","","","","","","","","","","","","","","","","","","","","","","feedback_test","","","","","","","","","",""
"710","","f","psychophysics","109","185485","0.0-7.0-0.0-4.0-0.0-0.1","4","4","3","3","4","3","3","3","3","4","4","3","3","4","3","4","3","3","4","4","1","1","2","2","2","2","2","2","1","1","0","1","1","0","0","1","1","0","1","1","0","1","0","1","5","3","3","1","3","3","4","4","3","2","740167970172702721","陈","48","","","","match","","","","","","","","","","","","","","key","f","16.664843137254746","683","380","f","true","match","img/trapezoid.png","梯形","梯形","ALT1","formal_ALT1_1","","","","","","","","","",""
"null","<span style='color:GreenYellow; font-size: 70px;'>正确! </span>","null","html-keyboard-response","110","185992","0.0-7.0-0.0-4.0-0.0-1.1","4","4","3","3","4","3","3","3","3","4","4","3","3","4","3","4","3","3","4","4","1","1","2","2","2","2","2","2","1","1","0","1","1","0","0","1","1","0","1","1","0","1","0","1","5","3","3","1","3","3","4","4","3","2","740167970172702721","陈","48","","","","","","","","","","","","","","","","","","","","","","","","","","","","","","feedback_test","","","","","","","","","",""
"663","","j","psychophysics","111","187663","0.0-7.0-0.0-4.0-0.0-0.2","4","4","3","3","4","3","3","3","3","4","4","3","3","4","3","4","3","3","4","4","1","1","2","2","2","2","2","2","1","1","0","1","1","0","0","1","1","0","1","1","0","1","0","1","5","3","3","1","3","3","4","4","3","2","740167970172702721","陈","48","","","","nonmatch","","","","","","","","","","","","","","key","j","16.669898989898766","683","380","j","true","nonmatch","img/diamond.png","椭圆","菱形","ALT1","formal_ALT1_1","","","","","","","","","",""
"null","<span style='color:GreenYellow; font-size: 70px;'>正确! </span>","null","html-keyboard-response","112","188168","0.0-7.0-0.0-4.0-0.0-1.2","4","4","3","3","4","3","3","3","3","4","4","3","3","4","3","4","3","3","4","4","1","1","2","2","2","2","2","2","1","1","0","1","1","0","0","1","1","0","1","1","0","1","0","1","5","3","3","1","3","3","4","4","3","2","740167970172702721","陈","48","","","","","","","","","","","","","","","","","","","","","","","","","","","","","","feedback_test","","","","","","","","","",""
"719","","f","psychophysics","113","189895","0.0-7.0-0.0-4.0-0.0-0.3","4","4","3","3","4","3","3","3","3","4","4","3","3","4","3","4","3","3","4","4","1","1","2","2","2","2","2","2","1","1","0","1","1","0","0","1","1","0","1","1","0","1","0","1","5","3","3","1","3","3","4","4","3","2","740167970172702721","陈","48","","","","match","","","","","","","","","","","","","","key","f","16.671174757281776","683","380","f","true","match","img/hexagon.png","六边","六边","ALT1","formal_ALT1_1","","","","","","","","","",""
"null","<span style='color:GreenYellow; font-size: 70px;'>正确! </span>","null","html-keyboard-response","114","190399","0.0-7.0-0.0-4.0-0.0-1.3","4","4","3","3","4","3","3","3","3","4","4","3","3","4","3","4","3","3","4","4","1","1","2","2","2","2","2","2","1","1","0","1","1","0","0","1","1","0","1","1","0","1","0","1","5","3","3","1","3","3","4","4","3","2","740167970172702721","陈","48","","","","","","","","","","","","","","","","","","","","","","","","","","","","","","feedback_test","","","","","","","","","",""
"822","","j","psychophysics","115","192231","0.0-7.0-0.0-4.0-0.0-0.4","4","4","3","3","4","3","3","3","3","4","4","3","3","4","3","4","3","3","4","4","1","1","2","2","2","2","2","2","1","1","0","1","1","0","0","1","1","0","1","1","0","1","0","1","5","3","3","1","3","3","4","4","3","2","740167970172702721","陈","48","","","","nonmatch","","","","","","","","","","","","","","key","j","16.8168981481482","683","380","j","true","nonmatch","img/ellipse.png","梯形","椭圆","ALT1","formal_ALT1_1","","","","","","","","","",""
"null","<span style='color:GreenYellow; font-size: 70px;'>正确! </span>","null","html-keyboard-response","116","192735","0.0-7.0-0.0-4.0-0.0-1.4","4","4","3","3","4","3","3","3","3","4","4","3","3","4","3","4","3","3","4","4","1","1","2","2","2","2","2","2","1","1","0","1","1","0","0","1","1","0","1","1","0","1","0","1","5","3","3","1","3","3","4","4","3","2","740167970172702721","陈","48","","","","","","","","","","","","","","","","","","","","","","","","","","","","","","feedback_test","","","","","","","","","",""
"971","","j","psychophysics","117","194711","0.0-7.0-0.0-4.0-0.0-0.5","4","4","3","3","4","3","3","3","3","4","4","3","3","4","3","4","3","3","4","4","1","1","2","2","2","2","2","2","1","1","0","1","1","0","0","1","1","0","1","1","0","1","0","1","5","3","3","1","3","3","4","4","3","2","740167970172702721","陈","48","","","","nonmatch","","","","","","","","","","","","","","key","j","16.656025423728753","683","380","j","true","nonmatch","img/hexagon.png","梯形","六边","ALT1","formal_ALT1_1","","","","","","","","","",""
"null","<span style='color:GreenYellow; font-size: 70px;'>正确! </span>","null","html-keyboard-response","118","195215","0.0-7.0-0.0-4.0-0.0-1.5","4","4","3","3","4","3","3","3","3","4","4","3","3","4","3","4","3","3","4","4","1","1","2","2","2","2","2","2","1","1","0","1","1","0","0","1","1","0","1","1","0","1","0","1","5","3","3","1","3","3","4","4","3","2","740167970172702721","陈","48","","","","","","","","","","","","","","","","","","","","","","","","","","","","","","feedback_test","","","","","","","","","",""
"751","","j","psychophysics","119","196975","0.0-7.0-0.0-4.0-0.0-0.6","4","4","3","3","4","3","3","3","3","4","4","3","3","4","3","4","3","3","4","4","1","1","2","2","2","2","2","2","1","1","0","1","1","0","0","1","1","0","1","1","0","1","0","1","5","3","3","1","3","3","4","4","3","2","740167970172702721","陈","48","","","","nonmatch","","","","","","","","","","","","","","key","j","16.653038095238262","683","380","j","true","nonmatch","img/diamond.png","六边","菱形","ALT1","formal_ALT1_1","","","","","","","","","",""
"null","<span style='color:GreenYellow; font-size: 70px;'>正确! </span>","null","html-keyboard-response","120","197480","0.0-7.0-0.0-4.0-0.0-1.6","4","4","3","3","4","3","3","3","3","4","4","3","3","4","3","4","3","3","4","4","1","1","2","2","2","2","2","2","1","1","0","1","1","0","0","1","1","0","1","1","0","1","0","1","5","3","3","1","3","3","4","4","3","2","740167970172702721","陈","48","","","","","","","","","","","","","","","","","","","","","","","","","","","","","","feedback_test","","","","","","","","","",""
"690","","f","psychophysics","121","199183","0.0-7.0-0.0-4.0-0.0-0.7","4","4","3","3","4","3","3","3","3","4","4","3","3","4","3","4","3","3","4","4","1","1","2","2","2","2","2","2","1","1","0","1","1","0","0","1","1","0","1","1","0","1","0","1","5","3","3","1","3","3","4","4","3","2","740167970172702721","陈","48","","","","match","","","","","","","","","","","","","","key","f","16.668029999999852","683","380","f","true","match","img/ellipse.png","椭圆","椭圆","ALT1","formal_ALT1_1","","","","","","","","","",""
"null","<span style='color:GreenYellow; font-size: 70px;'>正确! </span>","null","html-keyboard-response","122","199688","0.0-7.0-0.0-4.0-0.0-1.7","4","4","3","3","4","3","3","3","3","4","4","3","3","4","3","4","3","3","4","4","1","1","2","2","2","2","2","2","1","1","0","1","1","0","0","1","1","0","1","1","0","1","0","1","5","3","3","1","3","3","4","4","3","2","740167970172702721","陈","48","","","","","","","","","","","","","","","","","","","","","","","","","","","","","","feedback_test","","","","","","","","","",""
"940","","j","psychophysics","123","201631","0.0-7.0-0.0-4.0-0.0-0.8","4","4","3","3","4","3","3","3","3","4","4","3","3","4","3","4","3","3","4","4","1","1","2","2","2","2","2","2","1","1","0","1","1","0","0","1","1","0","1","1","0","1","0","1","5","3","3","1","3","3","4","4","3","2","740167970172702721","陈","48","","","","nonmatch","","","","","","","","","","","","","","key","j","16.659991304347617","683","380","j","true","nonmatch","img/hexagon.png","菱形","六边","ALT1","formal_ALT1_1","","","","","","","","","",""
"null","<span style='color:GreenYellow; font-size: 70px;'>正确! </span>","null","html-keyboard-response","124","202136","0.0-7.0-0.0-4.0-0.0-1.8","4","4","3","3","4","3","3","3","3","4","4","3","3","4","3","4","3","3","4","4","1","1","2","2","2","2","2","2","1","1","0","1","1","0","0","1","1","0","1","1","0","1","0","1","5","3","3","1","3","3","4","4","3","2","740167970172702721","陈","48","","","","","","","","","","","","","","","","","","","","","","","","","","","","","","feedback_test","","","","","","","","","",""
"749","","f","psychophysics","125","203892","0.0-7.0-0.0-4.0-0.0-0.9","4","4","3","3","4","3","3","3","3","4","4","3","3","4","3","4","3","3","4","4","1","1","2","2","2","2","2","2","1","1","0","1","1","0","0","1","1","0","1","1","0","1","0","1","5","3","3","1","3","3","4","4","3","2","740167970172702721","陈","48","","","","match","","","","","","","","","","","","","","key","f","16.656442307692206","683","380","f","true","match","img/diamond.png","菱形","菱形","ALT1","formal_ALT1_1","","","","","","","","","",""
"null","<span style='color:GreenYellow; font-size: 70px;'>正确! </span>","null","html-keyboard-response","126","204400","0.0-7.0-0.0-4.0-0.0-1.9","4","4","3","3","4","3","3","3","3","4","4","3","3","4","3","4","3","3","4","4","1","1","2","2","2","2","2","2","1","1","0","1","1","0","0","1","1","0","1","1","0","1","0","1","5","3","3","1","3","3","4","4","3","2","740167970172702721","陈","48","","","","","","","","","","","","","","","","","","","","","","","","","","","","","","feedback_test","","","","","","","","","",""
"795","","j","psychophysics","127","206198","0.0-7.0-0.0-4.0-0.0-0.10","4","4","3","3","4","3","3","3","3","4","4","3","3","4","3","4","3","3","4","4","1","1","2","2","2","2","2","2","1","1","0","1","1","0","0","1","1","0","1","1","0","1","0","1","5","3","3","1","3","3","4","4","3","2","740167970172702721","陈","48","","","","nonmatch","","","","","","","","","","","","","","key","j","16.673317757009194","683","380","j","true","nonmatch","img/trapezoid.png","菱形","梯形","ALT1","formal_ALT1_1","","","","","","","","","",""
"null","<span style='color:GreenYellow; font-size: 70px;'>正确! </span>","null","html-keyboard-response","128","206704","0.0-7.0-0.0-4.0-0.0-1.10","4","4","3","3","4","3","3","3","3","4","4","3","3","4","3","4","3","3","4","4","1","1","2","2","2","2","2","2","1","1","0","1","1","0","0","1","1","0","1","1","0","1","0","1","5","3","3","1","3","3","4","4","3","2","740167970172702721","陈","48","","","","","","","","","","","","","","","","","","","","","","","","","","","","","","feedback_test","","","","","","","","","",""
"733","","j","psychophysics","129","208441","0.0-7.0-0.0-4.0-0.0-0.11","4","4","3","3","4","3","3","3","3","4","4","3","3","4","3","4","3","3","4","4","1","1","2","2","2","2","2","2","1","1","0","1","1","0","0","1","1","0","1","1","0","1","0","1","5","3","3","1","3","3","4","4","3","2","740167970172702721","陈","48","","","","nonmatch","","","","","","","","","","","","","","key","j","16.660058252427227","683","380","j","true","nonmatch","img/ellipse.png","六边","椭圆","ALT1","formal_ALT1_1","","","","","","","","","",""
"null","<span style='color:GreenYellow; font-size: 70px;'>正确! </span>","null","html-keyboard-response","130","208944","0.0-7.0-0.0-4.0-0.0-1.11","4","4","3","3","4","3","3","3","3","4","4","3","3","4","3","4","3","3","4","4","1","1","2","2","2","2","2","2","1","1","0","1","1","0","0","1","1","0","1","1","0","1","0","1","5","3","3","1","3","3","4","4","3","2","740167970172702721","陈","48","","","","","","","","","","","","","","","","","","","","","","","","","","","","","","feedback_test","","","","","","","","","",""
"766","","j","psychophysics","131","210718","0.0-7.0-0.0-4.0-0.0-0.12","4","4","3","3","4","3","3","3","3","4","4","3","3","4","3","4","3","3","4","4","1","1","2","2","2","2","2","2","1","1","0","1","1","0","0","1","1","0","1","1","0","1","0","1","5","3","3","1","3","3","4","4","3","2","740167970172702721","陈","48","","","","nonmatch","","","","","","","","","","","","","","key","j","16.66080952380961","683","380","j","true","nonmatch","img/diamond.png","梯形","菱形","ALT1","formal_ALT1_1","","","","","","","","","",""
"null","<span style='color:GreenYellow; font-size: 70px;'>正确! </span>","null","html-keyboard-response","132","211224","0.0-7.0-0.0-4.0-0.0-1.12","4","4","3","3","4","3","3","3","3","4","4","3","3","4","3","4","3","3","4","4","1","1","2","2","2","2","2","2","1","1","0","1","1","0","0","1","1","0","1","1","0","1","0","1","5","3","3","1","3","3","4","4","3","2","740167970172702721","陈","48","","","","","","","","","","","","","","","","","","","","","","","","","","","","","","feedback_test","","","","","","","","","",""
"727","","f","psychophysics","133","212959","0.0-7.0-0.0-4.0-0.0-0.13","4","4","3","3","4","3","3","3","3","4","4","3","3","4","3","4","3","3","4","4","1","1","2","2","2","2","2","2","1","1","0","1","1","0","0","1","1","0","1","1","0","1","0","1","5","3","3","1","3","3","4","4","3","2","740167970172702721","陈","48","","","","match","","","","","","","","","","","","","","key","f","16.658310679611763","683","380","f","true","match","img/hexagon.png","六边","六边","ALT1","formal_ALT1_1","","","","","","","","","",""
"null","<span style='color:GreenYellow; font-size: 70px;'>正确! </span>","null","html-keyboard-response","134","213464","0.0-7.0-0.0-4.0-0.0-1.13","4","4","3","3","4","3","3","3","3","4","4","3","3","4","3","4","3","3","4","4","1","1","2","2","2","2","2","2","1","1","0","1","1","0","0","1","1","0","1","1","0","1","0","1","5","3","3","1","3","3","4","4","3","2","740167970172702721","陈","48","","","","","","","","","","","","","","","","","","","","","","","","","","","","","","feedback_test","","","","","","","","","",""
"854","","j","psychophysics","135","215327","0.0-7.0-0.0-4.0-0.0-0.14","4","4","3","3","4","3","3","3","3","4","4","3","3","4","3","4","3","3","4","4","1","1","2","2","2","2","2","2","1","1","0","1","1","0","0","1","1","0","1","1","0","1","0","1","5","3","3","1","3","3","4","4","3","2","740167970172702721","陈","48","","","","nonmatch","","","","","","","","","","","","","","key","j","16.665585585585628","683","380","j","true","nonmatch","img/trapezoid.png","六边","梯形","ALT1","formal_ALT1_1","","","","","","","","","",""
"null","<span style='color:GreenYellow; font-size: 70px;'>正确! </span>","null","html-keyboard-response","136","215831","0.0-7.0-0.0-4.0-0.0-1.14","4","4","3","3","4","3","3","3","3","4","4","3","3","4","3","4","3","3","4","4","1","1","2","2","2","2","2","2","1","1","0","1","1","0","0","1","1","0","1","1","0","1","0","1","5","3","3","1","3","3","4","4","3","2","740167970172702721","陈","48","","","","","","","","","","","","","","","","","","","","","","","","","","","","","","feedback_test","","","","","","","","","",""
"700","","f","psychophysics","137","217542","0.0-7.0-0.0-4.0-0.0-0.15","4","4","3","3","4","3","3","3","3","4","4","3","3","4","3","4","3","3","4","4","1","1","2","2","2","2","2","2","1","1","0","1","1","0","0","1","1","0","1","1","0","1","0","1","5","3","3","1","3","3","4","4","3","2","740167970172702721","陈","48","","","","match","","","","","","","","","","","","","","key","f","16.666176470588063","683","380","f","true","match","img/diamond.png","菱形","菱形","ALT1","formal_ALT1_1","","","","","","","","","",""
"null","<span style='color:GreenYellow; font-size: 70px;'>正确! </span>","null","html-keyboard-response","138","218047","0.0-7.0-0.0-4.0-0.0-1.15","4","4","3","3","4","3","3","3","3","4","4","3","3","4","3","4","3","3","4","4","1","1","2","2","2","2","2","2","1","1","0","1","1","0","0","1","1","0","1","1","0","1","0","1","5","3","3","1","3","3","4","4","3","2","740167970172702721","陈","48","","","","","","","","","","","","","","","","","","","","","","","","","","","","","","feedback_test","","","","","","","","","",""
"829","","j","psychophysics","139","219888","0.0-7.0-0.0-4.0-0.0-0.16","4","4","3","3","4","3","3","3","3","4","4","3","3","4","3","4","3","3","4","4","1","1","2","2","2","2","2","2","1","1","0","1","1","0","0","1","1","0","1","1","0","1","0","1","5","3","3","1","3","3","4","4","3","2","740167970172702721","陈","48","","","","nonmatch","","","","","","","","","","","","","","key","j","16.666944954128574","683","380","j","true","nonmatch","img/trapezoid.png","椭圆","梯形","ALT1","formal_ALT1_1","","","","","","","","","",""
"null","<span style='color:GreenYellow; font-size: 70px;'>正确! </span>","null","html-keyboard-response","140","220391","0.0-7.0-0.0-4.0-0.0-1.16","4","4","3","3","4","3","3","3","3","4","4","3","3","4","3","4","3","3","4","4","1","1","2","2","2","2","2","2","1","1","0","1","1","0","0","1","1","0","1","1","0","1","0","1","5","3","3","1","3","3","4","4","3","2","740167970172702721","陈","48","","","","","","","","","","","","","","","","","","","","","","","","","","","","","","feedback_test","","","","","","","","","",""
"750","","j","psychophysics","141","222150","0.0-7.0-0.0-4.0-0.0-0.17","4","4","3","3","4","3","3","3","3","4","4","3","3","4","3","4","3","3","4","4","1","1","2","2","2","2","2","2","1","1","0","1","1","0","0","1","1","0","1","1","0","1","0","1","5","3","3","1","3","3","4","4","3","2","740167970172702721","陈","48","","","","nonmatch","","","","","","","","","","","","","","key","j","16.674605769230627","683","380","j","true","nonmatch","img/hexagon.png","椭圆","六边","ALT1","formal_ALT1_1","","","","","","","","","",""
"null","<span style='color:GreenYellow; font-size: 70px;'>正确! </span>","null","html-keyboard-response","142","222656","0.0-7.0-0.0-4.0-0.0-1.17","4","4","3","3","4","3","3","3","3","4","4","3","3","4","3","4","3","3","4","4","1","1","2","2","2","2","2","2","1","1","0","1","1","0","0","1","1","0","1","1","0","1","0","1","5","3","3","1","3","3","4","4","3","2","740167970172702721","陈","48","","","","","","","","","","","","","","","","","","","","","","","","","","","","","","feedback_test","","","","","","","","","",""
"992","","f","psychophysics","143","224655","0.0-7.0-0.0-4.0-0.0-0.18","4","4","3","3","4","3","3","3","3","4","4","3","3","4","3","4","3","3","4","4","1","1","2","2","2","2","2","2","1","1","0","1","1","0","0","1","1","0","1","1","0","1","0","1","5","3","3","1","3","3","4","4","3","2","740167970172702721","陈","48","","","","match","","","","","","","","","","","","","","key","f","16.662288135593172","683","380","f","true","match","img/diamond.png","菱形","菱形","ALT1","formal_ALT1_1","","","","","","","","","",""
"null","<span style='color:GreenYellow; font-size: 70px;'>正确! </span>","null","html-keyboard-response","144","225160","0.0-7.0-0.0-4.0-0.0-1.18","4","4","3","3","4","3","3","3","3","4","4","3","3","4","3","4","3","3","4","4","1","1","2","2","2","2","2","2","1","1","0","1","1","0","0","1","1","0","1","1","0","1","0","1","5","3","3","1","3","3","4","4","3","2","740167970172702721","陈","48","","","","","","","","","","","","","","","","","","","","","","","","","","","","","","feedback_test","","","","","","","","","",""
"710","","f","psychophysics","145","226878","0.0-7.0-0.0-4.0-0.0-0.19","4","4","3","3","4","3","3","3","3","4","4","3","3","4","3","4","3","3","4","4","1","1","2","2","2","2","2","2","1","1","0","1","1","0","0","1","1","0","1","1","0","1","0","1","5","3","3","1","3","3","4","4","3","2","740167970172702721","陈","48","","","","match","","","","","","","","","","","","","","key","f","16.677754901960725","683","380","f","true","match","img/hexagon.png","六边","六边","ALT1","formal_ALT1_1","","","","","","","","","",""
"null","<span style='color:GreenYellow; font-size: 70px;'>正确! </span>","null","html-keyboard-response","146","227384","0.0-7.0-0.0-4.0-0.0-1.19","4","4","3","3","4","3","3","3","3","4","4","3","3","4","3","4","3","3","4","4","1","1","2","2","2","2","2","2","1","1","0","1","1","0","0","1","1","0","1","1","0","1","0","1","5","3","3","1","3","3","4","4","3","2","740167970172702721","陈","48","","","","","","","","","","","","","","","","","","","","","","","","","","","","","","feedback_test","","","","","","","","","",""
"841","","f","psychophysics","147","229229","0.0-7.0-0.0-4.0-0.0-0.20","4","4","3","3","4","3","3","3","3","4","4","3","3","4","3","4","3","3","4","4","1","1","2","2","2","2","2","2","1","1","0","1","1","0","0","1","1","0","1","1","0","1","0","1","5","3","3","1","3","3","4","4","3","2","740167970172702721","陈","48","","","","match","","","","","","","","","","","","","","key","f","16.82238888888888","683","380","f","true","match","img/trapezoid.png","梯形","梯形","ALT1","formal_ALT1_1","","","","","","","","","",""
"null","<span style='color:GreenYellow; font-size: 70px;'>正确! </span>","null","html-keyboard-response","148","229736","0.0-7.0-0.0-4.0-0.0-1.20","4","4","3","3","4","3","3","3","3","4","4","3","3","4","3","4","3","3","4","4","1","1","2","2","2","2","2","2","1","1","0","1","1","0","0","1","1","0","1","1","0","1","0","1","5","3","3","1","3","3","4","4","3","2","740167970172702721","陈","48","","","","","","","","","","","","","","","","","","","","","","","","","","","","","","feedback_test","","","","","","","","","",""
"724","","f","psychophysics","149","231462","0.0-7.0-0.0-4.0-0.0-0.21","4","4","3","3","4","3","3","3","3","4","4","3","3","4","3","4","3","3","4","4","1","1","2","2","2","2","2","2","1","1","0","1","1","0","0","1","1","0","1","1","0","1","0","1","5","3","3","1","3","3","4","4","3","2","740167970172702721","陈","48","","","","match","","","","","","","","","","","","","","key","f","16.66657843137264","683","380","f","true","match","img/trapezoid.png","梯形","梯形","ALT1","formal_ALT1_1","","","","","","","","","",""
"null","<span style='color:GreenYellow; font-size: 70px;'>正确! </span>","null","html-keyboard-response","150","231968","0.0-7.0-0.0-4.0-0.0-1.21","4","4","3","3","4","3","3","3","3","4","4","3","3","4","3","4","3","3","4","4","1","1","2","2","2","2","2","2","1","1","0","1","1","0","0","1","1","0","1","1","0","1","0","1","5","3","3","1","3","3","4","4","3","2","740167970172702721","陈","48","","","","","","","","","","","","","","","","","","","","","","","","","","","","","","feedback_test","","","","","","","","","",""
"674","","f","psychophysics","151","233646","0.0-7.0-0.0-4.0-0.0-0.22","4","4","3","3","4","3","3","3","3","4","4","3","3","4","3","4","3","3","4","4","1","1","2","2","2","2","2","2","1","1","0","1","1","0","0","1","1","0","1","1","0","1","0","1","5","3","3","1","3","3","4","4","3","2","740167970172702721","陈","48","","","","match","","","","","","","","","","","","","","key","f","16.836244897959084","683","380","f","true","match","img/ellipse.png","椭圆","椭圆","ALT1","formal_ALT1_1","","","","","","","","","",""
"null","<span style='color:GreenYellow; font-size: 70px;'>正确! </span>","null","html-keyboard-response","152","234152","0.0-7.0-0.0-4.0-0.0-1.22","4","4","3","3","4","3","3","3","3","4","4","3","3","4","3","4","3","3","4","4","1","1","2","2","2","2","2","2","1","1","0","1","1","0","0","1","1","0","1","1","0","1","0","1","5","3","3","1","3","3","4","4","3","2","740167970172702721","陈","48","","","","","","","","","","","","","","","","","","","","","","","","","","","","","","feedback_test","","","","","","","","","",""
"659","","f","psychophysics","153","235814","0.0-7.0-0.0-4.0-0.0-0.23","4","4","3","3","4","3","3","3","3","4","4","3","3","4","3","4","3","3","4","4","1","1","2","2","2","2","2","2","1","1","0","1","1","0","0","1","1","0","1","1","0","1","0","1","5","3","3","1","3","3","4","4","3","2","740167970172702721","陈","48","","","","match","","","","","","","","","","","","","","key","f","16.664785714285763","683","380","f","true","match","img/ellipse.png","椭圆","椭圆","ALT1","formal_ALT1_1","","","","","","","","","",""
"null","<span style='color:GreenYellow; font-size: 70px;'>正确! </span>","null","html-keyboard-response","154","236320","0.0-7.0-0.0-4.0-0.0-1.23","4","4","3","3","4","3","3","3","3","4","4","3","3","4","3","4","3","3","4","4","1","1","2","2","2","2","2","2","1","1","0","1","1","0","0","1","1","0","1","1","0","1","0","1","5","3","3","1","3","3","4","4","3","2","740167970172702721","陈","48","","","","","","","","","","","","","","","","","","","","","","","","","","","","","","feedback_test","","","","","","","","","",""
"830","","j","psychophysics","155","238158","0.0-7.0-0.0-4.0-0.0-0.24","4","4","3","3","4","3","3","3","3","4","4","3","3","4","3","4","3","3","4","4","1","1","2","2","2","2","2","2","1","1","0","1","1","0","0","1","1","0","1","1","0","1","0","1","5","3","3","1","3","3","4","4","3","2","740167970172702721","陈","48","","","","nonmatch","","","","","","","","","","","","","","key","j","16.6729999999999","683","380","j","true","nonmatch","img/ellipse.png","菱形","椭圆","ALT1","formal_ALT1_1","","","","","","","","","",""
"null","<span style='color:GreenYellow; font-size: 70px;'>正确! </span>","null","html-keyboard-response","156","238664","0.0-7.0-0.0-4.0-0.0-1.24","4","4","3","3","4","3","3","3","3","4","4","3","3","4","3","4","3","3","4","4","1","1","2","2","2","2","2","2","1","1","0","1","1","0","0","1","1","0","1","1","0","1","0","1","5","3","3","1","3","3","4","4","3","2","740167970172702721","陈","48","","","","","","","","","","","","","","","","","","","","","","","","","","","","","","feedback_test","","","","","","","","","",""
"705","","f","psychophysics","157","240374","0.0-7.0-0.0-4.0-0.0-0.25","4","4","3","3","4","3","3","3","3","4","4","3","3","4","3","4","3","3","4","4","1","1","2","2","2","2","2","2","1","1","0","1","1","0","0","1","1","0","1","1","0","1","0","1","5","3","3","1","3","3","4","4","3","2","740167970172702721","陈","48","","","","match","","","","","","","","","","","","","","key","f","16.832099009901146","683","380","f","true","match","img/ellipse.png","椭圆","椭圆","ALT1","formal_ALT1_1","","","","","","","","","",""
"null","<span style='color:GreenYellow; font-size: 70px;'>正确! </span>","null","html-keyboard-response","158","240880","0.0-7.0-0.0-4.0-0.0-1.25","4","4","3","3","4","3","3","3","3","4","4","3","3","4","3","4","3","3","4","4","1","1","2","2","2","2","2","2","1","1","0","1","1","0","0","1","1","0","1","1","0","1","0","1","5","3","3","1","3","3","4","4","3","2","740167970172702721","陈","48","","","","","","","","","","","","","","","","","","","","","","","","","","","","","","feedback_test","","","","","","","","","",""
"732","","f","psychophysics","159","242623","0.0-7.0-0.0-4.0-0.0-0.26","4","4","3","3","4","3","3","3","3","4","4","3","3","4","3","4","3","3","4","4","1","1","2","2","2","2","2","2","1","1","0","1","1","0","0","1","1","0","1","1","0","1","0","1","5","3","3","1","3","3","4","4","3","2","740167970172702721","陈","48","","","","match","","","","","","","","","","","","","","key","f","16.6811442307693","683","380","f","true","match","img/ellipse.png","椭圆","椭圆","ALT1","formal_ALT1_1","","","","","","","","","",""
"null","<span style='color:GreenYellow; font-size: 70px;'>正确! </span>","null","html-keyboard-response","160","243127","0.0-7.0-0.0-4.0-0.0-1.26","4","4","3","3","4","3","3","3","3","4","4","3","3","4","3","4","3","3","4","4","1","1","2","2","2","2","2","2","1","1","0","1","1","0","0","1","1","0","1","1","0","1","0","1","5","3","3","1","3","3","4","4","3","2","740167970172702721","陈","48","","","","","","","","","","","","","","","","","","","","","","","","","","","","","","feedback_test","","","","","","","","","",""
"871","","j","psychophysics","161","245007","0.0-7.0-0.0-4.0-0.0-0.27","4","4","3","3","4","3","3","3","3","4","4","3","3","4","3","4","3","3","4","4","1","1","2","2","2","2","2","2","1","1","0","1","1","0","0","1","1","0","1","1","0","1","0","1","5","3","3","1","3","3","4","4","3","2","740167970172702721","陈","48","","","","nonmatch","","","","","","","","","","","","","","key","j","16.654937500000024","683","380","j","true","nonmatch","img/diamond.png","六边","菱形","ALT1","formal_ALT1_1","","","","","","","","","",""
"null","<span style='color:GreenYellow; font-size: 70px;'>正确! </span>","null","html-keyboard-response","162","245511","0.0-7.0-0.0-4.0-0.0-1.27","4","4","3","3","4","3","3","3","3","4","4","3","3","4","3","4","3","3","4","4","1","1","2","2","2","2","2","2","1","1","0","1","1","0","0","1","1","0","1","1","0","1","0","1","5","3","3","1","3","3","4","4","3","2","740167970172702721","陈","48","","","","","","","","","","","","","","","","","","","","","","","","","","","","","","feedback_test","","","","","","","","","",""
"737","","j","psychophysics","163","247257","0.0-7.0-0.0-4.0-0.0-0.28","4","4","3","3","4","3","3","3","3","4","4","3","3","4","3","4","3","3","4","4","1","1","2","2","2","2","2","2","1","1","0","1","1","0","0","1","1","0","1","1","0","1","0","1","5","3","3","1","3","3","4","4","3","2","740167970172702721","陈","48","","","","nonmatch","","","","","","","","","","","","","","key","j","16.65990384615361","683","380","j","true","nonmatch","img/hexagon.png","梯形","六边","ALT1","formal_ALT1_1","","","","","","","","","",""
"null","<span style='color:GreenYellow; font-size: 70px;'>正确! </span>","null","html-keyboard-response","164","247760","0.0-7.0-0.0-4.0-0.0-1.28","4","4","3","3","4","3","3","3","3","4","4","3","3","4","3","4","3","3","4","4","1","1","2","2","2","2","2","2","1","1","0","1","1","0","0","1","1","0","1","1","0","1","0","1","5","3","3","1","3","3","4","4","3","2","740167970172702721","陈","48","","","","","","","","","","","","","","","","","","","","","","","","","","","","","","feedback_test","","","","","","","","","",""
"942","","f","psychophysics","165","249710","0.0-7.0-0.0-4.0-0.0-0.29","4","4","3","3","4","3","3","3","3","4","4","3","3","4","3","4","3","3","4","4","1","1","2","2","2","2","2","2","1","1","0","1","1","0","0","1","1","0","1","1","0","1","0","1","5","3","3","1","3","3","4","4","3","2","740167970172702721","陈","48","","","","match","","","","","","","","","","","","","","key","f","16.666859649123037","683","380","f","true","match","img/diamond.png","菱形","菱形","ALT1","formal_ALT1_1","","","","","","","","","",""
"null","<span style='color:GreenYellow; font-size: 70px;'>正确! </span>","null","html-keyboard-response","166","250216","0.0-7.0-0.0-4.0-0.0-1.29","4","4","3","3","4","3","3","3","3","4","4","3","3","4","3","4","3","3","4","4","1","1","2","2","2","2","2","2","1","1","0","1","1","0","0","1","1","0","1","1","0","1","0","1","5","3","3","1","3","3","4","4","3","2","740167970172702721","陈","48","","","","","","","","","","","","","","","","","","","","","","","","","","","","","","feedback_test","","","","","","","","","",""
"720","","f","psychophysics","167","251942","0.0-7.0-0.0-4.0-0.0-0.30","4","4","3","3","4","3","3","3","3","4","4","3","3","4","3","4","3","3","4","4","1","1","2","2","2","2","2","2","1","1","0","1","1","0","0","1","1","0","1","1","0","1","0","1","5","3","3","1","3","3","4","4","3","2","740167970172702721","陈","48","","","","match","","","","","","","","","","","","","","key","f","16.66615533980584","683","380","f","true","match","img/hexagon.png","六边","六边","ALT1","formal_ALT1_1","","","","","","","","","",""
"null","<span style='color:GreenYellow; font-size: 70px;'>正确! </span>","null","html-keyboard-response","168","252448","0.0-7.0-0.0-4.0-0.0-1.30","4","4","3","3","4","3","3","3","3","4","4","3","3","4","3","4","3","3","4","4","1","1","2","2","2","2","2","2","1","1","0","1","1","0","0","1","1","0","1","1","0","1","0","1","5","3","3","1","3","3","4","4","3","2","740167970172702721","陈","48","","","","","","","","","","","","","","","","","","","","","","","","","","","","","","feedback_test","","","","","","","","","",""
"670","","f","psychophysics","169","254126","0.0-7.0-0.0-4.0-0.0-0.31","4","4","3","3","4","3","3","3","3","4","4","3","3","4","3","4","3","3","4","4","1","1","2","2","2","2","2","2","1","1","0","1","1","0","0","1","1","0","1","1","0","1","0","1","5","3","3","1","3","3","4","4","3","2","740167970172702721","陈","48","","","","match","","","","","","","","","","","","","","key","f","16.665470000000205","683","380","f","true","match","img/ellipse.png","椭圆","椭圆","ALT1","formal_ALT1_1","","","","","","","","","",""
"null","<span style='color:GreenYellow; font-size: 70px;'>正确! </span>","null","html-keyboard-response","170","254632","0.0-7.0-0.0-4.0-0.0-1.31","4","4","3","3","4","3","3","3","3","4","4","3","3","4","3","4","3","3","4","4","1","1","2","2","2","2","2","2","1","1","0","1","1","0","0","1","1","0","1","1","0","1","0","1","5","3","3","1","3","3","4","4","3","2","740167970172702721","陈","48","","","","","","","","","","","","","","","","","","","","","","","","","","","","","","feedback_test","","","","","","","","","",""
"607","","f","psychophysics","171","256246","0.0-7.0-0.0-4.0-0.0-0.32","4","4","3","3","4","3","3","3","3","4","4","3","3","4","3","4","3","3","4","4","1","1","2","2","2","2","2","2","1","1","0","1","1","0","0","1","1","0","1","1","0","1","0","1","5","3","3","1","3","3","4","4","3","2","740167970172702721","陈","48","","","","match","","","","","","","","","","","","","","key","f","16.6689687499999","683","380","f","true","match","img/diamond.png","菱形","菱形","ALT1","formal_ALT1_1","","","","","","","","","",""
"null","<span style='color:GreenYellow; font-size: 70px;'>正确! </span>","null","html-keyboard-response","172","256752","0.0-7.0-0.0-4.0-0.0-1.32","4","4","3","3","4","3","3","3","3","4","4","3","3","4","3","4","3","3","4","4","1","1","2","2","2","2","2","2","1","1","0","1","1","0","0","1","1","0","1","1","0","1","0","1","5","3","3","1","3","3","4","4","3","2","740167970172702721","陈","48","","","","","","","","","","","","","","","","","","","","","","","","","","","","","","feedback_test","","","","","","","","","",""
"436","","f","psychophysics","173","258190","0.0-7.0-0.0-4.0-0.0-0.33","4","4","3","3","4","3","3","3","3","4","4","3","3","4","3","4","3","3","4","4","1","1","2","2","2","2","2","2","1","1","0","1","1","0","0","1","1","0","1","1","0","1","0","1","5","3","3","1","3","3","4","4","3","2","740167970172702721","陈","48","","","","match","","","","","","","","","","","","","","key","f","16.65948235294131","683","380","j","false","nonmatch","img/diamond.png","梯形","菱形","ALT1","formal_ALT1_1","","","","","","","","","",""
"null","<span style='color:red; font-size: 70px;'>错误! </span>","null","html-keyboard-response","174","258696","0.0-7.0-0.0-4.0-0.0-1.33","4","4","3","3","4","3","3","3","3","4","4","3","3","4","3","4","3","3","4","4","1","1","2","2","2","2","2","2","1","1","0","1","1","0","0","1","1","0","1","1","0","1","0","1","5","3","3","1","3","3","4","4","3","2","740167970172702721","陈","48","","","","","","","","","","","","","","","","","","","","","","","","","","","","","","feedback_test","","","","","","","","","",""
"null","","null","psychophysics","175","260903","0.0-7.0-0.0-4.0-0.0-0.34","4","4","3","3","4","3","3","3","3","4","4","3","3","4","3","4","3","3","4","4","1","1","2","2","2","2","2","2","1","1","0","1","1","0","0","1","1","0","1","1","0","1","0","1","5","3","3","1","3","3","4","4","3","2","740167970172702721","陈","48","","","","null","","","","","","","","","","","","","","key","null","16.67445038167941","683","380","j","false","nonmatch","img/hexagon.png","椭圆","六边","ALT1","formal_ALT1_1","","","","","","","","","",""
"null","<span class='add_' style='color:yellow; font-size: 70px;'> 太慢! </span>","null","html-keyboard-response","176","261408","0.0-7.0-0.0-4.0-0.0-1.34","4","4","3","3","4","3","3","3","3","4","4","3","3","4","3","4","3","3","4","4","1","1","2","2","2","2","2","2","1","1","0","1","1","0","0","1","1","0","1","1","0","1","0","1","5","3","3","1","3","3","4","4","3","2","740167970172702721","陈","48","","","","","","","","","","","","","","","","","","","","","","","","","","","","","","feedback_test","","","","","","","","","",""
"673","","f","psychophysics","177","263090","0.0-7.0-0.0-4.0-0.0-0.35","4","4","3","3","4","3","3","3","3","4","4","3","3","4","3","4","3","3","4","4","1","1","2","2","2","2","2","2","1","1","0","1","1","0","0","1","1","0","1","1","0","1","0","1","5","3","3","1","3","3","4","4","3","2","740167970172702721","陈","48","","","","match","","","","","","","","","","","","","","key","f","16.654420000000393","683","380","f","true","match","img/trapezoid.png","梯形","梯形","ALT1","formal_ALT1_1","","","","","","","","","",""
"null","<span style='color:GreenYellow; font-size: 70px;'>正确! </span>","null","html-keyboard-response","178","263593","0.0-7.0-0.0-4.0-0.0-1.35","4","4","3","3","4","3","3","3","3","4","4","3","3","4","3","4","3","3","4","4","1","1","2","2","2","2","2","2","1","1","0","1","1","0","0","1","1","0","1","1","0","1","0","1","5","3","3","1","3","3","4","4","3","2","740167970172702721","陈","48","","","","","","","","","","","","","","","","","","","","","","","","","","","","","","feedback_test","","","","","","","","","",""
"872","","j","psychophysics","179","265478","0.0-7.0-0.0-4.0-0.0-0.36","4","4","3","3","4","3","3","3","3","4","4","3","3","4","3","4","3","3","4","4","1","1","2","2","2","2","2","2","1","1","0","1","1","0","0","1","1","0","1","1","0","1","0","1","5","3","3","1","3","3","4","4","3","2","740167970172702721","陈","48","","","","nonmatch","","","","","","","","","","","","","","key","j","16.669366071428417","683","380","j","true","nonmatch","img/trapezoid.png","椭圆","梯形","ALT1","formal_ALT1_1","","","","","","","","","",""
"null","<span style='color:GreenYellow; font-size: 70px;'>正确! </span>","null","html-keyboard-response","180","265985","0.0-7.0-0.0-4.0-0.0-1.36","4","4","3","3","4","3","3","3","3","4","4","3","3","4","3","4","3","3","4","4","1","1","2","2","2","2","2","2","1","1","0","1","1","0","0","1","1","0","1","1","0","1","0","1","5","3","3","1","3","3","4","4","3","2","740167970172702721","陈","48","","","","","","","","","","","","","","","","","","","","","","","","","","","","","","feedback_test","","","","","","","","","",""
"835","","j","psychophysics","181","267822","0.0-7.0-0.0-4.0-0.0-0.37","4","4","3","3","4","3","3","3","3","4","4","3","3","4","3","4","3","3","4","4","1","1","2","2","2","2","2","2","1","1","0","1","1","0","0","1","1","0","1","1","0","1","0","1","5","3","3","1","3","3","4","4","3","2","740167970172702721","陈","48","","","","nonmatch","","","","","","","","","","","","","","key","j","16.666477064220256","683","380","j","true","nonmatch","img/hexagon.png","菱形","六边","ALT1","formal_ALT1_1","","","","","","","","","",""
"null","<span style='color:GreenYellow; font-size: 70px;'>正确! </span>","null","html-keyboard-response","182","268329","0.0-7.0-0.0-4.0-0.0-1.37","4","4","3","3","4","3","3","3","3","4","4","3","3","4","3","4","3","3","4","4","1","1","2","2","2","2","2","2","1","1","0","1","1","0","0","1","1","0","1","1","0","1","0","1","5","3","3","1","3","3","4","4","3","2","740167970172702721","陈","48","","","","","","","","","","","","","","","","","","","","","","","","","","","","","","feedback_test","","","","","","","","","",""
"740","","j","psychophysics","183","270078","0.0-7.0-0.0-4.0-0.0-0.38","4","4","3","3","4","3","3","3","3","4","4","3","3","4","3","4","3","3","4","4","1","1","2","2","2","2","2","2","1","1","0","1","1","0","0","1","1","0","1","1","0","1","0","1","5","3","3","1","3","3","4","4","3","2","740167970172702721","陈","48","","","","nonmatch","","","","","","","","","","","","","","key","j","16.66675000000004","683","380","j","true","nonmatch","img/trapezoid.png","菱形","梯形","ALT1","formal_ALT1_1","","","","","","","","","",""
"null","<span style='color:GreenYellow; font-size: 70px;'>正确! </span>","null","html-keyboard-response","184","270584","0.0-7.0-0.0-4.0-0.0-1.38","4","4","3","3","4","3","3","3","3","4","4","3","3","4","3","4","3","3","4","4","1","1","2","2","2","2","2","2","1","1","0","1","1","0","0","1","1","0","1","1","0","1","0","1","5","3","3","1","3","3","4","4","3","2","740167970172702721","陈","48","","","","","","","","","","","","","","","","","","","","","","","","","","","","","","feedback_test","","","","","","","","","",""
"675","","f","psychophysics","185","272262","0.0-7.0-0.0-4.0-0.0-0.39","4","4","3","3","4","3","3","3","3","4","4","3","3","4","3","4","3","3","4","4","1","1","2","2","2","2","2","2","1","1","0","1","1","0","0","1","1","0","1","1","0","1","0","1","5","3","3","1","3","3","4","4","3","2","740167970172702721","陈","48","","","","match","","","","","","","","","","","","","","key","f","16.655444444444694","683","380","f","true","match","img/hexagon.png","六边","六边","ALT1","formal_ALT1_1","","","","","","","","","",""
