"rt","stimulus","response","trial_type","trial_index","time_elapsed","internal_node_id","ses_1","ses_2","ses_3","ses_4","ses_5","ses_6","ses_7","ses_8","ses_9","ses_10","coreself_1","coreself_2","coreself_3","coreself_4","coreself_5","coreself_6","coreself_7","coreself_8","coreself_9","coreself_10","SGPS_1","SGPS_2","SGPS_3","SGPS_4","SGPS_5","SGPS_6","SGPS_7","SGPS_8","SGPS_9","NPI1","NPI2","NPI3","NPI4","NPI5","NPI6","NPI7","NPI8","NPI9","NPI10","NPI11","NPI12","NPI13","NPI14","NPI15","hsns_1","hsns_2","hsns_3","hsns_4","hsns_5","hsns_6","hsns_7","hsns_8","hsns_9","hsns_10","subj_idx","friend_name","ParticipantID","value","success","user_agent","responses","item_order","radio_event_ids","radio_event_times","key_event_times","mouse_event_times","straightlining","zigzagging","honeypot","timeout","failed_images","failed_audio","failed_video","view_history","response_type","key_press","avg_frame_time","center_x","center_y","correct_response","correct","identity","Image","word","condition","task_id","screen_id","time_stamp","version_attrib2","version_target2","IAT","RT","varname","summary","version_attrib","version_target","question_order"
"35562","
   <p><div style = ""color: white;font-size:25px;"">您好，欢迎参加本次实验。</div> </p>
   <p><div style = ""color: white;font-size:25px;"">为充分保障您的权利，请确保您已经知晓并同意《参与实验同意书》以及《数据公开知情同意书》。</div></p>
   <p><div style = ""color: white;font-size:25px;"">如果您未见过上述内容，请咨询实验员。</div></p>
   <p><div style = ""color: white;font-size:25px;"">如果您选择继续实验，则表示您已经清楚两份知情同意书的内容并同意。</div></p>
   <p><div style = ""color: red;font-size:30px;"">请确保您记得day0的实验编号，您将在本次实验输入该编号，若您忘记，请咨询实验员后作答。</div></p>
   <p> <div style = ""color: green;font-size:25px;""><按空格键至下页></div> </p>
   "," ","html-keyboard-response","0","35565","0.0-0.0","3","3","4","3","3","4","4","3","3","4","4","4","4","4","5","5","4","3","4","5","2","3","1","2","2","2","2","4","1","1","0","1","1","0","0","0","1","0","1","1","0","1","0","1","5","2","2","1","1","2","2","1","1","2","768804353862799361","李","668","","","","","","","","","","","","","","","","","","","","","","","","","","","","","","","","","","","","","","","",""
"","","","call-function","1","35565","0.0-1.0-0.0","3","3","4","3","3","4","4","3","3","4","4","4","4","4","5","5","4","3","4","5","2","3","1","2","2","2","2","4","1","1","0","1","1","0","0","0","1","0","1","1","0","1","0","1","5","2","2","1","1","2","2","1","1","2","768804353862799361","李","668","","","","","","","","","","","","","","","","","","","","","","","","","","","","","","","","","","","","","","","",""
"22554","","{""friend_name"":""李"",""ParticipantID"":""668""}","survey-html-form","2","58120","0.0-1.0-1.0","3","3","4","3","3","4","4","3","3","4","4","4","4","4","5","5","4","3","4","5","2","3","1","2","2","2","2","4","1","1","0","1","1","0","0","0","1","0","1","1","0","1","0","1","5","2","2","1","1","2","2","1","1","2","768804353862799361","李","668","","","","","","","","","","","","","","","","","","","","","","","","","","","","","","","","","","","","","","","",""
"","","","fullscreen","3","98831","0.0-2.0","3","3","4","3","3","4","4","3","3","4","4","4","4","4","5","5","4","3","4","5","2","3","1","2","2","2","2","4","1","1","0","1","1","0","0","0","1","0","1","1","0","1","0","1","5","2","2","1","1","2","2","1","1","2","768804353862799361","李","668","","true","{}","","","","","","","","","","","","","","","","","","","","","","","","","","","","","","","","","","","","",""
"33943.59999999404","","{""Q01"":""3"",""Q02"":""3"",""Q03"":""4"",""Q04"":""3"",""Q05"":""3"",""Q06"":""4"",""Q07"":""4"",""Q08"":""3"",""Q09"":""3"",""Q10"":""4""}","survey-template","4","132777","0.0-3.0","3","3","4","3","3","4","4","3","3","4","4","4","4","4","5","5","4","3","4","5","2","3","1","2","2","2","2","4","1","1","0","1","1","0","0","0","1","0","1","1","0","1","0","1","5","2","2","1","1","2","2","1","1","2","768804353862799361","李","668","","","","{""Q01"":""3"",""Q02"":""3"",""Q03"":""4"",""Q04"":""3"",""Q05"":""3"",""Q06"":""4"",""Q07"":""4"",""Q08"":""3"",""Q09"":""3"",""Q10"":""4""}","[0,1,2,3,4,5,6,7,8,9]","[""Q01"",""Q02"",""Q03"",""Q04"",""Q05"",""Q06"",""Q07"",""Q08"",""Q09"",""Q10""]","[8594.70000000298,12429,14013.09999999404,15724.70000000298,18723.29999999702,20114.70000000298,22166.79999999702,25917,28096.59999999404,29769]","[]","[8594.70000000298,12429,14013.09999999404,15724.70000000298,18723.29999999702,20114.70000000298,22166.79999999702,25917,28096.59999999404,29769,33942.90000000596]","0.3","0.2222222222222222","0","","","","","","","","","","","","","","","","","","","","","","","","","","","",""
"44602.59999999404","","{""Q01"":""4"",""Q02"":""4"",""Q03"":""4"",""Q04"":""4"",""Q05"":""5"",""Q06"":""5"",""Q07"":""4"",""Q08"":""3"",""Q09"":""4"",""Q10"":""5""}","survey-template","5","177383","0.0-4.0","3","3","4","3","3","4","4","3","3","4","4","4","4","4","5","5","4","3","4","5","2","3","1","2","2","2","2","4","1","1","0","1","1","0","0","0","1","0","1","1","0","1","0","1","5","2","2","1","1","2","2","1","1","2","768804353862799361","李","668","","","","{""Q01"":""4"",""Q02"":""4"",""Q03"":""4"",""Q04"":""4"",""Q05"":""5"",""Q06"":""5"",""Q07"":""4"",""Q08"":""3"",""Q09"":""4"",""Q10"":""5""}","[0,1,2,3,4,5,6,7,8,9]","[""Q01"",""Q02"",""Q03"",""Q04"",""Q05"",""Q06"",""Q07"",""Q08"",""Q09"",""Q10""]","[10385.39999999106,13077.70000000298,15399.79999999702,18619.39999999106,20663.39999999106,22369.70000000298,24377.5,28981.5,31251.29999999702,36055.29999999702]","[]","[10385.39999999106,13077.70000000298,15399.79999999702,18619.39999999106,20663.39999999106,22369.70000000298,24377.5,28981.5,31251.29999999702,36055.29999999702,44601.89999999106]","0.3","0.3333333333333333","0","","","","","","","","","","","","","","","","","","","","","","","","","","","",""
"","","","preload","6","183306","0.0-5.0","3","3","4","3","3","4","4","3","3","4","4","4","4","4","5","5","4","3","4","5","2","3","1","2","2","2","2","4","1","1","0","1","1","0","0","0","1","0","1","1","0","1","0","1","5","2","2","1","1","2","2","1","1","2","768804353862799361","李","668","","true","","","","","","","","","","","false","[]","[]","[]","","","","","","","","","","","","","","","","","","","","","","","",""
"25517","","","instructions","7","208822","0.0-6.0","3","3","4","3","3","4","4","3","3","4","4","4","4","4","5","5","4","3","4","5","2","3","1","2","2","2","2","4","1","1","0","1","1","0","0","0","1","0","1","1","0","1","0","1","5","2","2","1","1","2","2","1","1","2","768804353862799361","李","668","","","","","","","","","","","","","","","","","[{""page_index"":0,""viewing_time"":25516}]","","","","","","","","","","","","","","","","","","","","","","",""
"42910","","","instructions","8","251733","0.0-7.0-1.0-0.0","3","3","4","3","3","4","4","3","3","4","4","4","4","4","5","5","4","3","4","5","2","3","1","2","2","2","2","4","1","1","0","1","1","0","0","0","1","0","1","1","0","1","0","1","5","2","2","1","1","2","2","1","1","2","768804353862799361","李","668","","","","","","","","","","","","","","","","","[{""page_index"":0,""viewing_time"":16786},{""page_index"":1,""viewing_time"":21574},{""page_index"":2,""viewing_time"":4550}]","","","","","","","","","","","","","","","","","","","","","","",""
"null","","null","psychophysics","9","253937","0.0-7.0-1.0-1.0-0.0-0.0","3","3","4","3","3","4","4","3","3","4","4","4","4","4","5","5","4","3","4","5","2","3","1","2","2","2","2","4","1","1","0","1","1","0","0","0","1","0","1","1","0","1","0","1","5","2","2","1","1","2","2","1","1","2","768804353862799361","李","668","","","","null","","","","","","","","","","","","","","key","null","16.666740458015216","747","463","f","false","match","img/pentagon.png","五边","五边","ALT1_2","prac_ALT1_2","","","","","","","","","",""
"null","<span class='add_' style='color:yellow; font-size: 70px;'> 太慢! </span>","null","html-keyboard-response","10","254438","0.0-7.0-1.0-1.0-0.0-1.0","3","3","4","3","3","4","4","3","3","4","4","4","4","4","5","5","4","3","4","5","2","3","1","2","2","2","2","4","1","1","0","1","1","0","0","0","1","0","1","1","0","1","0","1","5","2","2","1","1","2","2","1","1","2","768804353862799361","李","668","","","","","","","","","","","","","","","","","","","","","","","","","","","","","","feedback_test","","","","","","","","","",""
"352","","f","psychophysics","11","255792","0.0-7.0-1.0-1.0-0.0-0.1","3","3","4","3","3","4","4","3","3","4","4","4","4","4","5","5","4","3","4","5","2","3","1","2","2","2","2","4","1","1","0","1","1","0","0","0","1","0","1","1","0","1","0","1","5","2","2","1","1","2","2","1","1","2","768804353862799361","李","668","","","","match","","","","","","","","","","","","","","key","f","16.663275000000432","747","463","f","true","match","img/square.png","方形","方形","ALT1_2","prac_ALT1_2","","","","","","","","","",""
"null","<span style='color:GreenYellow; font-size: 70px;'>正确! </span>","null","html-keyboard-response","12","256293","0.0-7.0-1.0-1.0-0.0-1.1","3","3","4","3","3","4","4","3","3","4","4","4","4","4","5","5","4","3","4","5","2","3","1","2","2","2","2","4","1","1","0","1","1","0","0","0","1","0","1","1","0","1","0","1","5","2","2","1","1","2","2","1","1","2","768804353862799361","李","668","","","","","","","","","","","","","","","","","","","","","","","","","","","","","","feedback_test","","","","","","","","","",""
"423","","f","psychophysics","13","257717","0.0-7.0-1.0-1.0-0.0-0.2","3","3","4","3","3","4","4","3","3","4","4","4","4","4","5","5","4","3","4","5","2","3","1","2","2","2","2","4","1","1","0","1","1","0","0","0","1","0","1","1","0","1","0","1","5","2","2","1","1","2","2","1","1","2","768804353862799361","李","668","","","","match","","","","","","","","","","","","","","key","f","16.664226190475997","747","463","j","false","nonmatch","img/pentagon.png","方形","五边","ALT1_2","prac_ALT1_2","","","","","","","","","",""
"null","<span style='color:red; font-size: 70px;'>错误! </span>","null","html-keyboard-response","14","258218","0.0-7.0-1.0-1.0-0.0-1.2","3","3","4","3","3","4","4","3","3","4","4","4","4","4","5","5","4","3","4","5","2","3","1","2","2","2","2","4","1","1","0","1","1","0","0","0","1","0","1","1","0","1","0","1","5","2","2","1","1","2","2","1","1","2","768804353862799361","李","668","","","","","","","","","","","","","","","","","","","","","","","","","","","","","","feedback_test","","","","","","","","","",""
"380","","j","psychophysics","15","259600","0.0-7.0-1.0-1.0-0.0-0.3","3","3","4","3","3","4","4","3","3","4","4","4","4","4","5","5","4","3","4","5","2","3","1","2","2","2","2","4","1","1","0","1","1","0","0","0","1","0","1","1","0","1","0","1","5","2","2","1","1","2","2","1","1","2","768804353862799361","李","668","","","","nonmatch","","","","","","","","","","","","","","key","j","16.66876829268266","747","463","f","false","match","img/triangle.png","三角","三角","ALT1_2","prac_ALT1_2","","","","","","","","","",""
"null","<span style='color:red; font-size: 70px;'>错误! </span>","null","html-keyboard-response","16","260101","0.0-7.0-1.0-1.0-0.0-1.3","3","3","4","3","3","4","4","3","3","4","4","4","4","4","5","5","4","3","4","5","2","3","1","2","2","2","2","4","1","1","0","1","1","0","0","0","1","0","1","1","0","1","0","1","5","2","2","1","1","2","2","1","1","2","768804353862799361","李","668","","","","","","","","","","","","","","","","","","","","","","","","","","","","","","feedback_test","","","","","","","","","",""
"233","","f","psychophysics","17","261335","0.0-7.0-1.0-1.0-0.0-0.4","3","3","4","3","3","4","4","3","3","4","4","4","4","4","5","5","4","3","4","5","2","3","1","2","2","2","2","4","1","1","0","1","1","0","0","0","1","0","1","1","0","1","0","1","5","2","2","1","1","2","2","1","1","2","768804353862799361","李","668","","","","match","","","","","","","","","","","","","","key","f","16.6697945205482","747","463","f","true","match","img/circle.png","圆形","圆形","ALT1_2","prac_ALT1_2","","","","","","","","","",""
"null","<span style='color:GreenYellow; font-size: 70px;'>正确! </span>","null","html-keyboard-response","18","261836","0.0-7.0-1.0-1.0-0.0-1.4","3","3","4","3","3","4","4","3","3","4","4","4","4","4","5","5","4","3","4","5","2","3","1","2","2","2","2","4","1","1","0","1","1","0","0","0","1","0","1","1","0","1","0","1","5","2","2","1","1","2","2","1","1","2","768804353862799361","李","668","","","","","","","","","","","","","","","","","","","","","","","","","","","","","","feedback_test","","","","","","","","","",""
"292","","f","psychophysics","19","263130","0.0-7.0-1.0-1.0-0.0-0.5","3","3","4","3","3","4","4","3","3","4","4","4","4","4","5","5","4","3","4","5","2","3","1","2","2","2","2","4","1","1","0","1","1","0","0","0","1","0","1","1","0","1","0","1","5","2","2","1","1","2","2","1","1","2","768804353862799361","李","668","","","","match","","","","","","","","","","","","","","key","f","16.669805194805345","747","463","f","true","match","img/circle.png","圆形","圆形","ALT1_2","prac_ALT1_2","","","","","","","","","",""
"null","<span style='color:GreenYellow; font-size: 70px;'>正确! </span>","null","html-keyboard-response","20","263632","0.0-7.0-1.0-1.0-0.0-1.5","3","3","4","3","3","4","4","3","3","4","4","4","4","4","5","5","4","3","4","5","2","3","1","2","2","2","2","4","1","1","0","1","1","0","0","0","1","0","1","1","0","1","0","1","5","2","2","1","1","2","2","1","1","2","768804353862799361","李","668","","","","","","","","","","","","","","","","","","","","","","","","","","","","","","feedback_test","","","","","","","","","",""
"317","","f","psychophysics","21","264949","0.0-7.0-1.0-1.0-0.0-0.6","3","3","4","3","3","4","4","3","3","4","4","4","4","4","5","5","4","3","4","5","2","3","1","2","2","2","2","4","1","1","0","1","1","0","0","0","1","0","1","1","0","1","0","1","5","2","2","1","1","2","2","1","1","2","768804353862799361","李","668","","","","match","","","","","","","","","","","","","","key","f","16.663166666666093","747","463","f","true","match","img/square.png","方形","方形","ALT1_2","prac_ALT1_2","","","","","","","","","",""
"null","<span style='color:GreenYellow; font-size: 70px;'>正确! </span>","null","html-keyboard-response","22","265451","0.0-7.0-1.0-1.0-0.0-1.6","3","3","4","3","3","4","4","3","3","4","4","4","4","4","5","5","4","3","4","5","2","3","1","2","2","2","2","4","1","1","0","1","1","0","0","0","1","0","1","1","0","1","0","1","5","2","2","1","1","2","2","1","1","2","768804353862799361","李","668","","","","","","","","","","","","","","","","","","","","","","","","","","","","","","feedback_test","","","","","","","","","",""
"13","","j","psychophysics","23","266465","0.0-7.0-1.0-1.0-0.0-0.7","3","3","4","3","3","4","4","3","3","4","4","4","4","4","5","5","4","3","4","5","2","3","1","2","2","2","2","4","1","1","0","1","1","0","0","0","1","0","1","1","0","1","0","1","5","2","2","1","1","2","2","1","1","2","768804353862799361","李","668","","","","nonmatch","","","","","","","","","","","","","","key","j","16.665400000000954","747","463","f","false","match","img/triangle.png","三角","三角","ALT1_2","prac_ALT1_2","","","","","","","","","",""
"null","<span style='color:yellow; font-size: 70px;'>过快! </span>","null","html-keyboard-response","24","266966","0.0-7.0-1.0-1.0-0.0-1.7","3","3","4","3","3","4","4","3","3","4","4","4","4","4","5","5","4","3","4","5","2","3","1","2","2","2","2","4","1","1","0","1","1","0","0","0","1","0","1","1","0","1","0","1","5","2","2","1","1","2","2","1","1","2","768804353862799361","李","668","","","","","","","","","","","","","","","","","","","","","","","","","","","","","","feedback_test","","","","","","","","","",""
"null","","null","psychophysics","25","269169","0.0-7.0-1.0-1.0-0.0-0.8","3","3","4","3","3","4","4","3","3","4","4","4","4","4","5","5","4","3","4","5","2","3","1","2","2","2","2","4","1","1","0","1","1","0","0","0","1","0","1","1","0","1","0","1","5","2","2","1","1","2","2","1","1","2","768804353862799361","李","668","","","","null","","","","","","","","","","","","","","key","null","16.666221374045534","747","463","f","false","match","img/circle.png","圆形","圆形","ALT1_2","prac_ALT1_2","","","","","","","","","",""
"null","<span class='add_' style='color:yellow; font-size: 70px;'> 太慢! </span>","null","html-keyboard-response","26","269670","0.0-7.0-1.0-1.0-0.0-1.8","3","3","4","3","3","4","4","3","3","4","4","4","4","4","5","5","4","3","4","5","2","3","1","2","2","2","2","4","1","1","0","1","1","0","0","0","1","0","1","1","0","1","0","1","5","2","2","1","1","2","2","1","1","2","768804353862799361","李","668","","","","","","","","","","","","","","","","","","","","","","","","","","","","","","feedback_test","","","","","","","","","",""
"332","","f","psychophysics","27","271003","0.0-7.0-1.0-1.0-0.0-0.9","3","3","4","3","3","4","4","3","3","4","4","4","4","4","5","5","4","3","4","5","2","3","1","2","2","2","2","4","1","1","0","1","1","0","0","0","1","0","1","1","0","1","0","1","5","2","2","1","1","2","2","1","1","2","768804353862799361","李","668","","","","match","","","","","","","","","","","","","","key","f","16.665658227848095","747","463","j","false","nonmatch","img/pentagon.png","圆形","五边","ALT1_2","prac_ALT1_2","","","","","","","","","",""
"null","<span style='color:red; font-size: 70px;'>错误! </span>","null","html-keyboard-response","28","271506","0.0-7.0-1.0-1.0-0.0-1.9","3","3","4","3","3","4","4","3","3","4","4","4","4","4","5","5","4","3","4","5","2","3","1","2","2","2","2","4","1","1","0","1","1","0","0","0","1","0","1","1","0","1","0","1","5","2","2","1","1","2","2","1","1","2","768804353862799361","李","668","","","","","","","","","","","","","","","","","","","","","","","","","","","","","","feedback_test","","","","","","","","","",""
"188","","j","psychophysics","29","272700","0.0-7.0-1.0-1.0-0.0-0.10","3","3","4","3","3","4","4","3","3","4","4","4","4","4","5","5","4","3","4","5","2","3","1","2","2","2","2","4","1","1","0","1","1","0","0","0","1","0","1","1","0","1","0","1","5","2","2","1","1","2","2","1","1","2","768804353862799361","李","668","","","","nonmatch","","","","","","","","","","","","","","key","j","16.66766197183071","747","463","j","true","nonmatch","img/square.png","圆形","方形","ALT1_2","prac_ALT1_2","","","","","","","","","",""
"null","<span style='color:yellow; font-size: 70px;'>过快! </span>","null","html-keyboard-response","30","273202","0.0-7.0-1.0-1.0-0.0-1.10","3","3","4","3","3","4","4","3","3","4","4","4","4","4","5","5","4","3","4","5","2","3","1","2","2","2","2","4","1","1","0","1","1","0","0","0","1","0","1","1","0","1","0","1","5","2","2","1","1","2","2","1","1","2","768804353862799361","李","668","","","","","","","","","","","","","","","","","","","","","","","","","","","","","","feedback_test","","","","","","","","","",""
"272","","f","psychophysics","31","274474","0.0-7.0-1.0-1.0-0.0-0.11","3","3","4","3","3","4","4","3","3","4","4","4","4","4","5","5","4","3","4","5","2","3","1","2","2","2","2","4","1","1","0","1","1","0","0","0","1","0","1","1","0","1","0","1","5","2","2","1","1","2","2","1","1","2","768804353862799361","李","668","","","","match","","","","","","","","","","","","","","key","f","16.66502666666638","747","463","j","false","nonmatch","img/triangle.png","方形","三角","ALT1_2","prac_ALT1_2","","","","","","","","","",""
"null","<span style='color:red; font-size: 70px;'>错误! </span>","null","html-keyboard-response","32","274975","0.0-7.0-1.0-1.0-0.0-1.11","3","3","4","3","3","4","4","3","3","4","4","4","4","4","5","5","4","3","4","5","2","3","1","2","2","2","2","4","1","1","0","1","1","0","0","0","1","0","1","1","0","1","0","1","5","2","2","1","1","2","2","1","1","2","768804353862799361","李","668","","","","","","","","","","","","","","","","","","","","","","","","","","","","","","feedback_test","","","","","","","","","",""
"223","","f","psychophysics","33","276200","0.0-7.0-1.0-1.0-0.0-0.12","3","3","4","3","3","4","4","3","3","4","4","4","4","4","5","5","4","3","4","5","2","3","1","2","2","2","2","4","1","1","0","1","1","0","0","0","1","0","1","1","0","1","0","1","5","2","2","1","1","2","2","1","1","2","768804353862799361","李","668","","","","match","","","","","","","","","","","","","","key","f","16.667794520548092","747","463","j","false","nonmatch","img/circle.png","三角","圆形","ALT1_2","prac_ALT1_2","","","","","","","","","",""
"null","<span style='color:red; font-size: 70px;'>错误! </span>","null","html-keyboard-response","34","276700","0.0-7.0-1.0-1.0-0.0-1.12","3","3","4","3","3","4","4","3","3","4","4","4","4","4","5","5","4","3","4","5","2","3","1","2","2","2","2","4","1","1","0","1","1","0","0","0","1","0","1","1","0","1","0","1","5","2","2","1","1","2","2","1","1","2","768804353862799361","李","668","","","","","","","","","","","","","","","","","","","","","","","","","","","","","","feedback_test","","","","","","","","","",""
"361","","f","psychophysics","35","278063","0.0-7.0-1.0-1.0-0.0-0.13","3","3","4","3","3","4","4","3","3","4","4","4","4","4","5","5","4","3","4","5","2","3","1","2","2","2","2","4","1","1","0","1","1","0","0","0","1","0","1","1","0","1","0","1","5","2","2","1","1","2","2","1","1","2","768804353862799361","李","668","","","","match","","","","","","","","","","","","","","key","f","16.667024691358503","747","463","f","true","match","img/pentagon.png","五边","五边","ALT1_2","prac_ALT1_2","","","","","","","","","",""
"null","<span style='color:GreenYellow; font-size: 70px;'>正确! </span>","null","html-keyboard-response","36","278565","0.0-7.0-1.0-1.0-0.0-1.13","3","3","4","3","3","4","4","3","3","4","4","4","4","4","5","5","4","3","4","5","2","3","1","2","2","2","2","4","1","1","0","1","1","0","0","0","1","0","1","1","0","1","0","1","5","2","2","1","1","2","2","1","1","2","768804353862799361","李","668","","","","","","","","","","","","","","","","","","","","","","","","","","","","","","feedback_test","","","","","","","","","",""
"203","","f","psychophysics","37","279769","0.0-7.0-1.0-1.0-0.0-0.14","3","3","4","3","3","4","4","3","3","4","4","4","4","4","5","5","4","3","4","5","2","3","1","2","2","2","2","4","1","1","0","1","1","0","0","0","1","0","1","1","0","1","0","1","5","2","2","1","1","2","2","1","1","2","768804353862799361","李","668","","","","match","","","","","","","","","","","","","","key","f","16.663943661972027","747","463","j","false","nonmatch","img/square.png","五边","方形","ALT1_2","prac_ALT1_2","","","","","","","","","",""
"null","<span style='color:red; font-size: 70px;'>错误! </span>","null","html-keyboard-response","38","280270","0.0-7.0-1.0-1.0-0.0-1.14","3","3","4","3","3","4","4","3","3","4","4","4","4","4","5","5","4","3","4","5","2","3","1","2","2","2","2","4","1","1","0","1","1","0","0","0","1","0","1","1","0","1","0","1","5","2","2","1","1","2","2","1","1","2","768804353862799361","李","668","","","","","","","","","","","","","","","","","","","","","","","","","","","","","","feedback_test","","","","","","","","","",""
"260","","f","psychophysics","39","281531","0.0-7.0-1.0-1.0-0.0-0.15","3","3","4","3","3","4","4","3","3","4","4","4","4","4","5","5","4","3","4","5","2","3","1","2","2","2","2","4","1","1","0","1","1","0","0","0","1","0","1","1","0","1","0","1","5","2","2","1","1","2","2","1","1","2","768804353862799361","李","668","","","","match","","","","","","","","","","","","","","key","f","16.66281333333347","747","463","j","false","nonmatch","img/triangle.png","五边","三角","ALT1_2","prac_ALT1_2","","","","","","","","","",""
"null","<span style='color:red; font-size: 70px;'>错误! </span>","null","html-keyboard-response","40","282032","0.0-7.0-1.0-1.0-0.0-1.15","3","3","4","3","3","4","4","3","3","4","4","4","4","4","5","5","4","3","4","5","2","3","1","2","2","2","2","4","1","1","0","1","1","0","0","0","1","0","1","1","0","1","0","1","5","2","2","1","1","2","2","1","1","2","768804353862799361","李","668","","","","","","","","","","","","","","","","","","","","","","","","","","","","","","feedback_test","","","","","","","","","",""
"234","","f","psychophysics","41","283267","0.0-7.0-1.0-1.0-0.0-0.16","3","3","4","3","3","4","4","3","3","4","4","4","4","4","5","5","4","3","4","5","2","3","1","2","2","2","2","4","1","1","0","1","1","0","0","0","1","0","1","1","0","1","0","1","5","2","2","1","1","2","2","1","1","2","768804353862799361","李","668","","","","match","","","","","","","","","","","","","","key","f","16.66686301369839","747","463","j","false","nonmatch","img/square.png","三角","方形","ALT1_2","prac_ALT1_2","","","","","","","","","",""
"null","<span style='color:red; font-size: 70px;'>错误! </span>","null","html-keyboard-response","42","283769","0.0-7.0-1.0-1.0-0.0-1.16","3","3","4","3","3","4","4","3","3","4","4","4","4","4","5","5","4","3","4","5","2","3","1","2","2","2","2","4","1","1","0","1","1","0","0","0","1","0","1","1","0","1","0","1","5","2","2","1","1","2","2","1","1","2","768804353862799361","李","668","","","","","","","","","","","","","","","","","","","","","","","","","","","","","","feedback_test","","","","","","","","","",""
"201","","j","psychophysics","43","284970","0.0-7.0-1.0-1.0-0.0-0.17","3","3","4","3","3","4","4","3","3","4","4","4","4","4","5","5","4","3","4","5","2","3","1","2","2","2","2","4","1","1","0","1","1","0","0","0","1","0","1","1","0","1","0","1","5","2","2","1","1","2","2","1","1","2","768804353862799361","李","668","","","","nonmatch","","","","","","","","","","","","","","key","j","16.66653521126792","747","463","f","false","match","img/triangle.png","三角","三角","ALT1_2","prac_ALT1_2","","","","","","","","","",""
"null","<span style='color:red; font-size: 70px;'>错误! </span>","null","html-keyboard-response","44","285471","0.0-7.0-1.0-1.0-0.0-1.17","3","3","4","3","3","4","4","3","3","4","4","4","4","4","5","5","4","3","4","5","2","3","1","2","2","2","2","4","1","1","0","1","1","0","0","0","1","0","1","1","0","1","0","1","5","2","2","1","1","2","2","1","1","2","768804353862799361","李","668","","","","","","","","","","","","","","","","","","","","","","","","","","","","","","feedback_test","","","","","","","","","",""
"258","","f","psychophysics","45","286731","0.0-7.0-1.0-1.0-0.0-0.18","3","3","4","3","3","4","4","3","3","4","4","4","4","4","5","5","4","3","4","5","2","3","1","2","2","2","2","4","1","1","0","1","1","0","0","0","1","0","1","1","0","1","0","1","5","2","2","1","1","2","2","1","1","2","768804353862799361","李","668","","","","match","","","","","","","","","","","","","","key","f","16.663813333333625","747","463","j","false","nonmatch","img/pentagon.png","三角","五边","ALT1_2","prac_ALT1_2","","","","","","","","","",""
"null","<span style='color:red; font-size: 70px;'>错误! </span>","null","html-keyboard-response","46","287232","0.0-7.0-1.0-1.0-0.0-1.18","3","3","4","3","3","4","4","3","3","4","4","4","4","4","5","5","4","3","4","5","2","3","1","2","2","2","2","4","1","1","0","1","1","0","0","0","1","0","1","1","0","1","0","1","5","2","2","1","1","2","2","1","1","2","768804353862799361","李","668","","","","","","","","","","","","","","","","","","","","","","","","","","","","","","feedback_test","","","","","","","","","",""
"290","","f","psychophysics","47","288524","0.0-7.0-1.0-1.0-0.0-0.19","3","3","4","3","3","4","4","3","3","4","4","4","4","4","5","5","4","3","4","5","2","3","1","2","2","2","2","4","1","1","0","1","1","0","0","0","1","0","1","1","0","1","0","1","5","2","2","1","1","2","2","1","1","2","768804353862799361","李","668","","","","match","","","","","","","","","","","","","","key","f","16.6643552631584","747","463","j","false","nonmatch","img/circle.png","方形","圆形","ALT1_2","prac_ALT1_2","","","","","","","","","",""
"null","<span style='color:red; font-size: 70px;'>错误! </span>","null","html-keyboard-response","48","289025","0.0-7.0-1.0-1.0-0.0-1.19","3","3","4","3","3","4","4","3","3","4","4","4","4","4","5","5","4","3","4","5","2","3","1","2","2","2","2","4","1","1","0","1","1","0","0","0","1","0","1","1","0","1","0","1","5","2","2","1","1","2","2","1","1","2","768804353862799361","李","668","","","","","","","","","","","","","","","","","","","","","","","","","","","","","","feedback_test","","","","","","","","","",""
"377","","j","psychophysics","49","290402","0.0-7.0-1.0-1.0-0.0-0.20","3","3","4","3","3","4","4","3","3","4","4","4","4","4","5","5","4","3","4","5","2","3","1","2","2","2","2","4","1","1","0","1","1","0","0","0","1","0","1","1","0","1","0","1","5","2","2","1","1","2","2","1","1","2","768804353862799361","李","668","","","","nonmatch","","","","","","","","","","","","","","key","j","16.66962195122004","747","463","j","true","nonmatch","img/triangle.png","圆形","三角","ALT1_2","prac_ALT1_2","","","","","","","","","",""
"null","<span style='color:GreenYellow; font-size: 70px;'>正确! </span>","null","html-keyboard-response","50","290903","0.0-7.0-1.0-1.0-0.0-1.20","3","3","4","3","3","4","4","3","3","4","4","4","4","4","5","5","4","3","4","5","2","3","1","2","2","2","2","4","1","1","0","1","1","0","0","0","1","0","1","1","0","1","0","1","5","2","2","1","1","2","2","1","1","2","768804353862799361","李","668","","","","","","","","","","","","","","","","","","","","","","","","","","","","","","feedback_test","","","","","","","","","",""
"279","","f","psychophysics","51","292183","0.0-7.0-1.0-1.0-0.0-0.21","3","3","4","3","3","4","4","3","3","4","4","4","4","4","5","5","4","3","4","5","2","3","1","2","2","2","2","4","1","1","0","1","1","0","0","0","1","0","1","1","0","1","0","1","5","2","2","1","1","2","2","1","1","2","768804353862799361","李","668","","","","match","","","","","","","","","","","","","","key","f","16.669355263157694","747","463","f","true","match","img/pentagon.png","五边","五边","ALT1_2","prac_ALT1_2","","","","","","","","","",""
"null","<span style='color:GreenYellow; font-size: 70px;'>正确! </span>","null","html-keyboard-response","52","292684","0.0-7.0-1.0-1.0-0.0-1.21","3","3","4","3","3","4","4","3","3","4","4","4","4","4","5","5","4","3","4","5","2","3","1","2","2","2","2","4","1","1","0","1","1","0","0","0","1","0","1","1","0","1","0","1","5","2","2","1","1","2","2","1","1","2","768804353862799361","李","668","","","","","","","","","","","","","","","","","","","","","","","","","","","","","","feedback_test","","","","","","","","","",""
"309","","f","psychophysics","53","293994","0.0-7.0-1.0-1.0-0.0-0.22","3","3","4","3","3","4","4","3","3","4","4","4","4","4","5","5","4","3","4","5","2","3","1","2","2","2","2","4","1","1","0","1","1","0","0","0","1","0","1","1","0","1","0","1","5","2","2","1","1","2","2","1","1","2","768804353862799361","李","668","","","","match","","","","","","","","","","","","","","key","f","16.66582051282062","747","463","f","true","match","img/square.png","方形","方形","ALT1_2","prac_ALT1_2","","","","","","","","","",""
"null","<span style='color:GreenYellow; font-size: 70px;'>正确! </span>","null","html-keyboard-response","54","294495","0.0-7.0-1.0-1.0-0.0-1.22","3","3","4","3","3","4","4","3","3","4","4","4","4","4","5","5","4","3","4","5","2","3","1","2","2","2","2","4","1","1","0","1","1","0","0","0","1","0","1","1","0","1","0","1","5","2","2","1","1","2","2","1","1","2","768804353862799361","李","668","","","","","","","","","","","","","","","","","","","","","","","","","","","","","","feedback_test","","","","","","","","","",""
"322","","f","psychophysics","55","295818","0.0-7.0-1.0-1.0-0.0-0.23","3","3","4","3","3","4","4","3","3","4","4","4","4","4","5","5","4","3","4","5","2","3","1","2","2","2","2","4","1","1","0","1","1","0","0","0","1","0","1","1","0","1","0","1","5","2","2","1","1","2","2","1","1","2","768804353862799361","李","668","","","","match","","","","","","","","","","","","","","key","f","16.66674358974351","747","463","j","false","nonmatch","img/circle.png","五边","圆形","ALT1_2","prac_ALT1_2","","","","","","","","","",""
"null","<span style='color:red; font-size: 70px;'>错误! </span>","null","html-keyboard-response","56","296319","0.0-7.0-1.0-1.0-0.0-1.23","3","3","4","3","3","4","4","3","3","4","4","4","4","4","5","5","4","3","4","5","2","3","1","2","2","2","2","4","1","1","0","1","1","0","0","0","1","0","1","1","0","1","0","1","5","2","2","1","1","2","2","1","1","2","768804353862799361","李","668","","","","","","","","","","","","","","","","","","","","","","","","","","","","","","feedback_test","","","","","","","","","",""
"375","","f","psychophysics","57","297696","0.0-7.0-1.0-1.0-0.0-0.24","3","3","4","3","3","4","4","3","3","4","4","4","4","4","5","5","4","3","4","5","2","3","1","2","2","2","2","4","1","1","0","1","1","0","0","0","1","0","1","1","0","1","0","1","5","2","2","1","1","2","2","1","1","2","768804353862799361","李","668","","","","match","","","","","","","","","","","","","","key","f","16.66478048780473","747","463","f","true","match","img/square.png","方形","方形","ALT1_2","prac_ALT1_2","","","","","","","","","",""
"null","<span style='color:GreenYellow; font-size: 70px;'>正确! </span>","null","html-keyboard-response","58","298197","0.0-7.0-1.0-1.0-0.0-1.24","3","3","4","3","3","4","4","3","3","4","4","4","4","4","5","5","4","3","4","5","2","3","1","2","2","2","2","4","1","1","0","1","1","0","0","0","1","0","1","1","0","1","0","1","5","2","2","1","1","2","2","1","1","2","768804353862799361","李","668","","","","","","","","","","","","","","","","","","","","","","","","","","","","","","feedback_test","","","","","","","","","",""
"275","","j","psychophysics","59","299473","0.0-7.0-1.0-1.0-0.0-0.25","3","3","4","3","3","4","4","3","3","4","4","4","4","4","5","5","4","3","4","5","2","3","1","2","2","2","2","4","1","1","0","1","1","0","0","0","1","0","1","1","0","1","0","1","5","2","2","1","1","2","2","1","1","2","768804353862799361","李","668","","","","nonmatch","","","","","","","","","","","","","","key","j","16.665346666666057","747","463","f","false","match","img/circle.png","圆形","圆形","ALT1_2","prac_ALT1_2","","","","","","","","","",""
"null","<span style='color:red; font-size: 70px;'>错误! </span>","null","html-keyboard-response","60","299974","0.0-7.0-1.0-1.0-0.0-1.25","3","3","4","3","3","4","4","3","3","4","4","4","4","4","5","5","4","3","4","5","2","3","1","2","2","2","2","4","1","1","0","1","1","0","0","0","1","0","1","1","0","1","0","1","5","2","2","1","1","2","2","1","1","2","768804353862799361","李","668","","","","","","","","","","","","","","","","","","","","","","","","","","","","","","feedback_test","","","","","","","","","",""
"348","","f","psychophysics","61","301324","0.0-7.0-1.0-1.0-0.0-0.26","3","3","4","3","3","4","4","3","3","4","4","4","4","4","5","5","4","3","4","5","2","3","1","2","2","2","2","4","1","1","0","1","1","0","0","0","1","0","1","1","0","1","0","1","5","2","2","1","1","2","2","1","1","2","768804353862799361","李","668","","","","match","","","","","","","","","","","","","","key","f","16.66437974683513","747","463","j","false","nonmatch","img/circle.png","五边","圆形","ALT1_2","prac_ALT1_2","","","","","","","","","",""
"null","<span style='color:red; font-size: 70px;'>错误! </span>","null","html-keyboard-response","62","301826","0.0-7.0-1.0-1.0-0.0-1.26","3","3","4","3","3","4","4","3","3","4","4","4","4","4","5","5","4","3","4","5","2","3","1","2","2","2","2","4","1","1","0","1","1","0","0","0","1","0","1","1","0","1","0","1","5","2","2","1","1","2","2","1","1","2","768804353862799361","李","668","","","","","","","","","","","","","","","","","","","","","","","","","","","","","","feedback_test","","","","","","","","","",""
"360","","j","psychophysics","63","303188","0.0-7.0-1.0-1.0-0.0-0.27","3","3","4","3","3","4","4","3","3","4","4","4","4","4","5","5","4","3","4","5","2","3","1","2","2","2","2","4","1","1","0","1","1","0","0","0","1","0","1","1","0","1","0","1","5","2","2","1","1","2","2","1","1","2","768804353862799361","李","668","","","","nonmatch","","","","","","","","","","","","","","key","j","16.670375000000057","747","463","j","true","nonmatch","img/triangle.png","方形","三角","ALT1_2","prac_ALT1_2","","","","","","","","","",""
"null","<span style='color:GreenYellow; font-size: 70px;'>正确! </span>","null","html-keyboard-response","64","303689","0.0-7.0-1.0-1.0-0.0-1.27","3","3","4","3","3","4","4","3","3","4","4","4","4","4","5","5","4","3","4","5","2","3","1","2","2","2","2","4","1","1","0","1","1","0","0","0","1","0","1","1","0","1","0","1","5","2","2","1","1","2","2","1","1","2","768804353862799361","李","668","","","","","","","","","","","","","","","","","","","","","","","","","","","","","","feedback_test","","","","","","","","","",""
"444","","f","psychophysics","65","305135","0.0-7.0-1.0-1.0-0.0-0.28","3","3","4","3","3","4","4","3","3","4","4","4","4","4","5","5","4","3","4","5","2","3","1","2","2","2","2","4","1","1","0","1","1","0","0","0","1","0","1","1","0","1","0","1","5","2","2","1","1","2","2","1","1","2","768804353862799361","李","668","","","","match","","","","","","","","","","","","","","key","f","16.66976744186087","747","463","j","false","nonmatch","img/square.png","三角","方形","ALT1_2","prac_ALT1_2","","","","","","","","","",""
"null","<span style='color:red; font-size: 70px;'>错误! </span>","null","html-keyboard-response","66","305635","0.0-7.0-1.0-1.0-0.0-1.28","3","3","4","3","3","4","4","3","3","4","4","4","4","4","5","5","4","3","4","5","2","3","1","2","2","2","2","4","1","1","0","1","1","0","0","0","1","0","1","1","0","1","0","1","5","2","2","1","1","2","2","1","1","2","768804353862799361","李","668","","","","","","","","","","","","","","","","","","","","","","","","","","","","","","feedback_test","","","","","","","","","",""
"null","","null","psychophysics","67","307840","0.0-7.0-1.0-1.0-0.0-0.29","3","3","4","3","3","4","4","3","3","4","4","4","4","4","5","5","4","3","4","5","2","3","1","2","2","2","2","4","1","1","0","1","1","0","0","0","1","0","1","1","0","1","0","1","5","2","2","1","1","2","2","1","1","2","768804353862799361","李","668","","","","null","","","","","","","","","","","","","","key","null","16.66628244274806","747","463","f","false","match","img/square.png","方形","方形","ALT1_2","prac_ALT1_2","","","","","","","","","",""
"null","<span class='add_' style='color:yellow; font-size: 70px;'> 太慢! </span>","null","html-keyboard-response","68","308341","0.0-7.0-1.0-1.0-0.0-1.29","3","3","4","3","3","4","4","3","3","4","4","4","4","4","5","5","4","3","4","5","2","3","1","2","2","2","2","4","1","1","0","1","1","0","0","0","1","0","1","1","0","1","0","1","5","2","2","1","1","2","2","1","1","2","768804353862799361","李","668","","","","","","","","","","","","","","","","","","","","","","","","","","","","","","feedback_test","","","","","","","","","",""
"434","","f","psychophysics","69","309776","0.0-7.0-1.0-1.0-0.0-0.30","3","3","4","3","3","4","4","3","3","4","4","4","4","4","5","5","4","3","4","5","2","3","1","2","2","2","2","4","1","1","0","1","1","0","0","0","1","0","1","1","0","1","0","1","5","2","2","1","1","2","2","1","1","2","768804353862799361","李","668","","","","match","","","","","","","","","","","","","","key","f","16.661059523809293","747","463","j","false","nonmatch","img/pentagon.png","三角","五边","ALT1_2","prac_ALT1_2","","","","","","","","","",""
"null","<span style='color:red; font-size: 70px;'>错误! </span>","null","html-keyboard-response","70","310277","0.0-7.0-1.0-1.0-0.0-1.30","3","3","4","3","3","4","4","3","3","4","4","4","4","4","5","5","4","3","4","5","2","3","1","2","2","2","2","4","1","1","0","1","1","0","0","0","1","0","1","1","0","1","0","1","5","2","2","1","1","2","2","1","1","2","768804353862799361","李","668","","","","","","","","","","","","","","","","","","","","","","","","","","","","","","feedback_test","","","","","","","","","",""
"406","","f","psychophysics","71","311684","0.0-7.0-1.0-1.0-0.0-0.31","3","3","4","3","3","4","4","3","3","4","4","4","4","4","5","5","4","3","4","5","2","3","1","2","2","2","2","4","1","1","0","1","1","0","0","0","1","0","1","1","0","1","0","1","5","2","2","1","1","2","2","1","1","2","768804353862799361","李","668","","","","match","","","","","","","","","","","","","","key","f","16.665048192771355","747","463","f","true","match","img/pentagon.png","五边","五边","ALT1_2","prac_ALT1_2","","","","","","","","","",""
"null","<span style='color:GreenYellow; font-size: 70px;'>正确! </span>","null","html-keyboard-response","72","312185","0.0-7.0-1.0-1.0-0.0-1.31","3","3","4","3","3","4","4","3","3","4","4","4","4","4","5","5","4","3","4","5","2","3","1","2","2","2","2","4","1","1","0","1","1","0","0","0","1","0","1","1","0","1","0","1","5","2","2","1","1","2","2","1","1","2","768804353862799361","李","668","","","","","","","","","","","","","","","","","","","","","","","","","","","","","","feedback_test","","","","","","","","","",""
"403","","f","psychophysics","73","313589","0.0-7.0-1.0-1.0-0.0-0.32","3","3","4","3","3","4","4","3","3","4","4","4","4","4","5","5","4","3","4","5","2","3","1","2","2","2","2","4","1","1","0","1","1","0","0","0","1","0","1","1","0","1","0","1","5","2","2","1","1","2","2","1","1","2","768804353862799361","李","668","","","","match","","","","","","","","","","","","","","key","f","16.666325301204736","747","463","j","false","nonmatch","img/circle.png","方形","圆形","ALT1_2","prac_ALT1_2","","","","","","","","","",""
"null","<span style='color:red; font-size: 70px;'>错误! </span>","null","html-keyboard-response","74","314090","0.0-7.0-1.0-1.0-0.0-1.32","3","3","4","3","3","4","4","3","3","4","4","4","4","4","5","5","4","3","4","5","2","3","1","2","2","2","2","4","1","1","0","1","1","0","0","0","1","0","1","1","0","1","0","1","5","2","2","1","1","2","2","1","1","2","768804353862799361","李","668","","","","","","","","","","","","","","","","","","","","","","","","","","","","","","feedback_test","","","","","","","","","",""
"227","","f","psychophysics","75","315319","0.0-7.0-1.0-1.0-0.0-0.33","3","3","4","3","3","4","4","3","3","4","4","4","4","4","5","5","4","3","4","5","2","3","1","2","2","2","2","4","1","1","0","1","1","0","0","0","1","0","1","1","0","1","0","1","5","2","2","1","1","2","2","1","1","2","768804353862799361","李","668","","","","match","","","","","","","","","","","","","","key","f","16.665643835616496","747","463","j","false","nonmatch","img/square.png","圆形","方形","ALT1_2","prac_ALT1_2","","","","","","","","","",""
"null","<span style='color:red; font-size: 70px;'>错误! </span>","null","html-keyboard-response","76","315820","0.0-7.0-1.0-1.0-0.0-1.33","3","3","4","3","3","4","4","3","3","4","4","4","4","4","5","5","4","3","4","5","2","3","1","2","2","2","2","4","1","1","0","1","1","0","0","0","1","0","1","1","0","1","0","1","5","2","2","1","1","2","2","1","1","2","768804353862799361","李","668","","","","","","","","","","","","","","","","","","","","","","","","","","","","","","feedback_test","","","","","","","","","",""
"363","","f","psychophysics","77","317184","0.0-7.0-1.0-1.0-0.0-0.34","3","3","4","3","3","4","4","3","3","4","4","4","4","4","5","5","4","3","4","5","2","3","1","2","2","2","2","4","1","1","0","1","1","0","0","0","1","0","1","1","0","1","0","1","5","2","2","1","1","2","2","1","1","2","768804353862799361","李","668","","","","match","","","","","","","","","","","","","","key","f","16.66534567901284","747","463","j","false","nonmatch","img/triangle.png","五边","三角","ALT1_2","prac_ALT1_2","","","","","","","","","",""
"null","<span style='color:red; font-size: 70px;'>错误! </span>","null","html-keyboard-response","78","317685","0.0-7.0-1.0-1.0-0.0-1.34","3","3","4","3","3","4","4","3","3","4","4","4","4","4","5","5","4","3","4","5","2","3","1","2","2","2","2","4","1","1","0","1","1","0","0","0","1","0","1","1","0","1","0","1","5","2","2","1","1","2","2","1","1","2","768804353862799361","李","668","","","","","","","","","","","","","","","","","","","","","","","","","","","","","","feedback_test","","","","","","","","","",""
"415","","f","psychophysics","79","319101","0.0-7.0-1.0-1.0-0.0-0.35","3","3","4","3","3","4","4","3","3","4","4","4","4","4","5","5","4","3","4","5","2","3","1","2","2","2","2","4","1","1","0","1","1","0","0","0","1","0","1","1","0","1","0","1","5","2","2","1","1","2","2","1","1","2","768804353862799361","李","668","","","","match","","","","","","","","","","","","","","key","f","16.66514285714324","747","463","f","true","match","img/triangle.png","三角","三角","ALT1_2","prac_ALT1_2","","","","","","","","","",""
"null","<span style='color:GreenYellow; font-size: 70px;'>正确! </span>","null","html-keyboard-response","80","319603","0.0-7.0-1.0-1.0-0.0-1.35","3","3","4","3","3","4","4","3","3","4","4","4","4","4","5","5","4","3","4","5","2","3","1","2","2","2","2","4","1","1","0","1","1","0","0","0","1","0","1","1","0","1","0","1","5","2","2","1","1","2","2","1","1","2","768804353862799361","李","668","","","","","","","","","","","","","","","","","","","","","","","","","","","","","","feedback_test","","","","","","","","","",""
"438","","f","psychophysics","81","321043","0.0-7.0-1.0-1.0-0.0-0.36","3","3","4","3","3","4","4","3","3","4","4","4","4","4","5","5","4","3","4","5","2","3","1","2","2","2","2","4","1","1","0","1","1","0","0","0","1","0","1","1","0","1","0","1","5","2","2","1","1","2","2","1","1","2","768804353862799361","李","668","","","","match","","","","","","","","","","","","","","key","f","16.66832941176493","747","463","f","true","match","img/square.png","方形","方形","ALT1_2","prac_ALT1_2","","","","","","","","","",""
"null","<span style='color:GreenYellow; font-size: 70px;'>正确! </span>","null","html-keyboard-response","82","321545","0.0-7.0-1.0-1.0-0.0-1.36","3","3","4","3","3","4","4","3","3","4","4","4","4","4","5","5","4","3","4","5","2","3","1","2","2","2","2","4","1","1","0","1","1","0","0","0","1","0","1","1","0","1","0","1","5","2","2","1","1","2","2","1","1","2","768804353862799361","李","668","","","","","","","","","","","","","","","","","","","","","","","","","","","","","","feedback_test","","","","","","","","","",""
"517","","j","psychophysics","83","323064","0.0-7.0-1.0-1.0-0.0-0.37","3","3","4","3","3","4","4","3","3","4","4","4","4","4","5","5","4","3","4","5","2","3","1","2","2","2","2","4","1","1","0","1","1","0","0","0","1","0","1","1","0","1","0","1","5","2","2","1","1","2","2","1","1","2","768804353862799361","李","668","","","","nonmatch","","","","","","","","","","","","","","key","j","16.666244444444438","747","463","j","true","nonmatch","img/square.png","五边","方形","ALT1_2","prac_ALT1_2","","","","","","","","","",""
"null","<span style='color:GreenYellow; font-size: 70px;'>正确! </span>","null","html-keyboard-response","84","323565","0.0-7.0-1.0-1.0-0.0-1.37","3","3","4","3","3","4","4","3","3","4","4","4","4","4","5","5","4","3","4","5","2","3","1","2","2","2","2","4","1","1","0","1","1","0","0","0","1","0","1","1","0","1","0","1","5","2","2","1","1","2","2","1","1","2","768804353862799361","李","668","","","","","","","","","","","","","","","","","","","","","","","","","","","","","","feedback_test","","","","","","","","","",""
"480","","f","psychophysics","85","325046","0.0-7.0-1.0-1.0-0.0-0.38","3","3","4","3","3","4","4","3","3","4","4","4","4","4","5","5","4","3","4","5","2","3","1","2","2","2","2","4","1","1","0","1","1","0","0","0","1","0","1","1","0","1","0","1","5","2","2","1","1","2","2","1","1","2","768804353862799361","李","668","","","","match","","","","","","","","","","","","","","key","f","16.664806818182115","747","463","f","true","match","img/circle.png","圆形","圆形","ALT1_2","prac_ALT1_2","","","","","","","","","",""
"null","<span style='color:GreenYellow; font-size: 70px;'>正确! </span>","null","html-keyboard-response","86","325547","0.0-7.0-1.0-1.0-0.0-1.38","3","3","4","3","3","4","4","3","3","4","4","4","4","4","5","5","4","3","4","5","2","3","1","2","2","2","2","4","1","1","0","1","1","0","0","0","1","0","1","1","0","1","0","1","5","2","2","1","1","2","2","1","1","2","768804353862799361","李","668","","","","","","","","","","","","","","","","","","","","","","","","","","","","","","feedback_test","","","","","","","","","",""
"594","","f","psychophysics","87","327143","0.0-7.0-1.0-1.0-0.0-0.39","3","3","4","3","3","4","4","3","3","4","4","4","4","4","5","5","4","3","4","5","2","3","1","2","2","2","2","4","1","1","0","1","1","0","0","0","1","0","1","1","0","1","0","1","5","2","2","1","1","2","2","1","1","2","768804353862799361","李","668","","","","match","","","","","","","","","","","","","","key","f","16.663073684210815","747","463","j","false","nonmatch","img/pentagon.png","方形","五边","ALT1_2","prac_ALT1_2","","","","","","","","","",""
"null","<span style='color:red; font-size: 70px;'>错误! </span>","null","html-keyboard-response","88","327643","0.0-7.0-1.0-1.0-0.0-1.39","3","3","4","3","3","4","4","3","3","4","4","4","4","4","5","5","4","3","4","5","2","3","1","2","2","2","2","4","1","1","0","1","1","0","0","0","1","0","1","1","0","1","0","1","5","2","2","1","1","2","2","1","1","2","768804353862799361","李","668","","","","","","","","","","","","","","","","","","","","","","","","","","","","","","feedback_test","","","","","","","","","",""
"321","","f","psychophysics","89","328966","0.0-7.0-1.0-1.0-0.0-0.40","3","3","4","3","3","4","4","3","3","4","4","4","4","4","5","5","4","3","4","5","2","3","1","2","2","2","2","4","1","1","0","1","1","0","0","0","1","0","1","1","0","1","0","1","5","2","2","1","1","2","2","1","1","2","768804353862799361","李","668","","","","match","","","","","","","","","","","","","","key","f","16.666500000000294","747","463","f","true","match","img/triangle.png","三角","三角","ALT1_2","prac_ALT1_2","","","","","","","","","",""
"null","<span style='color:GreenYellow; font-size: 70px;'>正确! </span>","null","html-keyboard-response","90","329473","0.0-7.0-1.0-1.0-0.0-1.40","3","3","4","3","3","4","4","3","3","4","4","4","4","4","5","5","4","3","4","5","2","3","1","2","2","2","2","4","1","1","0","1","1","0","0","0","1","0","1","1","0","1","0","1","5","2","2","1","1","2","2","1","1","2","768804353862799361","李","668","","","","","","","","","","","","","","","","","","","","","","","","","","","","","","feedback_test","","","","","","","","","",""
"376","","j","psychophysics","91","330850","0.0-7.0-1.0-1.0-0.0-0.41","3","3","4","3","3","4","4","3","3","4","4","4","4","4","5","5","4","3","4","5","2","3","1","2","2","2","2","4","1","1","0","1","1","0","0","0","1","0","1","1","0","1","0","1","5","2","2","1","1","2","2","1","1","2","768804353862799361","李","668","","","","nonmatch","","","","","","","","","","","","","","key","j","16.669719512195314","747","463","j","true","nonmatch","img/pentagon.png","圆形","五边","ALT1_2","prac_ALT1_2","","","","","","","","","",""
"null","<span style='color:GreenYellow; font-size: 70px;'>正确! </span>","null","html-keyboard-response","92","331351","0.0-7.0-1.0-1.0-0.0-1.41","3","3","4","3","3","4","4","3","3","4","4","4","4","4","5","5","4","3","4","5","2","3","1","2","2","2","2","4","1","1","0","1","1","0","0","0","1","0","1","1","0","1","0","1","5","2","2","1","1","2","2","1","1","2","768804353862799361","李","668","","","","","","","","","","","","","","","","","","","","","","","","","","","","","","feedback_test","","","","","","","","","",""
"319","","f","psychophysics","93","332672","0.0-7.0-1.0-1.0-0.0-0.42","3","3","4","3","3","4","4","3","3","4","4","4","4","4","5","5","4","3","4","5","2","3","1","2","2","2","2","4","1","1","0","1","1","0","0","0","1","0","1","1","0","1","0","1","5","2","2","1","1","2","2","1","1","2","768804353862799361","李","668","","","","match","","","","","","","","","","","","","","key","f","16.667012820512845","747","463","f","true","match","img/triangle.png","三角","三角","ALT1_2","prac_ALT1_2","","","","","","","","","",""
"null","<span style='color:GreenYellow; font-size: 70px;'>正确! </span>","null","html-keyboard-response","94","333173","0.0-7.0-1.0-1.0-0.0-1.42","3","3","4","3","3","4","4","3","3","4","4","4","4","4","5","5","4","3","4","5","2","3","1","2","2","2","2","4","1","1","0","1","1","0","0","0","1","0","1","1","0","1","0","1","5","2","2","1","1","2","2","1","1","2","768804353862799361","李","668","","","","","","","","","","","","","","","","","","","","","","","","","","","","","","feedback_test","","","","","","","","","",""
"577","","j","psychophysics","95","334750","0.0-7.0-1.0-1.0-0.0-0.43","3","3","4","3","3","4","4","3","3","4","4","4","4","4","5","5","4","3","4","5","2","3","1","2","2","2","2","4","1","1","0","1","1","0","0","0","1","0","1","1","0","1","0","1","5","2","2","1","1","2","2","1","1","2","768804353862799361","李","668","","","","nonmatch","","","","","","","","","","","","","","key","j","16.66798936170241","747","463","f","false","match","img/pentagon.png","五边","五边","ALT1_2","prac_ALT1_2","","","","","","","","","",""
"null","<span style='color:red; font-size: 70px;'>错误! </span>","null","html-keyboard-response","96","335251","0.0-7.0-1.0-1.0-0.0-1.43","3","3","4","3","3","4","4","3","3","4","4","4","4","4","5","5","4","3","4","5","2","3","1","2","2","2","2","4","1","1","0","1","1","0","0","0","1","0","1","1","0","1","0","1","5","2","2","1","1","2","2","1","1","2","768804353862799361","李","668","","","","","","","","","","","","","","","","","","","","","","","","","","","","","","feedback_test","","","","","","","","","",""
"398","","f","psychophysics","97","336649","0.0-7.0-1.0-1.0-0.0-0.44","3","3","4","3","3","4","4","3","3","4","4","4","4","4","5","5","4","3","4","5","2","3","1","2","2","2","2","4","1","1","0","1","1","0","0","0","1","0","1","1","0","1","0","1","5","2","2","1","1","2","2","1","1","2","768804353862799361","李","668","","","","match","","","","","","","","","","","","","","key","f","16.668686746987824","747","463","j","false","nonmatch","img/circle.png","三角","圆形","ALT1_2","prac_ALT1_2","","","","","","","","","",""
"null","<span style='color:red; font-size: 70px;'>错误! </span>","null","html-keyboard-response","98","337151","0.0-7.0-1.0-1.0-0.0-1.44","3","3","4","3","3","4","4","3","3","4","4","4","4","4","5","5","4","3","4","5","2","3","1","2","2","2","2","4","1","1","0","1","1","0","0","0","1","0","1","1","0","1","0","1","5","2","2","1","1","2","2","1","1","2","768804353862799361","李","668","","","","","","","","","","","","","","","","","","","","","","","","","","","","","","feedback_test","","","","","","","","","",""
"478","","f","psychophysics","99","338630","0.0-7.0-1.0-1.0-0.0-0.45","3","3","4","3","3","4","4","3","3","4","4","4","4","4","5","5","4","3","4","5","2","3","1","2","2","2","2","4","1","1","0","1","1","0","0","0","1","0","1","1","0","1","0","1","5","2","2","1","1","2","2","1","1","2","768804353862799361","李","668","","","","match","","","","","","","","","","","","","","key","f","16.667261363636168","747","463","j","false","nonmatch","img/triangle.png","圆形","三角","ALT1_2","prac_ALT1_2","","","","","","","","","",""
"null","<span style='color:red; font-size: 70px;'>错误! </span>","null","html-keyboard-response","100","339131","0.0-7.0-1.0-1.0-0.0-1.45","3","3","4","3","3","4","4","3","3","4","4","4","4","4","5","5","4","3","4","5","2","3","1","2","2","2","2","4","1","1","0","1","1","0","0","0","1","0","1","1","0","1","0","1","5","2","2","1","1","2","2","1","1","2","768804353862799361","李","668","","","","","","","","","","","","","","","","","","","","","","","","","","","","","","feedback_test","","","","","","","","","",""
"679","","j","psychophysics","101","340811","0.0-7.0-1.0-1.0-0.0-0.46","3","3","4","3","3","4","4","3","3","4","4","4","4","4","5","5","4","3","4","5","2","3","1","2","2","2","2","4","1","1","0","1","1","0","0","0","1","0","1","1","0","1","0","1","5","2","2","1","1","2","2","1","1","2","768804353862799361","李","668","","","","nonmatch","","","","","","","","","","","","","","key","j","16.664459999999963","747","463","f","false","match","img/pentagon.png","五边","五边","ALT1_2","prac_ALT1_2","","","","","","","","","",""
"null","<span style='color:red; font-size: 70px;'>错误! </span>","null","html-keyboard-response","102","341312","0.0-7.0-1.0-1.0-0.0-1.46","3","3","4","3","3","4","4","3","3","4","4","4","4","4","5","5","4","3","4","5","2","3","1","2","2","2","2","4","1","1","0","1","1","0","0","0","1","0","1","1","0","1","0","1","5","2","2","1","1","2","2","1","1","2","768804353862799361","李","668","","","","","","","","","","","","","","","","","","","","","","","","","","","","","","feedback_test","","","","","","","","","",""
"389","","f","psychophysics","103","342701","0.0-7.0-1.0-1.0-0.0-0.47","3","3","4","3","3","4","4","3","3","4","4","4","4","4","5","5","4","3","4","5","2","3","1","2","2","2","2","4","1","1","0","1","1","0","0","0","1","0","1","1","0","1","0","1","5","2","2","1","1","2","2","1","1","2","768804353862799361","李","668","","","","match","","","","","","","","","","","","","","key","f","16.663317073170642","747","463","f","true","match","img/circle.png","圆形","圆形","ALT1_2","prac_ALT1_2","","","","","","","","","",""
"null","<span style='color:GreenYellow; font-size: 70px;'>正确! </span>","null","html-keyboard-response","104","343202","0.0-7.0-1.0-1.0-0.0-1.47","3","3","4","3","3","4","4","3","3","4","4","4","4","4","5","5","4","3","4","5","2","3","1","2","2","2","2","4","1","1","0","1","1","0","0","0","1","0","1","1","0","1","0","1","5","2","2","1","1","2","2","1","1","2","768804353862799361","李","668","","","","","","","","","","","","","","","","","","","","","","","","","","","","","","feedback_test","","","","","","","","","",""
"22074","<style>.context{color:white; font-size: 35px; line-height:40px}</style>                          <div><p class='context'>您正确回答了42% 的试次。</p><p class='context'>您的平均反应时为355毫秒。</p><p class='context'>恭喜您完成练习。按空格键继续。</p></div>"," ","html-keyboard-response","105","365278","0.0-7.0-1.0-1.0-1.0-0.0","3","3","4","3","3","4","4","3","3","4","4","4","4","4","5","5","4","3","4","5","2","3","1","2","2","2","2","4","1","1","0","1","1","0","0","0","1","0","1","1","0","1","0","1","5","2","2","1","1","2","2","1","1","2","768804353862799361","李","668","","","","","","","","","","","","","","","","","","","","","","","","","","","","","","","","","","","","","","","",""
"34106","","","instructions","106","399385","0.0-7.0-1.0-1.0-1.0-1.0","3","3","4","3","3","4","4","3","3","4","4","4","4","4","5","5","4","3","4","5","2","3","1","2","2","2","2","4","1","1","0","1","1","0","0","0","1","0","1","1","0","1","0","1","5","2","2","1","1","2","2","1","1","2","768804353862799361","李","668","","","","","","","","","","","","","","","","","[{""page_index"":0,""viewing_time"":12906},{""page_index"":1,""viewing_time"":11113},{""page_index"":2,""viewing_time"":10087}]","","","","","","","","","","","","","","","","","","","","","","",""
"627","","f","psychophysics","107","401014","0.0-7.0-1.0-1.1-0.1-0.48","3","3","4","3","3","4","4","3","3","4","4","4","4","4","5","5","4","3","4","5","2","3","1","2","2","2","2","4","1","1","0","1","1","0","0","0","1","0","1","1","0","1","0","1","5","2","2","1","1","2","2","1","1","2","768804353862799361","李","668","","","","match","","","","","","","","","","","","","","key","f","16.666752577319468","747","463","f","true","match","img/pentagon.png","五边","五边","ALT1_2","prac_ALT1_2","","","","","","","","","",""
"null","<span style='color:GreenYellow; font-size: 70px;'>正确! </span>","null","html-keyboard-response","108","401526","0.0-7.0-1.0-1.1-0.1-1.48","3","3","4","3","3","4","4","3","3","4","4","4","4","4","5","5","4","3","4","5","2","3","1","2","2","2","2","4","1","1","0","1","1","0","0","0","1","0","1","1","0","1","0","1","5","2","2","1","1","2","2","1","1","2","768804353862799361","李","668","","","","","","","","","","","","","","","","","","","","","","","","","","","","","","feedback_test","","","","","","","","","",""
"329","","f","psychophysics","109","402856","0.0-7.0-1.0-1.1-0.1-0.49","3","3","4","3","3","4","4","3","3","4","4","4","4","4","5","5","4","3","4","5","2","3","1","2","2","2","2","4","1","1","0","1","1","0","0","0","1","0","1","1","0","1","0","1","5","2","2","1","1","2","2","1","1","2","768804353862799361","李","668","","","","match","","","","","","","","","","","","","","key","f","16.665012658228125","747","463","j","false","nonmatch","img/pentagon.png","方形","五边","ALT1_2","prac_ALT1_2","","","","","","","","","",""
"null","<span style='color:red; font-size: 70px;'>错误! </span>","null","html-keyboard-response","110","403358","0.0-7.0-1.0-1.1-0.1-1.49","3","3","4","3","3","4","4","3","3","4","4","4","4","4","5","5","4","3","4","5","2","3","1","2","2","2","2","4","1","1","0","1","1","0","0","0","1","0","1","1","0","1","0","1","5","2","2","1","1","2","2","1","1","2","768804353862799361","李","668","","","","","","","","","","","","","","","","","","","","","","","","","","","","","","feedback_test","","","","","","","","","",""
"568","","j","psychophysics","111","404926","0.0-7.0-1.0-1.1-0.1-0.50","3","3","4","3","3","4","4","3","3","4","4","4","4","4","5","5","4","3","4","5","2","3","1","2","2","2","2","4","1","1","0","1","1","0","0","0","1","0","1","1","0","1","0","1","5","2","2","1","1","2","2","1","1","2","768804353862799361","李","668","","","","nonmatch","","","","","","","","","","","","","","key","j","16.66606451612922","747","463","j","true","nonmatch","img/pentagon.png","圆形","五边","ALT1_2","prac_ALT1_2","","","","","","","","","",""
"null","<span style='color:GreenYellow; font-size: 70px;'>正确! </span>","null","html-keyboard-response","112","405427","0.0-7.0-1.0-1.1-0.1-1.50","3","3","4","3","3","4","4","3","3","4","4","4","4","4","5","5","4","3","4","5","2","3","1","2","2","2","2","4","1","1","0","1","1","0","0","0","1","0","1","1","0","1","0","1","5","2","2","1","1","2","2","1","1","2","768804353862799361","李","668","","","","","","","","","","","","","","","","","","","","","","","","","","","","","","feedback_test","","","","","","","","","",""
"415","","f","psychophysics","113","406845","0.0-7.0-1.0-1.1-0.1-0.51","3","3","4","3","3","4","4","3","3","4","4","4","4","4","5","5","4","3","4","5","2","3","1","2","2","2","2","4","1","1","0","1","1","0","0","0","1","0","1","1","0","1","0","1","5","2","2","1","1","2","2","1","1","2","768804353862799361","李","668","","","","match","","","","","","","","","","","","","","key","f","16.66355952380954","747","463","f","true","match","img/triangle.png","三角","三角","ALT1_2","prac_ALT1_2","","","","","","","","","",""
"null","<span style='color:GreenYellow; font-size: 70px;'>正确! </span>","null","html-keyboard-response","114","407345","0.0-7.0-1.0-1.1-0.1-1.51","3","3","4","3","3","4","4","3","3","4","4","4","4","4","5","5","4","3","4","5","2","3","1","2","2","2","2","4","1","1","0","1","1","0","0","0","1","0","1","1","0","1","0","1","5","2","2","1","1","2","2","1","1","2","768804353862799361","李","668","","","","","","","","","","","","","","","","","","","","","","","","","","","","","","feedback_test","","","","","","","","","",""
"342","","f","psychophysics","115","408689","0.0-7.0-1.0-1.1-0.1-0.52","3","3","4","3","3","4","4","3","3","4","4","4","4","4","5","5","4","3","4","5","2","3","1","2","2","2","2","4","1","1","0","1","1","0","0","0","1","0","1","1","0","1","0","1","5","2","2","1","1","2","2","1","1","2","768804353862799361","李","668","","","","match","","","","","","","","","","","","","","key","f","16.666506329113677","747","463","f","true","match","img/circle.png","圆形","圆形","ALT1_2","prac_ALT1_2","","","","","","","","","",""
"null","<span style='color:GreenYellow; font-size: 70px;'>正确! </span>","null","html-keyboard-response","116","409189","0.0-7.0-1.0-1.1-0.1-1.52","3","3","4","3","3","4","4","3","3","4","4","4","4","4","5","5","4","3","4","5","2","3","1","2","2","2","2","4","1","1","0","1","1","0","0","0","1","0","1","1","0","1","0","1","5","2","2","1","1","2","2","1","1","2","768804353862799361","李","668","","","","","","","","","","","","","","","","","","","","","","","","","","","","","","feedback_test","","","","","","","","","",""
"428","","f","psychophysics","117","410618","0.0-7.0-1.0-1.1-0.1-0.53","3","3","4","3","3","4","4","3","3","4","4","4","4","4","5","5","4","3","4","5","2","3","1","2","2","2","2","4","1","1","0","1","1","0","0","0","1","0","1","1","0","1","0","1","5","2","2","1","1","2","2","1","1","2","768804353862799361","李","668","","","","match","","","","","","","","","","","","","","key","f","16.66691666666676","747","463","j","false","nonmatch","img/triangle.png","圆形","三角","ALT1_2","prac_ALT1_2","","","","","","","","","",""
"null","<span style='color:red; font-size: 70px;'>错误! </span>","null","html-keyboard-response","118","411120","0.0-7.0-1.0-1.1-0.1-1.53","3","3","4","3","3","4","4","3","3","4","4","4","4","4","5","5","4","3","4","5","2","3","1","2","2","2","2","4","1","1","0","1","1","0","0","0","1","0","1","1","0","1","0","1","5","2","2","1","1","2","2","1","1","2","768804353862799361","李","668","","","","","","","","","","","","","","","","","","","","","","","","","","","","","","feedback_test","","","","","","","","","",""
"425","","j","psychophysics","119","412546","0.0-7.0-1.0-1.1-0.1-0.54","3","3","4","3","3","4","4","3","3","4","4","4","4","4","5","5","4","3","4","5","2","3","1","2","2","2","2","4","1","1","0","1","1","0","0","0","1","0","1","1","0","1","0","1","5","2","2","1","1","2","2","1","1","2","768804353862799361","李","668","","","","nonmatch","","","","","","","","","","","","","","key","j","16.67004705882316","747","463","f","false","match","img/pentagon.png","五边","五边","ALT1_2","prac_ALT1_2","","","","","","","","","",""
"null","<span style='color:red; font-size: 70px;'>错误! </span>","null","html-keyboard-response","120","413047","0.0-7.0-1.0-1.1-0.1-1.54","3","3","4","3","3","4","4","3","3","4","4","4","4","4","5","5","4","3","4","5","2","3","1","2","2","2","2","4","1","1","0","1","1","0","0","0","1","0","1","1","0","1","0","1","5","2","2","1","1","2","2","1","1","2","768804353862799361","李","668","","","","","","","","","","","","","","","","","","","","","","","","","","","","","","feedback_test","","","","","","","","","",""
"345","","f","psychophysics","121","414393","0.0-7.0-1.0-1.1-0.1-0.55","3","3","4","3","3","4","4","3","3","4","4","4","4","4","5","5","4","3","4","5","2","3","1","2","2","2","2","4","1","1","0","1","1","0","0","0","1","0","1","1","0","1","0","1","5","2","2","1","1","2","2","1","1","2","768804353862799361","李","668","","","","match","","","","","","","","","","","","","","key","f","16.66915000000008","747","463","j","false","nonmatch","img/square.png","三角","方形","ALT1_2","prac_ALT1_2","","","","","","","","","",""
"null","<span style='color:red; font-size: 70px;'>错误! </span>","null","html-keyboard-response","122","414894","0.0-7.0-1.0-1.1-0.1-1.55","3","3","4","3","3","4","4","3","3","4","4","4","4","4","5","5","4","3","4","5","2","3","1","2","2","2","2","4","1","1","0","1","1","0","0","0","1","0","1","1","0","1","0","1","5","2","2","1","1","2","2","1","1","2","768804353862799361","李","668","","","","","","","","","","","","","","","","","","","","","","","","","","","","","","feedback_test","","","","","","","","","",""
"425","","f","psychophysics","123","416322","0.0-7.0-1.0-1.1-0.1-0.56","3","3","4","3","3","4","4","3","3","4","4","4","4","4","5","5","4","3","4","5","2","3","1","2","2","2","2","4","1","1","0","1","1","0","0","0","1","0","1","1","0","1","0","1","5","2","2","1","1","2","2","1","1","2","768804353862799361","李","668","","","","match","","","","","","","","","","","","","","key","f","16.668142857142985","747","463","j","false","nonmatch","img/circle.png","方形","圆形","ALT1_2","prac_ALT1_2","","","","","","","","","",""
"null","<span style='color:red; font-size: 70px;'>错误! </span>","null","html-keyboard-response","124","416823","0.0-7.0-1.0-1.1-0.1-1.56","3","3","4","3","3","4","4","3","3","4","4","4","4","4","5","5","4","3","4","5","2","3","1","2","2","2","2","4","1","1","0","1","1","0","0","0","1","0","1","1","0","1","0","1","5","2","2","1","1","2","2","1","1","2","768804353862799361","李","668","","","","","","","","","","","","","","","","","","","","","","","","","","","","","","feedback_test","","","","","","","","","",""
"443","","j","psychophysics","125","418267","0.0-7.0-1.0-1.1-0.1-0.57","3","3","4","3","3","4","4","3","3","4","4","4","4","4","5","5","4","3","4","5","2","3","1","2","2","2","2","4","1","1","0","1","1","0","0","0","1","0","1","1","0","1","0","1","5","2","2","1","1","2","2","1","1","2","768804353862799361","李","668","","","","nonmatch","","","","","","","","","","","","","","key","j","16.667117647059015","747","463","j","true","nonmatch","img/triangle.png","方形","三角","ALT1_2","prac_ALT1_2","","","","","","","","","",""
"null","<span style='color:GreenYellow; font-size: 70px;'>正确! </span>","null","html-keyboard-response","126","418768","0.0-7.0-1.0-1.1-0.1-1.57","3","3","4","3","3","4","4","3","3","4","4","4","4","4","5","5","4","3","4","5","2","3","1","2","2","2","2","4","1","1","0","1","1","0","0","0","1","0","1","1","0","1","0","1","5","2","2","1","1","2","2","1","1","2","768804353862799361","李","668","","","","","","","","","","","","","","","","","","","","","","","","","","","","","","feedback_test","","","","","","","","","",""
"491","","f","psychophysics","127","420260","0.0-7.0-1.0-1.1-0.1-0.58","3","3","4","3","3","4","4","3","3","4","4","4","4","4","5","5","4","3","4","5","2","3","1","2","2","2","2","4","1","1","0","1","1","0","0","0","1","0","1","1","0","1","0","1","5","2","2","1","1","2","2","1","1","2","768804353862799361","李","668","","","","match","","","","","","","","","","","","","","key","f","16.66978651685431","747","463","f","true","match","img/pentagon.png","五边","五边","ALT1_2","prac_ALT1_2","","","","","","","","","",""
"null","<span style='color:GreenYellow; font-size: 70px;'>正确! </span>","null","html-keyboard-response","128","420761","0.0-7.0-1.0-1.1-0.1-1.58","3","3","4","3","3","4","4","3","3","4","4","4","4","4","5","5","4","3","4","5","2","3","1","2","2","2","2","4","1","1","0","1","1","0","0","0","1","0","1","1","0","1","0","1","5","2","2","1","1","2","2","1","1","2","768804353862799361","李","668","","","","","","","","","","","","","","","","","","","","","","","","","","","","","","feedback_test","","","","","","","","","",""
"631","","j","psychophysics","129","422392","0.0-7.0-1.0-1.1-0.1-0.59","3","3","4","3","3","4","4","3","3","4","4","4","4","4","5","5","4","3","4","5","2","3","1","2","2","2","2","4","1","1","0","1","1","0","0","0","1","0","1","1","0","1","0","1","5","2","2","1","1","2","2","1","1","2","768804353862799361","李","668","","","","nonmatch","","","","","","","","","","","","","","key","j","16.663484536081953","747","463","j","true","nonmatch","img/circle.png","五边","圆形","ALT1_2","prac_ALT1_2","","","","","","","","","",""
"null","<span style='color:GreenYellow; font-size: 70px;'>正确! </span>","null","html-keyboard-response","130","422893","0.0-7.0-1.0-1.1-0.1-1.59","3","3","4","3","3","4","4","3","3","4","4","4","4","4","5","5","4","3","4","5","2","3","1","2","2","2","2","4","1","1","0","1","1","0","0","0","1","0","1","1","0","1","0","1","5","2","2","1","1","2","2","1","1","2","768804353862799361","李","668","","","","","","","","","","","","","","","","","","","","","","","","","","","","","","feedback_test","","","","","","","","","",""
"420","","f","psychophysics","131","424316","0.0-7.0-1.0-1.1-0.1-0.60","3","3","4","3","3","4","4","3","3","4","4","4","4","4","5","5","4","3","4","5","2","3","1","2","2","2","2","4","1","1","0","1","1","0","0","0","1","0","1","1","0","1","0","1","5","2","2","1","1","2","2","1","1","2","768804353862799361","李","668","","","","match","","","","","","","","","","","","","","key","f","16.667297619047098","747","463","j","false","nonmatch","img/triangle.png","五边","三角","ALT1_2","prac_ALT1_2","","","","","","","","","",""
"null","<span style='color:red; font-size: 70px;'>错误! </span>","null","html-keyboard-response","132","424816","0.0-7.0-1.0-1.1-0.1-1.60","3","3","4","3","3","4","4","3","3","4","4","4","4","4","5","5","4","3","4","5","2","3","1","2","2","2","2","4","1","1","0","1","1","0","0","0","1","0","1","1","0","1","0","1","5","2","2","1","1","2","2","1","1","2","768804353862799361","李","668","","","","","","","","","","","","","","","","","","","","","","","","","","","","","","feedback_test","","","","","","","","","",""
"565","","f","psychophysics","133","426383","0.0-7.0-1.0-1.1-0.1-0.61","3","3","4","3","3","4","4","3","3","4","4","4","4","4","5","5","4","3","4","5","2","3","1","2","2","2","2","4","1","1","0","1","1","0","0","0","1","0","1","1","0","1","0","1","5","2","2","1","1","2","2","1","1","2","768804353862799361","李","668","","","","match","","","","","","","","","","","","","","key","f","16.666591397849018","747","463","f","true","match","img/circle.png","圆形","圆形","ALT1_2","prac_ALT1_2","","","","","","","","","",""
"null","<span style='color:GreenYellow; font-size: 70px;'>正确! </span>","null","html-keyboard-response","134","426884","0.0-7.0-1.0-1.1-0.1-1.61","3","3","4","3","3","4","4","3","3","4","4","4","4","4","5","5","4","3","4","5","2","3","1","2","2","2","2","4","1","1","0","1","1","0","0","0","1","0","1","1","0","1","0","1","5","2","2","1","1","2","2","1","1","2","768804353862799361","李","668","","","","","","","","","","","","","","","","","","","","","","","","","","","","","","feedback_test","","","","","","","","","",""
"560","","f","psychophysics","135","428445","0.0-7.0-1.0-1.1-0.1-0.62","3","3","4","3","3","4","4","3","3","4","4","4","4","4","5","5","4","3","4","5","2","3","1","2","2","2","2","4","1","1","0","1","1","0","0","0","1","0","1","1","0","1","0","1","5","2","2","1","1","2","2","1","1","2","768804353862799361","李","668","","","","match","","","","","","","","","","","","","","key","f","16.665602150537143","747","463","f","true","match","img/triangle.png","三角","三角","ALT1_2","prac_ALT1_2","","","","","","","","","",""
"null","<span style='color:GreenYellow; font-size: 70px;'>正确! </span>","null","html-keyboard-response","136","428946","0.0-7.0-1.0-1.1-0.1-1.62","3","3","4","3","3","4","4","3","3","4","4","4","4","4","5","5","4","3","4","5","2","3","1","2","2","2","2","4","1","1","0","1","1","0","0","0","1","0","1","1","0","1","0","1","5","2","2","1","1","2","2","1","1","2","768804353862799361","李","668","","","","","","","","","","","","","","","","","","","","","","","","","","","","","","feedback_test","","","","","","","","","",""
"581","","j","psychophysics","137","430527","0.0-7.0-1.0-1.1-0.1-0.63","3","3","4","3","3","4","4","3","3","4","4","4","4","4","5","5","4","3","4","5","2","3","1","2","2","2","2","4","1","1","0","1","1","0","0","0","1","0","1","1","0","1","0","1","5","2","2","1","1","2","2","1","1","2","768804353862799361","李","668","","","","nonmatch","","","","","","","","","","","","","","key","j","16.666361702128036","747","463","j","true","nonmatch","img/square.png","五边","方形","ALT1_2","prac_ALT1_2","","","","","","","","","",""
"null","<span style='color:GreenYellow; font-size: 70px;'>正确! </span>","null","html-keyboard-response","138","431028","0.0-7.0-1.0-1.1-0.1-1.63","3","3","4","3","3","4","4","3","3","4","4","4","4","4","5","5","4","3","4","5","2","3","1","2","2","2","2","4","1","1","0","1","1","0","0","0","1","0","1","1","0","1","0","1","5","2","2","1","1","2","2","1","1","2","768804353862799361","李","668","","","","","","","","","","","","","","","","","","","","","","","","","","","","","","feedback_test","","","","","","","","","",""
"565","","f","psychophysics","139","432594","0.0-7.0-1.0-1.1-0.1-0.64","3","3","4","3","3","4","4","3","3","4","4","4","4","4","5","5","4","3","4","5","2","3","1","2","2","2","2","4","1","1","0","1","1","0","0","0","1","0","1","1","0","1","0","1","5","2","2","1","1","2","2","1","1","2","768804353862799361","李","668","","","","match","","","","","","","","","","","","","","key","f","16.667537634408664","747","463","f","true","match","img/circle.png","圆形","圆形","ALT1_2","prac_ALT1_2","","","","","","","","","",""
"null","<span style='color:GreenYellow; font-size: 70px;'>正确! </span>","null","html-keyboard-response","140","433094","0.0-7.0-1.0-1.1-0.1-1.64","3","3","4","3","3","4","4","3","3","4","4","4","4","4","5","5","4","3","4","5","2","3","1","2","2","2","2","4","1","1","0","1","1","0","0","0","1","0","1","1","0","1","0","1","5","2","2","1","1","2","2","1","1","2","768804353862799361","李","668","","","","","","","","","","","","","","","","","","","","","","","","","","","","","","feedback_test","","","","","","","","","",""
"603","","f","psychophysics","141","434699","0.0-7.0-1.0-1.1-0.1-0.65","3","3","4","3","3","4","4","3","3","4","4","4","4","4","5","5","4","3","4","5","2","3","1","2","2","2","2","4","1","1","0","1","1","0","0","0","1","0","1","1","0","1","0","1","5","2","2","1","1","2","2","1","1","2","768804353862799361","李","668","","","","match","","","","","","","","","","","","","","key","f","16.668315789473585","747","463","f","true","match","img/triangle.png","三角","三角","ALT1_2","prac_ALT1_2","","","","","","","","","",""
"null","<span style='color:GreenYellow; font-size: 70px;'>正确! </span>","null","html-keyboard-response","142","435200","0.0-7.0-1.0-1.1-0.1-1.65","3","3","4","3","3","4","4","3","3","4","4","4","4","4","5","5","4","3","4","5","2","3","1","2","2","2","2","4","1","1","0","1","1","0","0","0","1","0","1","1","0","1","0","1","5","2","2","1","1","2","2","1","1","2","768804353862799361","李","668","","","","","","","","","","","","","","","","","","","","","","","","","","","","","","feedback_test","","","","","","","","","",""
"764","","j","psychophysics","143","436966","0.0-7.0-1.0-1.1-0.1-0.66","3","3","4","3","3","4","4","3","3","4","4","4","4","4","5","5","4","3","4","5","2","3","1","2","2","2","2","4","1","1","0","1","1","0","0","0","1","0","1","1","0","1","0","1","5","2","2","1","1","2","2","1","1","2","768804353862799361","李","668","","","","nonmatch","","","","","","","","","","","","","","key","j","16.665828571428122","747","463","j","true","nonmatch","img/circle.png","三角","圆形","ALT1_2","prac_ALT1_2","","","","","","","","","",""
"null","<span style='color:GreenYellow; font-size: 70px;'>正确! </span>","null","html-keyboard-response","144","437466","0.0-7.0-1.0-1.1-0.1-1.66","3","3","4","3","3","4","4","3","3","4","4","4","4","4","5","5","4","3","4","5","2","3","1","2","2","2","2","4","1","1","0","1","1","0","0","0","1","0","1","1","0","1","0","1","5","2","2","1","1","2","2","1","1","2","768804353862799361","李","668","","","","","","","","","","","","","","","","","","","","","","","","","","","","","","feedback_test","","","","","","","","","",""
"741","","j","psychophysics","145","439208","0.0-7.0-1.0-1.1-0.1-0.67","3","3","4","3","3","4","4","3","3","4","4","4","4","4","5","5","4","3","4","5","2","3","1","2","2","2","2","4","1","1","0","1","1","0","0","0","1","0","1","1","0","1","0","1","5","2","2","1","1","2","2","1","1","2","768804353862799361","李","668","","","","nonmatch","","","","","","","","","","","","","","key","j","16.664048076922953","747","463","j","true","nonmatch","img/square.png","圆形","方形","ALT1_2","prac_ALT1_2","","","","","","","","","",""
"null","<span style='color:GreenYellow; font-size: 70px;'>正确! </span>","null","html-keyboard-response","146","439709","0.0-7.0-1.0-1.1-0.1-1.67","3","3","4","3","3","4","4","3","3","4","4","4","4","4","5","5","4","3","4","5","2","3","1","2","2","2","2","4","1","1","0","1","1","0","0","0","1","0","1","1","0","1","0","1","5","2","2","1","1","2","2","1","1","2","768804353862799361","李","668","","","","","","","","","","","","","","","","","","","","","","","","","","","","","","feedback_test","","","","","","","","","",""
"689","","f","psychophysics","147","441399","0.0-7.0-1.0-1.1-0.1-0.68","3","3","4","3","3","4","4","3","3","4","4","4","4","4","5","5","4","3","4","5","2","3","1","2","2","2","2","4","1","1","0","1","1","0","0","0","1","0","1","1","0","1","0","1","5","2","2","1","1","2","2","1","1","2","768804353862799361","李","668","","","","match","","","","","","","","","","","","","","key","f","16.66329999999958","747","463","j","false","nonmatch","img/pentagon.png","三角","五边","ALT1_2","prac_ALT1_2","","","","","","","","","",""
"null","<span style='color:red; font-size: 70px;'>错误! </span>","null","html-keyboard-response","148","441900","0.0-7.0-1.0-1.1-0.1-1.68","3","3","4","3","3","4","4","3","3","4","4","4","4","4","5","5","4","3","4","5","2","3","1","2","2","2","2","4","1","1","0","1","1","0","0","0","1","0","1","1","0","1","0","1","5","2","2","1","1","2","2","1","1","2","768804353862799361","李","668","","","","","","","","","","","","","","","","","","","","","","","","","","","","","","feedback_test","","","","","","","","","",""
"730","","f","psychophysics","149","443631","0.0-7.0-1.0-1.1-0.1-0.69","3","3","4","3","3","4","4","3","3","4","4","4","4","4","5","5","4","3","4","5","2","3","1","2","2","2","2","4","1","1","0","1","1","0","0","0","1","0","1","1","0","1","0","1","5","2","2","1","1","2","2","1","1","2","768804353862799361","李","668","","","","match","","","","","","","","","","","","","","key","f","16.66478640776697","747","463","f","true","match","img/square.png","方形","方形","ALT1_2","prac_ALT1_2","","","","","","","","","",""
"null","<span style='color:GreenYellow; font-size: 70px;'>正确! </span>","null","html-keyboard-response","150","444132","0.0-7.0-1.0-1.1-0.1-1.69","3","3","4","3","3","4","4","3","3","4","4","4","4","4","5","5","4","3","4","5","2","3","1","2","2","2","2","4","1","1","0","1","1","0","0","0","1","0","1","1","0","1","0","1","5","2","2","1","1","2","2","1","1","2","768804353862799361","李","668","","","","","","","","","","","","","","","","","","","","","","","","","","","","","","feedback_test","","","","","","","","","",""
"607","","f","psychophysics","151","445740","0.0-7.0-1.0-1.1-0.1-0.70","3","3","4","3","3","4","4","3","3","4","4","4","4","4","5","5","4","3","4","5","2","3","1","2","2","2","2","4","1","1","0","1","1","0","0","0","1","0","1","1","0","1","0","1","5","2","2","1","1","2","2","1","1","2","768804353862799361","李","668","","","","match","","","","","","","","","","","","","","key","f","16.6660624999998","747","463","f","true","match","img/square.png","方形","方形","ALT1_2","prac_ALT1_2","","","","","","","","","",""
"null","<span style='color:GreenYellow; font-size: 70px;'>正确! </span>","null","html-keyboard-response","152","446241","0.0-7.0-1.0-1.1-0.1-1.70","3","3","4","3","3","4","4","3","3","4","4","4","4","4","5","5","4","3","4","5","2","3","1","2","2","2","2","4","1","1","0","1","1","0","0","0","1","0","1","1","0","1","0","1","5","2","2","1","1","2","2","1","1","2","768804353862799361","李","668","","","","","","","","","","","","","","","","","","","","","","","","","","","","","","feedback_test","","","","","","","","","",""
"502","","f","psychophysics","153","447744","0.0-7.0-1.0-1.1-0.1-0.71","3","3","4","3","3","4","4","3","3","4","4","4","4","4","5","5","4","3","4","5","2","3","1","2","2","2","2","4","1","1","0","1","1","0","0","0","1","0","1","1","0","1","0","1","5","2","2","1","1","2","2","1","1","2","768804353862799361","李","668","","","","match","","","","","","","","","","","","","","key","f","16.668325842696955","747","463","f","true","match","img/square.png","方形","方形","ALT1_2","prac_ALT1_2","","","","","","","","","",""
"null","<span style='color:GreenYellow; font-size: 70px;'>正确! </span>","null","html-keyboard-response","154","448245","0.0-7.0-1.0-1.1-0.1-1.71","3","3","4","3","3","4","4","3","3","4","4","4","4","4","5","5","4","3","4","5","2","3","1","2","2","2","2","4","1","1","0","1","1","0","0","0","1","0","1","1","0","1","0","1","5","2","2","1","1","2","2","1","1","2","768804353862799361","李","668","","","","","","","","","","","","","","","","","","","","","","","","","","","","","","feedback_test","","","","","","","","","",""
"741","","f","psychophysics","155","449987","0.0-7.0-1.0-1.1-0.1-0.72","3","3","4","3","3","4","4","3","3","4","4","4","4","4","5","5","4","3","4","5","2","3","1","2","2","2","2","4","1","1","0","1","1","0","0","0","1","0","1","1","0","1","0","1","5","2","2","1","1","2","2","1","1","2","768804353862799361","李","668","","","","match","","","","","","","","","","","","","","key","f","16.66691262135904","747","463","f","true","match","img/circle.png","圆形","圆形","ALT1_2","prac_ALT1_2","","","","","","","","","",""
"null","<span style='color:GreenYellow; font-size: 70px;'>正确! </span>","null","html-keyboard-response","156","450489","0.0-7.0-1.0-1.1-0.1-1.72","3","3","4","3","3","4","4","3","3","4","4","4","4","4","5","5","4","3","4","5","2","3","1","2","2","2","2","4","1","1","0","1","1","0","0","0","1","0","1","1","0","1","0","1","5","2","2","1","1","2","2","1","1","2","768804353862799361","李","668","","","","","","","","","","","","","","","","","","","","","","","","","","","","","","feedback_test","","","","","","","","","",""
"664","","j","psychophysics","157","452155","0.0-7.0-1.0-1.1-0.1-0.73","3","3","4","3","3","4","4","3","3","4","4","4","4","4","5","5","4","3","4","5","2","3","1","2","2","2","2","4","1","1","0","1","1","0","0","0","1","0","1","1","0","1","0","1","5","2","2","1","1","2","2","1","1","2","768804353862799361","李","668","","","","nonmatch","","","","","","","","","","","","","","key","j","16.665787878787885","747","463","j","true","nonmatch","img/circle.png","五边","圆形","ALT1_2","prac_ALT1_2","","","","","","","","","",""
"null","<span style='color:GreenYellow; font-size: 70px;'>正确! </span>","null","html-keyboard-response","158","452656","0.0-7.0-1.0-1.1-0.1-1.73","3","3","4","3","3","4","4","3","3","4","4","4","4","4","5","5","4","3","4","5","2","3","1","2","2","2","2","4","1","1","0","1","1","0","0","0","1","0","1","1","0","1","0","1","5","2","2","1","1","2","2","1","1","2","768804353862799361","李","668","","","","","","","","","","","","","","","","","","","","","","","","","","","","","","feedback_test","","","","","","","","","",""
"840","","f","psychophysics","159","454497","0.0-7.0-1.0-1.1-0.1-0.74","3","3","4","3","3","4","4","3","3","4","4","4","4","4","5","5","4","3","4","5","2","3","1","2","2","2","2","4","1","1","0","1","1","0","0","0","1","0","1","1","0","1","0","1","5","2","2","1","1","2","2","1","1","2","768804353862799361","李","668","","","","match","","","","","","","","","","","","","","key","f","16.665073394495032","747","463","f","true","match","img/pentagon.png","五边","五边","ALT1_2","prac_ALT1_2","","","","","","","","","",""
"null","<span style='color:GreenYellow; font-size: 70px;'>正确! </span>","null","html-keyboard-response","160","454998","0.0-7.0-1.0-1.1-0.1-1.74","3","3","4","3","3","4","4","3","3","4","4","4","4","4","5","5","4","3","4","5","2","3","1","2","2","2","2","4","1","1","0","1","1","0","0","0","1","0","1","1","0","1","0","1","5","2","2","1","1","2","2","1","1","2","768804353862799361","李","668","","","","","","","","","","","","","","","","","","","","","","","","","","","","","","feedback_test","","","","","","","","","",""
"674","","j","psychophysics","161","456674","0.0-7.0-1.0-1.1-0.1-0.75","3","3","4","3","3","4","4","3","3","4","4","4","4","4","5","5","4","3","4","5","2","3","1","2","2","2","2","4","1","1","0","1","1","0","0","0","1","0","1","1","0","1","0","1","5","2","2","1","1","2","2","1","1","2","768804353862799361","李","668","","","","nonmatch","","","","","","","","","","","","","","key","j","16.666359999999987","747","463","j","true","nonmatch","img/circle.png","三角","圆形","ALT1_2","prac_ALT1_2","","","","","","","","","",""
"null","<span style='color:GreenYellow; font-size: 70px;'>正确! </span>","null","html-keyboard-response","162","457175","0.0-7.0-1.0-1.1-0.1-1.75","3","3","4","3","3","4","4","3","3","4","4","4","4","4","5","5","4","3","4","5","2","3","1","2","2","2","2","4","1","1","0","1","1","0","0","0","1","0","1","1","0","1","0","1","5","2","2","1","1","2","2","1","1","2","768804353862799361","李","668","","","","","","","","","","","","","","","","","","","","","","","","","","","","","","feedback_test","","","","","","","","","",""
"631","","f","psychophysics","163","458808","0.0-7.0-1.0-1.1-0.1-0.76","3","3","4","3","3","4","4","3","3","4","4","4","4","4","5","5","4","3","4","5","2","3","1","2","2","2","2","4","1","1","0","1","1","0","0","0","1","0","1","1","0","1","0","1","5","2","2","1","1","2","2","1","1","2","768804353862799361","李","668","","","","match","","","","","","","","","","","","","","key","f","16.66602061855662","747","463","f","true","match","img/triangle.png","三角","三角","ALT1_2","prac_ALT1_2","","","","","","","","","",""
"null","<span style='color:GreenYellow; font-size: 70px;'>正确! </span>","null","html-keyboard-response","164","459309","0.0-7.0-1.0-1.1-0.1-1.76","3","3","4","3","3","4","4","3","3","4","4","4","4","4","5","5","4","3","4","5","2","3","1","2","2","2","2","4","1","1","0","1","1","0","0","0","1","0","1","1","0","1","0","1","5","2","2","1","1","2","2","1","1","2","768804353862799361","李","668","","","","","","","","","","","","","","","","","","","","","","","","","","","","","","feedback_test","","","","","","","","","",""
"548","","f","psychophysics","165","460859","0.0-7.0-1.0-1.1-0.1-0.77","3","3","4","3","3","4","4","3","3","4","4","4","4","4","5","5","4","3","4","5","2","3","1","2","2","2","2","4","1","1","0","1","1","0","0","0","1","0","1","1","0","1","0","1","5","2","2","1","1","2","2","1","1","2","768804353862799361","李","668","","","","match","","","","","","","","","","","","","","key","f","16.66859782608694","747","463","j","false","nonmatch","img/square.png","五边","方形","ALT1_2","prac_ALT1_2","","","","","","","","","",""
"null","<span style='color:red; font-size: 70px;'>错误! </span>","null","html-keyboard-response","166","461360","0.0-7.0-1.0-1.1-0.1-1.77","3","3","4","3","3","4","4","3","3","4","4","4","4","4","5","5","4","3","4","5","2","3","1","2","2","2","2","4","1","1","0","1","1","0","0","0","1","0","1","1","0","1","0","1","5","2","2","1","1","2","2","1","1","2","768804353862799361","李","668","","","","","","","","","","","","","","","","","","","","","","","","","","","","","","feedback_test","","","","","","","","","",""
"643","","f","psychophysics","167","463007","0.0-7.0-1.0-1.1-0.1-0.78","3","3","4","3","3","4","4","3","3","4","4","4","4","4","5","5","4","3","4","5","2","3","1","2","2","2","2","4","1","1","0","1","1","0","0","0","1","0","1","1","0","1","0","1","5","2","2","1","1","2","2","1","1","2","768804353862799361","李","668","","","","match","","","","","","","","","","","","","","key","f","16.66601020408134","747","463","f","true","match","img/circle.png","圆形","圆形","ALT1_2","prac_ALT1_2","","","","","","","","","",""
"null","<span style='color:GreenYellow; font-size: 70px;'>正确! </span>","null","html-keyboard-response","168","463510","0.0-7.0-1.0-1.1-0.1-1.78","3","3","4","3","3","4","4","3","3","4","4","4","4","4","5","5","4","3","4","5","2","3","1","2","2","2","2","4","1","1","0","1","1","0","0","0","1","0","1","1","0","1","0","1","5","2","2","1","1","2","2","1","1","2","768804353862799361","李","668","","","","","","","","","","","","","","","","","","","","","","","","","","","","","","feedback_test","","","","","","","","","",""
"632","","f","psychophysics","169","465142","0.0-7.0-1.0-1.1-0.1-0.79","3","3","4","3","3","4","4","3","3","4","4","4","4","4","5","5","4","3","4","5","2","3","1","2","2","2","2","4","1","1","0","1","1","0","0","0","1","0","1","1","0","1","0","1","5","2","2","1","1","2","2","1","1","2","768804353862799361","李","668","","","","match","","","","","","","","","","","","","","key","f","16.66344329896899","747","463","f","true","match","img/triangle.png","三角","三角","ALT1_2","prac_ALT1_2","","","","","","","","","",""
"null","<span style='color:GreenYellow; font-size: 70px;'>正确! </span>","null","html-keyboard-response","170","465643","0.0-7.0-1.0-1.1-0.1-1.79","3","3","4","3","3","4","4","3","3","4","4","4","4","4","5","5","4","3","4","5","2","3","1","2","2","2","2","4","1","1","0","1","1","0","0","0","1","0","1","1","0","1","0","1","5","2","2","1","1","2","2","1","1","2","768804353862799361","李","668","","","","","","","","","","","","","","","","","","","","","","","","","","","","","","feedback_test","","","","","","","","","",""
"734","","f","psychophysics","171","467379","0.0-7.0-1.0-1.1-0.1-0.80","3","3","4","3","3","4","4","3","3","4","4","4","4","4","5","5","4","3","4","5","2","3","1","2","2","2","2","4","1","1","0","1","1","0","0","0","1","0","1","1","0","1","0","1","5","2","2","1","1","2","2","1","1","2","768804353862799361","李","668","","","","match","","","","","","","","","","","","","","key","f","16.66345631067971","747","463","f","true","match","img/pentagon.png","五边","五边","ALT1_2","prac_ALT1_2","","","","","","","","","",""
"null","<span style='color:GreenYellow; font-size: 70px;'>正确! </span>","null","html-keyboard-response","172","467879","0.0-7.0-1.0-1.1-0.1-1.80","3","3","4","3","3","4","4","3","3","4","4","4","4","4","5","5","4","3","4","5","2","3","1","2","2","2","2","4","1","1","0","1","1","0","0","0","1","0","1","1","0","1","0","1","5","2","2","1","1","2","2","1","1","2","768804353862799361","李","668","","","","","","","","","","","","","","","","","","","","","","","","","","","","","","feedback_test","","","","","","","","","",""
"744","","f","psychophysics","173","469625","0.0-7.0-1.0-1.1-0.1-0.81","3","3","4","3","3","4","4","3","3","4","4","4","4","4","5","5","4","3","4","5","2","3","1","2","2","2","2","4","1","1","0","1","1","0","0","0","1","0","1","1","0","1","0","1","5","2","2","1","1","2","2","1","1","2","768804353862799361","李","668","","","","match","","","","","","","","","","","","","","key","f","16.66904807692257","747","463","f","true","match","img/square.png","方形","方形","ALT1_2","prac_ALT1_2","","","","","","","","","",""
"null","<span style='color:GreenYellow; font-size: 70px;'>正确! </span>","null","html-keyboard-response","174","470126","0.0-7.0-1.0-1.1-0.1-1.81","3","3","4","3","3","4","4","3","3","4","4","4","4","4","5","5","4","3","4","5","2","3","1","2","2","2","2","4","1","1","0","1","1","0","0","0","1","0","1","1","0","1","0","1","5","2","2","1","1","2","2","1","1","2","768804353862799361","李","668","","","","","","","","","","","","","","","","","","","","","","","","","","","","","","feedback_test","","","","","","","","","",""
"696","","j","psychophysics","175","471824","0.0-7.0-1.0-1.1-0.1-0.82","3","3","4","3","3","4","4","3","3","4","4","4","4","4","5","5","4","3","4","5","2","3","1","2","2","2","2","4","1","1","0","1","1","0","0","0","1","0","1","1","0","1","0","1","5","2","2","1","1","2","2","1","1","2","768804353862799361","李","668","","","","nonmatch","","","","","","","","","","","","","","key","j","16.66338613861365","747","463","j","true","nonmatch","img/pentagon.png","圆形","五边","ALT1_2","prac_ALT1_2","","","","","","","","","",""
"null","<span style='color:GreenYellow; font-size: 70px;'>正确! </span>","null","html-keyboard-response","176","472325","0.0-7.0-1.0-1.1-0.1-1.82","3","3","4","3","3","4","4","3","3","4","4","4","4","4","5","5","4","3","4","5","2","3","1","2","2","2","2","4","1","1","0","1","1","0","0","0","1","0","1","1","0","1","0","1","5","2","2","1","1","2","2","1","1","2","768804353862799361","李","668","","","","","","","","","","","","","","","","","","","","","","","","","","","","","","feedback_test","","","","","","","","","",""
"721","","f","psychophysics","177","474046","0.0-7.0-1.0-1.1-0.1-0.83","3","3","4","3","3","4","4","3","3","4","4","4","4","4","5","5","4","3","4","5","2","3","1","2","2","2","2","4","1","1","0","1","1","0","0","0","1","0","1","1","0","1","0","1","5","2","2","1","1","2","2","1","1","2","768804353862799361","李","668","","","","match","","","","","","","","","","","","","","key","f","16.66374509803912","747","463","f","true","match","img/square.png","方形","方形","ALT1_2","prac_ALT1_2","","","","","","","","","",""
"null","<span style='color:GreenYellow; font-size: 70px;'>正确! </span>","null","html-keyboard-response","178","474560","0.0-7.0-1.0-1.1-0.1-1.83","3","3","4","3","3","4","4","3","3","4","4","4","4","4","5","5","4","3","4","5","2","3","1","2","2","2","2","4","1","1","0","1","1","0","0","0","1","0","1","1","0","1","0","1","5","2","2","1","1","2","2","1","1","2","768804353862799361","李","668","","","","","","","","","","","","","","","","","","","","","","","","","","","","","","feedback_test","","","","","","","","","",""
"698","","j","psychophysics","179","476259","0.0-7.0-1.0-1.1-0.1-0.84","3","3","4","3","3","4","4","3","3","4","4","4","4","4","5","5","4","3","4","5","2","3","1","2","2","2","2","4","1","1","0","1","1","0","0","0","1","0","1","1","0","1","0","1","5","2","2","1","1","2","2","1","1","2","768804353862799361","李","668","","","","nonmatch","","","","","","","","","","","","","","key","j","16.666316831683265","747","463","j","true","nonmatch","img/pentagon.png","三角","五边","ALT1_2","prac_ALT1_2","","","","","","","","","",""
"null","<span style='color:GreenYellow; font-size: 70px;'>正确! </span>","null","html-keyboard-response","180","476760","0.0-7.0-1.0-1.1-0.1-1.84","3","3","4","3","3","4","4","3","3","4","4","4","4","4","5","5","4","3","4","5","2","3","1","2","2","2","2","4","1","1","0","1","1","0","0","0","1","0","1","1","0","1","0","1","5","2","2","1","1","2","2","1","1","2","768804353862799361","李","668","","","","","","","","","","","","","","","","","","","","","","","","","","","","","","feedback_test","","","","","","","","","",""
"698","","f","psychophysics","181","478459","0.0-7.0-1.0-1.1-0.1-0.85","3","3","4","3","3","4","4","3","3","4","4","4","4","4","5","5","4","3","4","5","2","3","1","2","2","2","2","4","1","1","0","1","1","0","0","0","1","0","1","1","0","1","0","1","5","2","2","1","1","2","2","1","1","2","768804353862799361","李","668","","","","match","","","","","","","","","","","","","","key","f","16.66639603960436","747","463","f","true","match","img/square.png","方形","方形","ALT1_2","prac_ALT1_2","","","","","","","","","",""
"null","<span style='color:GreenYellow; font-size: 70px;'>正确! </span>","null","html-keyboard-response","182","478960","0.0-7.0-1.0-1.1-0.1-1.85","3","3","4","3","3","4","4","3","3","4","4","4","4","4","5","5","4","3","4","5","2","3","1","2","2","2","2","4","1","1","0","1","1","0","0","0","1","0","1","1","0","1","0","1","5","2","2","1","1","2","2","1","1","2","768804353862799361","李","668","","","","","","","","","","","","","","","","","","","","","","","","","","","","","","feedback_test","","","","","","","","","",""
"668","","j","psychophysics","183","480628","0.0-7.0-1.0-1.1-0.1-0.86","3","3","4","3","3","4","4","3","3","4","4","4","4","4","5","5","4","3","4","5","2","3","1","2","2","2","2","4","1","1","0","1","1","0","0","0","1","0","1","1","0","1","0","1","5","2","2","1","1","2","2","1","1","2","768804353862799361","李","668","","","","nonmatch","","","","","","","","","","","","","","key","j","16.666030303030062","747","463","j","true","nonmatch","img/triangle.png","圆形","三角","ALT1_2","prac_ALT1_2","","","","","","","","","",""
"null","<span style='color:GreenYellow; font-size: 70px;'>正确! </span>","null","html-keyboard-response","184","481130","0.0-7.0-1.0-1.1-0.1-1.86","3","3","4","3","3","4","4","3","3","4","4","4","4","4","5","5","4","3","4","5","2","3","1","2","2","2","2","4","1","1","0","1","1","0","0","0","1","0","1","1","0","1","0","1","5","2","2","1","1","2","2","1","1","2","768804353862799361","李","668","","","","","","","","","","","","","","","","","","","","","","","","","","","","","","feedback_test","","","","","","","","","",""
"785","","j","psychophysics","185","482916","0.0-7.0-1.0-1.1-0.1-0.87","3","3","4","3","3","4","4","3","3","4","4","4","4","4","5","5","4","3","4","5","2","3","1","2","2","2","2","4","1","1","0","1","1","0","0","0","1","0","1","1","0","1","0","1","5","2","2","1","1","2","2","1","1","2","768804353862799361","李","668","","","","nonmatch","","","","","","","","","","","","","","key","j","16.667009433962072","747","463","j","true","nonmatch","img/square.png","三角","方形","ALT1_2","prac_ALT1_2","","","","","","","","","",""
"null","<span style='color:GreenYellow; font-size: 70px;'>正确! </span>","null","html-keyboard-response","186","483417","0.0-7.0-1.0-1.1-0.1-1.87","3","3","4","3","3","4","4","3","3","4","4","4","4","4","5","5","4","3","4","5","2","3","1","2","2","2","2","4","1","1","0","1","1","0","0","0","1","0","1","1","0","1","0","1","5","2","2","1","1","2","2","1","1","2","768804353862799361","李","668","","","","","","","","","","","","","","","","","","","","","","","","","","","","","","feedback_test","","","","","","","","","",""
