"rt","stimulus","response","trial_type","trial_index","time_elapsed","internal_node_id","ses_1","ses_2","ses_3","ses_4","ses_5","ses_6","ses_7","ses_8","ses_9","ses_10","coreself_1","coreself_2","coreself_3","coreself_4","coreself_5","coreself_6","coreself_7","coreself_8","coreself_9","coreself_10","SGPS_1","SGPS_2","SGPS_3","SGPS_4","SGPS_5","SGPS_6","SGPS_7","SGPS_8","SGPS_9","NPI1","NPI2","NPI3","NPI4","NPI5","NPI6","NPI7","NPI8","NPI9","NPI10","NPI11","NPI12","NPI13","NPI14","NPI15","hsns_1","hsns_2","hsns_3","hsns_4","hsns_5","hsns_6","hsns_7","hsns_8","hsns_9","hsns_10","subj_idx","friend_name","ParticipantID","value","success","user_agent","responses","item_order","radio_event_ids","radio_event_times","key_event_times","mouse_event_times","straightlining","zigzagging","honeypot","timeout","failed_images","failed_audio","failed_video","view_history","response_type","key_press","avg_frame_time","center_x","center_y","correct_response","correct","identity","Image","word","condition","task_id","screen_id","time_stamp","version_attrib","version_target","IAT","RT","varname","summary","version_attrib2","version_target2","question_order"
"6318","
   <p><div style = ""color: white;font-size:25px;"">您好，欢迎参加本次实验。</div> </p>
   <p><div style = ""color: white;font-size:25px;"">为充分保障您的权利，请确保您已经知晓并同意《参与实验同意书》以及《数据公开知情同意书》。</div></p>
   <p><div style = ""color: white;font-size:25px;"">如果您未见过上述内容，请咨询实验员。</div></p>
   <p><div style = ""color: white;font-size:25px;"">如果您选择继续实验，则表示您已经清楚两份知情同意书的内容并同意。</div></p>
   <p><div style = ""color: red;font-size:30px;"">请确保您记得day0的实验编号，您将在本次实验输入该编号，若您忘记，请咨询实验员后作答。</div></p>
   <p> <div style = ""color: green;font-size:25px;""><按空格键至下页></div> </p>
   "," ","html-keyboard-response","0","6320","0.0-0.0","3","3","4","3","3","3","3","4","4","4","4","4","4","4","5","4","5","4","4","5","2","2","2","2","2","2","1","4","1","1","0","1","1","0","0","0","1","1","1","1","0","0","0","1","5","1","1","1","4","1","2","1","1","1","765496939306553346","刘","171","","","","","","","","","","","","","","","","","","","","","","","","","","","","","","","","","","","","","","","",""
"","","","call-function","1","6321","0.0-1.0-0.0","3","3","4","3","3","3","3","4","4","4","4","4","4","4","5","4","5","4","4","5","2","2","2","2","2","2","1","4","1","1","0","1","1","0","0","0","1","1","1","1","0","0","0","1","5","1","1","1","4","1","2","1","1","1","765496939306553346","刘","171","","","","","","","","","","","","","","","","","","","","","","","","","","","","","","","","","","","","","","","",""
"11306","","{""friend_name"":""刘"",""ParticipantID"":""171""}","survey-html-form","2","17627","0.0-1.0-1.0","3","3","4","3","3","3","3","4","4","4","4","4","4","4","5","4","5","4","4","5","2","2","2","2","2","2","1","4","1","1","0","1","1","0","0","0","1","1","1","1","0","0","0","1","5","1","1","1","4","1","2","1","1","1","765496939306553346","刘","171","","","","","","","","","","","","","","","","","","","","","","","","","","","","","","","","","","","","","","","",""
"","","","fullscreen","3","20213","0.0-2.0","3","3","4","3","3","3","3","4","4","4","4","4","4","4","5","4","5","4","4","5","2","2","2","2","2","2","1","4","1","1","0","1","1","0","0","0","1","1","1","1","0","0","0","1","5","1","1","1","4","1","2","1","1","1","765496939306553346","刘","171","","true","{}","","","","","","","","","","","","","","","","","","","","","","","","","","","","","","","","","","","","",""
"22248.69999998808","","{""Q01"":""3"",""Q02"":""3"",""Q03"":""4"",""Q04"":""3"",""Q05"":""3"",""Q06"":""3"",""Q07"":""3"",""Q08"":""4"",""Q09"":""4"",""Q10"":""4""}","survey-template","4","42464","0.0-3.0","3","3","4","3","3","3","3","4","4","4","4","4","4","4","5","4","5","4","4","5","2","2","2","2","2","2","1","4","1","1","0","1","1","0","0","0","1","1","1","1","0","0","0","1","5","1","1","1","4","1","2","1","1","1","765496939306553346","刘","171","","","","{""Q01"":""3"",""Q02"":""3"",""Q03"":""4"",""Q04"":""3"",""Q05"":""3"",""Q06"":""3"",""Q07"":""3"",""Q08"":""4"",""Q09"":""4"",""Q10"":""4""}","[0,1,2,3,4,5,6,7,8,9]","[""Q01"",""Q02"",""Q03"",""Q04"",""Q05"",""Q06"",""Q07"",""Q08"",""Q08"",""Q09"",""Q10""]","[5121.699999988079,5875.399999976158,7555.399999976158,8761.599999964237,12693,14379.399999976158,15931.5,17193.399999976158,18723.19999998808,20305.099999964237,21331.5]","[]","[5121.699999988079,5875.399999976158,7555.399999976158,8761.599999964237,10343.5,12693,13857.5,14379.399999976158,15931.5,17193.399999976158,18723.19999998808,20305.099999964237,21331.5,22247.5]","0.5","0.2222222222222222","0","","","","","","","","","","","","","","","","","","","","","","","","","","","",""
"30459.400000035763","","{""Q01"":""4"",""Q02"":""4"",""Q03"":""4"",""Q04"":""4"",""Q05"":""5"",""Q06"":""4"",""Q07"":""5"",""Q08"":""4"",""Q09"":""4"",""Q10"":""5""}","survey-template","5","72928","0.0-4.0","3","3","4","3","3","3","3","4","4","4","4","4","4","4","5","4","5","4","4","5","2","2","2","2","2","2","1","4","1","1","0","1","1","0","0","0","1","1","1","1","0","0","0","1","5","1","1","1","4","1","2","1","1","1","765496939306553346","刘","171","","","","{""Q01"":""4"",""Q02"":""4"",""Q03"":""4"",""Q04"":""4"",""Q05"":""5"",""Q06"":""4"",""Q07"":""5"",""Q08"":""4"",""Q09"":""4"",""Q10"":""5""}","[0,1,2,3,4,5,6,7,8,9]","[""Q01"",""Q02"",""Q03"",""Q04"",""Q05"",""Q06"",""Q07"",""Q08"",""Q09"",""Q10"",""Q07""]","[3260.300000011921,5156.200000047684,7254.200000047684,8956.200000047684,11961.400000035763,13303.600000023842,16897.900000035763,19572.100000023842,21302,22912,28857.200000047684]","[]","[3260.300000011921,5156.200000047684,7254.200000047684,8956.200000047684,11961.400000035763,13303.600000023842,16897.900000035763,19572.100000023842,21302,22912,28857.200000047684,30458.400000035763]","0.4","0.1111111111111111","0","","","","","","","","","","","","","","","","","","","","","","","","","","","",""
"","","","preload","6","73418","0.0-5.0","3","3","4","3","3","3","3","4","4","4","4","4","4","4","5","4","5","4","4","5","2","2","2","2","2","2","1","4","1","1","0","1","1","0","0","0","1","1","1","1","0","0","0","1","5","1","1","1","4","1","2","1","1","1","765496939306553346","刘","171","","true","","","","","","","","","","","false","[]","[]","[]","","","","","","","","","","","","","","","","","","","","","","","",""
"12716","","","instructions","7","86134","0.0-6.0","3","3","4","3","3","3","3","4","4","4","4","4","4","4","5","4","5","4","4","5","2","2","2","2","2","2","1","4","1","1","0","1","1","0","0","0","1","1","1","1","0","0","0","1","5","1","1","1","4","1","2","1","1","1","765496939306553346","刘","171","","","","","","","","","","","","","","","","","[{""page_index"":0,""viewing_time"":12716}]","","","","","","","","","","","","","","","","","","","","","","",""
"23499","","","instructions","8","109635","0.0-7.0-1.0-0.0","3","3","4","3","3","3","3","4","4","4","4","4","4","4","5","4","5","4","4","5","2","2","2","2","2","2","1","4","1","1","0","1","1","0","0","0","1","1","1","1","0","0","0","1","5","1","1","1","4","1","2","1","1","1","765496939306553346","刘","171","","","","","","","","","","","","","","","","","[{""page_index"":0,""viewing_time"":11770},{""page_index"":1,""viewing_time"":8630},{""page_index"":2,""viewing_time"":3099}]","","","","","","","","","","","","","","","","","","","","","","",""
"629","","j","psychophysics","9","111268","0.0-7.0-1.0-1.0-0.0-0.0","3","3","4","3","3","3","3","4","4","4","4","4","4","4","5","4","5","4","4","5","2","2","2","2","2","2","1","4","1","1","0","1","1","0","0","0","1","1","1","1","0","0","0","1","5","1","1","1","4","1","2","1","1","1","765496939306553346","刘","171","","","","match","","","","","","","","","","","","","","key","j","16.66757731958768","768","428","j","true","match","img/ellipse.png","椭圆","椭圆","ALT1_2","prac_ALT1_2","","","","","","","","","",""
"null","<span style='color:GreenYellow; font-size: 70px;'>正确! </span>","null","html-keyboard-response","10","111785","0.0-7.0-1.0-1.0-0.0-1.0","3","3","4","3","3","3","3","4","4","4","4","4","4","4","5","4","5","4","4","5","2","2","2","2","2","2","1","4","1","1","0","1","1","0","0","0","1","1","1","1","0","0","0","1","5","1","1","1","4","1","2","1","1","1","765496939306553346","刘","171","","","","","","","","","","","","","","","","","","","","","","","","","","","","","","feedback_test","","","","","","","","","",""
"789","","j","psychophysics","11","113578","0.0-7.0-1.0-1.0-0.0-0.1","3","3","4","3","3","3","3","4","4","4","4","4","4","4","5","4","5","4","4","5","2","2","2","2","2","2","1","4","1","1","0","1","1","0","0","0","1","1","1","1","0","0","0","1","5","1","1","1","4","1","2","1","1","1","765496939306553346","刘","171","","","","match","","","","","","","","","","","","","","key","j","16.66115887850473","768","428","f","false","nonmatch","img/ellipse.png","梯形","椭圆","ALT1_2","prac_ALT1_2","","","","","","","","","",""
"null","<span style='color:red; font-size: 70px;'>错误! </span>","null","html-keyboard-response","12","114080","0.0-7.0-1.0-1.0-0.0-1.1","3","3","4","3","3","3","3","4","4","4","4","4","4","4","5","4","5","4","4","5","2","2","2","2","2","2","1","4","1","1","0","1","1","0","0","0","1","1","1","1","0","0","0","1","5","1","1","1","4","1","2","1","1","1","765496939306553346","刘","171","","","","","","","","","","","","","","","","","","","","","","","","","","","","","","feedback_test","","","","","","","","","",""
"686","","f","psychophysics","13","115768","0.0-7.0-1.0-1.0-0.0-0.2","3","3","4","3","3","3","3","4","4","4","4","4","4","4","5","4","5","4","4","5","2","2","2","2","2","2","1","4","1","1","0","1","1","0","0","0","1","1","1","1","0","0","0","1","5","1","1","1","4","1","2","1","1","1","765496939306553346","刘","171","","","","nonmatch","","","","","","","","","","","","","","key","f","16.661330000000017","768","428","j","false","match","img/hexagon.png","六边","六边","ALT1_2","prac_ALT1_2","","","","","","","","","",""
"null","<span style='color:red; font-size: 70px;'>错误! </span>","null","html-keyboard-response","14","116268","0.0-7.0-1.0-1.0-0.0-1.2","3","3","4","3","3","3","3","4","4","4","4","4","4","4","5","4","5","4","4","5","2","2","2","2","2","2","1","4","1","1","0","1","1","0","0","0","1","1","1","1","0","0","0","1","5","1","1","1","4","1","2","1","1","1","765496939306553346","刘","171","","","","","","","","","","","","","","","","","","","","","","","","","","","","","","feedback_test","","","","","","","","","",""
"806","","j","psychophysics","15","118077","0.0-7.0-1.0-1.0-0.0-0.3","3","3","4","3","3","3","3","4","4","4","4","4","4","4","5","4","5","4","4","5","2","2","2","2","2","2","1","4","1","1","0","1","1","0","0","0","1","1","1","1","0","0","0","1","5","1","1","1","4","1","2","1","1","1","765496939306553346","刘","171","","","","match","","","","","","","","","","","","","","key","j","16.661925925925903","768","428","j","true","match","img/trapezoid.png","梯形","梯形","ALT1_2","prac_ALT1_2","","","","","","","","","",""
"null","<span style='color:GreenYellow; font-size: 70px;'>正确! </span>","null","html-keyboard-response","16","118577","0.0-7.0-1.0-1.0-0.0-1.3","3","3","4","3","3","3","3","4","4","4","4","4","4","4","5","4","5","4","4","5","2","2","2","2","2","2","1","4","1","1","0","1","1","0","0","0","1","1","1","1","0","0","0","1","5","1","1","1","4","1","2","1","1","1","765496939306553346","刘","171","","","","","","","","","","","","","","","","","","","","","","","","","","","","","","feedback_test","","","","","","","","","",""
"903","","f","psychophysics","17","120481","0.0-7.0-1.0-1.0-0.0-0.4","3","3","4","3","3","3","3","4","4","4","4","4","4","4","5","4","5","4","4","5","2","2","2","2","2","2","1","4","1","1","0","1","1","0","0","0","1","1","1","1","0","0","0","1","5","1","1","1","4","1","2","1","1","1","765496939306553346","刘","171","","","","nonmatch","","","","","","","","","","","","","","key","f","16.661212389380438","768","428","f","true","nonmatch","img/hexagon.png","梯形","六边","ALT1_2","prac_ALT1_2","","","","","","","","","",""
"null","<span style='color:GreenYellow; font-size: 70px;'>正确! </span>","null","html-keyboard-response","18","120983","0.0-7.0-1.0-1.0-0.0-1.4","3","3","4","3","3","3","3","4","4","4","4","4","4","4","5","4","5","4","4","5","2","2","2","2","2","2","1","4","1","1","0","1","1","0","0","0","1","1","1","1","0","0","0","1","5","1","1","1","4","1","2","1","1","1","765496939306553346","刘","171","","","","","","","","","","","","","","","","","","","","","","","","","","","","","","feedback_test","","","","","","","","","",""
"790","","j","psychophysics","19","122775","0.0-7.0-1.0-1.0-0.0-0.5","3","3","4","3","3","3","3","4","4","4","4","4","4","4","5","4","5","4","4","5","2","2","2","2","2","2","1","4","1","1","0","1","1","0","0","0","1","1","1","1","0","0","0","1","5","1","1","1","4","1","2","1","1","1","765496939306553346","刘","171","","","","match","","","","","","","","","","","","","","key","j","16.65881308411217","768","428","j","true","match","img/triangle.png","三角","三角","ALT1_2","prac_ALT1_2","","","","","","","","","",""
"null","<span style='color:GreenYellow; font-size: 70px;'>正确! </span>","null","html-keyboard-response","20","123277","0.0-7.0-1.0-1.0-0.0-1.5","3","3","4","3","3","3","3","4","4","4","4","4","4","4","5","4","5","4","4","5","2","2","2","2","2","2","1","4","1","1","0","1","1","0","0","0","1","1","1","1","0","0","0","1","5","1","1","1","4","1","2","1","1","1","765496939306553346","刘","171","","","","","","","","","","","","","","","","","","","","","","","","","","","","","","feedback_test","","","","","","","","","",""
"887","","j","psychophysics","21","125165","0.0-7.0-1.0-1.0-0.0-0.6","3","3","4","3","3","3","3","4","4","4","4","4","4","4","5","4","5","4","4","5","2","2","2","2","2","2","1","4","1","1","0","1","1","0","0","0","1","1","1","1","0","0","0","1","5","1","1","1","4","1","2","1","1","1","765496939306553346","刘","171","","","","match","","","","","","","","","","","","","","key","j","16.660499999999956","768","428","j","true","match","img/hexagon.png","六边","六边","ALT1_2","prac_ALT1_2","","","","","","","","","",""
"null","<span style='color:GreenYellow; font-size: 70px;'>正确! </span>","null","html-keyboard-response","22","125666","0.0-7.0-1.0-1.0-0.0-1.6","3","3","4","3","3","3","3","4","4","4","4","4","4","4","5","4","5","4","4","5","2","2","2","2","2","2","1","4","1","1","0","1","1","0","0","0","1","1","1","1","0","0","0","1","5","1","1","1","4","1","2","1","1","1","765496939306553346","刘","171","","","","","","","","","","","","","","","","","","","","","","","","","","","","","","feedback_test","","","","","","","","","",""
"644","","f","psychophysics","23","127312","0.0-7.0-1.0-1.0-0.0-0.7","3","3","4","3","3","3","3","4","4","4","4","4","4","4","5","4","5","4","4","5","2","2","2","2","2","2","1","4","1","1","0","1","1","0","0","0","1","1","1","1","0","0","0","1","5","1","1","1","4","1","2","1","1","1","765496939306553346","刘","171","","","","nonmatch","","","","","","","","","","","","","","key","f","16.66332653061233","768","428","f","true","nonmatch","img/hexagon.png","椭圆","六边","ALT1_2","prac_ALT1_2","","","","","","","","","",""
"null","<span style='color:GreenYellow; font-size: 70px;'>正确! </span>","null","html-keyboard-response","24","127813","0.0-7.0-1.0-1.0-0.0-1.7","3","3","4","3","3","3","3","4","4","4","4","4","4","4","5","4","5","4","4","5","2","2","2","2","2","2","1","4","1","1","0","1","1","0","0","0","1","1","1","1","0","0","0","1","5","1","1","1","4","1","2","1","1","1","765496939306553346","刘","171","","","","","","","","","","","","","","","","","","","","","","","","","","","","","","feedback_test","","","","","","","","","",""
"685","","j","psychophysics","25","129499","0.0-7.0-1.0-1.0-0.0-0.8","3","3","4","3","3","3","3","4","4","4","4","4","4","4","5","4","5","4","4","5","2","2","2","2","2","2","1","4","1","1","0","1","1","0","0","0","1","1","1","1","0","0","0","1","5","1","1","1","4","1","2","1","1","1","765496939306553346","刘","171","","","","match","","","","","","","","","","","","","","key","j","16.657829999999812","768","428","j","true","match","img/triangle.png","三角","三角","ALT1_2","prac_ALT1_2","","","","","","","","","",""
"null","<span style='color:GreenYellow; font-size: 70px;'>正确! </span>","null","html-keyboard-response","26","130005","0.0-7.0-1.0-1.0-0.0-1.8","3","3","4","3","3","3","3","4","4","4","4","4","4","4","5","4","5","4","4","5","2","2","2","2","2","2","1","4","1","1","0","1","1","0","0","0","1","1","1","1","0","0","0","1","5","1","1","1","4","1","2","1","1","1","765496939306553346","刘","171","","","","","","","","","","","","","","","","","","","","","","","","","","","","","","feedback_test","","","","","","","","","",""
"872","","j","psychophysics","27","131879","0.0-7.0-1.0-1.0-0.0-0.9","3","3","4","3","3","3","3","4","4","4","4","4","4","4","5","4","5","4","4","5","2","2","2","2","2","2","1","4","1","1","0","1","1","0","0","0","1","1","1","1","0","0","0","1","5","1","1","1","4","1","2","1","1","1","765496939306553346","刘","171","","","","match","","","","","","","","","","","","","","key","j","16.662972972973204","768","428","j","true","match","img/trapezoid.png","梯形","梯形","ALT1_2","prac_ALT1_2","","","","","","","","","",""
"null","<span style='color:GreenYellow; font-size: 70px;'>正确! </span>","null","html-keyboard-response","28","132388","0.0-7.0-1.0-1.0-0.0-1.9","3","3","4","3","3","3","3","4","4","4","4","4","4","4","5","4","5","4","4","5","2","2","2","2","2","2","1","4","1","1","0","1","1","0","0","0","1","1","1","1","0","0","0","1","5","1","1","1","4","1","2","1","1","1","765496939306553346","刘","171","","","","","","","","","","","","","","","","","","","","","","","","","","","","","","feedback_test","","","","","","","","","",""
"804","","j","psychophysics","29","134194","0.0-7.0-1.0-1.0-0.0-0.10","3","3","4","3","3","3","3","4","4","4","4","4","4","4","5","4","5","4","4","5","2","2","2","2","2","2","1","4","1","1","0","1","1","0","0","0","1","1","1","1","0","0","0","1","5","1","1","1","4","1","2","1","1","1","765496939306553346","刘","171","","","","match","","","","","","","","","","","","","","key","j","16.658953271028054","768","428","j","true","match","img/ellipse.png","椭圆","椭圆","ALT1_2","prac_ALT1_2","","","","","","","","","",""
"null","<span style='color:GreenYellow; font-size: 70px;'>正确! </span>","null","html-keyboard-response","30","134695","0.0-7.0-1.0-1.0-0.0-1.10","3","3","4","3","3","3","3","4","4","4","4","4","4","4","5","4","5","4","4","5","2","2","2","2","2","2","1","4","1","1","0","1","1","0","0","0","1","1","1","1","0","0","0","1","5","1","1","1","4","1","2","1","1","1","765496939306553346","刘","171","","","","","","","","","","","","","","","","","","","","","","","","","","","","","","feedback_test","","","","","","","","","",""
"646","","f","psychophysics","31","136342","0.0-7.0-1.0-1.0-0.0-0.11","3","3","4","3","3","3","3","4","4","4","4","4","4","4","5","4","5","4","4","5","2","2","2","2","2","2","1","4","1","1","0","1","1","0","0","0","1","1","1","1","0","0","0","1","5","1","1","1","4","1","2","1","1","1","765496939306553346","刘","171","","","","nonmatch","","","","","","","","","","","","","","key","f","16.664469387755272","768","428","f","true","nonmatch","img/triangle.png","椭圆","三角","ALT1_2","prac_ALT1_2","","","","","","","","","",""
"null","<span style='color:GreenYellow; font-size: 70px;'>正确! </span>","null","html-keyboard-response","32","136842","0.0-7.0-1.0-1.0-0.0-1.11","3","3","4","3","3","3","3","4","4","4","4","4","4","4","5","4","5","4","4","5","2","2","2","2","2","2","1","4","1","1","0","1","1","0","0","0","1","1","1","1","0","0","0","1","5","1","1","1","4","1","2","1","1","1","765496939306553346","刘","171","","","","","","","","","","","","","","","","","","","","","","","","","","","","","","feedback_test","","","","","","","","","",""
"764","","f","psychophysics","33","138609","0.0-7.0-1.0-1.0-0.0-0.12","3","3","4","3","3","3","3","4","4","4","4","4","4","4","5","4","5","4","4","5","2","2","2","2","2","2","1","4","1","1","0","1","1","0","0","0","1","1","1","1","0","0","0","1","5","1","1","1","4","1","2","1","1","1","765496939306553346","刘","171","","","","nonmatch","","","","","","","","","","","","","","key","f","16.664723809523828","768","428","f","true","nonmatch","img/triangle.png","六边","三角","ALT1_2","prac_ALT1_2","","","","","","","","","",""
"null","<span style='color:GreenYellow; font-size: 70px;'>正确! </span>","null","html-keyboard-response","34","139111","0.0-7.0-1.0-1.0-0.0-1.12","3","3","4","3","3","3","3","4","4","4","4","4","4","4","5","4","5","4","4","5","2","2","2","2","2","2","1","4","1","1","0","1","1","0","0","0","1","1","1","1","0","0","0","1","5","1","1","1","4","1","2","1","1","1","765496939306553346","刘","171","","","","","","","","","","","","","","","","","","","","","","","","","","","","","","feedback_test","","","","","","","","","",""
"676","","j","psychophysics","35","140787","0.0-7.0-1.0-1.0-0.0-0.13","3","3","4","3","3","3","3","4","4","4","4","4","4","4","5","4","5","4","4","5","2","2","2","2","2","2","1","4","1","1","0","1","1","0","0","0","1","1","1","1","0","0","0","1","5","1","1","1","4","1","2","1","1","1","765496939306553346","刘","171","","","","match","","","","","","","","","","","","","","key","j","16.659439999999886","768","428","f","false","nonmatch","img/trapezoid.png","六边","梯形","ALT1_2","prac_ALT1_2","","","","","","","","","",""
"null","<span style='color:red; font-size: 70px;'>错误! </span>","null","html-keyboard-response","36","141289","0.0-7.0-1.0-1.0-0.0-1.13","3","3","4","3","3","3","3","4","4","4","4","4","4","4","5","4","5","4","4","5","2","2","2","2","2","2","1","4","1","1","0","1","1","0","0","0","1","1","1","1","0","0","0","1","5","1","1","1","4","1","2","1","1","1","765496939306553346","刘","171","","","","","","","","","","","","","","","","","","","","","","","","","","","","","","feedback_test","","","","","","","","","",""
"629","","j","psychophysics","37","142921","0.0-7.0-1.0-1.0-0.0-0.14","3","3","4","3","3","3","3","4","4","4","4","4","4","4","5","4","5","4","4","5","2","2","2","2","2","2","1","4","1","1","0","1","1","0","0","0","1","1","1","1","0","0","0","1","5","1","1","1","4","1","2","1","1","1","765496939306553346","刘","171","","","","match","","","","","","","","","","","","","","key","j","16.65796907216499","768","428","j","true","match","img/hexagon.png","六边","六边","ALT1_2","prac_ALT1_2","","","","","","","","","",""
"null","<span style='color:GreenYellow; font-size: 70px;'>正确! </span>","null","html-keyboard-response","38","143421","0.0-7.0-1.0-1.0-0.0-1.14","3","3","4","3","3","3","3","4","4","4","4","4","4","4","5","4","5","4","4","5","2","2","2","2","2","2","1","4","1","1","0","1","1","0","0","0","1","1","1","1","0","0","0","1","5","1","1","1","4","1","2","1","1","1","765496939306553346","刘","171","","","","","","","","","","","","","","","","","","","","","","","","","","","","","","feedback_test","","","","","","","","","",""
"665","","j","psychophysics","39","145088","0.0-7.0-1.0-1.0-0.0-0.15","3","3","4","3","3","3","3","4","4","4","4","4","4","4","5","4","5","4","4","5","2","2","2","2","2","2","1","4","1","1","0","1","1","0","0","0","1","1","1","1","0","0","0","1","5","1","1","1","4","1","2","1","1","1","765496939306553346","刘","171","","","","match","","","","","","","","","","","","","","key","j","16.66138383838368","768","428","j","true","match","img/triangle.png","三角","三角","ALT1_2","prac_ALT1_2","","","","","","","","","",""
"null","<span style='color:GreenYellow; font-size: 70px;'>正确! </span>","null","html-keyboard-response","40","145597","0.0-7.0-1.0-1.0-0.0-1.15","3","3","4","3","3","3","3","4","4","4","4","4","4","4","5","4","5","4","4","5","2","2","2","2","2","2","1","4","1","1","0","1","1","0","0","0","1","1","1","1","0","0","0","1","5","1","1","1","4","1","2","1","1","1","765496939306553346","刘","171","","","","","","","","","","","","","","","","","","","","","","","","","","","","","","feedback_test","","","","","","","","","",""
"755","","f","psychophysics","41","147355","0.0-7.0-1.0-1.0-0.0-0.16","3","3","4","3","3","3","3","4","4","4","4","4","4","4","5","4","5","4","4","5","2","2","2","2","2","2","1","4","1","1","0","1","1","0","0","0","1","1","1","1","0","0","0","1","5","1","1","1","4","1","2","1","1","1","765496939306553346","刘","171","","","","nonmatch","","","","","","","","","","","","","","key","f","16.662009615384775","768","428","f","true","nonmatch","img/ellipse.png","六边","椭圆","ALT1_2","prac_ALT1_2","","","","","","","","","",""
"null","<span style='color:GreenYellow; font-size: 70px;'>正确! </span>","null","html-keyboard-response","42","147856","0.0-7.0-1.0-1.0-0.0-1.16","3","3","4","3","3","3","3","4","4","4","4","4","4","4","5","4","5","4","4","5","2","2","2","2","2","2","1","4","1","1","0","1","1","0","0","0","1","1","1","1","0","0","0","1","5","1","1","1","4","1","2","1","1","1","765496939306553346","刘","171","","","","","","","","","","","","","","","","","","","","","","","","","","","","","","feedback_test","","","","","","","","","",""
"653","","j","psychophysics","43","149510","0.0-7.0-1.0-1.0-0.0-0.17","3","3","4","3","3","3","3","4","4","4","4","4","4","4","5","4","5","4","4","5","2","2","2","2","2","2","1","4","1","1","0","1","1","0","0","0","1","1","1","1","0","0","0","1","5","1","1","1","4","1","2","1","1","1","765496939306553346","刘","171","","","","match","","","","","","","","","","","","","","key","j","16.65882653061227","768","428","j","true","match","img/ellipse.png","椭圆","椭圆","ALT1_2","prac_ALT1_2","","","","","","","","","",""
"null","<span style='color:GreenYellow; font-size: 70px;'>正确! </span>","null","html-keyboard-response","44","150011","0.0-7.0-1.0-1.0-0.0-1.17","3","3","4","3","3","3","3","4","4","4","4","4","4","4","5","4","5","4","4","5","2","2","2","2","2","2","1","4","1","1","0","1","1","0","0","0","1","1","1","1","0","0","0","1","5","1","1","1","4","1","2","1","1","1","765496939306553346","刘","171","","","","","","","","","","","","","","","","","","","","","","","","","","","","","","feedback_test","","","","","","","","","",""
"711","","f","psychophysics","45","151726","0.0-7.0-1.0-1.0-0.0-0.18","3","3","4","3","3","3","3","4","4","4","4","4","4","4","5","4","5","4","4","5","2","2","2","2","2","2","1","4","1","1","0","1","1","0","0","0","1","1","1","1","0","0","0","1","5","1","1","1","4","1","2","1","1","1","765496939306553346","刘","171","","","","nonmatch","","","","","","","","","","","","","","key","f","16.660475247524882","768","428","f","true","nonmatch","img/triangle.png","梯形","三角","ALT1_2","prac_ALT1_2","","","","","","","","","",""
"null","<span style='color:GreenYellow; font-size: 70px;'>正确! </span>","null","html-keyboard-response","46","152227","0.0-7.0-1.0-1.0-0.0-1.18","3","3","4","3","3","3","3","4","4","4","4","4","4","4","5","4","5","4","4","5","2","2","2","2","2","2","1","4","1","1","0","1","1","0","0","0","1","1","1","1","0","0","0","1","5","1","1","1","4","1","2","1","1","1","765496939306553346","刘","171","","","","","","","","","","","","","","","","","","","","","","","","","","","","","","feedback_test","","","","","","","","","",""
"924","","j","psychophysics","47","154155","0.0-7.0-1.0-1.0-0.0-0.19","3","3","4","3","3","3","3","4","4","4","4","4","4","4","5","4","5","4","4","5","2","2","2","2","2","2","1","4","1","1","0","1","1","0","0","0","1","1","1","1","0","0","0","1","5","1","1","1","4","1","2","1","1","1","765496939306553346","刘","171","","","","match","","","","","","","","","","","","","","key","j","16.664166666666635","768","428","j","true","match","img/trapezoid.png","梯形","梯形","ALT1_2","prac_ALT1_2","","","","","","","","","",""
"null","<span style='color:GreenYellow; font-size: 70px;'>正确! </span>","null","html-keyboard-response","48","154656","0.0-7.0-1.0-1.0-0.0-1.19","3","3","4","3","3","3","3","4","4","4","4","4","4","4","5","4","5","4","4","5","2","2","2","2","2","2","1","4","1","1","0","1","1","0","0","0","1","1","1","1","0","0","0","1","5","1","1","1","4","1","2","1","1","1","765496939306553346","刘","171","","","","","","","","","","","","","","","","","","","","","","","","","","","","","","feedback_test","","","","","","","","","",""
"662","","f","psychophysics","49","156320","0.0-7.0-1.0-1.0-0.0-0.20","3","3","4","3","3","3","3","4","4","4","4","4","4","4","5","4","5","4","4","5","2","2","2","2","2","2","1","4","1","1","0","1","1","0","0","0","1","1","1","1","0","0","0","1","5","1","1","1","4","1","2","1","1","1","765496939306553346","刘","171","","","","nonmatch","","","","","","","","","","","","","","key","f","16.661737373737544","768","428","f","true","nonmatch","img/trapezoid.png","三角","梯形","ALT1_2","prac_ALT1_2","","","","","","","","","",""
"null","<span style='color:GreenYellow; font-size: 70px;'>正确! </span>","null","html-keyboard-response","50","156820","0.0-7.0-1.0-1.0-0.0-1.20","3","3","4","3","3","3","3","4","4","4","4","4","4","4","5","4","5","4","4","5","2","2","2","2","2","2","1","4","1","1","0","1","1","0","0","0","1","1","1","1","0","0","0","1","5","1","1","1","4","1","2","1","1","1","765496939306553346","刘","171","","","","","","","","","","","","","","","","","","","","","","","","","","","","","","feedback_test","","","","","","","","","",""
"775","","f","psychophysics","51","158596","0.0-7.0-1.0-1.0-0.0-0.21","3","3","4","3","3","3","3","4","4","4","4","4","4","4","5","4","5","4","4","5","2","2","2","2","2","2","1","4","1","1","0","1","1","0","0","0","1","1","1","1","0","0","0","1","5","1","1","1","4","1","2","1","1","1","765496939306553346","刘","171","","","","nonmatch","","","","","","","","","","","","","","key","f","16.662226415094306","768","428","f","true","nonmatch","img/hexagon.png","三角","六边","ALT1_2","prac_ALT1_2","","","","","","","","","",""
"null","<span style='color:GreenYellow; font-size: 70px;'>正确! </span>","null","html-keyboard-response","52","159097","0.0-7.0-1.0-1.0-0.0-1.21","3","3","4","3","3","3","3","4","4","4","4","4","4","4","5","4","5","4","4","5","2","2","2","2","2","2","1","4","1","1","0","1","1","0","0","0","1","1","1","1","0","0","0","1","5","1","1","1","4","1","2","1","1","1","765496939306553346","刘","171","","","","","","","","","","","","","","","","","","","","","","","","","","","","","","feedback_test","","","","","","","","","",""
"657","","f","psychophysics","53","160756","0.0-7.0-1.0-1.0-0.0-0.22","3","3","4","3","3","3","3","4","4","4","4","4","4","4","5","4","5","4","4","5","2","2","2","2","2","2","1","4","1","1","0","1","1","0","0","0","1","1","1","1","0","0","0","1","5","1","1","1","4","1","2","1","1","1","765496939306553346","刘","171","","","","nonmatch","","","","","","","","","","","","","","key","f","16.660857142857097","768","428","f","true","nonmatch","img/ellipse.png","三角","椭圆","ALT1_2","prac_ALT1_2","","","","","","","","","",""
"null","<span style='color:GreenYellow; font-size: 70px;'>正确! </span>","null","html-keyboard-response","54","161257","0.0-7.0-1.0-1.0-0.0-1.22","3","3","4","3","3","3","3","4","4","4","4","4","4","4","5","4","5","4","4","5","2","2","2","2","2","2","1","4","1","1","0","1","1","0","0","0","1","1","1","1","0","0","0","1","5","1","1","1","4","1","2","1","1","1","765496939306553346","刘","171","","","","","","","","","","","","","","","","","","","","","","","","","","","","","","feedback_test","","","","","","","","","",""
"906","","f","psychophysics","55","163167","0.0-7.0-1.0-1.0-0.0-0.23","3","3","4","3","3","3","3","4","4","4","4","4","4","4","5","4","5","4","4","5","2","2","2","2","2","2","1","4","1","1","0","1","1","0","0","0","1","1","1","1","0","0","0","1","5","1","1","1","4","1","2","1","1","1","765496939306553346","刘","171","","","","nonmatch","","","","","","","","","","","","","","key","f","16.66170796460165","768","428","f","true","nonmatch","img/trapezoid.png","椭圆","梯形","ALT1_2","prac_ALT1_2","","","","","","","","","",""
"null","<span style='color:GreenYellow; font-size: 70px;'>正确! </span>","null","html-keyboard-response","56","163668","0.0-7.0-1.0-1.0-0.0-1.23","3","3","4","3","3","3","3","4","4","4","4","4","4","4","5","4","5","4","4","5","2","2","2","2","2","2","1","4","1","1","0","1","1","0","0","0","1","1","1","1","0","0","0","1","5","1","1","1","4","1","2","1","1","1","765496939306553346","刘","171","","","","","","","","","","","","","","","","","","","","","","","","","","","","","","feedback_test","","","","","","","","","",""
"795","","f","psychophysics","57","165464","0.0-7.0-1.0-1.0-0.0-0.24","3","3","4","3","3","3","3","4","4","4","4","4","4","4","5","4","5","4","4","5","2","2","2","2","2","2","1","4","1","1","0","1","1","0","0","0","1","1","1","1","0","0","0","1","5","1","1","1","4","1","2","1","1","1","765496939306553346","刘","171","","","","nonmatch","","","","","","","","","","","","","","key","f","16.661981308411168","768","428","f","true","nonmatch","img/hexagon.png","梯形","六边","ALT1_2","prac_ALT1_2","","","","","","","","","",""
"null","<span style='color:GreenYellow; font-size: 70px;'>正确! </span>","null","html-keyboard-response","58","165967","0.0-7.0-1.0-1.0-0.0-1.24","3","3","4","3","3","3","3","4","4","4","4","4","4","4","5","4","5","4","4","5","2","2","2","2","2","2","1","4","1","1","0","1","1","0","0","0","1","1","1","1","0","0","0","1","5","1","1","1","4","1","2","1","1","1","765496939306553346","刘","171","","","","","","","","","","","","","","","","","","","","","","","","","","","","","","feedback_test","","","","","","","","","",""
"684","","f","psychophysics","59","167652","0.0-7.0-1.0-1.0-0.0-0.25","3","3","4","3","3","3","3","4","4","4","4","4","4","4","5","4","5","4","4","5","2","2","2","2","2","2","1","4","1","1","0","1","1","0","0","0","1","1","1","1","0","0","0","1","5","1","1","1","4","1","2","1","1","1","765496939306553346","刘","171","","","","nonmatch","","","","","","","","","","","","","","key","f","16.66488000000012","768","428","f","true","nonmatch","img/ellipse.png","六边","椭圆","ALT1_2","prac_ALT1_2","","","","","","","","","",""
"null","<span style='color:GreenYellow; font-size: 70px;'>正确! </span>","null","html-keyboard-response","60","168152","0.0-7.0-1.0-1.0-0.0-1.25","3","3","4","3","3","3","3","4","4","4","4","4","4","4","5","4","5","4","4","5","2","2","2","2","2","2","1","4","1","1","0","1","1","0","0","0","1","1","1","1","0","0","0","1","5","1","1","1","4","1","2","1","1","1","765496939306553346","刘","171","","","","","","","","","","","","","","","","","","","","","","","","","","","","","","feedback_test","","","","","","","","","",""
"841","","j","psychophysics","61","169994","0.0-7.0-1.0-1.0-0.0-0.26","3","3","4","3","3","3","3","4","4","4","4","4","4","4","5","4","5","4","4","5","2","2","2","2","2","2","1","4","1","1","0","1","1","0","0","0","1","1","1","1","0","0","0","1","5","1","1","1","4","1","2","1","1","1","765496939306553346","刘","171","","","","match","","","","","","","","","","","","","","key","j","16.658218181818004","768","428","j","true","match","img/hexagon.png","六边","六边","ALT1_2","prac_ALT1_2","","","","","","","","","",""
"null","<span style='color:GreenYellow; font-size: 70px;'>正确! </span>","null","html-keyboard-response","62","170495","0.0-7.0-1.0-1.0-0.0-1.26","3","3","4","3","3","3","3","4","4","4","4","4","4","4","5","4","5","4","4","5","2","2","2","2","2","2","1","4","1","1","0","1","1","0","0","0","1","1","1","1","0","0","0","1","5","1","1","1","4","1","2","1","1","1","765496939306553346","刘","171","","","","","","","","","","","","","","","","","","","","","","","","","","","","","","feedback_test","","","","","","","","","",""
"627","","f","psychophysics","63","172124","0.0-7.0-1.0-1.0-0.0-0.27","3","3","4","3","3","3","3","4","4","4","4","4","4","4","5","4","5","4","4","5","2","2","2","2","2","2","1","4","1","1","0","1","1","0","0","0","1","1","1","1","0","0","0","1","5","1","1","1","4","1","2","1","1","1","765496939306553346","刘","171","","","","nonmatch","","","","","","","","","","","","","","key","f","16.663072164948446","768","428","f","true","nonmatch","img/triangle.png","六边","三角","ALT1_2","prac_ALT1_2","","","","","","","","","",""
"null","<span style='color:GreenYellow; font-size: 70px;'>正确! </span>","null","html-keyboard-response","64","172625","0.0-7.0-1.0-1.0-0.0-1.27","3","3","4","3","3","3","3","4","4","4","4","4","4","4","5","4","5","4","4","5","2","2","2","2","2","2","1","4","1","1","0","1","1","0","0","0","1","1","1","1","0","0","0","1","5","1","1","1","4","1","2","1","1","1","765496939306553346","刘","171","","","","","","","","","","","","","","","","","","","","","","","","","","","","","","feedback_test","","","","","","","","","",""
"782","","f","psychophysics","65","174408","0.0-7.0-1.0-1.0-0.0-0.28","3","3","4","3","3","3","3","4","4","4","4","4","4","4","5","4","5","4","4","5","2","2","2","2","2","2","1","4","1","1","0","1","1","0","0","0","1","1","1","1","0","0","0","1","5","1","1","1","4","1","2","1","1","1","765496939306553346","刘","171","","","","nonmatch","","","","","","","","","","","","","","key","f","16.65734905660381","768","428","f","true","nonmatch","img/trapezoid.png","三角","梯形","ALT1_2","prac_ALT1_2","","","","","","","","","",""
"null","<span style='color:GreenYellow; font-size: 70px;'>正确! </span>","null","html-keyboard-response","66","174909","0.0-7.0-1.0-1.0-0.0-1.28","3","3","4","3","3","3","3","4","4","4","4","4","4","4","5","4","5","4","4","5","2","2","2","2","2","2","1","4","1","1","0","1","1","0","0","0","1","1","1","1","0","0","0","1","5","1","1","1","4","1","2","1","1","1","765496939306553346","刘","171","","","","","","","","","","","","","","","","","","","","","","","","","","","","","","feedback_test","","","","","","","","","",""
"763","","f","psychophysics","67","176673","0.0-7.0-1.0-1.0-0.0-0.29","3","3","4","3","3","3","3","4","4","4","4","4","4","4","5","4","5","4","4","5","2","2","2","2","2","2","1","4","1","1","0","1","1","0","0","0","1","1","1","1","0","0","0","1","5","1","1","1","4","1","2","1","1","1","765496939306553346","刘","171","","","","nonmatch","","","","","","","","","","","","","","key","f","16.664923809523906","768","428","f","true","nonmatch","img/hexagon.png","三角","六边","ALT1_2","prac_ALT1_2","","","","","","","","","",""
"null","<span style='color:GreenYellow; font-size: 70px;'>正确! </span>","null","html-keyboard-response","68","177175","0.0-7.0-1.0-1.0-0.0-1.29","3","3","4","3","3","3","3","4","4","4","4","4","4","4","5","4","5","4","4","5","2","2","2","2","2","2","1","4","1","1","0","1","1","0","0","0","1","1","1","1","0","0","0","1","5","1","1","1","4","1","2","1","1","1","765496939306553346","刘","171","","","","","","","","","","","","","","","","","","","","","","","","","","","","","","feedback_test","","","","","","","","","",""
"818","","j","psychophysics","69","178993","0.0-7.0-1.0-1.0-0.0-0.30","3","3","4","3","3","3","3","4","4","4","4","4","4","4","5","4","5","4","4","5","2","2","2","2","2","2","1","4","1","1","0","1","1","0","0","0","1","1","1","1","0","0","0","1","5","1","1","1","4","1","2","1","1","1","765496939306553346","刘","171","","","","match","","","","","","","","","","","","","","key","j","16.660777777777792","768","428","j","true","match","img/hexagon.png","六边","六边","ALT1_2","prac_ALT1_2","","","","","","","","","",""
"null","<span style='color:GreenYellow; font-size: 70px;'>正确! </span>","null","html-keyboard-response","70","179495","0.0-7.0-1.0-1.0-0.0-1.30","3","3","4","3","3","3","3","4","4","4","4","4","4","4","5","4","5","4","4","5","2","2","2","2","2","2","1","4","1","1","0","1","1","0","0","0","1","1","1","1","0","0","0","1","5","1","1","1","4","1","2","1","1","1","765496939306553346","刘","171","","","","","","","","","","","","","","","","","","","","","","","","","","","","","","feedback_test","","","","","","","","","",""
"665","","j","psychophysics","71","181161","0.0-7.0-1.0-1.0-0.0-0.31","3","3","4","3","3","3","3","4","4","4","4","4","4","4","5","4","5","4","4","5","2","2","2","2","2","2","1","4","1","1","0","1","1","0","0","0","1","1","1","1","0","0","0","1","5","1","1","1","4","1","2","1","1","1","765496939306553346","刘","171","","","","match","","","","","","","","","","","","","","key","j","16.662171717171645","768","428","j","true","match","img/triangle.png","三角","三角","ALT1_2","prac_ALT1_2","","","","","","","","","",""
"null","<span style='color:GreenYellow; font-size: 70px;'>正确! </span>","null","html-keyboard-response","72","181662","0.0-7.0-1.0-1.0-0.0-1.31","3","3","4","3","3","3","3","4","4","4","4","4","4","4","5","4","5","4","4","5","2","2","2","2","2","2","1","4","1","1","0","1","1","0","0","0","1","1","1","1","0","0","0","1","5","1","1","1","4","1","2","1","1","1","765496939306553346","刘","171","","","","","","","","","","","","","","","","","","","","","","","","","","","","","","feedback_test","","","","","","","","","",""
"659","","f","psychophysics","73","183322","0.0-7.0-1.0-1.0-0.0-0.32","3","3","4","3","3","3","3","4","4","4","4","4","4","4","5","4","5","4","4","5","2","2","2","2","2","2","1","4","1","1","0","1","1","0","0","0","1","1","1","1","0","0","0","1","5","1","1","1","4","1","2","1","1","1","765496939306553346","刘","171","","","","nonmatch","","","","","","","","","","","","","","key","f","16.66385858585838","768","428","f","true","nonmatch","img/triangle.png","梯形","三角","ALT1_2","prac_ALT1_2","","","","","","","","","",""
"null","<span style='color:GreenYellow; font-size: 70px;'>正确! </span>","null","html-keyboard-response","74","183836","0.0-7.0-1.0-1.0-0.0-1.32","3","3","4","3","3","3","3","4","4","4","4","4","4","4","5","4","5","4","4","5","2","2","2","2","2","2","1","4","1","1","0","1","1","0","0","0","1","1","1","1","0","0","0","1","5","1","1","1","4","1","2","1","1","1","765496939306553346","刘","171","","","","","","","","","","","","","","","","","","","","","","","","","","","","","","feedback_test","","","","","","","","","",""
"982","","f","psychophysics","75","185821","0.0-7.0-1.0-1.0-0.0-0.33","3","3","4","3","3","3","3","4","4","4","4","4","4","4","5","4","5","4","4","5","2","2","2","2","2","2","1","4","1","1","0","1","1","0","0","0","1","1","1","1","0","0","0","1","5","1","1","1","4","1","2","1","1","1","765496939306553346","刘","171","","","","nonmatch","","","","","","","","","","","","","","key","f","16.661406779661036","768","428","f","true","nonmatch","img/triangle.png","椭圆","三角","ALT1_2","prac_ALT1_2","","","","","","","","","",""
"null","<span style='color:GreenYellow; font-size: 70px;'>正确! </span>","null","html-keyboard-response","76","186321","0.0-7.0-1.0-1.0-0.0-1.33","3","3","4","3","3","3","3","4","4","4","4","4","4","4","5","4","5","4","4","5","2","2","2","2","2","2","1","4","1","1","0","1","1","0","0","0","1","1","1","1","0","0","0","1","5","1","1","1","4","1","2","1","1","1","765496939306553346","刘","171","","","","","","","","","","","","","","","","","","","","","","","","","","","","","","feedback_test","","","","","","","","","",""
"905","","f","psychophysics","77","188227","0.0-7.0-1.0-1.0-0.0-0.34","3","3","4","3","3","3","3","4","4","4","4","4","4","4","5","4","5","4","4","5","2","2","2","2","2","2","1","4","1","1","0","1","1","0","0","0","1","1","1","1","0","0","0","1","5","1","1","1","4","1","2","1","1","1","765496939306553346","刘","171","","","","nonmatch","","","","","","","","","","","","","","key","f","16.66065486725672","768","428","j","false","match","img/trapezoid.png","梯形","梯形","ALT1_2","prac_ALT1_2","","","","","","","","","",""
"null","<span style='color:red; font-size: 70px;'>错误! </span>","null","html-keyboard-response","78","188728","0.0-7.0-1.0-1.0-0.0-1.34","3","3","4","3","3","3","3","4","4","4","4","4","4","4","5","4","5","4","4","5","2","2","2","2","2","2","1","4","1","1","0","1","1","0","0","0","1","1","1","1","0","0","0","1","5","1","1","1","4","1","2","1","1","1","765496939306553346","刘","171","","","","","","","","","","","","","","","","","","","","","","","","","","","","","","feedback_test","","","","","","","","","",""
"897","","j","psychophysics","79","190626","0.0-7.0-1.0-1.0-0.0-0.35","3","3","4","3","3","3","3","4","4","4","4","4","4","4","5","4","5","4","4","5","2","2","2","2","2","2","1","4","1","1","0","1","1","0","0","0","1","1","1","1","0","0","0","1","5","1","1","1","4","1","2","1","1","1","765496939306553346","刘","171","","","","match","","","","","","","","","","","","","","key","j","16.662097345132832","768","428","j","true","match","img/hexagon.png","六边","六边","ALT1_2","prac_ALT1_2","","","","","","","","","",""
"null","<span style='color:GreenYellow; font-size: 70px;'>正确! </span>","null","html-keyboard-response","80","191126","0.0-7.0-1.0-1.0-0.0-1.35","3","3","4","3","3","3","3","4","4","4","4","4","4","4","5","4","5","4","4","5","2","2","2","2","2","2","1","4","1","1","0","1","1","0","0","0","1","1","1","1","0","0","0","1","5","1","1","1","4","1","2","1","1","1","765496939306553346","刘","171","","","","","","","","","","","","","","","","","","","","","","","","","","","","","","feedback_test","","","","","","","","","",""
"827","","f","psychophysics","81","192954","0.0-7.0-1.0-1.0-0.0-0.36","3","3","4","3","3","3","3","4","4","4","4","4","4","4","5","4","5","4","4","5","2","2","2","2","2","2","1","4","1","1","0","1","1","0","0","0","1","1","1","1","0","0","0","1","5","1","1","1","4","1","2","1","1","1","765496939306553346","刘","171","","","","nonmatch","","","","","","","","","","","","","","key","f","16.66026605504598","768","428","f","true","nonmatch","img/ellipse.png","三角","椭圆","ALT1_2","prac_ALT1_2","","","","","","","","","",""
"null","<span style='color:GreenYellow; font-size: 70px;'>正确! </span>","null","html-keyboard-response","82","193455","0.0-7.0-1.0-1.0-0.0-1.36","3","3","4","3","3","3","3","4","4","4","4","4","4","4","5","4","5","4","4","5","2","2","2","2","2","2","1","4","1","1","0","1","1","0","0","0","1","1","1","1","0","0","0","1","5","1","1","1","4","1","2","1","1","1","765496939306553346","刘","171","","","","","","","","","","","","","","","","","","","","","","","","","","","","","","feedback_test","","","","","","","","","",""
"830","","j","psychophysics","83","195287","0.0-7.0-1.0-1.0-0.0-0.37","3","3","4","3","3","3","3","4","4","4","4","4","4","4","5","4","5","4","4","5","2","2","2","2","2","2","1","4","1","1","0","1","1","0","0","0","1","1","1","1","0","0","0","1","5","1","1","1","4","1","2","1","1","1","765496939306553346","刘","171","","","","match","","","","","","","","","","","","","","key","j","16.660431192660493","768","428","f","false","nonmatch","img/trapezoid.png","六边","梯形","ALT1_2","prac_ALT1_2","","","","","","","","","",""
"null","<span style='color:red; font-size: 70px;'>错误! </span>","null","html-keyboard-response","84","195788","0.0-7.0-1.0-1.0-0.0-1.37","3","3","4","3","3","3","3","4","4","4","4","4","4","4","5","4","5","4","4","5","2","2","2","2","2","2","1","4","1","1","0","1","1","0","0","0","1","1","1","1","0","0","0","1","5","1","1","1","4","1","2","1","1","1","765496939306553346","刘","171","","","","","","","","","","","","","","","","","","","","","","","","","","","","","","feedback_test","","","","","","","","","",""
"770","","j","psychophysics","85","197559","0.0-7.0-1.0-1.0-0.0-0.38","3","3","4","3","3","3","3","4","4","4","4","4","4","4","5","4","5","4","4","5","2","2","2","2","2","2","1","4","1","1","0","1","1","0","0","0","1","1","1","1","0","0","0","1","5","1","1","1","4","1","2","1","1","1","765496939306553346","刘","171","","","","match","","","","","","","","","","","","","","key","j","16.663171428571445","768","428","j","true","match","img/ellipse.png","椭圆","椭圆","ALT1_2","prac_ALT1_2","","","","","","","","","",""
"null","<span style='color:GreenYellow; font-size: 70px;'>正确! </span>","null","html-keyboard-response","86","198060","0.0-7.0-1.0-1.0-0.0-1.38","3","3","4","3","3","3","3","4","4","4","4","4","4","4","5","4","5","4","4","5","2","2","2","2","2","2","1","4","1","1","0","1","1","0","0","0","1","1","1","1","0","0","0","1","5","1","1","1","4","1","2","1","1","1","765496939306553346","刘","171","","","","","","","","","","","","","","","","","","","","","","","","","","","","","","feedback_test","","","","","","","","","",""
"971","","j","psychophysics","87","200032","0.0-7.0-1.0-1.0-0.0-0.39","3","3","4","3","3","3","3","4","4","4","4","4","4","4","5","4","5","4","4","5","2","2","2","2","2","2","1","4","1","1","0","1","1","0","0","0","1","1","1","1","0","0","0","1","5","1","1","1","4","1","2","1","1","1","765496939306553346","刘","171","","","","match","","","","","","","","","","","","","","key","j","16.659737288135485","768","428","j","true","match","img/trapezoid.png","梯形","梯形","ALT1_2","prac_ALT1_2","","","","","","","","","",""
"null","<span style='color:GreenYellow; font-size: 70px;'>正确! </span>","null","html-keyboard-response","88","200534","0.0-7.0-1.0-1.0-0.0-1.39","3","3","4","3","3","3","3","4","4","4","4","4","4","4","5","4","5","4","4","5","2","2","2","2","2","2","1","4","1","1","0","1","1","0","0","0","1","1","1","1","0","0","0","1","5","1","1","1","4","1","2","1","1","1","765496939306553346","刘","171","","","","","","","","","","","","","","","","","","","","","","","","","","","","","","feedback_test","","","","","","","","","",""
"674","","j","psychophysics","89","202210","0.0-7.0-1.0-1.0-0.0-0.40","3","3","4","3","3","3","3","4","4","4","4","4","4","4","5","4","5","4","4","5","2","2","2","2","2","2","1","4","1","1","0","1","1","0","0","0","1","1","1","1","0","0","0","1","5","1","1","1","4","1","2","1","1","1","765496939306553346","刘","171","","","","match","","","","","","","","","","","","","","key","j","16.65829292929295","768","428","j","true","match","img/triangle.png","三角","三角","ALT1_2","prac_ALT1_2","","","","","","","","","",""
"null","<span style='color:GreenYellow; font-size: 70px;'>正确! </span>","null","html-keyboard-response","90","202711","0.0-7.0-1.0-1.0-0.0-1.40","3","3","4","3","3","3","3","4","4","4","4","4","4","4","5","4","5","4","4","5","2","2","2","2","2","2","1","4","1","1","0","1","1","0","0","0","1","1","1","1","0","0","0","1","5","1","1","1","4","1","2","1","1","1","765496939306553346","刘","171","","","","","","","","","","","","","","","","","","","","","","","","","","","","","","feedback_test","","","","","","","","","",""
"1066","","f","psychophysics","91","204780","0.0-7.0-1.0-1.0-0.0-0.41","3","3","4","3","3","3","3","4","4","4","4","4","4","4","5","4","5","4","4","5","2","2","2","2","2","2","1","4","1","1","0","1","1","0","0","0","1","1","1","1","0","0","0","1","5","1","1","1","4","1","2","1","1","1","765496939306553346","刘","171","","","","nonmatch","","","","","","","","","","","","","","key","f","16.661569105690994","768","428","f","true","nonmatch","img/hexagon.png","椭圆","六边","ALT1_2","prac_ALT1_2","","","","","","","","","",""
"null","<span style='color:GreenYellow; font-size: 70px;'>正确! </span>","null","html-keyboard-response","92","205281","0.0-7.0-1.0-1.0-0.0-1.41","3","3","4","3","3","3","3","4","4","4","4","4","4","4","5","4","5","4","4","5","2","2","2","2","2","2","1","4","1","1","0","1","1","0","0","0","1","1","1","1","0","0","0","1","5","1","1","1","4","1","2","1","1","1","765496939306553346","刘","171","","","","","","","","","","","","","","","","","","","","","","","","","","","","","","feedback_test","","","","","","","","","",""
"797","","j","psychophysics","93","207080","0.0-7.0-1.0-1.0-0.0-0.42","3","3","4","3","3","3","3","4","4","4","4","4","4","4","5","4","5","4","4","5","2","2","2","2","2","2","1","4","1","1","0","1","1","0","0","0","1","1","1","1","0","0","0","1","5","1","1","1","4","1","2","1","1","1","765496939306553346","刘","171","","","","match","","","","","","","","","","","","","","key","j","16.662233644859782","768","428","j","true","match","img/ellipse.png","椭圆","椭圆","ALT1_2","prac_ALT1_2","","","","","","","","","",""
"null","<span style='color:GreenYellow; font-size: 70px;'>正确! </span>","null","html-keyboard-response","94","207581","0.0-7.0-1.0-1.0-0.0-1.42","3","3","4","3","3","3","3","4","4","4","4","4","4","4","5","4","5","4","4","5","2","2","2","2","2","2","1","4","1","1","0","1","1","0","0","0","1","1","1","1","0","0","0","1","5","1","1","1","4","1","2","1","1","1","765496939306553346","刘","171","","","","","","","","","","","","","","","","","","","","","","","","","","","","","","feedback_test","","","","","","","","","",""
"740","","f","psychophysics","95","209323","0.0-7.0-1.0-1.0-0.0-0.43","3","3","4","3","3","3","3","4","4","4","4","4","4","4","5","4","5","4","4","5","2","2","2","2","2","2","1","4","1","1","0","1","1","0","0","0","1","1","1","1","0","0","0","1","5","1","1","1","4","1","2","1","1","1","765496939306553346","刘","171","","","","nonmatch","","","","","","","","","","","","","","key","f","16.65800970873809","768","428","f","true","nonmatch","img/ellipse.png","梯形","椭圆","ALT1_2","prac_ALT1_2","","","","","","","","","",""
"null","<span style='color:GreenYellow; font-size: 70px;'>正确! </span>","null","html-keyboard-response","96","209824","0.0-7.0-1.0-1.0-0.0-1.43","3","3","4","3","3","3","3","4","4","4","4","4","4","4","5","4","5","4","4","5","2","2","2","2","2","2","1","4","1","1","0","1","1","0","0","0","1","1","1","1","0","0","0","1","5","1","1","1","4","1","2","1","1","1","765496939306553346","刘","171","","","","","","","","","","","","","","","","","","","","","","","","","","","","","","feedback_test","","","","","","","","","",""
"601","","j","psychophysics","97","211428","0.0-7.0-1.0-1.0-0.0-0.44","3","3","4","3","3","3","3","4","4","4","4","4","4","4","5","4","5","4","4","5","2","2","2","2","2","2","1","4","1","1","0","1","1","0","0","0","1","1","1","1","0","0","0","1","5","1","1","1","4","1","2","1","1","1","765496939306553346","刘","171","","","","match","","","","","","","","","","","","","","key","j","16.664842105263194","768","428","j","true","match","img/triangle.png","三角","三角","ALT1_2","prac_ALT1_2","","","","","","","","","",""
"null","<span style='color:GreenYellow; font-size: 70px;'>正确! </span>","null","html-keyboard-response","98","211941","0.0-7.0-1.0-1.0-0.0-1.44","3","3","4","3","3","3","3","4","4","4","4","4","4","4","5","4","5","4","4","5","2","2","2","2","2","2","1","4","1","1","0","1","1","0","0","0","1","1","1","1","0","0","0","1","5","1","1","1","4","1","2","1","1","1","765496939306553346","刘","171","","","","","","","","","","","","","","","","","","","","","","","","","","","","","","feedback_test","","","","","","","","","",""
"755","","f","psychophysics","99","213699","0.0-7.0-1.0-1.0-0.0-0.45","3","3","4","3","3","3","3","4","4","4","4","4","4","4","5","4","5","4","4","5","2","2","2","2","2","2","1","4","1","1","0","1","1","0","0","0","1","1","1","1","0","0","0","1","5","1","1","1","4","1","2","1","1","1","765496939306553346","刘","171","","","","nonmatch","","","","","","","","","","","","","","key","f","16.663048076923026","768","428","j","false","match","img/ellipse.png","椭圆","椭圆","ALT1_2","prac_ALT1_2","","","","","","","","","",""
"null","<span style='color:red; font-size: 70px;'>错误! </span>","null","html-keyboard-response","100","214201","0.0-7.0-1.0-1.0-0.0-1.45","3","3","4","3","3","3","3","4","4","4","4","4","4","4","5","4","5","4","4","5","2","2","2","2","2","2","1","4","1","1","0","1","1","0","0","0","1","1","1","1","0","0","0","1","5","1","1","1","4","1","2","1","1","1","765496939306553346","刘","171","","","","","","","","","","","","","","","","","","","","","","","","","","","","","","feedback_test","","","","","","","","","",""
"735","","j","psychophysics","101","215938","0.0-7.0-1.0-1.0-0.0-0.46","3","3","4","3","3","3","3","4","4","4","4","4","4","4","5","4","5","4","4","5","2","2","2","2","2","2","1","4","1","1","0","1","1","0","0","0","1","1","1","1","0","0","0","1","5","1","1","1","4","1","2","1","1","1","765496939306553346","刘","171","","","","match","","","","","","","","","","","","","","key","j","16.66082524271847","768","428","j","true","match","img/trapezoid.png","梯形","梯形","ALT1_2","prac_ALT1_2","","","","","","","","","",""
"null","<span style='color:GreenYellow; font-size: 70px;'>正确! </span>","null","html-keyboard-response","102","216439","0.0-7.0-1.0-1.0-0.0-1.46","3","3","4","3","3","3","3","4","4","4","4","4","4","4","5","4","5","4","4","5","2","2","2","2","2","2","1","4","1","1","0","1","1","0","0","0","1","1","1","1","0","0","0","1","5","1","1","1","4","1","2","1","1","1","765496939306553346","刘","171","","","","","","","","","","","","","","","","","","","","","","","","","","","","","","feedback_test","","","","","","","","","",""
"787","","f","psychophysics","103","218230","0.0-7.0-1.0-1.0-0.0-0.47","3","3","4","3","3","3","3","4","4","4","4","4","4","4","5","4","5","4","4","5","2","2","2","2","2","2","1","4","1","1","0","1","1","0","0","0","1","1","1","1","0","0","0","1","5","1","1","1","4","1","2","1","1","1","765496939306553346","刘","171","","","","nonmatch","","","","","","","","","","","","","","key","f","16.659698113207682","768","428","f","true","nonmatch","img/trapezoid.png","椭圆","梯形","ALT1_2","prac_ALT1_2","","","","","","","","","",""
"null","<span style='color:GreenYellow; font-size: 70px;'>正确! </span>","null","html-keyboard-response","104","218731","0.0-7.0-1.0-1.0-0.0-1.47","3","3","4","3","3","3","3","4","4","4","4","4","4","4","5","4","5","4","4","5","2","2","2","2","2","2","1","4","1","1","0","1","1","0","0","0","1","1","1","1","0","0","0","1","5","1","1","1","4","1","2","1","1","1","765496939306553346","刘","171","","","","","","","","","","","","","","","","","","","","","","","","","","","","","","feedback_test","","","","","","","","","",""
"21248","<style>.context{color:white; font-size: 35px; line-height:40px}</style>                          <div><p class='context'>您正确回答了88% 的试次。</p><p class='context'>您的平均反应时为768毫秒。</p><p class='context'>恭喜您完成练习。按空格键进入正式实验。</p><p class='footer' style='font-size: 35px; line-height:40px;'>请在进入正式实验实验之前将您的<span style='color: lightgreen;'>食指</span>放在电脑键盘的相应键位上进行按键。</p>"," ","html-keyboard-response","105","239981","0.0-7.0-1.0-2.0","3","3","4","3","3","3","3","4","4","4","4","4","4","4","5","4","5","4","4","5","2","2","2","2","2","2","1","4","1","1","0","1","1","0","0","0","1","1","1","1","0","0","0","1","5","1","1","1","4","1","2","1","1","1","765496939306553346","刘","171","","","","","","","","","","","","","","","","","","","","","","","","","","","","","","","","","","","","","","","",""
"1980","
  <p style='color: white; font-size: 22px'>请您将手指放在按键上，准备进入正式的匹配任务。</p>
  <p> <div style = ""color: green""><按空格键进入下一阶段的匹配任务></div></p>
  "," ","html-keyboard-response","106","241963","0.0-7.0-1.0-3.0","3","3","4","3","3","3","3","4","4","4","4","4","4","4","5","4","5","4","4","5","2","2","2","2","2","2","1","4","1","1","0","1","1","0","0","0","1","1","1","1","0","0","0","1","5","1","1","1","4","1","2","1","1","1","765496939306553346","刘","171","","","","","","","","","","","","","","","","","","","","","","","","","","","","","","","","","","","","","","","",""
"767","","f","psychophysics","107","243734","0.0-7.0-1.0-4.0-0.0-0.0","3","3","4","3","3","3","3","4","4","4","4","4","4","4","5","4","5","4","4","5","2","2","2","2","2","2","1","4","1","1","0","1","1","0","0","0","1","1","1","1","0","0","0","1","5","1","1","1","4","1","2","1","1","1","765496939306553346","刘","171","","","","nonmatch","","","","","","","","","","","","","","key","f","16.662542857142675","768","428","f","true","nonmatch","img/ellipse.png","梯形","椭圆","ALT1","formal_ALT1_2","","","","","","","","","",""
"null","<span style='color:GreenYellow; font-size: 70px;'>正确! </span>","null","html-keyboard-response","108","244234","0.0-7.0-1.0-4.0-0.0-1.0","3","3","4","3","3","3","3","4","4","4","4","4","4","4","5","4","5","4","4","5","2","2","2","2","2","2","1","4","1","1","0","1","1","0","0","0","1","1","1","1","0","0","0","1","5","1","1","1","4","1","2","1","1","1","765496939306553346","刘","171","","","","","","","","","","","","","","","","","","","","","","","","","","","","","","feedback_test","","","","","","","","","",""
"605","","j","psychophysics","109","245840","0.0-7.0-1.0-4.0-0.0-0.1","3","3","4","3","3","3","3","4","4","4","4","4","4","4","5","4","5","4","4","5","2","2","2","2","2","2","1","4","1","1","0","1","1","0","0","0","1","1","1","1","0","0","0","1","5","1","1","1","4","1","2","1","1","1","765496939306553346","刘","171","","","","match","","","","","","","","","","","","","","key","j","16.661021052631487","768","428","j","true","match","img/triangle.png","三角","三角","ALT1","formal_ALT1_2","","","","","","","","","",""
"null","<span style='color:GreenYellow; font-size: 70px;'>正确! </span>","null","html-keyboard-response","110","246342","0.0-7.0-1.0-4.0-0.0-1.1","3","3","4","3","3","3","3","4","4","4","4","4","4","4","5","4","5","4","4","5","2","2","2","2","2","2","1","4","1","1","0","1","1","0","0","0","1","1","1","1","0","0","0","1","5","1","1","1","4","1","2","1","1","1","765496939306553346","刘","171","","","","","","","","","","","","","","","","","","","","","","","","","","","","","","feedback_test","","","","","","","","","",""
"791","","j","psychophysics","111","248133","0.0-7.0-1.0-4.0-0.0-0.2","3","3","4","3","3","3","3","4","4","4","4","4","4","4","5","4","5","4","4","5","2","2","2","2","2","2","1","4","1","1","0","1","1","0","0","0","1","1","1","1","0","0","0","1","5","1","1","1","4","1","2","1","1","1","765496939306553346","刘","171","","","","match","","","","","","","","","","","","","","key","j","16.662028037383173","768","428","j","true","match","img/trapezoid.png","梯形","梯形","ALT1","formal_ALT1_2","","","","","","","","","",""
"null","<span style='color:GreenYellow; font-size: 70px;'>正确! </span>","null","html-keyboard-response","112","248634","0.0-7.0-1.0-4.0-0.0-1.2","3","3","4","3","3","3","3","4","4","4","4","4","4","4","5","4","5","4","4","5","2","2","2","2","2","2","1","4","1","1","0","1","1","0","0","0","1","1","1","1","0","0","0","1","5","1","1","1","4","1","2","1","1","1","765496939306553346","刘","171","","","","","","","","","","","","","","","","","","","","","","","","","","","","","","feedback_test","","","","","","","","","",""
"714","","f","psychophysics","113","250350","0.0-7.0-1.0-4.0-0.0-0.3","3","3","4","3","3","3","3","4","4","4","4","4","4","4","5","4","5","4","4","5","2","2","2","2","2","2","1","4","1","1","0","1","1","0","0","0","1","1","1","1","0","0","0","1","5","1","1","1","4","1","2","1","1","1","765496939306553346","刘","171","","","","nonmatch","","","","","","","","","","","","","","key","f","16.663627450980414","768","428","f","true","nonmatch","img/triangle.png","六边","三角","ALT1","formal_ALT1_2","","","","","","","","","",""
"null","<span style='color:GreenYellow; font-size: 70px;'>正确! </span>","null","html-keyboard-response","114","250850","0.0-7.0-1.0-4.0-0.0-1.3","3","3","4","3","3","3","3","4","4","4","4","4","4","4","5","4","5","4","4","5","2","2","2","2","2","2","1","4","1","1","0","1","1","0","0","0","1","1","1","1","0","0","0","1","5","1","1","1","4","1","2","1","1","1","765496939306553346","刘","171","","","","","","","","","","","","","","","","","","","","","","","","","","","","","","feedback_test","","","","","","","","","",""
"680","","f","psychophysics","115","252531","0.0-7.0-1.0-4.0-0.0-0.4","3","3","4","3","3","3","3","4","4","4","4","4","4","4","5","4","5","4","4","5","2","2","2","2","2","2","1","4","1","1","0","1","1","0","0","0","1","1","1","1","0","0","0","1","5","1","1","1","4","1","2","1","1","1","765496939306553346","刘","171","","","","nonmatch","","","","","","","","","","","","","","key","f","16.663159999999916","768","428","f","true","nonmatch","img/hexagon.png","三角","六边","ALT1","formal_ALT1_2","","","","","","","","","",""
"null","<span style='color:GreenYellow; font-size: 70px;'>正确! </span>","null","html-keyboard-response","116","253033","0.0-7.0-1.0-4.0-0.0-1.4","3","3","4","3","3","3","3","4","4","4","4","4","4","4","5","4","5","4","4","5","2","2","2","2","2","2","1","4","1","1","0","1","1","0","0","0","1","1","1","1","0","0","0","1","5","1","1","1","4","1","2","1","1","1","765496939306553346","刘","171","","","","","","","","","","","","","","","","","","","","","","","","","","","","","","feedback_test","","","","","","","","","",""
"664","","f","psychophysics","117","254698","0.0-7.0-1.0-4.0-0.0-0.5","3","3","4","3","3","3","3","4","4","4","4","4","4","4","5","4","5","4","4","5","2","2","2","2","2","2","1","4","1","1","0","1","1","0","0","0","1","1","1","1","0","0","0","1","5","1","1","1","4","1","2","1","1","1","765496939306553346","刘","171","","","","nonmatch","","","","","","","","","","","","","","key","f","16.66145454545451","768","428","f","true","nonmatch","img/hexagon.png","椭圆","六边","ALT1","formal_ALT1_2","","","","","","","","","",""
"null","<span style='color:GreenYellow; font-size: 70px;'>正确! </span>","null","html-keyboard-response","118","255202","0.0-7.0-1.0-4.0-0.0-1.5","3","3","4","3","3","3","3","4","4","4","4","4","4","4","5","4","5","4","4","5","2","2","2","2","2","2","1","4","1","1","0","1","1","0","0","0","1","1","1","1","0","0","0","1","5","1","1","1","4","1","2","1","1","1","765496939306553346","刘","171","","","","","","","","","","","","","","","","","","","","","","","","","","","","","","feedback_test","","","","","","","","","",""
"686","","f","psychophysics","119","256890","0.0-7.0-1.0-4.0-0.0-0.6","3","3","4","3","3","3","3","4","4","4","4","4","4","4","5","4","5","4","4","5","2","2","2","2","2","2","1","4","1","1","0","1","1","0","0","0","1","1","1","1","0","0","0","1","5","1","1","1","4","1","2","1","1","1","765496939306553346","刘","171","","","","nonmatch","","","","","","","","","","","","","","key","f","16.664530000000084","768","428","f","true","nonmatch","img/ellipse.png","六边","椭圆","ALT1","formal_ALT1_2","","","","","","","","","",""
"null","<span style='color:GreenYellow; font-size: 70px;'>正确! </span>","null","html-keyboard-response","120","257392","0.0-7.0-1.0-4.0-0.0-1.6","3","3","4","3","3","3","3","4","4","4","4","4","4","4","5","4","5","4","4","5","2","2","2","2","2","2","1","4","1","1","0","1","1","0","0","0","1","1","1","1","0","0","0","1","5","1","1","1","4","1","2","1","1","1","765496939306553346","刘","171","","","","","","","","","","","","","","","","","","","","","","","","","","","","","","feedback_test","","","","","","","","","",""
"811","","f","psychophysics","121","259206","0.0-7.0-1.0-4.0-0.0-0.7","3","3","4","3","3","3","3","4","4","4","4","4","4","4","5","4","5","4","4","5","2","2","2","2","2","2","1","4","1","1","0","1","1","0","0","0","1","1","1","1","0","0","0","1","5","1","1","1","4","1","2","1","1","1","765496939306553346","刘","171","","","","nonmatch","","","","","","","","","","","","","","key","f","16.66240186915868","768","428","f","true","nonmatch","img/trapezoid.png","六边","梯形","ALT1","formal_ALT1_2","","","","","","","","","",""
"null","<span style='color:GreenYellow; font-size: 70px;'>正确! </span>","null","html-keyboard-response","122","259708","0.0-7.0-1.0-4.0-0.0-1.7","3","3","4","3","3","3","3","4","4","4","4","4","4","4","5","4","5","4","4","5","2","2","2","2","2","2","1","4","1","1","0","1","1","0","0","0","1","1","1","1","0","0","0","1","5","1","1","1","4","1","2","1","1","1","765496939306553346","刘","171","","","","","","","","","","","","","","","","","","","","","","","","","","","","","","feedback_test","","","","","","","","","",""
"545","","j","psychophysics","123","261256","0.0-7.0-1.0-4.0-0.0-0.8","3","3","4","3","3","3","3","4","4","4","4","4","4","4","5","4","5","4","4","5","2","2","2","2","2","2","1","4","1","1","0","1","1","0","0","0","1","1","1","1","0","0","0","1","5","1","1","1","4","1","2","1","1","1","765496939306553346","刘","171","","","","match","","","","","","","","","","","","","","key","j","16.656560439560472","768","428","j","true","match","img/hexagon.png","六边","六边","ALT1","formal_ALT1_2","","","","","","","","","",""
"null","<span style='color:GreenYellow; font-size: 70px;'>正确! </span>","null","html-keyboard-response","124","261758","0.0-7.0-1.0-4.0-0.0-1.8","3","3","4","3","3","3","3","4","4","4","4","4","4","4","5","4","5","4","4","5","2","2","2","2","2","2","1","4","1","1","0","1","1","0","0","0","1","1","1","1","0","0","0","1","5","1","1","1","4","1","2","1","1","1","765496939306553346","刘","171","","","","","","","","","","","","","","","","","","","","","","","","","","","","","","feedback_test","","","","","","","","","",""
"617","","j","psychophysics","125","263377","0.0-7.0-1.0-4.0-0.0-0.9","3","3","4","3","3","3","3","4","4","4","4","4","4","4","5","4","5","4","4","5","2","2","2","2","2","2","1","4","1","1","0","1","1","0","0","0","1","1","1","1","0","0","0","1","5","1","1","1","4","1","2","1","1","1","765496939306553346","刘","171","","","","match","","","","","","","","","","","","","","key","j","16.662479166666646","768","428","j","true","match","img/trapezoid.png","梯形","梯形","ALT1","formal_ALT1_2","","","","","","","","","",""
"null","<span style='color:GreenYellow; font-size: 70px;'>正确! </span>","null","html-keyboard-response","126","263879","0.0-7.0-1.0-4.0-0.0-1.9","3","3","4","3","3","3","3","4","4","4","4","4","4","4","5","4","5","4","4","5","2","2","2","2","2","2","1","4","1","1","0","1","1","0","0","0","1","1","1","1","0","0","0","1","5","1","1","1","4","1","2","1","1","1","765496939306553346","刘","171","","","","","","","","","","","","","","","","","","","","","","","","","","","","","","feedback_test","","","","","","","","","",""
"522","","j","psychophysics","127","265402","0.0-7.0-1.0-4.0-0.0-0.10","3","3","4","3","3","3","3","4","4","4","4","4","4","4","5","4","5","4","4","5","2","2","2","2","2","2","1","4","1","1","0","1","1","0","0","0","1","1","1","1","0","0","0","1","5","1","1","1","4","1","2","1","1","1","765496939306553346","刘","171","","","","match","","","","","","","","","","","","","","key","j","16.665300000000407","768","428","j","true","match","img/ellipse.png","椭圆","椭圆","ALT1","formal_ALT1_2","","","","","","","","","",""
"null","<span style='color:GreenYellow; font-size: 70px;'>正确! </span>","null","html-keyboard-response","128","265904","0.0-7.0-1.0-4.0-0.0-1.10","3","3","4","3","3","3","3","4","4","4","4","4","4","4","5","4","5","4","4","5","2","2","2","2","2","2","1","4","1","1","0","1","1","0","0","0","1","1","1","1","0","0","0","1","5","1","1","1","4","1","2","1","1","1","765496939306553346","刘","171","","","","","","","","","","","","","","","","","","","","","","","","","","","","","","feedback_test","","","","","","","","","",""
"682","","j","psychophysics","129","267592","0.0-7.0-1.0-4.0-0.0-0.11","3","3","4","3","3","3","3","4","4","4","4","4","4","4","5","4","5","4","4","5","2","2","2","2","2","2","1","4","1","1","0","1","1","0","0","0","1","1","1","1","0","0","0","1","5","1","1","1","4","1","2","1","1","1","765496939306553346","刘","171","","","","match","","","","","","","","","","","","","","key","j","16.660564356435685","768","428","j","true","match","img/triangle.png","三角","三角","ALT1","formal_ALT1_2","","","","","","","","","",""
"null","<span style='color:GreenYellow; font-size: 70px;'>正确! </span>","null","html-keyboard-response","130","268093","0.0-7.0-1.0-4.0-0.0-1.11","3","3","4","3","3","3","3","4","4","4","4","4","4","4","5","4","5","4","4","5","2","2","2","2","2","2","1","4","1","1","0","1","1","0","0","0","1","1","1","1","0","0","0","1","5","1","1","1","4","1","2","1","1","1","765496939306553346","刘","171","","","","","","","","","","","","","","","","","","","","","","","","","","","","","","feedback_test","","","","","","","","","",""
"725","","f","psychophysics","131","269819","0.0-7.0-1.0-4.0-0.0-0.12","3","3","4","3","3","3","3","4","4","4","4","4","4","4","5","4","5","4","4","5","2","2","2","2","2","2","1","4","1","1","0","1","1","0","0","0","1","1","1","1","0","0","0","1","5","1","1","1","4","1","2","1","1","1","765496939306553346","刘","171","","","","nonmatch","","","","","","","","","","","","","","key","f","16.66175490196089","768","428","f","true","nonmatch","img/ellipse.png","三角","椭圆","ALT1","formal_ALT1_2","","","","","","","","","",""
"null","<span style='color:GreenYellow; font-size: 70px;'>正确! </span>","null","html-keyboard-response","132","270320","0.0-7.0-1.0-4.0-0.0-1.12","3","3","4","3","3","3","3","4","4","4","4","4","4","4","5","4","5","4","4","5","2","2","2","2","2","2","1","4","1","1","0","1","1","0","0","0","1","1","1","1","0","0","0","1","5","1","1","1","4","1","2","1","1","1","765496939306553346","刘","171","","","","","","","","","","","","","","","","","","","","","","","","","","","","","","feedback_test","","","","","","","","","",""
"766","","f","psychophysics","133","272091","0.0-7.0-1.0-4.0-0.0-0.13","3","3","4","3","3","3","3","4","4","4","4","4","4","4","5","4","5","4","4","5","2","2","2","2","2","2","1","4","1","1","0","1","1","0","0","0","1","1","1","1","0","0","0","1","5","1","1","1","4","1","2","1","1","1","765496939306553346","刘","171","","","","nonmatch","","","","","","","","","","","","","","key","f","16.661438095238104","768","428","f","true","nonmatch","img/hexagon.png","梯形","六边","ALT1","formal_ALT1_2","","","","","","","","","",""
"null","<span style='color:GreenYellow; font-size: 70px;'>正确! </span>","null","html-keyboard-response","134","272592","0.0-7.0-1.0-4.0-0.0-1.13","3","3","4","3","3","3","3","4","4","4","4","4","4","4","5","4","5","4","4","5","2","2","2","2","2","2","1","4","1","1","0","1","1","0","0","0","1","1","1","1","0","0","0","1","5","1","1","1","4","1","2","1","1","1","765496939306553346","刘","171","","","","","","","","","","","","","","","","","","","","","","","","","","","","","","feedback_test","","","","","","","","","",""
"715","","f","psychophysics","135","274308","0.0-7.0-1.0-4.0-0.0-0.14","3","3","4","3","3","3","3","4","4","4","4","4","4","4","5","4","5","4","4","5","2","2","2","2","2","2","1","4","1","1","0","1","1","0","0","0","1","1","1","1","0","0","0","1","5","1","1","1","4","1","2","1","1","1","765496939306553346","刘","171","","","","nonmatch","","","","","","","","","","","","","","key","f","16.661588235293724","768","428","f","true","nonmatch","img/trapezoid.png","椭圆","梯形","ALT1","formal_ALT1_2","","","","","","","","","",""
"null","<span style='color:GreenYellow; font-size: 70px;'>正确! </span>","null","html-keyboard-response","136","274810","0.0-7.0-1.0-4.0-0.0-1.14","3","3","4","3","3","3","3","4","4","4","4","4","4","4","5","4","5","4","4","5","2","2","2","2","2","2","1","4","1","1","0","1","1","0","0","0","1","1","1","1","0","0","0","1","5","1","1","1","4","1","2","1","1","1","765496939306553346","刘","171","","","","","","","","","","","","","","","","","","","","","","","","","","","","","","feedback_test","","","","","","","","","",""
"847","","f","psychophysics","137","276660","0.0-7.0-1.0-4.0-0.0-0.15","3","3","4","3","3","3","3","4","4","4","4","4","4","4","5","4","5","4","4","5","2","2","2","2","2","2","1","4","1","1","0","1","1","0","0","0","1","1","1","1","0","0","0","1","5","1","1","1","4","1","2","1","1","1","765496939306553346","刘","171","","","","nonmatch","","","","","","","","","","","","","","key","f","16.66467272727274","768","428","f","true","nonmatch","img/triangle.png","梯形","三角","ALT1","formal_ALT1_2","","","","","","","","","",""
"null","<span style='color:GreenYellow; font-size: 70px;'>正确! </span>","null","html-keyboard-response","138","277161","0.0-7.0-1.0-4.0-0.0-1.15","3","3","4","3","3","3","3","4","4","4","4","4","4","4","5","4","5","4","4","5","2","2","2","2","2","2","1","4","1","1","0","1","1","0","0","0","1","1","1","1","0","0","0","1","5","1","1","1","4","1","2","1","1","1","765496939306553346","刘","171","","","","","","","","","","","","","","","","","","","","","","","","","","","","","","feedback_test","","","","","","","","","",""
"702","","f","psychophysics","139","278863","0.0-7.0-1.0-4.0-0.0-0.16","3","3","4","3","3","3","3","4","4","4","4","4","4","4","5","4","5","4","4","5","2","2","2","2","2","2","1","4","1","1","0","1","1","0","0","0","1","1","1","1","0","0","0","1","5","1","1","1","4","1","2","1","1","1","765496939306553346","刘","171","","","","nonmatch","","","","","","","","","","","","","","key","f","16.661108910891063","768","428","f","true","nonmatch","img/trapezoid.png","三角","梯形","ALT1","formal_ALT1_2","","","","","","","","","",""
"null","<span style='color:GreenYellow; font-size: 70px;'>正确! </span>","null","html-keyboard-response","140","279364","0.0-7.0-1.0-4.0-0.0-1.16","3","3","4","3","3","3","3","4","4","4","4","4","4","4","5","4","5","4","4","5","2","2","2","2","2","2","1","4","1","1","0","1","1","0","0","0","1","1","1","1","0","0","0","1","5","1","1","1","4","1","2","1","1","1","765496939306553346","刘","171","","","","","","","","","","","","","","","","","","","","","","","","","","","","","","feedback_test","","","","","","","","","",""
"851","","j","psychophysics","141","281216","0.0-7.0-1.0-4.0-0.0-0.17","3","3","4","3","3","3","3","4","4","4","4","4","4","4","5","4","5","4","4","5","2","2","2","2","2","2","1","4","1","1","0","1","1","0","0","0","1","1","1","1","0","0","0","1","5","1","1","1","4","1","2","1","1","1","765496939306553346","刘","171","","","","match","","","","","","","","","","","","","","key","j","16.661354545454643","768","428","j","true","match","img/triangle.png","三角","三角","ALT1","formal_ALT1_2","","","","","","","","","",""
"null","<span style='color:GreenYellow; font-size: 70px;'>正确! </span>","null","html-keyboard-response","142","281717","0.0-7.0-1.0-4.0-0.0-1.17","3","3","4","3","3","3","3","4","4","4","4","4","4","4","5","4","5","4","4","5","2","2","2","2","2","2","1","4","1","1","0","1","1","0","0","0","1","1","1","1","0","0","0","1","5","1","1","1","4","1","2","1","1","1","765496939306553346","刘","171","","","","","","","","","","","","","","","","","","","","","","","","","","","","","","feedback_test","","","","","","","","","",""
"744","","j","psychophysics","143","283464","0.0-7.0-1.0-4.0-0.0-0.18","3","3","4","3","3","3","3","4","4","4","4","4","4","4","5","4","5","4","4","5","2","2","2","2","2","2","1","4","1","1","0","1","1","0","0","0","1","1","1","1","0","0","0","1","5","1","1","1","4","1","2","1","1","1","765496939306553346","刘","171","","","","match","","","","","","","","","","","","","","key","j","16.66001941747534","768","428","j","true","match","img/hexagon.png","六边","六边","ALT1","formal_ALT1_2","","","","","","","","","",""
"null","<span style='color:GreenYellow; font-size: 70px;'>正确! </span>","null","html-keyboard-response","144","283966","0.0-7.0-1.0-4.0-0.0-1.18","3","3","4","3","3","3","3","4","4","4","4","4","4","4","5","4","5","4","4","5","2","2","2","2","2","2","1","4","1","1","0","1","1","0","0","0","1","1","1","1","0","0","0","1","5","1","1","1","4","1","2","1","1","1","765496939306553346","刘","171","","","","","","","","","","","","","","","","","","","","","","","","","","","","","","feedback_test","","","","","","","","","",""
"725","","j","psychophysics","145","285695","0.0-7.0-1.0-4.0-0.0-0.19","3","3","4","3","3","3","3","4","4","4","4","4","4","4","5","4","5","4","4","5","2","2","2","2","2","2","1","4","1","1","0","1","1","0","0","0","1","1","1","1","0","0","0","1","5","1","1","1","4","1","2","1","1","1","765496939306553346","刘","171","","","","match","","","","","","","","","","","","","","key","j","16.66280392156834","768","428","j","true","match","img/ellipse.png","椭圆","椭圆","ALT1","formal_ALT1_2","","","","","","","","","",""
"null","<span style='color:GreenYellow; font-size: 70px;'>正确! </span>","null","html-keyboard-response","146","286195","0.0-7.0-1.0-4.0-0.0-1.19","3","3","4","3","3","3","3","4","4","4","4","4","4","4","5","4","5","4","4","5","2","2","2","2","2","2","1","4","1","1","0","1","1","0","0","0","1","1","1","1","0","0","0","1","5","1","1","1","4","1","2","1","1","1","765496939306553346","刘","171","","","","","","","","","","","","","","","","","","","","","","","","","","","","","","feedback_test","","","","","","","","","",""
"730","","f","psychophysics","147","287927","0.0-7.0-1.0-4.0-0.0-0.20","3","3","4","3","3","3","3","4","4","4","4","4","4","4","5","4","5","4","4","5","2","2","2","2","2","2","1","4","1","1","0","1","1","0","0","0","1","1","1","1","0","0","0","1","5","1","1","1","4","1","2","1","1","1","765496939306553346","刘","171","","","","nonmatch","","","","","","","","","","","","","","key","f","16.662854368931804","768","428","j","false","match","img/hexagon.png","六边","六边","ALT1","formal_ALT1_2","","","","","","","","","",""
"null","<span style='color:red; font-size: 70px;'>错误! </span>","null","html-keyboard-response","148","288428","0.0-7.0-1.0-4.0-0.0-1.20","3","3","4","3","3","3","3","4","4","4","4","4","4","4","5","4","5","4","4","5","2","2","2","2","2","2","1","4","1","1","0","1","1","0","0","0","1","1","1","1","0","0","0","1","5","1","1","1","4","1","2","1","1","1","765496939306553346","刘","171","","","","","","","","","","","","","","","","","","","","","","","","","","","","","","feedback_test","","","","","","","","","",""
"1127","","f","psychophysics","149","290557","0.0-7.0-1.0-4.0-0.0-0.21","3","3","4","3","3","3","3","4","4","4","4","4","4","4","5","4","5","4","4","5","2","2","2","2","2","2","1","4","1","1","0","1","1","0","0","0","1","1","1","1","0","0","0","1","5","1","1","1","4","1","2","1","1","1","765496939306553346","刘","171","","","","nonmatch","","","","","","","","","","","","","","key","f","16.65848031496046","768","428","f","true","nonmatch","img/triangle.png","椭圆","三角","ALT1","formal_ALT1_2","","","","","","","","","",""
"null","<span style='color:GreenYellow; font-size: 70px;'>正确! </span>","null","html-keyboard-response","150","291058","0.0-7.0-1.0-4.0-0.0-1.21","3","3","4","3","3","3","3","4","4","4","4","4","4","4","5","4","5","4","4","5","2","2","2","2","2","2","1","4","1","1","0","1","1","0","0","0","1","1","1","1","0","0","0","1","5","1","1","1","4","1","2","1","1","1","765496939306553346","刘","171","","","","","","","","","","","","","","","","","","","","","","","","","","","","","","feedback_test","","","","","","","","","",""
"807","","j","psychophysics","151","292868","0.0-7.0-1.0-4.0-0.0-0.22","3","3","4","3","3","3","3","4","4","4","4","4","4","4","5","4","5","4","4","5","2","2","2","2","2","2","1","4","1","1","0","1","1","0","0","0","1","1","1","1","0","0","0","1","5","1","1","1","4","1","2","1","1","1","765496939306553346","刘","171","","","","match","","","","","","","","","","","","","","key","j","16.664759259259206","768","428","j","true","match","img/trapezoid.png","梯形","梯形","ALT1","formal_ALT1_2","","","","","","","","","",""
"null","<span style='color:GreenYellow; font-size: 70px;'>正确! </span>","null","html-keyboard-response","152","293377","0.0-7.0-1.0-4.0-0.0-1.22","3","3","4","3","3","3","3","4","4","4","4","4","4","4","5","4","5","4","4","5","2","2","2","2","2","2","1","4","1","1","0","1","1","0","0","0","1","1","1","1","0","0","0","1","5","1","1","1","4","1","2","1","1","1","765496939306553346","刘","171","","","","","","","","","","","","","","","","","","","","","","","","","","","","","","feedback_test","","","","","","","","","",""
"832","","j","psychophysics","153","295216","0.0-7.0-1.0-4.0-0.0-0.23","3","3","4","3","3","3","3","4","4","4","4","4","4","4","5","4","5","4","4","5","2","2","2","2","2","2","1","4","1","1","0","1","1","0","0","0","1","1","1","1","0","0","0","1","5","1","1","1","4","1","2","1","1","1","765496939306553346","刘","171","","","","match","","","","","","","","","","","","","","key","j","16.65739999999959","768","428","j","true","match","img/ellipse.png","椭圆","椭圆","ALT1","formal_ALT1_2","","","","","","","","","",""
"null","<span style='color:GreenYellow; font-size: 70px;'>正确! </span>","null","html-keyboard-response","154","295718","0.0-7.0-1.0-4.0-0.0-1.23","3","3","4","3","3","3","3","4","4","4","4","4","4","4","5","4","5","4","4","5","2","2","2","2","2","2","1","4","1","1","0","1","1","0","0","0","1","1","1","1","0","0","0","1","5","1","1","1","4","1","2","1","1","1","765496939306553346","刘","171","","","","","","","","","","","","","","","","","","","","","","","","","","","","","","feedback_test","","","","","","","","","",""
"797","","f","psychophysics","155","297517","0.0-7.0-1.0-4.0-0.0-0.24","3","3","4","3","3","3","3","4","4","4","4","4","4","4","5","4","5","4","4","5","2","2","2","2","2","2","1","4","1","1","0","1","1","0","0","0","1","1","1","1","0","0","0","1","5","1","1","1","4","1","2","1","1","1","765496939306553346","刘","171","","","","nonmatch","","","","","","","","","","","","","","key","f","16.66000934579425","768","428","f","true","nonmatch","img/trapezoid.png","六边","梯形","ALT1","formal_ALT1_2","","","","","","","","","",""
"null","<span style='color:GreenYellow; font-size: 70px;'>正确! </span>","null","html-keyboard-response","156","298019","0.0-7.0-1.0-4.0-0.0-1.24","3","3","4","3","3","3","3","4","4","4","4","4","4","4","5","4","5","4","4","5","2","2","2","2","2","2","1","4","1","1","0","1","1","0","0","0","1","1","1","1","0","0","0","1","5","1","1","1","4","1","2","1","1","1","765496939306553346","刘","171","","","","","","","","","","","","","","","","","","","","","","","","","","","","","","feedback_test","","","","","","","","","",""
"715","","j","psychophysics","157","299736","0.0-7.0-1.0-4.0-0.0-0.25","3","3","4","3","3","3","3","4","4","4","4","4","4","4","5","4","5","4","4","5","2","2","2","2","2","2","1","4","1","1","0","1","1","0","0","0","1","1","1","1","0","0","0","1","5","1","1","1","4","1","2","1","1","1","765496939306553346","刘","171","","","","match","","","","","","","","","","","","","","key","j","16.656921568627393","768","428","j","true","match","img/hexagon.png","六边","六边","ALT1","formal_ALT1_2","","","","","","","","","",""
"null","<span style='color:GreenYellow; font-size: 70px;'>正确! </span>","null","html-keyboard-response","158","300237","0.0-7.0-1.0-4.0-0.0-1.25","3","3","4","3","3","3","3","4","4","4","4","4","4","4","5","4","5","4","4","5","2","2","2","2","2","2","1","4","1","1","0","1","1","0","0","0","1","1","1","1","0","0","0","1","5","1","1","1","4","1","2","1","1","1","765496939306553346","刘","171","","","","","","","","","","","","","","","","","","","","","","","","","","","","","","feedback_test","","","","","","","","","",""
"643","","f","psychophysics","159","301882","0.0-7.0-1.0-4.0-0.0-0.26","3","3","4","3","3","3","3","4","4","4","4","4","4","4","5","4","5","4","4","5","2","2","2","2","2","2","1","4","1","1","0","1","1","0","0","0","1","1","1","1","0","0","0","1","5","1","1","1","4","1","2","1","1","1","765496939306553346","刘","171","","","","nonmatch","","","","","","","","","","","","","","key","f","16.65930612244862","768","428","f","true","nonmatch","img/hexagon.png","椭圆","六边","ALT1","formal_ALT1_2","","","","","","","","","",""
"null","<span style='color:GreenYellow; font-size: 70px;'>正确! </span>","null","html-keyboard-response","160","302383","0.0-7.0-1.0-4.0-0.0-1.26","3","3","4","3","3","3","3","4","4","4","4","4","4","4","5","4","5","4","4","5","2","2","2","2","2","2","1","4","1","1","0","1","1","0","0","0","1","1","1","1","0","0","0","1","5","1","1","1","4","1","2","1","1","1","765496939306553346","刘","171","","","","","","","","","","","","","","","","","","","","","","","","","","","","","","feedback_test","","","","","","","","","",""
"706","","f","psychophysics","161","304092","0.0-7.0-1.0-4.0-0.0-0.27","3","3","4","3","3","3","3","4","4","4","4","4","4","4","5","4","5","4","4","5","2","2","2","2","2","2","1","4","1","1","0","1","1","0","0","0","1","1","1","1","0","0","0","1","5","1","1","1","4","1","2","1","1","1","765496939306553346","刘","171","","","","nonmatch","","","","","","","","","","","","","","key","f","16.66529702970304","768","428","f","true","nonmatch","img/trapezoid.png","三角","梯形","ALT1","formal_ALT1_2","","","","","","","","","",""
"null","<span style='color:GreenYellow; font-size: 70px;'>正确! </span>","null","html-keyboard-response","162","304593","0.0-7.0-1.0-4.0-0.0-1.27","3","3","4","3","3","3","3","4","4","4","4","4","4","4","5","4","5","4","4","5","2","2","2","2","2","2","1","4","1","1","0","1","1","0","0","0","1","1","1","1","0","0","0","1","5","1","1","1","4","1","2","1","1","1","765496939306553346","刘","171","","","","","","","","","","","","","","","","","","","","","","","","","","","","","","feedback_test","","","","","","","","","",""
"695","","j","psychophysics","163","306291","0.0-7.0-1.0-4.0-0.0-0.28","3","3","4","3","3","3","3","4","4","4","4","4","4","4","5","4","5","4","4","5","2","2","2","2","2","2","1","4","1","1","0","1","1","0","0","0","1","1","1","1","0","0","0","1","5","1","1","1","4","1","2","1","1","1","765496939306553346","刘","171","","","","match","","","","","","","","","","","","","","key","j","16.663510000000244","768","428","j","true","match","img/ellipse.png","椭圆","椭圆","ALT1","formal_ALT1_2","","","","","","","","","",""
"null","<span style='color:GreenYellow; font-size: 70px;'>正确! </span>","null","html-keyboard-response","164","306791","0.0-7.0-1.0-4.0-0.0-1.28","3","3","4","3","3","3","3","4","4","4","4","4","4","4","5","4","5","4","4","5","2","2","2","2","2","2","1","4","1","1","0","1","1","0","0","0","1","1","1","1","0","0","0","1","5","1","1","1","4","1","2","1","1","1","765496939306553346","刘","171","","","","","","","","","","","","","","","","","","","","","","","","","","","","","","feedback_test","","","","","","","","","",""
"917","","f","psychophysics","165","308712","0.0-7.0-1.0-4.0-0.0-0.29","3","3","4","3","3","3","3","4","4","4","4","4","4","4","5","4","5","4","4","5","2","2","2","2","2","2","1","4","1","1","0","1","1","0","0","0","1","1","1","1","0","0","0","1","5","1","1","1","4","1","2","1","1","1","765496939306553346","刘","171","","","","nonmatch","","","","","","","","","","","","","","key","f","16.66280701754384","768","428","f","true","nonmatch","img/ellipse.png","三角","椭圆","ALT1","formal_ALT1_2","","","","","","","","","",""
"null","<span style='color:GreenYellow; font-size: 70px;'>正确! </span>","null","html-keyboard-response","166","309214","0.0-7.0-1.0-4.0-0.0-1.29","3","3","4","3","3","3","3","4","4","4","4","4","4","4","5","4","5","4","4","5","2","2","2","2","2","2","1","4","1","1","0","1","1","0","0","0","1","1","1","1","0","0","0","1","5","1","1","1","4","1","2","1","1","1","765496939306553346","刘","171","","","","","","","","","","","","","","","","","","","","","","","","","","","","","","feedback_test","","","","","","","","","",""
"814","","j","psychophysics","167","311029","0.0-7.0-1.0-4.0-0.0-0.30","3","3","4","3","3","3","3","4","4","4","4","4","4","4","5","4","5","4","4","5","2","2","2","2","2","2","1","4","1","1","0","1","1","0","0","0","1","1","1","1","0","0","0","1","5","1","1","1","4","1","2","1","1","1","765496939306553346","刘","171","","","","match","","","","","","","","","","","","","","key","j","16.661416666666305","768","428","j","true","match","img/hexagon.png","六边","六边","ALT1","formal_ALT1_2","","","","","","","","","",""
"null","<span style='color:GreenYellow; font-size: 70px;'>正确! </span>","null","html-keyboard-response","168","311530","0.0-7.0-1.0-4.0-0.0-1.30","3","3","4","3","3","3","3","4","4","4","4","4","4","4","5","4","5","4","4","5","2","2","2","2","2","2","1","4","1","1","0","1","1","0","0","0","1","1","1","1","0","0","0","1","5","1","1","1","4","1","2","1","1","1","765496939306553346","刘","171","","","","","","","","","","","","","","","","","","","","","","","","","","","","","","feedback_test","","","","","","","","","",""
"1034","","f","psychophysics","169","313565","0.0-7.0-1.0-4.0-0.0-0.31","3","3","4","3","3","3","3","4","4","4","4","4","4","4","5","4","5","4","4","5","2","2","2","2","2","2","1","4","1","1","0","1","1","0","0","0","1","1","1","1","0","0","0","1","5","1","1","1","4","1","2","1","1","1","765496939306553346","刘","171","","","","nonmatch","","","","","","","","","","","","","","key","f","16.659743801652635","768","428","f","true","nonmatch","img/triangle.png","梯形","三角","ALT1","formal_ALT1_2","","","","","","","","","",""
"null","<span style='color:GreenYellow; font-size: 70px;'>正确! </span>","null","html-keyboard-response","170","314066","0.0-7.0-1.0-4.0-0.0-1.31","3","3","4","3","3","3","3","4","4","4","4","4","4","4","5","4","5","4","4","5","2","2","2","2","2","2","1","4","1","1","0","1","1","0","0","0","1","1","1","1","0","0","0","1","5","1","1","1","4","1","2","1","1","1","765496939306553346","刘","171","","","","","","","","","","","","","","","","","","","","","","","","","","","","","","feedback_test","","","","","","","","","",""
"664","","j","psychophysics","171","315732","0.0-7.0-1.0-4.0-0.0-0.32","3","3","4","3","3","3","3","4","4","4","4","4","4","4","5","4","5","4","4","5","2","2","2","2","2","2","1","4","1","1","0","1","1","0","0","0","1","1","1","1","0","0","0","1","5","1","1","1","4","1","2","1","1","1","765496939306553346","刘","171","","","","match","","","","","","","","","","","","","","key","j","16.664595959595793","768","428","j","true","match","img/hexagon.png","六边","六边","ALT1","formal_ALT1_2","","","","","","","","","",""
"null","<span style='color:GreenYellow; font-size: 70px;'>正确! </span>","null","html-keyboard-response","172","316234","0.0-7.0-1.0-4.0-0.0-1.32","3","3","4","3","3","3","3","4","4","4","4","4","4","4","5","4","5","4","4","5","2","2","2","2","2","2","1","4","1","1","0","1","1","0","0","0","1","1","1","1","0","0","0","1","5","1","1","1","4","1","2","1","1","1","765496939306553346","刘","171","","","","","","","","","","","","","","","","","","","","","","","","","","","","","","feedback_test","","","","","","","","","",""
"623","","j","psychophysics","173","317859","0.0-7.0-1.0-4.0-0.0-0.33","3","3","4","3","3","3","3","4","4","4","4","4","4","4","5","4","5","4","4","5","2","2","2","2","2","2","1","4","1","1","0","1","1","0","0","0","1","1","1","1","0","0","0","1","5","1","1","1","4","1","2","1","1","1","765496939306553346","刘","171","","","","match","","","","","","","","","","","","","","key","j","16.659185567010223","768","428","j","true","match","img/triangle.png","三角","三角","ALT1","formal_ALT1_2","","","","","","","","","",""
"null","<span style='color:GreenYellow; font-size: 70px;'>正确! </span>","null","html-keyboard-response","174","318370","0.0-7.0-1.0-4.0-0.0-1.33","3","3","4","3","3","3","3","4","4","4","4","4","4","4","5","4","5","4","4","5","2","2","2","2","2","2","1","4","1","1","0","1","1","0","0","0","1","1","1","1","0","0","0","1","5","1","1","1","4","1","2","1","1","1","765496939306553346","刘","171","","","","","","","","","","","","","","","","","","","","","","","","","","","","","","feedback_test","","","","","","","","","",""
"701","","j","psychophysics","175","320075","0.0-7.0-1.0-4.0-0.0-0.34","3","3","4","3","3","3","3","4","4","4","4","4","4","4","5","4","5","4","4","5","2","2","2","2","2","2","1","4","1","1","0","1","1","0","0","0","1","1","1","1","0","0","0","1","5","1","1","1","4","1","2","1","1","1","765496939306553346","刘","171","","","","match","","","","","","","","","","","","","","key","j","16.660564356435685","768","428","j","true","match","img/trapezoid.png","梯形","梯形","ALT1","formal_ALT1_2","","","","","","","","","",""
"null","<span style='color:GreenYellow; font-size: 70px;'>正确! </span>","null","html-keyboard-response","176","320576","0.0-7.0-1.0-4.0-0.0-1.34","3","3","4","3","3","3","3","4","4","4","4","4","4","4","5","4","5","4","4","5","2","2","2","2","2","2","1","4","1","1","0","1","1","0","0","0","1","1","1","1","0","0","0","1","5","1","1","1","4","1","2","1","1","1","765496939306553346","刘","171","","","","","","","","","","","","","","","","","","","","","","","","","","","","","","feedback_test","","","","","","","","","",""
"613","","j","psychophysics","177","322191","0.0-7.0-1.0-4.0-0.0-0.35","3","3","4","3","3","3","3","4","4","4","4","4","4","4","5","4","5","4","4","5","2","2","2","2","2","2","1","4","1","1","0","1","1","0","0","0","1","1","1","1","0","0","0","1","5","1","1","1","4","1","2","1","1","1","765496939306553346","刘","171","","","","match","","","","","","","","","","","","","","key","j","16.658093750000262","768","428","j","true","match","img/triangle.png","三角","三角","ALT1","formal_ALT1_2","","","","","","","","","",""
"null","<span style='color:GreenYellow; font-size: 70px;'>正确! </span>","null","html-keyboard-response","178","322693","0.0-7.0-1.0-4.0-0.0-1.35","3","3","4","3","3","3","3","4","4","4","4","4","4","4","5","4","5","4","4","5","2","2","2","2","2","2","1","4","1","1","0","1","1","0","0","0","1","1","1","1","0","0","0","1","5","1","1","1","4","1","2","1","1","1","765496939306553346","刘","171","","","","","","","","","","","","","","","","","","","","","","","","","","","","","","feedback_test","","","","","","","","","",""
"631","","j","psychophysics","179","324325","0.0-7.0-1.0-4.0-0.0-0.36","3","3","4","3","3","3","3","4","4","4","4","4","4","4","5","4","5","4","4","5","2","2","2","2","2","2","1","4","1","1","0","1","1","0","0","0","1","1","1","1","0","0","0","1","5","1","1","1","4","1","2","1","1","1","765496939306553346","刘","171","","","","match","","","","","","","","","","","","","","key","j","16.658773195876417","768","428","j","true","match","img/ellipse.png","椭圆","椭圆","ALT1","formal_ALT1_2","","","","","","","","","",""
"null","<span style='color:GreenYellow; font-size: 70px;'>正确! </span>","null","html-keyboard-response","180","324826","0.0-7.0-1.0-4.0-0.0-1.36","3","3","4","3","3","3","3","4","4","4","4","4","4","4","5","4","5","4","4","5","2","2","2","2","2","2","1","4","1","1","0","1","1","0","0","0","1","1","1","1","0","0","0","1","5","1","1","1","4","1","2","1","1","1","765496939306553346","刘","171","","","","","","","","","","","","","","","","","","","","","","","","","","","","","","feedback_test","","","","","","","","","",""
"661","","j","psychophysics","181","326489","0.0-7.0-1.0-4.0-0.0-0.37","3","3","4","3","3","3","3","4","4","4","4","4","4","4","5","4","5","4","4","5","2","2","2","2","2","2","1","4","1","1","0","1","1","0","0","0","1","1","1","1","0","0","0","1","5","1","1","1","4","1","2","1","1","1","765496939306553346","刘","171","","","","match","","","","","","","","","","","","","","key","j","16.6641616161614","768","428","j","true","match","img/trapezoid.png","梯形","梯形","ALT1","formal_ALT1_2","","","","","","","","","",""
"null","<span style='color:GreenYellow; font-size: 70px;'>正确! </span>","null","html-keyboard-response","182","326990","0.0-7.0-1.0-4.0-0.0-1.37","3","3","4","3","3","3","3","4","4","4","4","4","4","4","5","4","5","4","4","5","2","2","2","2","2","2","1","4","1","1","0","1","1","0","0","0","1","1","1","1","0","0","0","1","5","1","1","1","4","1","2","1","1","1","765496939306553346","刘","171","","","","","","","","","","","","","","","","","","","","","","","","","","","","","","feedback_test","","","","","","","","","",""
"804","","f","psychophysics","183","328796","0.0-7.0-1.0-4.0-0.0-0.38","3","3","4","3","3","3","3","4","4","4","4","4","4","4","5","4","5","4","4","5","2","2","2","2","2","2","1","4","1","1","0","1","1","0","0","0","1","1","1","1","0","0","0","1","5","1","1","1","4","1","2","1","1","1","765496939306553346","刘","171","","","","nonmatch","","","","","","","","","","","","","","key","f","16.662280373831788","768","428","f","true","nonmatch","img/trapezoid.png","椭圆","梯形","ALT1","formal_ALT1_2","","","","","","","","","",""
"null","<span style='color:GreenYellow; font-size: 70px;'>正确! </span>","null","html-keyboard-response","184","329298","0.0-7.0-1.0-4.0-0.0-1.38","3","3","4","3","3","3","3","4","4","4","4","4","4","4","5","4","5","4","4","5","2","2","2","2","2","2","1","4","1","1","0","1","1","0","0","0","1","1","1","1","0","0","0","1","5","1","1","1","4","1","2","1","1","1","765496939306553346","刘","171","","","","","","","","","","","","","","","","","","","","","","","","","","","","","","feedback_test","","","","","","","","","",""
"1122","","f","psychophysics","185","331422","0.0-7.0-1.0-4.0-0.0-0.39","3","3","4","3","3","3","3","4","4","4","4","4","4","4","5","4","5","4","4","5","2","2","2","2","2","2","1","4","1","1","0","1","1","0","0","0","1","1","1","1","0","0","0","1","5","1","1","1","4","1","2","1","1","1","765496939306553346","刘","171","","","","nonmatch","","","","","","","","","","","","","","key","f","16.662370078740036","768","428","f","true","nonmatch","img/hexagon.png","三角","六边","ALT1","formal_ALT1_2","","","","","","","","","",""
