"rt","stimulus","response","trial_type","trial_index","time_elapsed","internal_node_id","ses_1","ses_2","ses_3","ses_4","ses_5","ses_6","ses_7","ses_8","ses_9","ses_10","coreself_1","coreself_2","coreself_3","coreself_4","coreself_5","coreself_6","coreself_7","coreself_8","coreself_9","coreself_10","SGPS_1","SGPS_2","SGPS_3","SGPS_4","SGPS_5","SGPS_6","SGPS_7","SGPS_8","SGPS_9","NPI1","NPI2","NPI3","NPI4","NPI5","NPI6","NPI7","NPI8","NPI9","NPI10","NPI11","NPI12","NPI13","NPI14","NPI15","hsns_1","hsns_2","hsns_3","hsns_4","hsns_5","hsns_6","hsns_7","hsns_8","hsns_9","hsns_10","subj_idx","friend_name","ParticipantID","value","success","user_agent","responses","item_order","radio_event_ids","radio_event_times","key_event_times","mouse_event_times","straightlining","zigzagging","honeypot","timeout","failed_images","failed_audio","failed_video","version_attrib2","version_target2","correct","IAT","screen_id","task_id","RT","condition","word","varname","summary","version_attrib","version_target","time_stamp","view_history","response_type","key_press","avg_frame_time","center_x","center_y","correct_response","identity","Image","question_order"
"1631","
   <p><div style = ""color: white;font-size:25px;"">您好，欢迎参加本次实验。</div> </p>
   <p><div style = ""color: white;font-size:25px;"">为充分保障您的权利，请确保您已经知晓并同意《参与实验同意书》以及《数据公开知情同意书》。</div></p>
   <p><div style = ""color: white;font-size:25px;"">如果您未见过上述内容，请咨询实验员。</div></p>
   <p><div style = ""color: white;font-size:25px;"">如果您选择继续实验，则表示您已经清楚两份知情同意书的内容并同意。</div></p>
   <p><div style = ""color: red;font-size:30px;"">请确保您记得day0的实验编号，您将在本次实验输入该编号，若您忘记，请咨询实验员后作答。</div></p>
   <p> <div style = ""color: green;font-size:25px;""><按空格键至下页></div> </p>
   "," ","html-keyboard-response","0","1639","0.0-0.0","3","3","3","3","3","3","3","4","3","3","4","2","3","4","3","4","4","3","4","4","1","1","2","2","2","1","2","1","2","1","0","1","1","0","0","1","1","0","1","1","0","1","0","1","5","4","4","1","3","3","4","4","3","1","732379307938418690","张","533","","","","","","","","","","","","","","","","","","","","","","","","","","","","","","","","","","","","","","","",""
"","","","call-function","1","1641","0.0-1.0-0.0","3","3","3","3","3","3","3","4","3","3","4","2","3","4","3","4","4","3","4","4","1","1","2","2","2","1","2","1","2","1","0","1","1","0","0","1","1","0","1","1","0","1","0","1","5","4","4","1","3","3","4","4","3","1","732379307938418690","张","533","","","","","","","","","","","","","","","","","","","","","","","","","","","","","","","","","","","","","","","",""
"24770","","{""friend_name"":""张"",""ParticipantID"":""533""}","survey-html-form","2","26413","0.0-1.0-1.0","3","3","3","3","3","3","3","4","3","3","4","2","3","4","3","4","4","3","4","4","1","1","2","2","2","1","2","1","2","1","0","1","1","0","0","1","1","0","1","1","0","1","0","1","5","4","4","1","3","3","4","4","3","1","732379307938418690","张","533","","","","","","","","","","","","","","","","","","","","","","","","","","","","","","","","","","","","","","","",""
"","","","fullscreen","3","27706","0.0-2.0","3","3","3","3","3","3","3","4","3","3","4","2","3","4","3","4","4","3","4","4","1","1","2","2","2","1","2","1","2","1","0","1","1","0","0","1","1","0","1","1","0","1","0","1","5","4","4","1","3","3","4","4","3","1","732379307938418690","张","533","","true","{}","","","","","","","","","","","","","","","","","","","","","","","","","","","","","","","","","","","","",""
"25499.200000001118","","{""Q01"":""3"",""Q02"":""3"",""Q03"":""3"",""Q04"":""3"",""Q05"":""3"",""Q06"":""3"",""Q07"":""3"",""Q08"":""4"",""Q09"":""3"",""Q10"":""3""}","survey-template","4","53217","0.0-3.0","3","3","3","3","3","3","3","4","3","3","4","2","3","4","3","4","4","3","4","4","1","1","2","2","2","1","2","1","2","1","0","1","1","0","0","1","1","0","1","1","0","1","0","1","5","4","4","1","3","3","4","4","3","1","732379307938418690","张","533","","","","{""Q01"":""3"",""Q02"":""3"",""Q03"":""3"",""Q04"":""3"",""Q05"":""3"",""Q06"":""3"",""Q07"":""3"",""Q08"":""4"",""Q09"":""3"",""Q10"":""3""}","[0,1,2,3,4,5,6,7,8,9]","[""Q01"",""Q02"",""Q03"",""Q04"",""Q05"",""Q06"",""Q07"",""Q08"",""Q09"",""Q10""]","[9144.800000000745,11441.300000000745,12769.400000000373,14465.400000000373,15737.400000000373,17753.300000000745,18561.200000001118,21385.200000001118,23321.300000000745,23697.200000001118]","[]","[9144.800000000745,11441.300000000745,12769.400000000373,14465.400000000373,15737.400000000373,17753.300000000745,18561.200000001118,20361.200000001118,21385.200000001118,22081.400000000373,23321.300000000745,23697.200000001118,25496.599999999627]","0.5","0.5555555555555556","0","","","","","","","","","","","","","","","","","","","","","","","","","","","",""
"20284.700000001118","","{""Q01"":""4"",""Q02"":""2"",""Q03"":""3"",""Q04"":""4"",""Q05"":""3"",""Q06"":""4"",""Q07"":""4"",""Q08"":""3"",""Q09"":""4"",""Q10"":""4""}","survey-template","5","73522","0.0-4.0","3","3","3","3","3","3","3","4","3","3","4","2","3","4","3","4","4","3","4","4","1","1","2","2","2","1","2","1","2","1","0","1","1","0","0","1","1","0","1","1","0","1","0","1","5","4","4","1","3","3","4","4","3","1","732379307938418690","张","533","","","","{""Q01"":""4"",""Q02"":""2"",""Q03"":""3"",""Q04"":""4"",""Q05"":""3"",""Q06"":""4"",""Q07"":""4"",""Q08"":""3"",""Q09"":""4"",""Q10"":""4""}","[0,1,2,3,4,5,6,7,8,9]","[""Q01"",""Q02"",""Q03"",""Q04"",""Q05"",""Q06"",""Q07"",""Q08"",""Q09"",""Q10""]","[2969.2000000011176,6841.200000001118,9176.800000000745,10152.900000000373,11793.10000000149,12545.10000000149,13993.10000000149,15369,18152.900000000373,19385]","[]","[2969.2000000011176,6841.200000001118,9176.800000000745,10152.900000000373,11793.10000000149,12545.10000000149,13993.10000000149,15369,18152.900000000373,19385,20281.200000001118]","0.5","0.6666666666666666","0","","","","","","","","","","","","","","","","","","","","","","","","","","","",""
"","","","preload","6","74290","0.0-5.0","3","3","3","3","3","3","3","4","3","3","4","2","3","4","3","4","4","3","4","4","1","1","2","2","2","1","2","1","2","1","0","1","1","0","0","1","1","0","1","1","0","1","0","1","5","4","4","1","3","3","4","4","3","1","732379307938418690","张","533","","true","","","","","","","","","","","false","[]","[]","[]","","","","","","","","","","","","","","","","","","","","","","","",""
"12047","
    <h3>词语分类任务</h3>
    <p>在接下来的任务中，你需要对一系列词语进行分类。<p/>
    请先熟悉这些词语，这有利于你完成接下来的任务。</p>
    <table align=""center"" border=1 cellpadding=3 cellspacing=0>
    <tr> <th>类别</th> <th>词语</th> </tr>
    <tr> <td>&emsp;积极&emsp;</td> <td>&emsp;高尚、诚信、善良、君子、廉正、正直&emsp;</td> </tr>
    <tr> <td>&emsp;消极&emsp;</td> <td>&emsp;缺德、卑鄙、不孝、不仁、小人、黑心&emsp;</td> </tr>
    <tr> <td>&emsp;自我&emsp;</td> <td>&emsp;我、我的、自己、自己的、本人、本人的&emsp;</td> </tr>
    <tr> <td>&emsp;他人&emsp;</td> <td>&emsp;他、他的、别人、别人的、他人、他人的&emsp;</td> </tr>
    </table><br/>","0","html-button-response","7","86342","0.0-6.0-1.0-0.0","3","3","3","3","3","3","3","4","3","3","4","2","3","4","3","4","4","3","4","4","1","1","2","2","2","1","2","1","2","1","0","1","1","0","0","1","1","0","1","1","0","1","0","1","5","4","4","1","3","3","4","4","3","1","732379307938418690","张","533","","","","","","","","","","","","","","","","","1","2","","","","","","","","","","","","","","","","","","","","","",""
"4077","
    <div class=""tag-bottom""><p>
    —— 任务1：对“他人”词和“自我”词分类 ——<p/>
    不同词语会出现在屏幕中央，类别标签将始终显示在屏幕上方<p/>   
    <span style=""color:#FFD866""><b>请根据上方标签的提示，尽可能正确并且快速地做出按键反应</b></span><p/>
    当按键错误时屏幕中会出现<span style=""color:red""> X </span>，需要按另一个键纠正才能继续<br/><p/>
    请把双手食指分别放在键盘的“E”键和“I”键上<p/>
    按<空格键>开始
    </p></div>"," ","html-keyboard-response","8","90428","0.0-6.0-1.0-1.0","3","3","3","3","3","3","3","4","3","3","4","2","3","4","3","4","4","3","4","4","1","1","2","2","2","1","2","1","2","1","0","1","1","0","0","1","1","0","1","1","0","1","0","1","5","4","4","1","3","3","4","4","3","1","732379307938418690","张","533","","","","","","","","","","","","","","","","","","","","","","","","","","","","","","","","","","","","","","","",""
"null","","null","html-keyboard-response","9","90682","0.0-6.0-1.0-2.0-0.0","3","3","3","3","3","3","3","4","3","3","4","2","3","4","3","4","4","3","4","4","1","1","2","2","2","1","2","1","2","1","0","1","1","0","0","1","1","0","1","1","0","1","0","1","5","4","4","1","3","3","4","4","3","1","732379307938418690","张","533","","","","","","","","","","","","","","","","","","","","","","","","","","","","","","","","","","","","","","","",""
"1422","<p style=""color:rgb(150, 250, 100); font-size: 35px;"">我的</p>","i","categorize-html","10","92113","0.0-6.0-1.0-2.0-1.0","3","3","3","3","3","3","3","4","3","3","4","2","3","4","3","4","4","3","4","4","1","1","2","2","2","1","2","1","2","1","0","1","1","0","0","1","1","0","1","1","0","1","0","1","5","4","4","1","3","3","4","4","3","1","732379307938418690","张","533","","","","","","","","","","","","","","","","","","","true","11","1","moral","1422","self","我的","","","","","","","","","","","","","","",""
"null","","null","html-keyboard-response","11","92370","0.0-6.0-1.0-2.0-0.1","3","3","3","3","3","3","3","4","3","3","4","2","3","4","3","4","4","3","4","4","1","1","2","2","2","1","2","1","2","1","0","1","1","0","0","1","1","0","1","1","0","1","0","1","5","4","4","1","3","3","4","4","3","1","732379307938418690","张","533","","","","","","","","","","","","","","","","","","","","","","","","","","","","","","","","","","","","","","","",""
"737","<p style=""color:rgb(150, 250, 100); font-size: 35px;"">他人的</p>","e","categorize-html","12","93111","0.0-6.0-1.0-2.0-1.1","3","3","3","3","3","3","3","4","3","3","4","2","3","4","3","4","4","3","4","4","1","1","2","2","2","1","2","1","2","1","0","1","1","0","0","1","1","0","1","1","0","1","0","1","5","4","4","1","3","3","4","4","3","1","732379307938418690","张","533","","","","","","","","","","","","","","","","","","","true","11","1","moral","737","other","他人的","","","","","","","","","","","","","","",""
"null","","null","html-keyboard-response","13","93370","0.0-6.0-1.0-2.0-0.2","3","3","3","3","3","3","3","4","3","3","4","2","3","4","3","4","4","3","4","4","1","1","2","2","2","1","2","1","2","1","0","1","1","0","0","1","1","0","1","1","0","1","0","1","5","4","4","1","3","3","4","4","3","1","732379307938418690","张","533","","","","","","","","","","","","","","","","","","","","","","","","","","","","","","","","","","","","","","","",""
"512","<p style=""color:rgb(150, 250, 100); font-size: 35px;"">他的</p>","e","categorize-html","14","93888","0.0-6.0-1.0-2.0-1.2","3","3","3","3","3","3","3","4","3","3","4","2","3","4","3","4","4","3","4","4","1","1","2","2","2","1","2","1","2","1","0","1","1","0","0","1","1","0","1","1","0","1","0","1","5","4","4","1","3","3","4","4","3","1","732379307938418690","张","533","","","","","","","","","","","","","","","","","","","true","11","1","moral","512","other","他的","","","","","","","","","","","","","","",""
"null","","null","html-keyboard-response","15","94146","0.0-6.0-1.0-2.0-0.3","3","3","3","3","3","3","3","4","3","3","4","2","3","4","3","4","4","3","4","4","1","1","2","2","2","1","2","1","2","1","0","1","1","0","0","1","1","0","1","1","0","1","0","1","5","4","4","1","3","3","4","4","3","1","732379307938418690","张","533","","","","","","","","","","","","","","","","","","","","","","","","","","","","","","","","","","","","","","","",""
"624","<p style=""color:rgb(150, 250, 100); font-size: 35px;"">本人</p>","i","categorize-html","16","94775","0.0-6.0-1.0-2.0-1.3","3","3","3","3","3","3","3","4","3","3","4","2","3","4","3","4","4","3","4","4","1","1","2","2","2","1","2","1","2","1","0","1","1","0","0","1","1","0","1","1","0","1","0","1","5","4","4","1","3","3","4","4","3","1","732379307938418690","张","533","","","","","","","","","","","","","","","","","","","true","11","1","moral","624","self","本人","","","","","","","","","","","","","","",""
"null","","null","html-keyboard-response","17","95034","0.0-6.0-1.0-2.0-0.4","3","3","3","3","3","3","3","4","3","3","4","2","3","4","3","4","4","3","4","4","1","1","2","2","2","1","2","1","2","1","0","1","1","0","0","1","1","0","1","1","0","1","0","1","5","4","4","1","3","3","4","4","3","1","732379307938418690","张","533","","","","","","","","","","","","","","","","","","","","","","","","","","","","","","","","","","","","","","","",""
"600","<p style=""color:rgb(150, 250, 100); font-size: 35px;"">别人的</p>","e","categorize-html","18","95640","0.0-6.0-1.0-2.0-1.4","3","3","3","3","3","3","3","4","3","3","4","2","3","4","3","4","4","3","4","4","1","1","2","2","2","1","2","1","2","1","0","1","1","0","0","1","1","0","1","1","0","1","0","1","5","4","4","1","3","3","4","4","3","1","732379307938418690","张","533","","","","","","","","","","","","","","","","","","","true","11","1","moral","600","other","别人的","","","","","","","","","","","","","","",""
"null","","null","html-keyboard-response","19","95898","0.0-6.0-1.0-2.0-0.5","3","3","3","3","3","3","3","4","3","3","4","2","3","4","3","4","4","3","4","4","1","1","2","2","2","1","2","1","2","1","0","1","1","0","0","1","1","0","1","1","0","1","0","1","5","4","4","1","3","3","4","4","3","1","732379307938418690","张","533","","","","","","","","","","","","","","","","","","","","","","","","","","","","","","","","","","","","","","","",""
"569","<p style=""color:rgb(150, 250, 100); font-size: 35px;"">自己的</p>","i","categorize-html","20","96472","0.0-6.0-1.0-2.0-1.5","3","3","3","3","3","3","3","4","3","3","4","2","3","4","3","4","4","3","4","4","1","1","2","2","2","1","2","1","2","1","0","1","1","0","0","1","1","0","1","1","0","1","0","1","5","4","4","1","3","3","4","4","3","1","732379307938418690","张","533","","","","","","","","","","","","","","","","","","","true","11","1","moral","569","self","自己的","","","","","","","","","","","","","","",""
"null","","null","html-keyboard-response","21","96730","0.0-6.0-1.0-2.0-0.6","3","3","3","3","3","3","3","4","3","3","4","2","3","4","3","4","4","3","4","4","1","1","2","2","2","1","2","1","2","1","0","1","1","0","0","1","1","0","1","1","0","1","0","1","5","4","4","1","3","3","4","4","3","1","732379307938418690","张","533","","","","","","","","","","","","","","","","","","","","","","","","","","","","","","","","","","","","","","","",""
"768","<p style=""color:rgb(150, 250, 100); font-size: 35px;"">别人</p>","e","categorize-html","22","97503","0.0-6.0-1.0-2.0-1.6","3","3","3","3","3","3","3","4","3","3","4","2","3","4","3","4","4","3","4","4","1","1","2","2","2","1","2","1","2","1","0","1","1","0","0","1","1","0","1","1","0","1","0","1","5","4","4","1","3","3","4","4","3","1","732379307938418690","张","533","","","","","","","","","","","","","","","","","","","true","11","1","moral","768","other","别人","","","","","","","","","","","","","","",""
"null","","null","html-keyboard-response","23","97762","0.0-6.0-1.0-2.0-0.7","3","3","3","3","3","3","3","4","3","3","4","2","3","4","3","4","4","3","4","4","1","1","2","2","2","1","2","1","2","1","0","1","1","0","0","1","1","0","1","1","0","1","0","1","5","4","4","1","3","3","4","4","3","1","732379307938418690","张","533","","","","","","","","","","","","","","","","","","","","","","","","","","","","","","","","","","","","","","","",""
"544","<p style=""color:rgb(150, 250, 100); font-size: 35px;"">他人</p>","e","categorize-html","24","98311","0.0-6.0-1.0-2.0-1.7","3","3","3","3","3","3","3","4","3","3","4","2","3","4","3","4","4","3","4","4","1","1","2","2","2","1","2","1","2","1","0","1","1","0","0","1","1","0","1","1","0","1","0","1","5","4","4","1","3","3","4","4","3","1","732379307938418690","张","533","","","","","","","","","","","","","","","","","","","true","11","1","moral","544","other","他人","","","","","","","","","","","","","","",""
"null","","null","html-keyboard-response","25","98570","0.0-6.0-1.0-2.0-0.8","3","3","3","3","3","3","3","4","3","3","4","2","3","4","3","4","4","3","4","4","1","1","2","2","2","1","2","1","2","1","0","1","1","0","0","1","1","0","1","1","0","1","0","1","5","4","4","1","3","3","4","4","3","1","732379307938418690","张","533","","","","","","","","","","","","","","","","","","","","","","","","","","","","","","","","","","","","","","","",""
"536","<p style=""color:rgb(150, 250, 100); font-size: 35px;"">他</p>","e","categorize-html","26","99111","0.0-6.0-1.0-2.0-1.8","3","3","3","3","3","3","3","4","3","3","4","2","3","4","3","4","4","3","4","4","1","1","2","2","2","1","2","1","2","1","0","1","1","0","0","1","1","0","1","1","0","1","0","1","5","4","4","1","3","3","4","4","3","1","732379307938418690","张","533","","","","","","","","","","","","","","","","","","","true","11","1","moral","536","other","他","","","","","","","","","","","","","","",""
"null","","null","html-keyboard-response","27","99370","0.0-6.0-1.0-2.0-0.9","3","3","3","3","3","3","3","4","3","3","4","2","3","4","3","4","4","3","4","4","1","1","2","2","2","1","2","1","2","1","0","1","1","0","0","1","1","0","1","1","0","1","0","1","5","4","4","1","3","3","4","4","3","1","732379307938418690","张","533","","","","","","","","","","","","","","","","","","","","","","","","","","","","","","","","","","","","","","","",""
"576","<p style=""color:rgb(150, 250, 100); font-size: 35px;"">本人的</p>","i","categorize-html","28","99952","0.0-6.0-1.0-2.0-1.9","3","3","3","3","3","3","3","4","3","3","4","2","3","4","3","4","4","3","4","4","1","1","2","2","2","1","2","1","2","1","0","1","1","0","0","1","1","0","1","1","0","1","0","1","5","4","4","1","3","3","4","4","3","1","732379307938418690","张","533","","","","","","","","","","","","","","","","","","","true","11","1","moral","576","self","本人的","","","","","","","","","","","","","","",""
"null","","null","html-keyboard-response","29","100210","0.0-6.0-1.0-2.0-0.10","3","3","3","3","3","3","3","4","3","3","4","2","3","4","3","4","4","3","4","4","1","1","2","2","2","1","2","1","2","1","0","1","1","0","0","1","1","0","1","1","0","1","0","1","5","4","4","1","3","3","4","4","3","1","732379307938418690","张","533","","","","","","","","","","","","","","","","","","","","","","","","","","","","","","","","","","","","","","","",""
"577","<p style=""color:rgb(150, 250, 100); font-size: 35px;"">我</p>","i","categorize-html","30","100791","0.0-6.0-1.0-2.0-1.10","3","3","3","3","3","3","3","4","3","3","4","2","3","4","3","4","4","3","4","4","1","1","2","2","2","1","2","1","2","1","0","1","1","0","0","1","1","0","1","1","0","1","0","1","5","4","4","1","3","3","4","4","3","1","732379307938418690","张","533","","","","","","","","","","","","","","","","","","","true","11","1","moral","577","self","我","","","","","","","","","","","","","","",""
"null","","null","html-keyboard-response","31","101050","0.0-6.0-1.0-2.0-0.11","3","3","3","3","3","3","3","4","3","3","4","2","3","4","3","4","4","3","4","4","1","1","2","2","2","1","2","1","2","1","0","1","1","0","0","1","1","0","1","1","0","1","0","1","5","4","4","1","3","3","4","4","3","1","732379307938418690","张","533","","","","","","","","","","","","","","","","","","","","","","","","","","","","","","","","","","","","","","","",""
"593","<p style=""color:rgb(150, 250, 100); font-size: 35px;"">自己</p>","i","categorize-html","32","101648","0.0-6.0-1.0-2.0-1.11","3","3","3","3","3","3","3","4","3","3","4","2","3","4","3","4","4","3","4","4","1","1","2","2","2","1","2","1","2","1","0","1","1","0","0","1","1","0","1","1","0","1","0","1","5","4","4","1","3","3","4","4","3","1","732379307938418690","张","533","","","","","","","","","","","","","","","","","","","true","11","1","moral","593","self","自己","","","","","","","","","","","","","","",""
"827","
    <div class=""tag-bottom""><p>
    —— 任务2：对“积极”词和“消极”词分类 ——<p/>   
    <span style=""color:#78DCE8""><b>注意上方，类别标签和需要分类的词语都已经改变</b></span><p/>
    <span style=""color:#FFD866""><b>请根据上方标签的提示，尽可能正确并且快速地做出按键反应</b></span><p/>
    当按键错误时屏幕中会出现<span style=""color:red""> X </span>，需要按另一个键纠正才能继续<br/><p/>
    请把双手食指分别放在键盘的“E”键和“I”键上<p/>
    按<空格键>开始
    </p></div>"," ","html-keyboard-response","33","102476","0.0-6.0-1.0-3.0","3","3","3","3","3","3","3","4","3","3","4","2","3","4","3","4","4","3","4","4","1","1","2","2","2","1","2","1","2","1","0","1","1","0","0","1","1","0","1","1","0","1","0","1","5","4","4","1","3","3","4","4","3","1","732379307938418690","张","533","","","","","","","","","","","","","","","","","","","","","","","","","","","","","","","","","","","","","","","",""
"null","","null","html-keyboard-response","34","102730","0.0-6.0-1.0-4.0-0.0","3","3","3","3","3","3","3","4","3","3","4","2","3","4","3","4","4","3","4","4","1","1","2","2","2","1","2","1","2","1","0","1","1","0","0","1","1","0","1","1","0","1","0","1","5","4","4","1","3","3","4","4","3","1","732379307938418690","张","533","","","","","","","","","","","","","","","","","","","","","","","","","","","","","","","","","","","","","","","",""
"1152","<p style=""color:white; font-size: 35px;"">卑鄙</p>","i","categorize-html","35","103887","0.0-6.0-1.0-4.0-1.0","3","3","3","3","3","3","3","4","3","3","4","2","3","4","3","4","4","3","4","4","1","1","2","2","2","1","2","1","2","1","0","1","1","0","0","1","1","0","1","1","0","1","0","1","5","4","4","1","3","3","4","4","3","1","732379307938418690","张","533","","","","","","","","","","","","","","","","","","","true","12","2","moral","1152","negative","卑鄙","","","","","","","","","","","","","","",""
"null","","null","html-keyboard-response","36","104146","0.0-6.0-1.0-4.0-0.1","3","3","3","3","3","3","3","4","3","3","4","2","3","4","3","4","4","3","4","4","1","1","2","2","2","1","2","1","2","1","0","1","1","0","0","1","1","0","1","1","0","1","0","1","5","4","4","1","3","3","4","4","3","1","732379307938418690","张","533","","","","","","","","","","","","","","","","","","","","","","","","","","","","","","","","","","","","","","","",""
"521","<p style=""color:white; font-size: 35px;"">不孝</p>","i","categorize-html","37","104672","0.0-6.0-1.0-4.0-1.1","3","3","3","3","3","3","3","4","3","3","4","2","3","4","3","4","4","3","4","4","1","1","2","2","2","1","2","1","2","1","0","1","1","0","0","1","1","0","1","1","0","1","0","1","5","4","4","1","3","3","4","4","3","1","732379307938418690","张","533","","","","","","","","","","","","","","","","","","","true","12","2","moral","521","negative","不孝","","","","","","","","","","","","","","",""
"null","","null","html-keyboard-response","38","104930","0.0-6.0-1.0-4.0-0.2","3","3","3","3","3","3","3","4","3","3","4","2","3","4","3","4","4","3","4","4","1","1","2","2","2","1","2","1","2","1","0","1","1","0","0","1","1","0","1","1","0","1","0","1","5","4","4","1","3","3","4","4","3","1","732379307938418690","张","533","","","","","","","","","","","","","","","","","","","","","","","","","","","","","","","","","","","","","","","",""
"545","<p style=""color:white; font-size: 35px;"">小人</p>","i","categorize-html","39","105479","0.0-6.0-1.0-4.0-1.2","3","3","3","3","3","3","3","4","3","3","4","2","3","4","3","4","4","3","4","4","1","1","2","2","2","1","2","1","2","1","0","1","1","0","0","1","1","0","1","1","0","1","0","1","5","4","4","1","3","3","4","4","3","1","732379307938418690","张","533","","","","","","","","","","","","","","","","","","","true","12","2","moral","545","negative","小人","","","","","","","","","","","","","","",""
"null","","null","html-keyboard-response","40","105738","0.0-6.0-1.0-4.0-0.3","3","3","3","3","3","3","3","4","3","3","4","2","3","4","3","4","4","3","4","4","1","1","2","2","2","1","2","1","2","1","0","1","1","0","0","1","1","0","1","1","0","1","0","1","5","4","4","1","3","3","4","4","3","1","732379307938418690","张","533","","","","","","","","","","","","","","","","","","","","","","","","","","","","","","","","","","","","","","","",""
"617","<p style=""color:white; font-size: 35px;"">黑心</p>","i","categorize-html","41","106359","0.0-6.0-1.0-4.0-1.3","3","3","3","3","3","3","3","4","3","3","4","2","3","4","3","4","4","3","4","4","1","1","2","2","2","1","2","1","2","1","0","1","1","0","0","1","1","0","1","1","0","1","0","1","5","4","4","1","3","3","4","4","3","1","732379307938418690","张","533","","","","","","","","","","","","","","","","","","","true","12","2","moral","617","negative","黑心","","","","","","","","","","","","","","",""
"null","","null","html-keyboard-response","42","106618","0.0-6.0-1.0-4.0-0.4","3","3","3","3","3","3","3","4","3","3","4","2","3","4","3","4","4","3","4","4","1","1","2","2","2","1","2","1","2","1","0","1","1","0","0","1","1","0","1","1","0","1","0","1","5","4","4","1","3","3","4","4","3","1","732379307938418690","张","533","","","","","","","","","","","","","","","","","","","","","","","","","","","","","","","","","","","","","","","",""
"673","<p style=""color:white; font-size: 35px;"">高尚</p>","e","categorize-html","43","107298","0.0-6.0-1.0-4.0-1.4","3","3","3","3","3","3","3","4","3","3","4","2","3","4","3","4","4","3","4","4","1","1","2","2","2","1","2","1","2","1","0","1","1","0","0","1","1","0","1","1","0","1","0","1","5","4","4","1","3","3","4","4","3","1","732379307938418690","张","533","","","","","","","","","","","","","","","","","","","true","12","2","moral","673","positive","高尚","","","","","","","","","","","","","","",""
"null","","null","html-keyboard-response","44","107554","0.0-6.0-1.0-4.0-0.5","3","3","3","3","3","3","3","4","3","3","4","2","3","4","3","4","4","3","4","4","1","1","2","2","2","1","2","1","2","1","0","1","1","0","0","1","1","0","1","1","0","1","0","1","5","4","4","1","3","3","4","4","3","1","732379307938418690","张","533","","","","","","","","","","","","","","","","","","","","","","","","","","","","","","","","","","","","","","","",""
"544","<p style=""color:white; font-size: 35px;"">诚信</p>","e","categorize-html","45","108103","0.0-6.0-1.0-4.0-1.5","3","3","3","3","3","3","3","4","3","3","4","2","3","4","3","4","4","3","4","4","1","1","2","2","2","1","2","1","2","1","0","1","1","0","0","1","1","0","1","1","0","1","0","1","5","4","4","1","3","3","4","4","3","1","732379307938418690","张","533","","","","","","","","","","","","","","","","","","","true","12","2","moral","544","positive","诚信","","","","","","","","","","","","","","",""
"null","","null","html-keyboard-response","46","108362","0.0-6.0-1.0-4.0-0.6","3","3","3","3","3","3","3","4","3","3","4","2","3","4","3","4","4","3","4","4","1","1","2","2","2","1","2","1","2","1","0","1","1","0","0","1","1","0","1","1","0","1","0","1","5","4","4","1","3","3","4","4","3","1","732379307938418690","张","533","","","","","","","","","","","","","","","","","","","","","","","","","","","","","","","","","","","","","","","",""
"553","<p style=""color:white; font-size: 35px;"">廉正</p>","e","categorize-html","47","108920","0.0-6.0-1.0-4.0-1.6","3","3","3","3","3","3","3","4","3","3","4","2","3","4","3","4","4","3","4","4","1","1","2","2","2","1","2","1","2","1","0","1","1","0","0","1","1","0","1","1","0","1","0","1","5","4","4","1","3","3","4","4","3","1","732379307938418690","张","533","","","","","","","","","","","","","","","","","","","true","12","2","moral","553","positive","廉正","","","","","","","","","","","","","","",""
"null","","null","html-keyboard-response","48","109178","0.0-6.0-1.0-4.0-0.7","3","3","3","3","3","3","3","4","3","3","4","2","3","4","3","4","4","3","4","4","1","1","2","2","2","1","2","1","2","1","0","1","1","0","0","1","1","0","1","1","0","1","0","1","5","4","4","1","3","3","4","4","3","1","732379307938418690","张","533","","","","","","","","","","","","","","","","","","","","","","","","","","","","","","","","","","","","","","","",""
"665","<p style=""color:white; font-size: 35px;"">君子</p>","e","categorize-html","49","109847","0.0-6.0-1.0-4.0-1.7","3","3","3","3","3","3","3","4","3","3","4","2","3","4","3","4","4","3","4","4","1","1","2","2","2","1","2","1","2","1","0","1","1","0","0","1","1","0","1","1","0","1","0","1","5","4","4","1","3","3","4","4","3","1","732379307938418690","张","533","","","","","","","","","","","","","","","","","","","true","12","2","moral","665","positive","君子","","","","","","","","","","","","","","",""
"null","","null","html-keyboard-response","50","110106","0.0-6.0-1.0-4.0-0.8","3","3","3","3","3","3","3","4","3","3","4","2","3","4","3","4","4","3","4","4","1","1","2","2","2","1","2","1","2","1","0","1","1","0","0","1","1","0","1","1","0","1","0","1","5","4","4","1","3","3","4","4","3","1","732379307938418690","张","533","","","","","","","","","","","","","","","","","","","","","","","","","","","","","","","","","","","","","","","",""
"833","<p style=""color:white; font-size: 35px;"">不仁</p>","i","categorize-html","51","110943","0.0-6.0-1.0-4.0-1.8","3","3","3","3","3","3","3","4","3","3","4","2","3","4","3","4","4","3","4","4","1","1","2","2","2","1","2","1","2","1","0","1","1","0","0","1","1","0","1","1","0","1","0","1","5","4","4","1","3","3","4","4","3","1","732379307938418690","张","533","","","","","","","","","","","","","","","","","","","true","12","2","moral","833","negative","不仁","","","","","","","","","","","","","","",""
"null","","null","html-keyboard-response","52","111202","0.0-6.0-1.0-4.0-0.9","3","3","3","3","3","3","3","4","3","3","4","2","3","4","3","4","4","3","4","4","1","1","2","2","2","1","2","1","2","1","0","1","1","0","0","1","1","0","1","1","0","1","0","1","5","4","4","1","3","3","4","4","3","1","732379307938418690","张","533","","","","","","","","","","","","","","","","","","","","","","","","","","","","","","","","","","","","","","","",""
"801","<p style=""color:white; font-size: 35px;"">缺德</p>","i","categorize-html","53","112007","0.0-6.0-1.0-4.0-1.9","3","3","3","3","3","3","3","4","3","3","4","2","3","4","3","4","4","3","4","4","1","1","2","2","2","1","2","1","2","1","0","1","1","0","0","1","1","0","1","1","0","1","0","1","5","4","4","1","3","3","4","4","3","1","732379307938418690","张","533","","","","","","","","","","","","","","","","","","","true","12","2","moral","801","negative","缺德","","","","","","","","","","","","","","",""
"null","","null","html-keyboard-response","54","112266","0.0-6.0-1.0-4.0-0.10","3","3","3","3","3","3","3","4","3","3","4","2","3","4","3","4","4","3","4","4","1","1","2","2","2","1","2","1","2","1","0","1","1","0","0","1","1","0","1","1","0","1","0","1","5","4","4","1","3","3","4","4","3","1","732379307938418690","张","533","","","","","","","","","","","","","","","","","","","","","","","","","","","","","","","","","","","","","","","",""
"1112","<p style=""color:white; font-size: 35px;"">善良</p>","e","categorize-html","55","113384","0.0-6.0-1.0-4.0-1.10","3","3","3","3","3","3","3","4","3","3","4","2","3","4","3","4","4","3","4","4","1","1","2","2","2","1","2","1","2","1","0","1","1","0","0","1","1","0","1","1","0","1","0","1","5","4","4","1","3","3","4","4","3","1","732379307938418690","张","533","","","","","","","","","","","","","","","","","","","true","12","2","moral","1112","positive","善良","","","","","","","","","","","","","","",""
"null","","null","html-keyboard-response","56","113642","0.0-6.0-1.0-4.0-0.11","3","3","3","3","3","3","3","4","3","3","4","2","3","4","3","4","4","3","4","4","1","1","2","2","2","1","2","1","2","1","0","1","1","0","0","1","1","0","1","1","0","1","0","1","5","4","4","1","3","3","4","4","3","1","732379307938418690","张","533","","","","","","","","","","","","","","","","","","","","","","","","","","","","","","","","","","","","","","","",""
"2272","<p style=""color:white; font-size: 35px;"">正直</p>","e","categorize-html","57","115919","0.0-6.0-1.0-4.0-1.11","3","3","3","3","3","3","3","4","3","3","4","2","3","4","3","4","4","3","4","4","1","1","2","2","2","1","2","1","2","1","0","1","1","0","0","1","1","0","1","1","0","1","0","1","5","4","4","1","3","3","4","4","3","1","732379307938418690","张","533","","","","","","","","","","","","","","","","","","","true","12","2","moral","2272","positive","正直","","","","","","","","","","","","","","",""
"770","
    <div class=""tag-bottom""><p>
    —— 任务3：对“他人/积极”词和“自我/消极”词分类 ——<p/>
    <span style=""color:#78DCE8""><b>注意上方，之前的四类词语将混合在一起交替呈现</b></span><p/>
    <span style=""color:#FFD866""><b>请根据上方标签的提示，尽可能正确并且快速地做出按键反应</b></span><p/>
    当按键错误时屏幕中会出现<span style=""color:red""> X </span>，需要按另一个键纠正才能继续<br/><p/>
    请把双手食指分别放在键盘的“E”键和“I”键上<p/>
    按<空格键>开始
    </p></div>"," ","html-keyboard-response","58","116692","0.0-6.0-1.0-5.0","3","3","3","3","3","3","3","4","3","3","4","2","3","4","3","4","4","3","4","4","1","1","2","2","2","1","2","1","2","1","0","1","1","0","0","1","1","0","1","1","0","1","0","1","5","4","4","1","3","3","4","4","3","1","732379307938418690","张","533","","","","","","","","","","","","","","","","","","","","","","","","","","","","","","","","","","","","","","","",""
"null","","null","html-keyboard-response","59","116946","0.0-6.0-1.0-6.0-0.0","3","3","3","3","3","3","3","4","3","3","4","2","3","4","3","4","4","3","4","4","1","1","2","2","2","1","2","1","2","1","0","1","1","0","0","1","1","0","1","1","0","1","0","1","5","4","4","1","3","3","4","4","3","1","732379307938418690","张","533","","","","","","","","","","","","","","","","","","","","","","","","","","","","","","","","","","","","","","","",""
"1047","<p style=""color:rgb(150, 250, 100); font-size: 35px;"">他</p>","e","categorize-html","60","118000","0.0-6.0-1.0-6.0-1.0","3","3","3","3","3","3","3","4","3","3","4","2","3","4","3","4","4","3","4","4","1","1","2","2","2","1","2","1","2","1","0","1","1","0","0","1","1","0","1","1","0","1","0","1","5","4","4","1","3","3","4","4","3","1","732379307938418690","张","533","","","","","","","","","","","","","","","","","","","true","13","3","moral","1047","other","他","","","","","","","","","","","","","","",""
"null","","null","html-keyboard-response","61","118257","0.0-6.0-1.0-6.0-0.1","3","3","3","3","3","3","3","4","3","3","4","2","3","4","3","4","4","3","4","4","1","1","2","2","2","1","2","1","2","1","0","1","1","0","0","1","1","0","1","1","0","1","0","1","5","4","4","1","3","3","4","4","3","1","732379307938418690","张","533","","","","","","","","","","","","","","","","","","","","","","","","","","","","","","","","","","","","","","","",""
"937","<p style=""color:white; font-size: 35px;"">善良</p>","e","categorize-html","62","119200","0.0-6.0-1.0-6.0-1.1","3","3","3","3","3","3","3","4","3","3","4","2","3","4","3","4","4","3","4","4","1","1","2","2","2","1","2","1","2","1","0","1","1","0","0","1","1","0","1","1","0","1","0","1","5","4","4","1","3","3","4","4","3","1","732379307938418690","张","533","","","","","","","","","","","","","","","","","","","true","13","3","moral","937","positive","善良","","","","","","","","","","","","","","",""
"null","","null","html-keyboard-response","63","119457","0.0-6.0-1.0-6.0-0.2","3","3","3","3","3","3","3","4","3","3","4","2","3","4","3","4","4","3","4","4","1","1","2","2","2","1","2","1","2","1","0","1","1","0","0","1","1","0","1","1","0","1","0","1","5","4","4","1","3","3","4","4","3","1","732379307938418690","张","533","","","","","","","","","","","","","","","","","","","","","","","","","","","","","","","","","","","","","","","",""
"785","<p style=""color:rgb(150, 250, 100); font-size: 35px;"">本人</p>","i","categorize-html","64","120248","0.0-6.0-1.0-6.0-1.2","3","3","3","3","3","3","3","4","3","3","4","2","3","4","3","4","4","3","4","4","1","1","2","2","2","1","2","1","2","1","0","1","1","0","0","1","1","0","1","1","0","1","0","1","5","4","4","1","3","3","4","4","3","1","732379307938418690","张","533","","","","","","","","","","","","","","","","","","","true","13","3","moral","785","self","本人","","","","","","","","","","","","","","",""
"null","","null","html-keyboard-response","65","120506","0.0-6.0-1.0-6.0-0.3","3","3","3","3","3","3","3","4","3","3","4","2","3","4","3","4","4","3","4","4","1","1","2","2","2","1","2","1","2","1","0","1","1","0","0","1","1","0","1","1","0","1","0","1","5","4","4","1","3","3","4","4","3","1","732379307938418690","张","533","","","","","","","","","","","","","","","","","","","","","","","","","","","","","","","","","","","","","","","",""
"617","<p style=""color:white; font-size: 35px;"">卑鄙</p>","i","categorize-html","66","121128","0.0-6.0-1.0-6.0-1.3","3","3","3","3","3","3","3","4","3","3","4","2","3","4","3","4","4","3","4","4","1","1","2","2","2","1","2","1","2","1","0","1","1","0","0","1","1","0","1","1","0","1","0","1","5","4","4","1","3","3","4","4","3","1","732379307938418690","张","533","","","","","","","","","","","","","","","","","","","true","13","3","moral","617","negative","卑鄙","","","","","","","","","","","","","","",""
"null","","null","html-keyboard-response","67","121386","0.0-6.0-1.0-6.0-0.4","3","3","3","3","3","3","3","4","3","3","4","2","3","4","3","4","4","3","4","4","1","1","2","2","2","1","2","1","2","1","0","1","1","0","0","1","1","0","1","1","0","1","0","1","5","4","4","1","3","3","4","4","3","1","732379307938418690","张","533","","","","","","","","","","","","","","","","","","","","","","","","","","","","","","","","","","","","","","","",""
"529","<p style=""color:rgb(150, 250, 100); font-size: 35px;"">自己</p>","i","categorize-html","68","121920","0.0-6.0-1.0-6.0-1.4","3","3","3","3","3","3","3","4","3","3","4","2","3","4","3","4","4","3","4","4","1","1","2","2","2","1","2","1","2","1","0","1","1","0","0","1","1","0","1","1","0","1","0","1","5","4","4","1","3","3","4","4","3","1","732379307938418690","张","533","","","","","","","","","","","","","","","","","","","true","13","3","moral","529","self","自己","","","","","","","","","","","","","","",""
"null","","null","html-keyboard-response","69","122178","0.0-6.0-1.0-6.0-0.5","3","3","3","3","3","3","3","4","3","3","4","2","3","4","3","4","4","3","4","4","1","1","2","2","2","1","2","1","2","1","0","1","1","0","0","1","1","0","1","1","0","1","0","1","5","4","4","1","3","3","4","4","3","1","732379307938418690","张","533","","","","","","","","","","","","","","","","","","","","","","","","","","","","","","","","","","","","","","","",""
"537","<p style=""color:white; font-size: 35px;"">小人</p>","i","categorize-html","70","122720","0.0-6.0-1.0-6.0-1.5","3","3","3","3","3","3","3","4","3","3","4","2","3","4","3","4","4","3","4","4","1","1","2","2","2","1","2","1","2","1","0","1","1","0","0","1","1","0","1","1","0","1","0","1","5","4","4","1","3","3","4","4","3","1","732379307938418690","张","533","","","","","","","","","","","","","","","","","","","true","13","3","moral","537","negative","小人","","","","","","","","","","","","","","",""
"null","","null","html-keyboard-response","71","122972","0.0-6.0-1.0-6.0-0.6","3","3","3","3","3","3","3","4","3","3","4","2","3","4","3","4","4","3","4","4","1","1","2","2","2","1","2","1","2","1","0","1","1","0","0","1","1","0","1","1","0","1","0","1","5","4","4","1","3","3","4","4","3","1","732379307938418690","张","533","","","","","","","","","","","","","","","","","","","","","","","","","","","","","","","","","","","","","","","",""
"775","<p style=""color:rgb(150, 250, 100); font-size: 35px;"">别人</p>","i","categorize-html","72","124268","0.0-6.0-1.0-6.0-1.6","3","3","3","3","3","3","3","4","3","3","4","2","3","4","3","4","4","3","4","4","1","1","2","2","2","1","2","1","2","1","0","1","1","0","0","1","1","0","1","1","0","1","0","1","5","4","4","1","3","3","4","4","3","1","732379307938418690","张","533","","","","","","","","","","","","","","","","","","","false","13","3","moral","1478.1739130434783","other","别人","","","","","","","","","","","","","","",""
"null","","null","html-keyboard-response","73","124522","0.0-6.0-1.0-6.0-0.7","3","3","3","3","3","3","3","4","3","3","4","2","3","4","3","4","4","3","4","4","1","1","2","2","2","1","2","1","2","1","0","1","1","0","0","1","1","0","1","1","0","1","0","1","5","4","4","1","3","3","4","4","3","1","732379307938418690","张","533","","","","","","","","","","","","","","","","","","","","","","","","","","","","","","","","","","","","","","","",""
"945","<p style=""color:white; font-size: 35px;"">廉正</p>","e","categorize-html","74","125472","0.0-6.0-1.0-6.0-1.7","3","3","3","3","3","3","3","4","3","3","4","2","3","4","3","4","4","3","4","4","1","1","2","2","2","1","2","1","2","1","0","1","1","0","0","1","1","0","1","1","0","1","0","1","5","4","4","1","3","3","4","4","3","1","732379307938418690","张","533","","","","","","","","","","","","","","","","","","","true","13","3","moral","945","positive","廉正","","","","","","","","","","","","","","",""
"null","","null","html-keyboard-response","75","125730","0.0-6.0-1.0-6.0-0.8","3","3","3","3","3","3","3","4","3","3","4","2","3","4","3","4","4","3","4","4","1","1","2","2","2","1","2","1","2","1","0","1","1","0","0","1","1","0","1","1","0","1","0","1","5","4","4","1","3","3","4","4","3","1","732379307938418690","张","533","","","","","","","","","","","","","","","","","","","","","","","","","","","","","","","","","","","","","","","",""
"745","<p style=""color:rgb(150, 250, 100); font-size: 35px;"">本人的</p>","i","categorize-html","76","126480","0.0-6.0-1.0-6.0-1.8","3","3","3","3","3","3","3","4","3","3","4","2","3","4","3","4","4","3","4","4","1","1","2","2","2","1","2","1","2","1","0","1","1","0","0","1","1","0","1","1","0","1","0","1","5","4","4","1","3","3","4","4","3","1","732379307938418690","张","533","","","","","","","","","","","","","","","","","","","true","13","3","moral","745","self","本人的","","","","","","","","","","","","","","",""
"null","","null","html-keyboard-response","77","126738","0.0-6.0-1.0-6.0-0.9","3","3","3","3","3","3","3","4","3","3","4","2","3","4","3","4","4","3","4","4","1","1","2","2","2","1","2","1","2","1","0","1","1","0","0","1","1","0","1","1","0","1","0","1","5","4","4","1","3","3","4","4","3","1","732379307938418690","张","533","","","","","","","","","","","","","","","","","","","","","","","","","","","","","","","","","","","","","","","",""
"993","<p style=""color:white; font-size: 35px;"">君子</p>","e","categorize-html","78","127736","0.0-6.0-1.0-6.0-1.9","3","3","3","3","3","3","3","4","3","3","4","2","3","4","3","4","4","3","4","4","1","1","2","2","2","1","2","1","2","1","0","1","1","0","0","1","1","0","1","1","0","1","0","1","5","4","4","1","3","3","4","4","3","1","732379307938418690","张","533","","","","","","","","","","","","","","","","","","","true","13","3","moral","993","positive","君子","","","","","","","","","","","","","","",""
"null","","null","html-keyboard-response","79","127994","0.0-6.0-1.0-6.0-0.10","3","3","3","3","3","3","3","4","3","3","4","2","3","4","3","4","4","3","4","4","1","1","2","2","2","1","2","1","2","1","0","1","1","0","0","1","1","0","1","1","0","1","0","1","5","4","4","1","3","3","4","4","3","1","732379307938418690","张","533","","","","","","","","","","","","","","","","","","","","","","","","","","","","","","","","","","","","","","","",""
"649","<p style=""color:rgb(150, 250, 100); font-size: 35px;"">他的</p>","e","categorize-html","80","128648","0.0-6.0-1.0-6.0-1.10","3","3","3","3","3","3","3","4","3","3","4","2","3","4","3","4","4","3","4","4","1","1","2","2","2","1","2","1","2","1","0","1","1","0","0","1","1","0","1","1","0","1","0","1","5","4","4","1","3","3","4","4","3","1","732379307938418690","张","533","","","","","","","","","","","","","","","","","","","true","13","3","moral","649","other","他的","","","","","","","","","","","","","","",""
"null","","null","html-keyboard-response","81","128906","0.0-6.0-1.0-6.0-0.11","3","3","3","3","3","3","3","4","3","3","4","2","3","4","3","4","4","3","4","4","1","1","2","2","2","1","2","1","2","1","0","1","1","0","0","1","1","0","1","1","0","1","0","1","5","4","4","1","3","3","4","4","3","1","732379307938418690","张","533","","","","","","","","","","","","","","","","","","","","","","","","","","","","","","","","","","","","","","","",""
"1488","<p style=""color:white; font-size: 35px;"">黑心</p>","i","categorize-html","82","130400","0.0-6.0-1.0-6.0-1.11","3","3","3","3","3","3","3","4","3","3","4","2","3","4","3","4","4","3","4","4","1","1","2","2","2","1","2","1","2","1","0","1","1","0","0","1","1","0","1","1","0","1","0","1","5","4","4","1","3","3","4","4","3","1","732379307938418690","张","533","","","","","","","","","","","","","","","","","","","true","13","3","moral","1488","negative","黑心","","","","","","","","","","","","","","",""
"null","","null","html-keyboard-response","83","130658","0.0-6.0-1.0-6.0-0.12","3","3","3","3","3","3","3","4","3","3","4","2","3","4","3","4","4","3","4","4","1","1","2","2","2","1","2","1","2","1","0","1","1","0","0","1","1","0","1","1","0","1","0","1","5","4","4","1","3","3","4","4","3","1","732379307938418690","张","533","","","","","","","","","","","","","","","","","","","","","","","","","","","","","","","","","","","","","","","",""
"1200","<p style=""color:rgb(150, 250, 100); font-size: 35px;"">我的</p>","i","categorize-html","84","131864","0.0-6.0-1.0-6.0-1.12","3","3","3","3","3","3","3","4","3","3","4","2","3","4","3","4","4","3","4","4","1","1","2","2","2","1","2","1","2","1","0","1","1","0","0","1","1","0","1","1","0","1","0","1","5","4","4","1","3","3","4","4","3","1","732379307938418690","张","533","","","","","","","","","","","","","","","","","","","true","13","3","moral","1200","self","我的","","","","","","","","","","","","","","",""
"null","","null","html-keyboard-response","85","132122","0.0-6.0-1.0-6.0-0.13","3","3","3","3","3","3","3","4","3","3","4","2","3","4","3","4","4","3","4","4","1","1","2","2","2","1","2","1","2","1","0","1","1","0","0","1","1","0","1","1","0","1","0","1","5","4","4","1","3","3","4","4","3","1","732379307938418690","张","533","","","","","","","","","","","","","","","","","","","","","","","","","","","","","","","","","","","","","","","",""
"864","<p style=""color:white; font-size: 35px;"">缺德</p>","i","categorize-html","86","132992","0.0-6.0-1.0-6.0-1.13","3","3","3","3","3","3","3","4","3","3","4","2","3","4","3","4","4","3","4","4","1","1","2","2","2","1","2","1","2","1","0","1","1","0","0","1","1","0","1","1","0","1","0","1","5","4","4","1","3","3","4","4","3","1","732379307938418690","张","533","","","","","","","","","","","","","","","","","","","true","13","3","moral","864","negative","缺德","","","","","","","","","","","","","","",""
"null","","null","html-keyboard-response","87","133250","0.0-6.0-1.0-6.0-0.14","3","3","3","3","3","3","3","4","3","3","4","2","3","4","3","4","4","3","4","4","1","1","2","2","2","1","2","1","2","1","0","1","1","0","0","1","1","0","1","1","0","1","0","1","5","4","4","1","3","3","4","4","3","1","732379307938418690","张","533","","","","","","","","","","","","","","","","","","","","","","","","","","","","","","","","","","","","","","","",""
"632","<p style=""color:rgb(150, 250, 100); font-size: 35px;"">他人</p>","e","categorize-html","88","133887","0.0-6.0-1.0-6.0-1.14","3","3","3","3","3","3","3","4","3","3","4","2","3","4","3","4","4","3","4","4","1","1","2","2","2","1","2","1","2","1","0","1","1","0","0","1","1","0","1","1","0","1","0","1","5","4","4","1","3","3","4","4","3","1","732379307938418690","张","533","","","","","","","","","","","","","","","","","","","true","13","3","moral","632","other","他人","","","","","","","","","","","","","","",""
"null","","null","html-keyboard-response","89","134146","0.0-6.0-1.0-6.0-0.15","3","3","3","3","3","3","3","4","3","3","4","2","3","4","3","4","4","3","4","4","1","1","2","2","2","1","2","1","2","1","0","1","1","0","0","1","1","0","1","1","0","1","0","1","5","4","4","1","3","3","4","4","3","1","732379307938418690","张","533","","","","","","","","","","","","","","","","","","","","","","","","","","","","","","","","","","","","","","","",""
"896","<p style=""color:white; font-size: 35px;"">诚信</p>","e","categorize-html","90","135048","0.0-6.0-1.0-6.0-1.15","3","3","3","3","3","3","3","4","3","3","4","2","3","4","3","4","4","3","4","4","1","1","2","2","2","1","2","1","2","1","0","1","1","0","0","1","1","0","1","1","0","1","0","1","5","4","4","1","3","3","4","4","3","1","732379307938418690","张","533","","","","","","","","","","","","","","","","","","","true","13","3","moral","896","positive","诚信","","","","","","","","","","","","","","",""
"null","","null","html-keyboard-response","91","135306","0.0-6.0-1.0-6.0-0.16","3","3","3","3","3","3","3","4","3","3","4","2","3","4","3","4","4","3","4","4","1","1","2","2","2","1","2","1","2","1","0","1","1","0","0","1","1","0","1","1","0","1","0","1","5","4","4","1","3","3","4","4","3","1","732379307938418690","张","533","","","","","","","","","","","","","","","","","","","","","","","","","","","","","","","","","","","","","","","",""
"736","<p style=""color:rgb(150, 250, 100); font-size: 35px;"">自己的</p>","i","categorize-html","92","136048","0.0-6.0-1.0-6.0-1.16","3","3","3","3","3","3","3","4","3","3","4","2","3","4","3","4","4","3","4","4","1","1","2","2","2","1","2","1","2","1","0","1","1","0","0","1","1","0","1","1","0","1","0","1","5","4","4","1","3","3","4","4","3","1","732379307938418690","张","533","","","","","","","","","","","","","","","","","","","true","13","3","moral","736","self","自己的","","","","","","","","","","","","","","",""
"null","","null","html-keyboard-response","93","136306","0.0-6.0-1.0-6.0-0.17","3","3","3","3","3","3","3","4","3","3","4","2","3","4","3","4","4","3","4","4","1","1","2","2","2","1","2","1","2","1","0","1","1","0","0","1","1","0","1","1","0","1","0","1","5","4","4","1","3","3","4","4","3","1","732379307938418690","张","533","","","","","","","","","","","","","","","","","","","","","","","","","","","","","","","","","","","","","","","",""
"888","<p style=""color:white; font-size: 35px;"">高尚</p>","e","categorize-html","94","137203","0.0-6.0-1.0-6.0-1.17","3","3","3","3","3","3","3","4","3","3","4","2","3","4","3","4","4","3","4","4","1","1","2","2","2","1","2","1","2","1","0","1","1","0","0","1","1","0","1","1","0","1","0","1","5","4","4","1","3","3","4","4","3","1","732379307938418690","张","533","","","","","","","","","","","","","","","","","","","true","13","3","moral","888","positive","高尚","","","","","","","","","","","","","","",""
"null","","null","html-keyboard-response","95","137458","0.0-6.0-1.0-6.0-0.18","3","3","3","3","3","3","3","4","3","3","4","2","3","4","3","4","4","3","4","4","1","1","2","2","2","1","2","1","2","1","0","1","1","0","0","1","1","0","1","1","0","1","0","1","5","4","4","1","3","3","4","4","3","1","732379307938418690","张","533","","","","","","","","","","","","","","","","","","","","","","","","","","","","","","","","","","","","","","","",""
"1393","<p style=""color:rgb(150, 250, 100); font-size: 35px;"">别人的</p>","e","categorize-html","96","138856","0.0-6.0-1.0-6.0-1.18","3","3","3","3","3","3","3","4","3","3","4","2","3","4","3","4","4","3","4","4","1","1","2","2","2","1","2","1","2","1","0","1","1","0","0","1","1","0","1","1","0","1","0","1","5","4","4","1","3","3","4","4","3","1","732379307938418690","张","533","","","","","","","","","","","","","","","","","","","true","13","3","moral","1393","other","别人的","","","","","","","","","","","","","","",""
"null","","null","html-keyboard-response","97","139114","0.0-6.0-1.0-6.0-0.19","3","3","3","3","3","3","3","4","3","3","4","2","3","4","3","4","4","3","4","4","1","1","2","2","2","1","2","1","2","1","0","1","1","0","0","1","1","0","1","1","0","1","0","1","5","4","4","1","3","3","4","4","3","1","732379307938418690","张","533","","","","","","","","","","","","","","","","","","","","","","","","","","","","","","","","","","","","","","","",""
"769","<p style=""color:white; font-size: 35px;"">不仁</p>","i","categorize-html","98","139888","0.0-6.0-1.0-6.0-1.19","3","3","3","3","3","3","3","4","3","3","4","2","3","4","3","4","4","3","4","4","1","1","2","2","2","1","2","1","2","1","0","1","1","0","0","1","1","0","1","1","0","1","0","1","5","4","4","1","3","3","4","4","3","1","732379307938418690","张","533","","","","","","","","","","","","","","","","","","","true","13","3","moral","769","negative","不仁","","","","","","","","","","","","","","",""
"null","","null","html-keyboard-response","99","140146","0.0-6.0-1.0-6.0-0.20","3","3","3","3","3","3","3","4","3","3","4","2","3","4","3","4","4","3","4","4","1","1","2","2","2","1","2","1","2","1","0","1","1","0","0","1","1","0","1","1","0","1","0","1","5","4","4","1","3","3","4","4","3","1","732379307938418690","张","533","","","","","","","","","","","","","","","","","","","","","","","","","","","","","","","","","","","","","","","",""
"1001","<p style=""color:rgb(150, 250, 100); font-size: 35px;"">我</p>","i","categorize-html","100","141152","0.0-6.0-1.0-6.0-1.20","3","3","3","3","3","3","3","4","3","3","4","2","3","4","3","4","4","3","4","4","1","1","2","2","2","1","2","1","2","1","0","1","1","0","0","1","1","0","1","1","0","1","0","1","5","4","4","1","3","3","4","4","3","1","732379307938418690","张","533","","","","","","","","","","","","","","","","","","","true","13","3","moral","1001","self","我","","","","","","","","","","","","","","",""
"null","","null","html-keyboard-response","101","141411","0.0-6.0-1.0-6.0-0.21","3","3","3","3","3","3","3","4","3","3","4","2","3","4","3","4","4","3","4","4","1","1","2","2","2","1","2","1","2","1","0","1","1","0","0","1","1","0","1","1","0","1","0","1","5","4","4","1","3","3","4","4","3","1","732379307938418690","张","533","","","","","","","","","","","","","","","","","","","","","","","","","","","","","","","","","","","","","","","",""
"993","<p style=""color:white; font-size: 35px;"">不孝</p>","i","categorize-html","102","142408","0.0-6.0-1.0-6.0-1.21","3","3","3","3","3","3","3","4","3","3","4","2","3","4","3","4","4","3","4","4","1","1","2","2","2","1","2","1","2","1","0","1","1","0","0","1","1","0","1","1","0","1","0","1","5","4","4","1","3","3","4","4","3","1","732379307938418690","张","533","","","","","","","","","","","","","","","","","","","true","13","3","moral","993","negative","不孝","","","","","","","","","","","","","","",""
"null","","null","html-keyboard-response","103","142667","0.0-6.0-1.0-6.0-0.22","3","3","3","3","3","3","3","4","3","3","4","2","3","4","3","4","4","3","4","4","1","1","2","2","2","1","2","1","2","1","0","1","1","0","0","1","1","0","1","1","0","1","0","1","5","4","4","1","3","3","4","4","3","1","732379307938418690","张","533","","","","","","","","","","","","","","","","","","","","","","","","","","","","","","","","","","","","","","","",""
"721","<p style=""color:rgb(150, 250, 100); font-size: 35px;"">他人的</p>","e","categorize-html","104","143392","0.0-6.0-1.0-6.0-1.22","3","3","3","3","3","3","3","4","3","3","4","2","3","4","3","4","4","3","4","4","1","1","2","2","2","1","2","1","2","1","0","1","1","0","0","1","1","0","1","1","0","1","0","1","5","4","4","1","3","3","4","4","3","1","732379307938418690","张","533","","","","","","","","","","","","","","","","","","","true","13","3","moral","721","other","他人的","","","","","","","","","","","","","","",""
"null","","null","html-keyboard-response","105","143651","0.0-6.0-1.0-6.0-0.23","3","3","3","3","3","3","3","4","3","3","4","2","3","4","3","4","4","3","4","4","1","1","2","2","2","1","2","1","2","1","0","1","1","0","0","1","1","0","1","1","0","1","0","1","5","4","4","1","3","3","4","4","3","1","732379307938418690","张","533","","","","","","","","","","","","","","","","","","","","","","","","","","","","","","","","","","","","","","","",""
"833","<p style=""color:white; font-size: 35px;"">正直</p>","e","categorize-html","106","144488","0.0-6.0-1.0-6.0-1.23","3","3","3","3","3","3","3","4","3","3","4","2","3","4","3","4","4","3","4","4","1","1","2","2","2","1","2","1","2","1","0","1","1","0","0","1","1","0","1","1","0","1","0","1","5","4","4","1","3","3","4","4","3","1","732379307938418690","张","533","","","","","","","","","","","","","","","","","","","true","13","3","moral","833","positive","正直","","","","","","","","","","","","","","",""
"1011","
    <div class=""tag-bottom""><p>
    —— 任务4：对“他人/积极”词和“自我/消极”词分类 ——<p/>
    <span style=""color:#78DCE8""><b>与刚才的任务完全相同，请再次对这四类词语分类</b></span><p/>
    <span style=""color:#FFD866""><b>请根据上方标签的提示，尽可能正确并且快速地做出按键反应</b></span><p/>
    当按键错误时屏幕中会出现<span style=""color:red""> X </span>，需要按另一个键纠正才能继续<br/><p/>
    请把双手食指分别放在键盘的“E”键和“I”键上<p/>
    按<空格键>开始
    </p></div>"," ","html-keyboard-response","107","145501","0.0-6.0-1.0-7.0","3","3","3","3","3","3","3","4","3","3","4","2","3","4","3","4","4","3","4","4","1","1","2","2","2","1","2","1","2","1","0","1","1","0","0","1","1","0","1","1","0","1","0","1","5","4","4","1","3","3","4","4","3","1","732379307938418690","张","533","","","","","","","","","","","","","","","","","","","","","","","","","","","","","","","","","","","","","","","",""
"null","","null","html-keyboard-response","108","145755","0.0-6.0-1.0-8.0-0.0","3","3","3","3","3","3","3","4","3","3","4","2","3","4","3","4","4","3","4","4","1","1","2","2","2","1","2","1","2","1","0","1","1","0","0","1","1","0","1","1","0","1","0","1","5","4","4","1","3","3","4","4","3","1","732379307938418690","张","533","","","","","","","","","","","","","","","","","","","","","","","","","","","","","","","","","","","","","","","",""
"1912","<p style=""color:rgb(150, 250, 100); font-size: 35px;"">别人的</p>","e","categorize-html","109","147673","0.0-6.0-1.0-8.0-1.0","3","3","3","3","3","3","3","4","3","3","4","2","3","4","3","4","4","3","4","4","1","1","2","2","2","1","2","1","2","1","0","1","1","0","0","1","1","0","1","1","0","1","0","1","5","4","4","1","3","3","4","4","3","1","732379307938418690","张","533","","","","","","","","","","","","","","","","","","","true","14","4","moral","1912","other","别人的","","","","","","","","","","","","","","",""
"null","","null","html-keyboard-response","110","147931","0.0-6.0-1.0-8.0-0.1","3","3","3","3","3","3","3","4","3","3","4","2","3","4","3","4","4","3","4","4","1","1","2","2","2","1","2","1","2","1","0","1","1","0","0","1","1","0","1","1","0","1","0","1","5","4","4","1","3","3","4","4","3","1","732379307938418690","张","533","","","","","","","","","","","","","","","","","","","","","","","","","","","","","","","","","","","","","","","",""
"34745","<p style=""color:white; font-size: 35px;"">诚信</p>","e","categorize-html","111","182681","0.0-6.0-1.0-8.0-1.1","3","3","3","3","3","3","3","4","3","3","4","2","3","4","3","4","4","3","4","4","1","1","2","2","2","1","2","1","2","1","0","1","1","0","0","1","1","0","1","1","0","1","0","1","5","4","4","1","3","3","4","4","3","1","732379307938418690","张","533","","","","","","","","","","","","","","","","","","","true","14","4","moral","34745","positive","诚信","","","","","","","","","","","","","","",""
"null","","null","html-keyboard-response","112","182939","0.0-6.0-1.0-8.0-0.2","3","3","3","3","3","3","3","4","3","3","4","2","3","4","3","4","4","3","4","4","1","1","2","2","2","1","2","1","2","1","0","1","1","0","0","1","1","0","1","1","0","1","0","1","5","4","4","1","3","3","4","4","3","1","732379307938418690","张","533","","","","","","","","","","","","","","","","","","","","","","","","","","","","","","","","","","","","","","","",""
"2448","<p style=""color:rgb(150, 250, 100); font-size: 35px;"">自己的</p>","i","categorize-html","113","185393","0.0-6.0-1.0-8.0-1.2","3","3","3","3","3","3","3","4","3","3","4","2","3","4","3","4","4","3","4","4","1","1","2","2","2","1","2","1","2","1","0","1","1","0","0","1","1","0","1","1","0","1","0","1","5","4","4","1","3","3","4","4","3","1","732379307938418690","张","533","","","","","","","","","","","","","","","","","","","true","14","4","moral","2448","self","自己的","","","","","","","","","","","","","","",""
"null","","null","html-keyboard-response","114","185651","0.0-6.0-1.0-8.0-0.3","3","3","3","3","3","3","3","4","3","3","4","2","3","4","3","4","4","3","4","4","1","1","2","2","2","1","2","1","2","1","0","1","1","0","0","1","1","0","1","1","0","1","0","1","5","4","4","1","3","3","4","4","3","1","732379307938418690","张","533","","","","","","","","","","","","","","","","","","","","","","","","","","","","","","","","","","","","","","","",""
"2048","<p style=""color:white; font-size: 35px;"">卑鄙</p>","i","categorize-html","115","187704","0.0-6.0-1.0-8.0-1.3","3","3","3","3","3","3","3","4","3","3","4","2","3","4","3","4","4","3","4","4","1","1","2","2","2","1","2","1","2","1","0","1","1","0","0","1","1","0","1","1","0","1","0","1","5","4","4","1","3","3","4","4","3","1","732379307938418690","张","533","","","","","","","","","","","","","","","","","","","true","14","4","moral","2048","negative","卑鄙","","","","","","","","","","","","","","",""
"null","","null","html-keyboard-response","116","187963","0.0-6.0-1.0-8.0-0.4","3","3","3","3","3","3","3","4","3","3","4","2","3","4","3","4","4","3","4","4","1","1","2","2","2","1","2","1","2","1","0","1","1","0","0","1","1","0","1","1","0","1","0","1","5","4","4","1","3","3","4","4","3","1","732379307938418690","张","533","","","","","","","","","","","","","","","","","","","","","","","","","","","","","","","","","","","","","","","",""
"920","<p style=""color:rgb(150, 250, 100); font-size: 35px;"">本人</p>","i","categorize-html","117","188888","0.0-6.0-1.0-8.0-1.4","3","3","3","3","3","3","3","4","3","3","4","2","3","4","3","4","4","3","4","4","1","1","2","2","2","1","2","1","2","1","0","1","1","0","0","1","1","0","1","1","0","1","0","1","5","4","4","1","3","3","4","4","3","1","732379307938418690","张","533","","","","","","","","","","","","","","","","","","","true","14","4","moral","920","self","本人","","","","","","","","","","","","","","",""
"null","","null","html-keyboard-response","118","189147","0.0-6.0-1.0-8.0-0.5","3","3","3","3","3","3","3","4","3","3","4","2","3","4","3","4","4","3","4","4","1","1","2","2","2","1","2","1","2","1","0","1","1","0","0","1","1","0","1","1","0","1","0","1","5","4","4","1","3","3","4","4","3","1","732379307938418690","张","533","","","","","","","","","","","","","","","","","","","","","","","","","","","","","","","","","","","","","","","",""
"664","<p style=""color:white; font-size: 35px;"">缺德</p>","i","categorize-html","119","189816","0.0-6.0-1.0-8.0-1.5","3","3","3","3","3","3","3","4","3","3","4","2","3","4","3","4","4","3","4","4","1","1","2","2","2","1","2","1","2","1","0","1","1","0","0","1","1","0","1","1","0","1","0","1","5","4","4","1","3","3","4","4","3","1","732379307938418690","张","533","","","","","","","","","","","","","","","","","","","true","14","4","moral","664","negative","缺德","","","","","","","","","","","","","","",""
"null","","null","html-keyboard-response","120","190075","0.0-6.0-1.0-8.0-0.6","3","3","3","3","3","3","3","4","3","3","4","2","3","4","3","4","4","3","4","4","1","1","2","2","2","1","2","1","2","1","0","1","1","0","0","1","1","0","1","1","0","1","0","1","5","4","4","1","3","3","4","4","3","1","732379307938418690","张","533","","","","","","","","","","","","","","","","","","","","","","","","","","","","","","","","","","","","","","","",""
"984","<p style=""color:rgb(150, 250, 100); font-size: 35px;"">他人的</p>","e","categorize-html","121","191064","0.0-6.0-1.0-8.0-1.6","3","3","3","3","3","3","3","4","3","3","4","2","3","4","3","4","4","3","4","4","1","1","2","2","2","1","2","1","2","1","0","1","1","0","0","1","1","0","1","1","0","1","0","1","5","4","4","1","3","3","4","4","3","1","732379307938418690","张","533","","","","","","","","","","","","","","","","","","","true","14","4","moral","984","other","他人的","","","","","","","","","","","","","","",""
"null","","null","html-keyboard-response","122","191323","0.0-6.0-1.0-8.0-0.7","3","3","3","3","3","3","3","4","3","3","4","2","3","4","3","4","4","3","4","4","1","1","2","2","2","1","2","1","2","1","0","1","1","0","0","1","1","0","1","1","0","1","0","1","5","4","4","1","3","3","4","4","3","1","732379307938418690","张","533","","","","","","","","","","","","","","","","","","","","","","","","","","","","","","","","","","","","","","","",""
"848","<p style=""color:white; font-size: 35px;"">正直</p>","e","categorize-html","123","192176","0.0-6.0-1.0-8.0-1.7","3","3","3","3","3","3","3","4","3","3","4","2","3","4","3","4","4","3","4","4","1","1","2","2","2","1","2","1","2","1","0","1","1","0","0","1","1","0","1","1","0","1","0","1","5","4","4","1","3","3","4","4","3","1","732379307938418690","张","533","","","","","","","","","","","","","","","","","","","true","14","4","moral","848","positive","正直","","","","","","","","","","","","","","",""
"null","","null","html-keyboard-response","124","192435","0.0-6.0-1.0-8.0-0.8","3","3","3","3","3","3","3","4","3","3","4","2","3","4","3","4","4","3","4","4","1","1","2","2","2","1","2","1","2","1","0","1","1","0","0","1","1","0","1","1","0","1","0","1","5","4","4","1","3","3","4","4","3","1","732379307938418690","张","533","","","","","","","","","","","","","","","","","","","","","","","","","","","","","","","","","","","","","","","",""
"616","<p style=""color:rgb(150, 250, 100); font-size: 35px;"">他的</p>","e","categorize-html","125","193056","0.0-6.0-1.0-8.0-1.8","3","3","3","3","3","3","3","4","3","3","4","2","3","4","3","4","4","3","4","4","1","1","2","2","2","1","2","1","2","1","0","1","1","0","0","1","1","0","1","1","0","1","0","1","5","4","4","1","3","3","4","4","3","1","732379307938418690","张","533","","","","","","","","","","","","","","","","","","","true","14","4","moral","616","other","他的","","","","","","","","","","","","","","",""
"null","","null","html-keyboard-response","126","193315","0.0-6.0-1.0-8.0-0.9","3","3","3","3","3","3","3","4","3","3","4","2","3","4","3","4","4","3","4","4","1","1","2","2","2","1","2","1","2","1","0","1","1","0","0","1","1","0","1","1","0","1","0","1","5","4","4","1","3","3","4","4","3","1","732379307938418690","张","533","","","","","","","","","","","","","","","","","","","","","","","","","","","","","","","","","","","","","","","",""
"1064","<p style=""color:white; font-size: 35px;"">善良</p>","e","categorize-html","127","194385","0.0-6.0-1.0-8.0-1.9","3","3","3","3","3","3","3","4","3","3","4","2","3","4","3","4","4","3","4","4","1","1","2","2","2","1","2","1","2","1","0","1","1","0","0","1","1","0","1","1","0","1","0","1","5","4","4","1","3","3","4","4","3","1","732379307938418690","张","533","","","","","","","","","","","","","","","","","","","true","14","4","moral","1064","positive","善良","","","","","","","","","","","","","","",""
"null","","null","html-keyboard-response","128","194642","0.0-6.0-1.0-8.0-0.10","3","3","3","3","3","3","3","4","3","3","4","2","3","4","3","4","4","3","4","4","1","1","2","2","2","1","2","1","2","1","0","1","1","0","0","1","1","0","1","1","0","1","0","1","5","4","4","1","3","3","4","4","3","1","732379307938418690","张","533","","","","","","","","","","","","","","","","","","","","","","","","","","","","","","","","","","","","","","","",""
"689","<p style=""color:rgb(150, 250, 100); font-size: 35px;"">本人的</p>","i","categorize-html","129","195336","0.0-6.0-1.0-8.0-1.10","3","3","3","3","3","3","3","4","3","3","4","2","3","4","3","4","4","3","4","4","1","1","2","2","2","1","2","1","2","1","0","1","1","0","0","1","1","0","1","1","0","1","0","1","5","4","4","1","3","3","4","4","3","1","732379307938418690","张","533","","","","","","","","","","","","","","","","","","","true","14","4","moral","689","self","本人的","","","","","","","","","","","","","","",""
"null","","null","html-keyboard-response","130","195594","0.0-6.0-1.0-8.0-0.11","3","3","3","3","3","3","3","4","3","3","4","2","3","4","3","4","4","3","4","4","1","1","2","2","2","1","2","1","2","1","0","1","1","0","0","1","1","0","1","1","0","1","0","1","5","4","4","1","3","3","4","4","3","1","732379307938418690","张","533","","","","","","","","","","","","","","","","","","","","","","","","","","","","","","","","","","","","","","","",""
"825","<p style=""color:white; font-size: 35px;"">卑鄙</p>","i","categorize-html","131","196424","0.0-6.0-1.0-8.0-1.11","3","3","3","3","3","3","3","4","3","3","4","2","3","4","3","4","4","3","4","4","1","1","2","2","2","1","2","1","2","1","0","1","1","0","0","1","1","0","1","1","0","1","0","1","5","4","4","1","3","3","4","4","3","1","732379307938418690","张","533","","","","","","","","","","","","","","","","","","","true","14","4","moral","825","negative","卑鄙","","","","","","","","","","","","","","",""
"null","","null","html-keyboard-response","132","196682","0.0-6.0-1.0-8.0-0.12","3","3","3","3","3","3","3","4","3","3","4","2","3","4","3","4","4","3","4","4","1","1","2","2","2","1","2","1","2","1","0","1","1","0","0","1","1","0","1","1","0","1","0","1","5","4","4","1","3","3","4","4","3","1","732379307938418690","张","533","","","","","","","","","","","","","","","","","","","","","","","","","","","","","","","","","","","","","","","",""
"657","<p style=""color:rgb(150, 250, 100); font-size: 35px;"">我</p>","i","categorize-html","133","197344","0.0-6.0-1.0-8.0-1.12","3","3","3","3","3","3","3","4","3","3","4","2","3","4","3","4","4","3","4","4","1","1","2","2","2","1","2","1","2","1","0","1","1","0","0","1","1","0","1","1","0","1","0","1","5","4","4","1","3","3","4","4","3","1","732379307938418690","张","533","","","","","","","","","","","","","","","","","","","true","14","4","moral","657","self","我","","","","","","","","","","","","","","",""
"null","","null","html-keyboard-response","134","197603","0.0-6.0-1.0-8.0-0.13","3","3","3","3","3","3","3","4","3","3","4","2","3","4","3","4","4","3","4","4","1","1","2","2","2","1","2","1","2","1","0","1","1","0","0","1","1","0","1","1","0","1","0","1","5","4","4","1","3","3","4","4","3","1","732379307938418690","张","533","","","","","","","","","","","","","","","","","","","","","","","","","","","","","","","","","","","","","","","",""
"1009","<p style=""color:white; font-size: 35px;"">缺德</p>","i","categorize-html","135","198617","0.0-6.0-1.0-8.0-1.13","3","3","3","3","3","3","3","4","3","3","4","2","3","4","3","4","4","3","4","4","1","1","2","2","2","1","2","1","2","1","0","1","1","0","0","1","1","0","1","1","0","1","0","1","5","4","4","1","3","3","4","4","3","1","732379307938418690","张","533","","","","","","","","","","","","","","","","","","","true","14","4","moral","1009","negative","缺德","","","","","","","","","","","","","","",""
"null","","null","html-keyboard-response","136","198875","0.0-6.0-1.0-8.0-0.14","3","3","3","3","3","3","3","4","3","3","4","2","3","4","3","4","4","3","4","4","1","1","2","2","2","1","2","1","2","1","0","1","1","0","0","1","1","0","1","1","0","1","0","1","5","4","4","1","3","3","4","4","3","1","732379307938418690","张","533","","","","","","","","","","","","","","","","","","","","","","","","","","","","","","","","","","","","","","","",""
"584","<p style=""color:rgb(150, 250, 100); font-size: 35px;"">他人的</p>","e","categorize-html","137","199464","0.0-6.0-1.0-8.0-1.14","3","3","3","3","3","3","3","4","3","3","4","2","3","4","3","4","4","3","4","4","1","1","2","2","2","1","2","1","2","1","0","1","1","0","0","1","1","0","1","1","0","1","0","1","5","4","4","1","3","3","4","4","3","1","732379307938418690","张","533","","","","","","","","","","","","","","","","","","","true","14","4","moral","584","other","他人的","","","","","","","","","","","","","","",""
"null","","null","html-keyboard-response","138","199723","0.0-6.0-1.0-8.0-0.15","3","3","3","3","3","3","3","4","3","3","4","2","3","4","3","4","4","3","4","4","1","1","2","2","2","1","2","1","2","1","0","1","1","0","0","1","1","0","1","1","0","1","0","1","5","4","4","1","3","3","4","4","3","1","732379307938418690","张","533","","","","","","","","","","","","","","","","","","","","","","","","","","","","","","","","","","","","","","","",""
"720","<p style=""color:white; font-size: 35px;"">善良</p>","e","categorize-html","139","200448","0.0-6.0-1.0-8.0-1.15","3","3","3","3","3","3","3","4","3","3","4","2","3","4","3","4","4","3","4","4","1","1","2","2","2","1","2","1","2","1","0","1","1","0","0","1","1","0","1","1","0","1","0","1","5","4","4","1","3","3","4","4","3","1","732379307938418690","张","533","","","","","","","","","","","","","","","","","","","true","14","4","moral","720","positive","善良","","","","","","","","","","","","","","",""
"null","","null","html-keyboard-response","140","200707","0.0-6.0-1.0-8.0-0.16","3","3","3","3","3","3","3","4","3","3","4","2","3","4","3","4","4","3","4","4","1","1","2","2","2","1","2","1","2","1","0","1","1","0","0","1","1","0","1","1","0","1","0","1","5","4","4","1","3","3","4","4","3","1","732379307938418690","张","533","","","","","","","","","","","","","","","","","","","","","","","","","","","","","","","","","","","","","","","",""
"1808","<p style=""color:rgb(150, 250, 100); font-size: 35px;"">本人</p>","i","categorize-html","141","202520","0.0-6.0-1.0-8.0-1.16","3","3","3","3","3","3","3","4","3","3","4","2","3","4","3","4","4","3","4","4","1","1","2","2","2","1","2","1","2","1","0","1","1","0","0","1","1","0","1","1","0","1","0","1","5","4","4","1","3","3","4","4","3","1","732379307938418690","张","533","","","","","","","","","","","","","","","","","","","true","14","4","moral","1808","self","本人","","","","","","","","","","","","","","",""
"null","","null","html-keyboard-response","142","202778","0.0-6.0-1.0-8.0-0.17","3","3","3","3","3","3","3","4","3","3","4","2","3","4","3","4","4","3","4","4","1","1","2","2","2","1","2","1","2","1","0","1","1","0","0","1","1","0","1","1","0","1","0","1","5","4","4","1","3","3","4","4","3","1","732379307938418690","张","533","","","","","","","","","","","","","","","","","","","","","","","","","","","","","","","","","","","","","","","",""
"697","<p style=""color:white; font-size: 35px;"">高尚</p>","e","categorize-html","143","203480","0.0-6.0-1.0-8.0-1.17","3","3","3","3","3","3","3","4","3","3","4","2","3","4","3","4","4","3","4","4","1","1","2","2","2","1","2","1","2","1","0","1","1","0","0","1","1","0","1","1","0","1","0","1","5","4","4","1","3","3","4","4","3","1","732379307938418690","张","533","","","","","","","","","","","","","","","","","","","true","14","4","moral","697","positive","高尚","","","","","","","","","","","","","","",""
"null","","null","html-keyboard-response","144","203738","0.0-6.0-1.0-8.0-0.18","3","3","3","3","3","3","3","4","3","3","4","2","3","4","3","4","4","3","4","4","1","1","2","2","2","1","2","1","2","1","0","1","1","0","0","1","1","0","1","1","0","1","0","1","5","4","4","1","3","3","4","4","3","1","732379307938418690","张","533","","","","","","","","","","","","","","","","","","","","","","","","","","","","","","","","","","","","","","","",""
"792","<p style=""color:rgb(150, 250, 100); font-size: 35px;"">他人</p>","e","categorize-html","145","204536","0.0-6.0-1.0-8.0-1.18","3","3","3","3","3","3","3","4","3","3","4","2","3","4","3","4","4","3","4","4","1","1","2","2","2","1","2","1","2","1","0","1","1","0","0","1","1","0","1","1","0","1","0","1","5","4","4","1","3","3","4","4","3","1","732379307938418690","张","533","","","","","","","","","","","","","","","","","","","true","14","4","moral","792","other","他人","","","","","","","","","","","","","","",""
"null","","null","html-keyboard-response","146","204794","0.0-6.0-1.0-8.0-0.19","3","3","3","3","3","3","3","4","3","3","4","2","3","4","3","4","4","3","4","4","1","1","2","2","2","1","2","1","2","1","0","1","1","0","0","1","1","0","1","1","0","1","0","1","5","4","4","1","3","3","4","4","3","1","732379307938418690","张","533","","","","","","","","","","","","","","","","","","","","","","","","","","","","","","","","","","","","","","","",""
"1192","<p style=""color:white; font-size: 35px;"">黑心</p>","i","categorize-html","147","205992","0.0-6.0-1.0-8.0-1.19","3","3","3","3","3","3","3","4","3","3","4","2","3","4","3","4","4","3","4","4","1","1","2","2","2","1","2","1","2","1","0","1","1","0","0","1","1","0","1","1","0","1","0","1","5","4","4","1","3","3","4","4","3","1","732379307938418690","张","533","","","","","","","","","","","","","","","","","","","true","14","4","moral","1192","negative","黑心","","","","","","","","","","","","","","",""
"null","","null","html-keyboard-response","148","206250","0.0-6.0-1.0-8.0-0.20","3","3","3","3","3","3","3","4","3","3","4","2","3","4","3","4","4","3","4","4","1","1","2","2","2","1","2","1","2","1","0","1","1","0","0","1","1","0","1","1","0","1","0","1","5","4","4","1","3","3","4","4","3","1","732379307938418690","张","533","","","","","","","","","","","","","","","","","","","","","","","","","","","","","","","","","","","","","","","",""
"936","<p style=""color:rgb(150, 250, 100); font-size: 35px;"">他的</p>","e","categorize-html","149","207192","0.0-6.0-1.0-8.0-1.20","3","3","3","3","3","3","3","4","3","3","4","2","3","4","3","4","4","3","4","4","1","1","2","2","2","1","2","1","2","1","0","1","1","0","0","1","1","0","1","1","0","1","0","1","5","4","4","1","3","3","4","4","3","1","732379307938418690","张","533","","","","","","","","","","","","","","","","","","","true","14","4","moral","936","other","他的","","","","","","","","","","","","","","",""
"null","","null","html-keyboard-response","150","207451","0.0-6.0-1.0-8.0-0.21","3","3","3","3","3","3","3","4","3","3","4","2","3","4","3","4","4","3","4","4","1","1","2","2","2","1","2","1","2","1","0","1","1","0","0","1","1","0","1","1","0","1","0","1","5","4","4","1","3","3","4","4","3","1","732379307938418690","张","533","","","","","","","","","","","","","","","","","","","","","","","","","","","","","","","","","","","","","","","",""
"1424","<p style=""color:white; font-size: 35px;"">不孝</p>","i","categorize-html","151","208880","0.0-6.0-1.0-8.0-1.21","3","3","3","3","3","3","3","4","3","3","4","2","3","4","3","4","4","3","4","4","1","1","2","2","2","1","2","1","2","1","0","1","1","0","0","1","1","0","1","1","0","1","0","1","5","4","4","1","3","3","4","4","3","1","732379307938418690","张","533","","","","","","","","","","","","","","","","","","","true","14","4","moral","1424","negative","不孝","","","","","","","","","","","","","","",""
"null","","null","html-keyboard-response","152","209132","0.0-6.0-1.0-8.0-0.22","3","3","3","3","3","3","3","4","3","3","4","2","3","4","3","4","4","3","4","4","1","1","2","2","2","1","2","1","2","1","0","1","1","0","0","1","1","0","1","1","0","1","0","1","5","4","4","1","3","3","4","4","3","1","732379307938418690","张","533","","","","","","","","","","","","","","","","","","","","","","","","","","","","","","","","","","","","","","","",""
"775","<p style=""color:rgb(150, 250, 100); font-size: 35px;"">我</p>","i","categorize-html","153","209912","0.0-6.0-1.0-8.0-1.22","3","3","3","3","3","3","3","4","3","3","4","2","3","4","3","4","4","3","4","4","1","1","2","2","2","1","2","1","2","1","0","1","1","0","0","1","1","0","1","1","0","1","0","1","5","4","4","1","3","3","4","4","3","1","732379307938418690","张","533","","","","","","","","","","","","","","","","","","","true","14","4","moral","775","self","我","","","","","","","","","","","","","","",""
"null","","null","html-keyboard-response","154","210171","0.0-6.0-1.0-8.0-0.23","3","3","3","3","3","3","3","4","3","3","4","2","3","4","3","4","4","3","4","4","1","1","2","2","2","1","2","1","2","1","0","1","1","0","0","1","1","0","1","1","0","1","0","1","5","4","4","1","3","3","4","4","3","1","732379307938418690","张","533","","","","","","","","","","","","","","","","","","","","","","","","","","","","","","","","","","","","","","","",""
"816","<p style=""color:white; font-size: 35px;"">廉正</p>","e","categorize-html","155","210992","0.0-6.0-1.0-8.0-1.23","3","3","3","3","3","3","3","4","3","3","4","2","3","4","3","4","4","3","4","4","1","1","2","2","2","1","2","1","2","1","0","1","1","0","0","1","1","0","1","1","0","1","0","1","5","4","4","1","3","3","4","4","3","1","732379307938418690","张","533","","","","","","","","","","","","","","","","","","","true","14","4","moral","816","positive","廉正","","","","","","","","","","","","","","",""
"null","","null","html-keyboard-response","156","211251","0.0-6.0-1.0-8.0-0.24","3","3","3","3","3","3","3","4","3","3","4","2","3","4","3","4","4","3","4","4","1","1","2","2","2","1","2","1","2","1","0","1","1","0","0","1","1","0","1","1","0","1","0","1","5","4","4","1","3","3","4","4","3","1","732379307938418690","张","533","","","","","","","","","","","","","","","","","","","","","","","","","","","","","","","","","","","","","","","",""
"1264","<p style=""color:rgb(150, 250, 100); font-size: 35px;"">别人</p>","e","categorize-html","157","212520","0.0-6.0-1.0-8.0-1.24","3","3","3","3","3","3","3","4","3","3","4","2","3","4","3","4","4","3","4","4","1","1","2","2","2","1","2","1","2","1","0","1","1","0","0","1","1","0","1","1","0","1","0","1","5","4","4","1","3","3","4","4","3","1","732379307938418690","张","533","","","","","","","","","","","","","","","","","","","true","14","4","moral","1264","other","别人","","","","","","","","","","","","","","",""
"null","","null","html-keyboard-response","158","212778","0.0-6.0-1.0-8.0-0.25","3","3","3","3","3","3","3","4","3","3","4","2","3","4","3","4","4","3","4","4","1","1","2","2","2","1","2","1","2","1","0","1","1","0","0","1","1","0","1","1","0","1","0","1","5","4","4","1","3","3","4","4","3","1","732379307938418690","张","533","","","","","","","","","","","","","","","","","","","","","","","","","","","","","","","","","","","","","","","",""
"657","<p style=""color:white; font-size: 35px;"">正直</p>","e","categorize-html","159","213440","0.0-6.0-1.0-8.0-1.25","3","3","3","3","3","3","3","4","3","3","4","2","3","4","3","4","4","3","4","4","1","1","2","2","2","1","2","1","2","1","0","1","1","0","0","1","1","0","1","1","0","1","0","1","5","4","4","1","3","3","4","4","3","1","732379307938418690","张","533","","","","","","","","","","","","","","","","","","","true","14","4","moral","657","positive","正直","","","","","","","","","","","","","","",""
"null","","null","html-keyboard-response","160","213698","0.0-6.0-1.0-8.0-0.26","3","3","3","3","3","3","3","4","3","3","4","2","3","4","3","4","4","3","4","4","1","1","2","2","2","1","2","1","2","1","0","1","1","0","0","1","1","0","1","1","0","1","0","1","5","4","4","1","3","3","4","4","3","1","732379307938418690","张","533","","","","","","","","","","","","","","","","","","","","","","","","","","","","","","","","","","","","","","","",""
"777","<p style=""color:rgb(150, 250, 100); font-size: 35px;"">我的</p>","i","categorize-html","161","214480","0.0-6.0-1.0-8.0-1.26","3","3","3","3","3","3","3","4","3","3","4","2","3","4","3","4","4","3","4","4","1","1","2","2","2","1","2","1","2","1","0","1","1","0","0","1","1","0","1","1","0","1","0","1","5","4","4","1","3","3","4","4","3","1","732379307938418690","张","533","","","","","","","","","","","","","","","","","","","true","14","4","moral","777","self","我的","","","","","","","","","","","","","","",""
"null","","null","html-keyboard-response","162","214738","0.0-6.0-1.0-8.0-0.27","3","3","3","3","3","3","3","4","3","3","4","2","3","4","3","4","4","3","4","4","1","1","2","2","2","1","2","1","2","1","0","1","1","0","0","1","1","0","1","1","0","1","0","1","5","4","4","1","3","3","4","4","3","1","732379307938418690","张","533","","","","","","","","","","","","","","","","","","","","","","","","","","","","","","","","","","","","","","","",""
"1273","<p style=""color:white; font-size: 35px;"">不仁</p>","i","categorize-html","163","216016","0.0-6.0-1.0-8.0-1.27","3","3","3","3","3","3","3","4","3","3","4","2","3","4","3","4","4","3","4","4","1","1","2","2","2","1","2","1","2","1","0","1","1","0","0","1","1","0","1","1","0","1","0","1","5","4","4","1","3","3","4","4","3","1","732379307938418690","张","533","","","","","","","","","","","","","","","","","","","true","14","4","moral","1273","negative","不仁","","","","","","","","","","","","","","",""
"null","","null","html-keyboard-response","164","216274","0.0-6.0-1.0-8.0-0.28","3","3","3","3","3","3","3","4","3","3","4","2","3","4","3","4","4","3","4","4","1","1","2","2","2","1","2","1","2","1","0","1","1","0","0","1","1","0","1","1","0","1","0","1","5","4","4","1","3","3","4","4","3","1","732379307938418690","张","533","","","","","","","","","","","","","","","","","","","","","","","","","","","","","","","","","","","","","","","",""
"640","<p style=""color:rgb(150, 250, 100); font-size: 35px;"">别人</p>","e","categorize-html","165","216919","0.0-6.0-1.0-8.0-1.28","3","3","3","3","3","3","3","4","3","3","4","2","3","4","3","4","4","3","4","4","1","1","2","2","2","1","2","1","2","1","0","1","1","0","0","1","1","0","1","1","0","1","0","1","5","4","4","1","3","3","4","4","3","1","732379307938418690","张","533","","","","","","","","","","","","","","","","","","","true","14","4","moral","640","other","别人","","","","","","","","","","","","","","",""
"null","","null","html-keyboard-response","166","217178","0.0-6.0-1.0-8.0-0.29","3","3","3","3","3","3","3","4","3","3","4","2","3","4","3","4","4","3","4","4","1","1","2","2","2","1","2","1","2","1","0","1","1","0","0","1","1","0","1","1","0","1","0","1","5","4","4","1","3","3","4","4","3","1","732379307938418690","张","533","","","","","","","","","","","","","","","","","","","","","","","","","","","","","","","","","","","","","","","",""
"696","<p style=""color:white; font-size: 35px;"">不孝</p>","i","categorize-html","167","217880","0.0-6.0-1.0-8.0-1.29","3","3","3","3","3","3","3","4","3","3","4","2","3","4","3","4","4","3","4","4","1","1","2","2","2","1","2","1","2","1","0","1","1","0","0","1","1","0","1","1","0","1","0","1","5","4","4","1","3","3","4","4","3","1","732379307938418690","张","533","","","","","","","","","","","","","","","","","","","true","14","4","moral","696","negative","不孝","","","","","","","","","","","","","","",""
"null","","null","html-keyboard-response","168","218138","0.0-6.0-1.0-8.0-0.30","3","3","3","3","3","3","3","4","3","3","4","2","3","4","3","4","4","3","4","4","1","1","2","2","2","1","2","1","2","1","0","1","1","0","0","1","1","0","1","1","0","1","0","1","5","4","4","1","3","3","4","4","3","1","732379307938418690","张","533","","","","","","","","","","","","","","","","","","","","","","","","","","","","","","","","","","","","","","","",""
"720","<p style=""color:rgb(150, 250, 100); font-size: 35px;"">自己</p>","i","categorize-html","169","218864","0.0-6.0-1.0-8.0-1.30","3","3","3","3","3","3","3","4","3","3","4","2","3","4","3","4","4","3","4","4","1","1","2","2","2","1","2","1","2","1","0","1","1","0","0","1","1","0","1","1","0","1","0","1","5","4","4","1","3","3","4","4","3","1","732379307938418690","张","533","","","","","","","","","","","","","","","","","","","true","14","4","moral","720","self","自己","","","","","","","","","","","","","","",""
"null","","null","html-keyboard-response","170","219122","0.0-6.0-1.0-8.0-0.31","3","3","3","3","3","3","3","4","3","3","4","2","3","4","3","4","4","3","4","4","1","1","2","2","2","1","2","1","2","1","0","1","1","0","0","1","1","0","1","1","0","1","0","1","5","4","4","1","3","3","4","4","3","1","732379307938418690","张","533","","","","","","","","","","","","","","","","","","","","","","","","","","","","","","","","","","","","","","","",""
"816","<p style=""color:white; font-size: 35px;"">君子</p>","e","categorize-html","171","219944","0.0-6.0-1.0-8.0-1.31","3","3","3","3","3","3","3","4","3","3","4","2","3","4","3","4","4","3","4","4","1","1","2","2","2","1","2","1","2","1","0","1","1","0","0","1","1","0","1","1","0","1","0","1","5","4","4","1","3","3","4","4","3","1","732379307938418690","张","533","","","","","","","","","","","","","","","","","","","true","14","4","moral","816","positive","君子","","","","","","","","","","","","","","",""
"null","","null","html-keyboard-response","172","220202","0.0-6.0-1.0-8.0-0.32","3","3","3","3","3","3","3","4","3","3","4","2","3","4","3","4","4","3","4","4","1","1","2","2","2","1","2","1","2","1","0","1","1","0","0","1","1","0","1","1","0","1","0","1","5","4","4","1","3","3","4","4","3","1","732379307938418690","张","533","","","","","","","","","","","","","","","","","","","","","","","","","","","","","","","","","","","","","","","",""
"809","<p style=""color:rgb(150, 250, 100); font-size: 35px;"">我的</p>","i","categorize-html","173","221013","0.0-6.0-1.0-8.0-1.32","3","3","3","3","3","3","3","4","3","3","4","2","3","4","3","4","4","3","4","4","1","1","2","2","2","1","2","1","2","1","0","1","1","0","0","1","1","0","1","1","0","1","0","1","5","4","4","1","3","3","4","4","3","1","732379307938418690","张","533","","","","","","","","","","","","","","","","","","","true","14","4","moral","809","self","我的","","","","","","","","","","","","","","",""
"null","","null","html-keyboard-response","174","221266","0.0-6.0-1.0-8.0-0.33","3","3","3","3","3","3","3","4","3","3","4","2","3","4","3","4","4","3","4","4","1","1","2","2","2","1","2","1","2","1","0","1","1","0","0","1","1","0","1","1","0","1","0","1","5","4","4","1","3","3","4","4","3","1","732379307938418690","张","533","","","","","","","","","","","","","","","","","","","","","","","","","","","","","","","","","","","","","","","",""
"1161","<p style=""color:white; font-size: 35px;"">小人</p>","i","categorize-html","175","222432","0.0-6.0-1.0-8.0-1.33","3","3","3","3","3","3","3","4","3","3","4","2","3","4","3","4","4","3","4","4","1","1","2","2","2","1","2","1","2","1","0","1","1","0","0","1","1","0","1","1","0","1","0","1","5","4","4","1","3","3","4","4","3","1","732379307938418690","张","533","","","","","","","","","","","","","","","","","","","true","14","4","moral","1161","negative","小人","","","","","","","","","","","","","","",""
"null","","null","html-keyboard-response","176","222690","0.0-6.0-1.0-8.0-0.34","3","3","3","3","3","3","3","4","3","3","4","2","3","4","3","4","4","3","4","4","1","1","2","2","2","1","2","1","2","1","0","1","1","0","0","1","1","0","1","1","0","1","0","1","5","4","4","1","3","3","4","4","3","1","732379307938418690","张","533","","","","","","","","","","","","","","","","","","","","","","","","","","","","","","","","","","","","","","","",""
"720","<p style=""color:rgb(150, 250, 100); font-size: 35px;"">他人</p>","e","categorize-html","177","223416","0.0-6.0-1.0-8.0-1.34","3","3","3","3","3","3","3","4","3","3","4","2","3","4","3","4","4","3","4","4","1","1","2","2","2","1","2","1","2","1","0","1","1","0","0","1","1","0","1","1","0","1","0","1","5","4","4","1","3","3","4","4","3","1","732379307938418690","张","533","","","","","","","","","","","","","","","","","","","true","14","4","moral","720","other","他人","","","","","","","","","","","","","","",""
"null","","null","html-keyboard-response","178","223674","0.0-6.0-1.0-8.0-0.35","3","3","3","3","3","3","3","4","3","3","4","2","3","4","3","4","4","3","4","4","1","1","2","2","2","1","2","1","2","1","0","1","1","0","0","1","1","0","1","1","0","1","0","1","5","4","4","1","3","3","4","4","3","1","732379307938418690","张","533","","","","","","","","","","","","","","","","","","","","","","","","","","","","","","","","","","","","","","","",""
"1032","<p style=""color:white; font-size: 35px;"">高尚</p>","e","categorize-html","179","224712","0.0-6.0-1.0-8.0-1.35","3","3","3","3","3","3","3","4","3","3","4","2","3","4","3","4","4","3","4","4","1","1","2","2","2","1","2","1","2","1","0","1","1","0","0","1","1","0","1","1","0","1","0","1","5","4","4","1","3","3","4","4","3","1","732379307938418690","张","533","","","","","","","","","","","","","","","","","","","true","14","4","moral","1032","positive","高尚","","","","","","","","","","","","","","",""
"null","","null","html-keyboard-response","180","224970","0.0-6.0-1.0-8.0-0.36","3","3","3","3","3","3","3","4","3","3","4","2","3","4","3","4","4","3","4","4","1","1","2","2","2","1","2","1","2","1","0","1","1","0","0","1","1","0","1","1","0","1","0","1","5","4","4","1","3","3","4","4","3","1","732379307938418690","张","533","","","","","","","","","","","","","","","","","","","","","","","","","","","","","","","","","","","","","","","",""
"880","<p style=""color:rgb(150, 250, 100); font-size: 35px;"">他</p>","e","categorize-html","181","225855","0.0-6.0-1.0-8.0-1.36","3","3","3","3","3","3","3","4","3","3","4","2","3","4","3","4","4","3","4","4","1","1","2","2","2","1","2","1","2","1","0","1","1","0","0","1","1","0","1","1","0","1","0","1","5","4","4","1","3","3","4","4","3","1","732379307938418690","张","533","","","","","","","","","","","","","","","","","","","true","14","4","moral","880","other","他","","","","","","","","","","","","","","",""
"null","","null","html-keyboard-response","182","226115","0.0-6.0-1.0-8.0-0.37","3","3","3","3","3","3","3","4","3","3","4","2","3","4","3","4","4","3","4","4","1","1","2","2","2","1","2","1","2","1","0","1","1","0","0","1","1","0","1","1","0","1","0","1","5","4","4","1","3","3","4","4","3","1","732379307938418690","张","533","","","","","","","","","","","","","","","","","","","","","","","","","","","","","","","","","","","","","","","",""
"1296","<p style=""color:white; font-size: 35px;"">黑心</p>","i","categorize-html","183","227416","0.0-6.0-1.0-8.0-1.37","3","3","3","3","3","3","3","4","3","3","4","2","3","4","3","4","4","3","4","4","1","1","2","2","2","1","2","1","2","1","0","1","1","0","0","1","1","0","1","1","0","1","0","1","5","4","4","1","3","3","4","4","3","1","732379307938418690","张","533","","","","","","","","","","","","","","","","","","","true","14","4","moral","1296","negative","黑心","","","","","","","","","","","","","","",""
"null","","null","html-keyboard-response","184","227675","0.0-6.0-1.0-8.0-0.38","3","3","3","3","3","3","3","4","3","3","4","2","3","4","3","4","4","3","4","4","1","1","2","2","2","1","2","1","2","1","0","1","1","0","0","1","1","0","1","1","0","1","0","1","5","4","4","1","3","3","4","4","3","1","732379307938418690","张","533","","","","","","","","","","","","","","","","","","","","","","","","","","","","","","","","","","","","","","","",""
"959","<p style=""color:rgb(150, 250, 100); font-size: 35px;"">自己的</p>","i","categorize-html","185","228637","0.0-6.0-1.0-8.0-1.38","3","3","3","3","3","3","3","4","3","3","4","2","3","4","3","4","4","3","4","4","1","1","2","2","2","1","2","1","2","1","0","1","1","0","0","1","1","0","1","1","0","1","0","1","5","4","4","1","3","3","4","4","3","1","732379307938418690","张","533","","","","","","","","","","","","","","","","","","","true","14","4","moral","959","self","自己的","","","","","","","","","","","","","","",""
"null","","null","html-keyboard-response","186","228891","0.0-6.0-1.0-8.0-0.39","3","3","3","3","3","3","3","4","3","3","4","2","3","4","3","4","4","3","4","4","1","1","2","2","2","1","2","1","2","1","0","1","1","0","0","1","1","0","1","1","0","1","0","1","5","4","4","1","3","3","4","4","3","1","732379307938418690","张","533","","","","","","","","","","","","","","","","","","","","","","","","","","","","","","","","","","","","","","","",""
"1384","<p style=""color:white; font-size: 35px;"">诚信</p>","e","categorize-html","187","230280","0.0-6.0-1.0-8.0-1.39","3","3","3","3","3","3","3","4","3","3","4","2","3","4","3","4","4","3","4","4","1","1","2","2","2","1","2","1","2","1","0","1","1","0","0","1","1","0","1","1","0","1","0","1","5","4","4","1","3","3","4","4","3","1","732379307938418690","张","533","","","","","","","","","","","","","","","","","","","true","14","4","moral","1384","positive","诚信","","","","","","","","","","","","","","",""
"null","","null","html-keyboard-response","188","230539","0.0-6.0-1.0-8.0-0.40","3","3","3","3","3","3","3","4","3","3","4","2","3","4","3","4","4","3","4","4","1","1","2","2","2","1","2","1","2","1","0","1","1","0","0","1","1","0","1","1","0","1","0","1","5","4","4","1","3","3","4","4","3","1","732379307938418690","张","533","","","","","","","","","","","","","","","","","","","","","","","","","","","","","","","","","","","","","","","",""
"912","<p style=""color:rgb(150, 250, 100); font-size: 35px;"">自己</p>","i","categorize-html","189","231455","0.0-6.0-1.0-8.0-1.40","3","3","3","3","3","3","3","4","3","3","4","2","3","4","3","4","4","3","4","4","1","1","2","2","2","1","2","1","2","1","0","1","1","0","0","1","1","0","1","1","0","1","0","1","5","4","4","1","3","3","4","4","3","1","732379307938418690","张","533","","","","","","","","","","","","","","","","","","","true","14","4","moral","912","self","自己","","","","","","","","","","","","","","",""
"null","","null","html-keyboard-response","190","231714","0.0-6.0-1.0-8.0-0.41","3","3","3","3","3","3","3","4","3","3","4","2","3","4","3","4","4","3","4","4","1","1","2","2","2","1","2","1","2","1","0","1","1","0","0","1","1","0","1","1","0","1","0","1","5","4","4","1","3","3","4","4","3","1","732379307938418690","张","533","","","","","","","","","","","","","","","","","","","","","","","","","","","","","","","","","","","","","","","",""
"1097","<p style=""color:white; font-size: 35px;"">不仁</p>","i","categorize-html","191","232816","0.0-6.0-1.0-8.0-1.41","3","3","3","3","3","3","3","4","3","3","4","2","3","4","3","4","4","3","4","4","1","1","2","2","2","1","2","1","2","1","0","1","1","0","0","1","1","0","1","1","0","1","0","1","5","4","4","1","3","3","4","4","3","1","732379307938418690","张","533","","","","","","","","","","","","","","","","","","","true","14","4","moral","1097","negative","不仁","","","","","","","","","","","","","","",""
"null","","null","html-keyboard-response","192","233074","0.0-6.0-1.0-8.0-0.42","3","3","3","3","3","3","3","4","3","3","4","2","3","4","3","4","4","3","4","4","1","1","2","2","2","1","2","1","2","1","0","1","1","0","0","1","1","0","1","1","0","1","0","1","5","4","4","1","3","3","4","4","3","1","732379307938418690","张","533","","","","","","","","","","","","","","","","","","","","","","","","","","","","","","","","","","","","","","","",""
"752","<p style=""color:rgb(150, 250, 100); font-size: 35px;"">他</p>","e","categorize-html","193","233832","0.0-6.0-1.0-8.0-1.42","3","3","3","3","3","3","3","4","3","3","4","2","3","4","3","4","4","3","4","4","1","1","2","2","2","1","2","1","2","1","0","1","1","0","0","1","1","0","1","1","0","1","0","1","5","4","4","1","3","3","4","4","3","1","732379307938418690","张","533","","","","","","","","","","","","","","","","","","","true","14","4","moral","752","other","他","","","","","","","","","","","","","","",""
"null","","null","html-keyboard-response","194","234090","0.0-6.0-1.0-8.0-0.43","3","3","3","3","3","3","3","4","3","3","4","2","3","4","3","4","4","3","4","4","1","1","2","2","2","1","2","1","2","1","0","1","1","0","0","1","1","0","1","1","0","1","0","1","5","4","4","1","3","3","4","4","3","1","732379307938418690","张","533","","","","","","","","","","","","","","","","","","","","","","","","","","","","","","","","","","","","","","","",""
"817","<p style=""color:white; font-size: 35px;"">廉正</p>","e","categorize-html","195","234912","0.0-6.0-1.0-8.0-1.43","3","3","3","3","3","3","3","4","3","3","4","2","3","4","3","4","4","3","4","4","1","1","2","2","2","1","2","1","2","1","0","1","1","0","0","1","1","0","1","1","0","1","0","1","5","4","4","1","3","3","4","4","3","1","732379307938418690","张","533","","","","","","","","","","","","","","","","","","","true","14","4","moral","817","positive","廉正","","","","","","","","","","","","","","",""
"null","","null","html-keyboard-response","196","235170","0.0-6.0-1.0-8.0-0.44","3","3","3","3","3","3","3","4","3","3","4","2","3","4","3","4","4","3","4","4","1","1","2","2","2","1","2","1","2","1","0","1","1","0","0","1","1","0","1","1","0","1","0","1","5","4","4","1","3","3","4","4","3","1","732379307938418690","张","533","","","","","","","","","","","","","","","","","","","","","","","","","","","","","","","","","","","","","","","",""
"640","<p style=""color:rgb(150, 250, 100); font-size: 35px;"">别人的</p>","e","categorize-html","197","235815","0.0-6.0-1.0-8.0-1.44","3","3","3","3","3","3","3","4","3","3","4","2","3","4","3","4","4","3","4","4","1","1","2","2","2","1","2","1","2","1","0","1","1","0","0","1","1","0","1","1","0","1","0","1","5","4","4","1","3","3","4","4","3","1","732379307938418690","张","533","","","","","","","","","","","","","","","","","","","true","14","4","moral","640","other","别人的","","","","","","","","","","","","","","",""
