"rt","stimulus","response","trial_type","trial_index","time_elapsed","internal_node_id","ses_1","ses_2","ses_3","ses_4","ses_5","ses_6","ses_7","ses_8","ses_9","ses_10","coreself_1","coreself_2","coreself_3","coreself_4","coreself_5","coreself_6","coreself_7","coreself_8","coreself_9","coreself_10","SGPS_1","SGPS_2","SGPS_3","SGPS_4","SGPS_5","SGPS_6","SGPS_7","SGPS_8","SGPS_9","NPI1","NPI2","NPI3","NPI4","NPI5","NPI6","NPI7","NPI8","NPI9","NPI10","NPI11","NPI12","NPI13","NPI14","NPI15","hsns_1","hsns_2","hsns_3","hsns_4","hsns_5","hsns_6","hsns_7","hsns_8","hsns_9","hsns_10","subj_idx","friend_name","ParticipantID","value","success","user_agent","responses","item_order","radio_event_ids","radio_event_times","key_event_times","mouse_event_times","straightlining","zigzagging","honeypot","timeout","failed_images","failed_audio","failed_video","view_history","response_type","key_press","avg_frame_time","center_x","center_y","correct_response","correct","identity","Image","word","condition","task_id","screen_id","time_stamp","version_attrib","version_target","IAT","RT","varname","summary","version_attrib2","version_target2","question_order"
"19019","
   <p><div style = ""color: white;font-size:25px;"">您好，欢迎参加本次实验。</div> </p>
   <p><div style = ""color: white;font-size:25px;"">为充分保障您的权利，请确保您已经知晓并同意《参与实验同意书》以及《数据公开知情同意书》。</div></p>
   <p><div style = ""color: white;font-size:25px;"">如果您未见过上述内容，请咨询实验员。</div></p>
   <p><div style = ""color: white;font-size:25px;"">如果您选择继续实验，则表示您已经清楚两份知情同意书的内容并同意。</div></p>
   <p><div style = ""color: red;font-size:30px;"">请确保您记得day0的实验编号，您将在本次实验输入该编号，若您忘记，请咨询实验员后作答。</div></p>
   <p> <div style = ""color: green;font-size:25px;""><按空格键至下页></div> </p>
   "," ","html-keyboard-response","0","19023","0.0-0.0","3","4","4","3","3","4","3","3","4","4","5","4","5","4","4","4","5","4","4","5","1","2","1","1","2","2","1","2","1","0","1","0","0","1","1","0","0","0","0","1","1","0","1","0","5","1","5","2","2","4","4","5","1","1","634800368890413056","陈","266","","","","","","","","","","","","","","","","","","","","","","","","","","","","","","","","","","","","","","","",""
"","","","call-function","1","19024","0.0-1.0-0.0","3","4","4","3","3","4","3","3","4","4","5","4","5","4","4","4","5","4","4","5","1","2","1","1","2","2","1","2","1","0","1","0","0","1","1","0","0","0","0","1","1","0","1","0","5","1","5","2","2","4","4","5","1","1","634800368890413056","陈","266","","","","","","","","","","","","","","","","","","","","","","","","","","","","","","","","","","","","","","","",""
"41990","","{""friend_name"":""陈"",""ParticipantID"":""266""}","survey-html-form","2","61016","0.0-1.0-1.0","3","4","4","3","3","4","3","3","4","4","5","4","5","4","4","4","5","4","4","5","1","2","1","1","2","2","1","2","1","0","1","0","0","1","1","0","0","0","0","1","1","0","1","0","5","1","5","2","2","4","4","5","1","1","634800368890413056","陈","266","","","","","","","","","","","","","","","","","","","","","","","","","","","","","","","","","","","","","","","",""
"","","","fullscreen","3","62149","0.0-2.0","3","4","4","3","3","4","3","3","4","4","5","4","5","4","4","4","5","4","4","5","1","2","1","1","2","2","1","2","1","0","1","0","0","1","1","0","0","0","0","1","1","0","1","0","5","1","5","2","2","4","4","5","1","1","634800368890413056","陈","266","","true","{}","","","","","","","","","","","","","","","","","","","","","","","","","","","","","","","","","","","","",""
"69869.40000000596","","{""Q01"":""3"",""Q02"":""4"",""Q03"":""4"",""Q04"":""3"",""Q05"":""3"",""Q06"":""4"",""Q07"":""3"",""Q08"":""3"",""Q09"":""4"",""Q10"":""4""}","survey-template","4","132026","0.0-3.0","3","4","4","3","3","4","3","3","4","4","5","4","5","4","4","4","5","4","4","5","1","2","1","1","2","2","1","2","1","0","1","0","0","1","1","0","0","0","0","1","1","0","1","0","5","1","5","2","2","4","4","5","1","1","634800368890413056","陈","266","","","","{""Q01"":""3"",""Q02"":""4"",""Q03"":""4"",""Q04"":""3"",""Q05"":""3"",""Q06"":""4"",""Q07"":""3"",""Q08"":""3"",""Q09"":""4"",""Q10"":""4""}","[0,1,2,3,4,5,6,7,8,9]","[""Q01"",""Q02"",""Q03"",""Q04"",""Q05"",""Q06"",""Q07"",""Q08"",""Q09"",""Q10""]","[38934,42228.69999998808,46149.80000001192,47601.59999999404,49891.80000001192,52469.80000001192,55016,65356.19999998808,67196.90000000596,68954.09999999404]","[]","[38934,42228.69999998808,45400.19999998808,46149.80000001192,47601.59999999404,49891.80000001192,52469.80000001192,55016,64612.19999998808,65356.19999998808,67196.90000000596,68954.09999999404,69868.09999999404]","0.3","0.6666666666666666","0","","","","","","","","","","","","","","","","","","","","","","","","","","","",""
"30332.69999998808","","{""Q01"":""5"",""Q02"":""4"",""Q03"":""5"",""Q04"":""4"",""Q05"":""4"",""Q06"":""4"",""Q07"":""5"",""Q08"":""4"",""Q09"":""4"",""Q10"":""5""}","survey-template","5","162367","0.0-4.0","3","4","4","3","3","4","3","3","4","4","5","4","5","4","4","4","5","4","4","5","1","2","1","1","2","2","1","2","1","0","1","0","0","1","1","0","0","0","0","1","1","0","1","0","5","1","5","2","2","4","4","5","1","1","634800368890413056","陈","266","","","","{""Q01"":""5"",""Q02"":""4"",""Q03"":""5"",""Q04"":""4"",""Q05"":""4"",""Q06"":""4"",""Q07"":""5"",""Q08"":""4"",""Q09"":""4"",""Q10"":""5""}","[0,1,2,3,4,5,6,7,8,9]","[""Q01"",""Q02"",""Q03"",""Q04"",""Q05"",""Q06"",""Q07"",""Q08"",""Q09"",""Q10""]","[6398,8130,9580.09999999404,12825.799999982119,16519.09999999404,18746.19999998808,20636.09999999404,23688.5,26417.90000000596,28792.5]","[]","[6398,8130,9580.09999999404,12467.59999999404,12825.799999982119,16519.09999999404,18746.19999998808,20636.09999999404,22354.09999999404,23688.5,26417.90000000596,28792.5,30329.90000000596]","0.3","0.2222222222222222","0","","","","","","","","","","","","","","","","","","","","","","","","","","","",""
"","","","preload","6","162410","0.0-5.0","3","4","4","3","3","4","3","3","4","4","5","4","5","4","4","4","5","4","4","5","1","2","1","1","2","2","1","2","1","0","1","0","0","1","1","0","0","0","0","1","1","0","1","0","5","1","5","2","2","4","4","5","1","1","634800368890413056","陈","266","","true","","","","","","","","","","","false","[]","[]","[]","","","","","","","","","","","","","","","","","","","","","","","",""
"1943","","","instructions","7","164354","0.0-6.0","3","4","4","3","3","4","3","3","4","4","5","4","5","4","4","4","5","4","4","5","1","2","1","1","2","2","1","2","1","0","1","0","0","1","1","0","0","0","0","1","1","0","1","0","5","1","5","2","2","4","4","5","1","1","634800368890413056","陈","266","","","","","","","","","","","","","","","","","[{""page_index"":0,""viewing_time"":1943}]","","","","","","","","","","","","","","","","","","","","","","",""
"15543","","","instructions","8","179898","0.0-7.0-1.0-0.0","3","4","4","3","3","4","3","3","4","4","5","4","5","4","4","4","5","4","4","5","1","2","1","1","2","2","1","2","1","0","1","0","0","1","1","0","0","0","0","1","1","0","1","0","5","1","5","2","2","4","4","5","1","1","634800368890413056","陈","266","","","","","","","","","","","","","","","","","[{""page_index"":0,""viewing_time"":12014},{""page_index"":1,""viewing_time"":1842},{""page_index"":2,""viewing_time"":1686}]","","","","","","","","","","","","","","","","","","","","","","",""
"835","","f","psychophysics","9","181743","0.0-7.0-1.0-1.0-0.0-0.0","3","4","4","3","3","4","3","3","4","4","5","4","5","4","4","4","5","4","4","5","1","2","1","1","2","2","1","2","1","0","1","0","0","1","1","0","0","0","0","1","1","0","1","0","5","1","5","2","2","4","4","5","1","1","634800368890413056","陈","266","","","","match","","","","","","","","","","","","","","key","f","16.65364545454557","799.9999682108573","445.8333156175091","j","false","nonmatch","img/trapezoid.png","圆形","梯形","ALT1_2","prac_ALT1_2","","","","","","","","","",""
"null","<span style='color:red; font-size: 70px;'>错误! </span>","null","html-keyboard-response","10","182245","0.0-7.0-1.0-1.0-0.0-1.0","3","4","4","3","3","4","3","3","4","4","5","4","5","4","4","4","5","4","4","5","1","2","1","1","2","2","1","2","1","0","1","0","0","1","1","0","0","0","0","1","1","0","1","0","5","1","5","2","2","4","4","5","1","1","634800368890413056","陈","266","","","","","","","","","","","","","","","","","","","","","","","","","","","","","","feedback_test","","","","","","","","","",""
"668","","f","psychophysics","11","183914","0.0-7.0-1.0-1.0-0.0-0.1","3","4","4","3","3","4","3","3","4","4","5","4","5","4","4","4","5","4","4","5","1","2","1","1","2","2","1","2","1","0","1","0","0","1","1","0","0","0","0","1","1","0","1","0","5","1","5","2","2","4","4","5","1","1","634800368890413056","陈","266","","","","match","","","","","","","","","","","","","","key","f","16.650717171717194","799.9999682108573","445.8333156175091","f","true","match","img/circle.png","圆形","圆形","ALT1_2","prac_ALT1_2","","","","","","","","","",""
"null","<span style='color:GreenYellow; font-size: 70px;'>正确! </span>","null","html-keyboard-response","12","184416","0.0-7.0-1.0-1.0-0.0-1.1","3","4","4","3","3","4","3","3","4","4","5","4","5","4","4","4","5","4","4","5","1","2","1","1","2","2","1","2","1","0","1","0","0","1","1","0","0","0","0","1","1","0","1","0","5","1","5","2","2","4","4","5","1","1","634800368890413056","陈","266","","","","","","","","","","","","","","","","","","","","","","","","","","","","","","feedback_test","","","","","","","","","",""
"873","","j","psychophysics","13","186292","0.0-7.0-1.0-1.0-0.0-0.2","3","4","4","3","3","4","3","3","4","4","5","4","5","4","4","4","5","4","4","5","1","2","1","1","2","2","1","2","1","0","1","0","0","1","1","0","0","0","0","1","1","0","1","0","5","1","5","2","2","4","4","5","1","1","634800368890413056","陈","266","","","","nonmatch","","","","","","","","","","","","","","key","j","16.64108108108111","799.9999682108573","445.8333156175091","j","true","nonmatch","img/hexagon.png","方形","六边","ALT1_2","prac_ALT1_2","","","","","","","","","",""
"null","<span style='color:GreenYellow; font-size: 70px;'>正确! </span>","null","html-keyboard-response","14","186796","0.0-7.0-1.0-1.0-0.0-1.2","3","4","4","3","3","4","3","3","4","4","5","4","5","4","4","4","5","4","4","5","1","2","1","1","2","2","1","2","1","0","1","0","0","1","1","0","0","0","0","1","1","0","1","0","5","1","5","2","2","4","4","5","1","1","634800368890413056","陈","266","","","","","","","","","","","","","","","","","","","","","","","","","","","","","","feedback_test","","","","","","","","","",""
"756","","j","psychophysics","15","188553","0.0-7.0-1.0-1.0-0.0-0.3","3","4","4","3","3","4","3","3","4","4","5","4","5","4","4","4","5","4","4","5","1","2","1","1","2","2","1","2","1","0","1","0","0","1","1","0","0","0","0","1","1","0","1","0","5","1","5","2","2","4","4","5","1","1","634800368890413056","陈","266","","","","nonmatch","","","","","","","","","","","","","","key","j","16.65422857142846","799.9999682108573","445.8333156175091","f","false","match","img/trapezoid.png","梯形","梯形","ALT1_2","prac_ALT1_2","","","","","","","","","",""
"null","<span style='color:red; font-size: 70px;'>错误! </span>","null","html-keyboard-response","16","189056","0.0-7.0-1.0-1.0-0.0-1.3","3","4","4","3","3","4","3","3","4","4","5","4","5","4","4","4","5","4","4","5","1","2","1","1","2","2","1","2","1","0","1","0","0","1","1","0","0","0","0","1","1","0","1","0","5","1","5","2","2","4","4","5","1","1","634800368890413056","陈","266","","","","","","","","","","","","","","","","","","","","","","","","","","","","","","feedback_test","","","","","","","","","",""
"761","","f","psychophysics","17","190819","0.0-7.0-1.0-1.0-0.0-0.4","3","4","4","3","3","4","3","3","4","4","5","4","5","4","4","4","5","4","4","5","1","2","1","1","2","2","1","2","1","0","1","0","0","1","1","0","0","0","0","1","1","0","1","0","5","1","5","2","2","4","4","5","1","1","634800368890413056","陈","266","","","","match","","","","","","","","","","","","","","key","f","16.649342857142965","799.9999682108573","445.8333156175091","f","true","match","img/circle.png","圆形","圆形","ALT1_2","prac_ALT1_2","","","","","","","","","",""
"null","<span style='color:GreenYellow; font-size: 70px;'>正确! </span>","null","html-keyboard-response","18","191321","0.0-7.0-1.0-1.0-0.0-1.4","3","4","4","3","3","4","3","3","4","4","5","4","5","4","4","4","5","4","4","5","1","2","1","1","2","2","1","2","1","0","1","0","0","1","1","0","0","0","0","1","1","0","1","0","5","1","5","2","2","4","4","5","1","1","634800368890413056","陈","266","","","","","","","","","","","","","","","","","","","","","","","","","","","","","","feedback_test","","","","","","","","","",""
"693","","f","psychophysics","19","193017","0.0-7.0-1.0-1.0-0.0-0.5","3","4","4","3","3","4","3","3","4","4","5","4","5","4","4","4","5","4","4","5","1","2","1","1","2","2","1","2","1","0","1","0","0","1","1","0","0","0","0","1","1","0","1","0","5","1","5","2","2","4","4","5","1","1","634800368890413056","陈","266","","","","match","","","","","","","","","","","","","","key","f","16.65434653465325","799.9999682108573","445.8333156175091","f","true","match","img/hexagon.png","六边","六边","ALT1_2","prac_ALT1_2","","","","","","","","","",""
"null","<span style='color:GreenYellow; font-size: 70px;'>正确! </span>","null","html-keyboard-response","20","193519","0.0-7.0-1.0-1.0-0.0-1.5","3","4","4","3","3","4","3","3","4","4","5","4","5","4","4","4","5","4","4","5","1","2","1","1","2","2","1","2","1","0","1","0","0","1","1","0","0","0","0","1","1","0","1","0","5","1","5","2","2","4","4","5","1","1","634800368890413056","陈","266","","","","","","","","","","","","","","","","","","","","","","","","","","","","","","feedback_test","","","","","","","","","",""
"581","","f","psychophysics","21","195102","0.0-7.0-1.0-1.0-0.0-0.6","3","4","4","3","3","4","3","3","4","4","5","4","5","4","4","4","5","4","4","5","1","2","1","1","2","2","1","2","1","0","1","0","0","1","1","0","0","0","0","1","1","0","1","0","5","1","5","2","2","4","4","5","1","1","634800368890413056","陈","266","","","","match","","","","","","","","","","","","","","key","f","16.645925531914628","799.9999682108573","445.8333156175091","f","true","match","img/square.png","方形","方形","ALT1_2","prac_ALT1_2","","","","","","","","","",""
"null","<span style='color:GreenYellow; font-size: 70px;'>正确! </span>","null","html-keyboard-response","22","195603","0.0-7.0-1.0-1.0-0.0-1.6","3","4","4","3","3","4","3","3","4","4","5","4","5","4","4","4","5","4","4","5","1","2","1","1","2","2","1","2","1","0","1","0","0","1","1","0","0","0","0","1","1","0","1","0","5","1","5","2","2","4","4","5","1","1","634800368890413056","陈","266","","","","","","","","","","","","","","","","","","","","","","","","","","","","","","feedback_test","","","","","","","","","",""
"563","","f","psychophysics","23","197169","0.0-7.0-1.0-1.0-0.0-0.7","3","4","4","3","3","4","3","3","4","4","5","4","5","4","4","4","5","4","4","5","1","2","1","1","2","2","1","2","1","0","1","0","0","1","1","0","0","0","0","1","1","0","1","0","5","1","5","2","2","4","4","5","1","1","634800368890413056","陈","266","","","","match","","","","","","","","","","","","","","key","f","16.65351612903228","799.9999682108573","445.8333156175091","f","true","match","img/square.png","方形","方形","ALT1_2","prac_ALT1_2","","","","","","","","","",""
"null","<span style='color:GreenYellow; font-size: 70px;'>正确! </span>","null","html-keyboard-response","24","197683","0.0-7.0-1.0-1.0-0.0-1.7","3","4","4","3","3","4","3","3","4","4","5","4","5","4","4","4","5","4","4","5","1","2","1","1","2","2","1","2","1","0","1","0","0","1","1","0","0","0","0","1","1","0","1","0","5","1","5","2","2","4","4","5","1","1","634800368890413056","陈","266","","","","","","","","","","","","","","","","","","","","","","","","","","","","","","feedback_test","","","","","","","","","",""
"749","","j","psychophysics","25","199435","0.0-7.0-1.0-1.0-0.0-0.8","3","4","4","3","3","4","3","3","4","4","5","4","5","4","4","4","5","4","4","5","1","2","1","1","2","2","1","2","1","0","1","0","0","1","1","0","0","0","0","1","1","0","1","0","5","1","5","2","2","4","4","5","1","1","634800368890413056","陈","266","","","","nonmatch","","","","","","","","","","","","","","key","j","16.654480769230688","799.9999682108573","445.8333156175091","j","true","nonmatch","img/hexagon.png","梯形","六边","ALT1_2","prac_ALT1_2","","","","","","","","","",""
"null","<span style='color:GreenYellow; font-size: 70px;'>正确! </span>","null","html-keyboard-response","26","199936","0.0-7.0-1.0-1.0-0.0-1.8","3","4","4","3","3","4","3","3","4","4","5","4","5","4","4","4","5","4","4","5","1","2","1","1","2","2","1","2","1","0","1","0","0","1","1","0","0","0","0","1","1","0","1","0","5","1","5","2","2","4","4","5","1","1","634800368890413056","陈","266","","","","","","","","","","","","","","","","","","","","","","","","","","","","","","feedback_test","","","","","","","","","",""
"856","","f","psychophysics","27","201799","0.0-7.0-1.0-1.0-0.0-0.9","3","4","4","3","3","4","3","3","4","4","5","4","5","4","4","4","5","4","4","5","1","2","1","1","2","2","1","2","1","0","1","0","0","1","1","0","0","0","0","1","1","0","1","0","5","1","5","2","2","4","4","5","1","1","634800368890413056","陈","266","","","","match","","","","","","","","","","","","","","key","f","16.653162162162065","799.9999682108573","445.8333156175091","f","true","match","img/trapezoid.png","梯形","梯形","ALT1_2","prac_ALT1_2","","","","","","","","","",""
"null","<span style='color:GreenYellow; font-size: 70px;'>正确! </span>","null","html-keyboard-response","28","202300","0.0-7.0-1.0-1.0-0.0-1.9","3","4","4","3","3","4","3","3","4","4","5","4","5","4","4","4","5","4","4","5","1","2","1","1","2","2","1","2","1","0","1","0","0","1","1","0","0","0","0","1","1","0","1","0","5","1","5","2","2","4","4","5","1","1","634800368890413056","陈","266","","","","","","","","","","","","","","","","","","","","","","","","","","","","","","feedback_test","","","","","","","","","",""
"631","","f","psychophysics","29","203933","0.0-7.0-1.0-1.0-0.0-0.10","3","4","4","3","3","4","3","3","4","4","5","4","5","4","4","4","5","4","4","5","1","2","1","1","2","2","1","2","1","0","1","0","0","1","1","0","0","0","0","1","1","0","1","0","5","1","5","2","2","4","4","5","1","1","634800368890413056","陈","266","","","","match","","","","","","","","","","","","","","key","f","16.653804123711584","799.9999682108573","445.8333156175091","f","true","match","img/square.png","方形","方形","ALT1_2","prac_ALT1_2","","","","","","","","","",""
"null","<span style='color:GreenYellow; font-size: 70px;'>正确! </span>","null","html-keyboard-response","30","204434","0.0-7.0-1.0-1.0-0.0-1.10","3","4","4","3","3","4","3","3","4","4","5","4","5","4","4","4","5","4","4","5","1","2","1","1","2","2","1","2","1","0","1","0","0","1","1","0","0","0","0","1","1","0","1","0","5","1","5","2","2","4","4","5","1","1","634800368890413056","陈","266","","","","","","","","","","","","","","","","","","","","","","","","","","","","","","feedback_test","","","","","","","","","",""
"725","","f","psychophysics","31","206162","0.0-7.0-1.0-1.0-0.0-0.11","3","4","4","3","3","4","3","3","4","4","5","4","5","4","4","4","5","4","4","5","1","2","1","1","2","2","1","2","1","0","1","0","0","1","1","0","0","0","0","1","1","0","1","0","5","1","5","2","2","4","4","5","1","1","634800368890413056","陈","266","","","","match","","","","","","","","","","","","","","key","f","16.646441176470354","799.9999682108573","445.8333156175091","f","true","match","img/circle.png","圆形","圆形","ALT1_2","prac_ALT1_2","","","","","","","","","",""
"null","<span style='color:GreenYellow; font-size: 70px;'>正确! </span>","null","html-keyboard-response","32","206662","0.0-7.0-1.0-1.0-0.0-1.11","3","4","4","3","3","4","3","3","4","4","5","4","5","4","4","4","5","4","4","5","1","2","1","1","2","2","1","2","1","0","1","0","0","1","1","0","0","0","0","1","1","0","1","0","5","1","5","2","2","4","4","5","1","1","634800368890413056","陈","266","","","","","","","","","","","","","","","","","","","","","","","","","","","","","","feedback_test","","","","","","","","","",""
"780","","j","psychophysics","33","208444","0.0-7.0-1.0-1.0-0.0-0.12","3","4","4","3","3","4","3","3","4","4","5","4","5","4","4","4","5","4","4","5","1","2","1","1","2","2","1","2","1","0","1","0","0","1","1","0","0","0","0","1","1","0","1","0","5","1","5","2","2","4","4","5","1","1","634800368890413056","陈","266","","","","nonmatch","","","","","","","","","","","","","","key","j","16.6545566037736","799.9999682108573","445.8333156175091","j","true","nonmatch","img/square.png","圆形","方形","ALT1_2","prac_ALT1_2","","","","","","","","","",""
"null","<span style='color:GreenYellow; font-size: 70px;'>正确! </span>","null","html-keyboard-response","34","208959","0.0-7.0-1.0-1.0-0.0-1.12","3","4","4","3","3","4","3","3","4","4","5","4","5","4","4","4","5","4","4","5","1","2","1","1","2","2","1","2","1","0","1","0","0","1","1","0","0","0","0","1","1","0","1","0","5","1","5","2","2","4","4","5","1","1","634800368890413056","陈","266","","","","","","","","","","","","","","","","","","","","","","","","","","","","","","feedback_test","","","","","","","","","",""
"616","","j","psychophysics","35","210577","0.0-7.0-1.0-1.0-0.0-0.13","3","4","4","3","3","4","3","3","4","4","5","4","5","4","4","4","5","4","4","5","1","2","1","1","2","2","1","2","1","0","1","0","0","1","1","0","0","0","0","1","1","0","1","0","5","1","5","2","2","4","4","5","1","1","634800368890413056","陈","266","","","","nonmatch","","","","","","","","","","","","","","key","j","16.654010416666704","799.9999682108573","445.8333156175091","j","true","nonmatch","img/hexagon.png","圆形","六边","ALT1_2","prac_ALT1_2","","","","","","","","","",""
"null","<span style='color:GreenYellow; font-size: 70px;'>正确! </span>","null","html-keyboard-response","36","211078","0.0-7.0-1.0-1.0-0.0-1.13","3","4","4","3","3","4","3","3","4","4","5","4","5","4","4","4","5","4","4","5","1","2","1","1","2","2","1","2","1","0","1","0","0","1","1","0","0","0","0","1","1","0","1","0","5","1","5","2","2","4","4","5","1","1","634800368890413056","陈","266","","","","","","","","","","","","","","","","","","","","","","","","","","","","","","feedback_test","","","","","","","","","",""
"733","","j","psychophysics","37","212815","0.0-7.0-1.0-1.0-0.0-0.14","3","4","4","3","3","4","3","3","4","4","5","4","5","4","4","4","5","4","4","5","1","2","1","1","2","2","1","2","1","0","1","0","0","1","1","0","0","0","0","1","1","0","1","0","5","1","5","2","2","4","4","5","1","1","634800368890413056","陈","266","","","","nonmatch","","","","","","","","","","","","","","key","j","16.648213592232757","799.9999682108573","445.8333156175091","j","true","nonmatch","img/circle.png","六边","圆形","ALT1_2","prac_ALT1_2","","","","","","","","","",""
"null","<span style='color:GreenYellow; font-size: 70px;'>正确! </span>","null","html-keyboard-response","38","213318","0.0-7.0-1.0-1.0-0.0-1.14","3","4","4","3","3","4","3","3","4","4","5","4","5","4","4","4","5","4","4","5","1","2","1","1","2","2","1","2","1","0","1","0","0","1","1","0","0","0","0","1","1","0","1","0","5","1","5","2","2","4","4","5","1","1","634800368890413056","陈","266","","","","","","","","","","","","","","","","","","","","","","","","","","","","","","feedback_test","","","","","","","","","",""
"566","","j","psychophysics","39","214885","0.0-7.0-1.0-1.0-0.0-0.15","3","4","4","3","3","4","3","3","4","4","5","4","5","4","4","4","5","4","4","5","1","2","1","1","2","2","1","2","1","0","1","0","0","1","1","0","0","0","0","1","1","0","1","0","5","1","5","2","2","4","4","5","1","1","634800368890413056","陈","266","","","","nonmatch","","","","","","","","","","","","","","key","j","16.652612903225798","799.9999682108573","445.8333156175091","f","false","match","img/hexagon.png","六边","六边","ALT1_2","prac_ALT1_2","","","","","","","","","",""
"null","<span style='color:red; font-size: 70px;'>错误! </span>","null","html-keyboard-response","40","215386","0.0-7.0-1.0-1.0-0.0-1.15","3","4","4","3","3","4","3","3","4","4","5","4","5","4","4","4","5","4","4","5","1","2","1","1","2","2","1","2","1","0","1","0","0","1","1","0","0","0","0","1","1","0","1","0","5","1","5","2","2","4","4","5","1","1","634800368890413056","陈","266","","","","","","","","","","","","","","","","","","","","","","","","","","","","","","feedback_test","","","","","","","","","",""
"737","","j","psychophysics","41","217124","0.0-7.0-1.0-1.0-0.0-0.16","3","4","4","3","3","4","3","3","4","4","5","4","5","4","4","4","5","4","4","5","1","2","1","1","2","2","1","2","1","0","1","0","0","1","1","0","0","0","0","1","1","0","1","0","5","1","5","2","2","4","4","5","1","1","634800368890413056","陈","266","","","","nonmatch","","","","","","","","","","","","","","key","j","16.653766990291153","799.9999682108573","445.8333156175091","j","true","nonmatch","img/trapezoid.png","方形","梯形","ALT1_2","prac_ALT1_2","","","","","","","","","",""
"null","<span style='color:GreenYellow; font-size: 70px;'>正确! </span>","null","html-keyboard-response","42","217640","0.0-7.0-1.0-1.0-0.0-1.16","3","4","4","3","3","4","3","3","4","4","5","4","5","4","4","4","5","4","4","5","1","2","1","1","2","2","1","2","1","0","1","0","0","1","1","0","0","0","0","1","1","0","1","0","5","1","5","2","2","4","4","5","1","1","634800368890413056","陈","266","","","","","","","","","","","","","","","","","","","","","","","","","","","","","","feedback_test","","","","","","","","","",""
"720","","f","psychophysics","43","219362","0.0-7.0-1.0-1.0-0.0-0.17","3","4","4","3","3","4","3","3","4","4","5","4","5","4","4","4","5","4","4","5","1","2","1","1","2","2","1","2","1","0","1","0","0","1","1","0","0","0","0","1","1","0","1","0","5","1","5","2","2","4","4","5","1","1","634800368890413056","陈","266","","","","match","","","","","","","","","","","","","","key","f","16.65382352941179","799.9999682108573","445.8333156175091","j","false","nonmatch","img/circle.png","梯形","圆形","ALT1_2","prac_ALT1_2","","","","","","","","","",""
"null","<span style='color:red; font-size: 70px;'>错误! </span>","null","html-keyboard-response","44","219865","0.0-7.0-1.0-1.0-0.0-1.17","3","4","4","3","3","4","3","3","4","4","5","4","5","4","4","4","5","4","4","5","1","2","1","1","2","2","1","2","1","0","1","0","0","1","1","0","0","0","0","1","1","0","1","0","5","1","5","2","2","4","4","5","1","1","634800368890413056","陈","266","","","","","","","","","","","","","","","","","","","","","","","","","","","","","","feedback_test","","","","","","","","","",""
"862","","j","psychophysics","45","221729","0.0-7.0-1.0-1.0-0.0-0.18","3","4","4","3","3","4","3","3","4","4","5","4","5","4","4","4","5","4","4","5","1","2","1","1","2","2","1","2","1","0","1","0","0","1","1","0","0","0","0","1","1","0","1","0","5","1","5","2","2","4","4","5","1","1","634800368890413056","陈","266","","","","nonmatch","","","","","","","","","","","","","","key","j","16.651369369369597","799.9999682108573","445.8333156175091","f","false","match","img/trapezoid.png","梯形","梯形","ALT1_2","prac_ALT1_2","","","","","","","","","",""
"null","<span style='color:red; font-size: 70px;'>错误! </span>","null","html-keyboard-response","46","222230","0.0-7.0-1.0-1.0-0.0-1.18","3","4","4","3","3","4","3","3","4","4","5","4","5","4","4","4","5","4","4","5","1","2","1","1","2","2","1","2","1","0","1","0","0","1","1","0","0","0","0","1","1","0","1","0","5","1","5","2","2","4","4","5","1","1","634800368890413056","陈","266","","","","","","","","","","","","","","","","","","","","","","","","","","","","","","feedback_test","","","","","","","","","",""
"771","","j","psychophysics","47","224002","0.0-7.0-1.0-1.0-0.0-0.19","3","4","4","3","3","4","3","3","4","4","5","4","5","4","4","4","5","4","4","5","1","2","1","1","2","2","1","2","1","0","1","0","0","1","1","0","0","0","0","1","1","0","1","0","5","1","5","2","2","4","4","5","1","1","634800368890413056","陈","266","","","","nonmatch","","","","","","","","","","","","","","key","j","16.651123809523693","799.9999682108573","445.8333156175091","j","true","nonmatch","img/square.png","梯形","方形","ALT1_2","prac_ALT1_2","","","","","","","","","",""
"null","<span style='color:GreenYellow; font-size: 70px;'>正确! </span>","null","html-keyboard-response","48","224511","0.0-7.0-1.0-1.0-0.0-1.19","3","4","4","3","3","4","3","3","4","4","5","4","5","4","4","4","5","4","4","5","1","2","1","1","2","2","1","2","1","0","1","0","0","1","1","0","0","0","0","1","1","0","1","0","5","1","5","2","2","4","4","5","1","1","634800368890413056","陈","266","","","","","","","","","","","","","","","","","","","","","","","","","","","","","","feedback_test","","","","","","","","","",""
"695","","j","psychophysics","49","226208","0.0-7.0-1.0-1.0-0.0-0.20","3","4","4","3","3","4","3","3","4","4","5","4","5","4","4","4","5","4","4","5","1","2","1","1","2","2","1","2","1","0","1","0","0","1","1","0","0","0","0","1","1","0","1","0","5","1","5","2","2","4","4","5","1","1","634800368890413056","陈","266","","","","nonmatch","","","","","","","","","","","","","","key","j","16.65384158415842","799.9999682108573","445.8333156175091","j","true","nonmatch","img/trapezoid.png","六边","梯形","ALT1_2","prac_ALT1_2","","","","","","","","","",""
"null","<span style='color:GreenYellow; font-size: 70px;'>正确! </span>","null","html-keyboard-response","50","226708","0.0-7.0-1.0-1.0-0.0-1.20","3","4","4","3","3","4","3","3","4","4","5","4","5","4","4","4","5","4","4","5","1","2","1","1","2","2","1","2","1","0","1","0","0","1","1","0","0","0","0","1","1","0","1","0","5","1","5","2","2","4","4","5","1","1","634800368890413056","陈","266","","","","","","","","","","","","","","","","","","","","","","","","","","","","","","feedback_test","","","","","","","","","",""
"646","","f","psychophysics","51","228355","0.0-7.0-1.0-1.0-0.0-0.21","3","4","4","3","3","4","3","3","4","4","5","4","5","4","4","4","5","4","4","5","1","2","1","1","2","2","1","2","1","0","1","0","0","1","1","0","0","0","0","1","1","0","1","0","5","1","5","2","2","4","4","5","1","1","634800368890413056","陈","266","","","","match","","","","","","","","","","","","","","key","f","16.649938775510087","799.9999682108573","445.8333156175091","f","true","match","img/hexagon.png","六边","六边","ALT1_2","prac_ALT1_2","","","","","","","","","",""
"null","<span style='color:GreenYellow; font-size: 70px;'>正确! </span>","null","html-keyboard-response","52","228866","0.0-7.0-1.0-1.0-0.0-1.21","3","4","4","3","3","4","3","3","4","4","5","4","5","4","4","4","5","4","4","5","1","2","1","1","2","2","1","2","1","0","1","0","0","1","1","0","0","0","0","1","1","0","1","0","5","1","5","2","2","4","4","5","1","1","634800368890413056","陈","266","","","","","","","","","","","","","","","","","","","","","","","","","","","","","","feedback_test","","","","","","","","","",""
"818","","j","psychophysics","53","230686","0.0-7.0-1.0-1.0-0.0-0.22","3","4","4","3","3","4","3","3","4","4","5","4","5","4","4","4","5","4","4","5","1","2","1","1","2","2","1","2","1","0","1","0","0","1","1","0","0","0","0","1","1","0","1","0","5","1","5","2","2","4","4","5","1","1","634800368890413056","陈","266","","","","nonmatch","","","","","","","","","","","","","","key","j","16.654907407407503","799.9999682108573","445.8333156175091","j","true","nonmatch","img/circle.png","方形","圆形","ALT1_2","prac_ALT1_2","","","","","","","","","",""
"null","<span style='color:GreenYellow; font-size: 70px;'>正确! </span>","null","html-keyboard-response","54","231188","0.0-7.0-1.0-1.0-0.0-1.22","3","4","4","3","3","4","3","3","4","4","5","4","5","4","4","4","5","4","4","5","1","2","1","1","2","2","1","2","1","0","1","0","0","1","1","0","0","0","0","1","1","0","1","0","5","1","5","2","2","4","4","5","1","1","634800368890413056","陈","266","","","","","","","","","","","","","","","","","","","","","","","","","","","","","","feedback_test","","","","","","","","","",""
"1074","","j","psychophysics","55","233266","0.0-7.0-1.0-1.0-0.0-0.23","3","4","4","3","3","4","3","3","4","4","5","4","5","4","4","4","5","4","4","5","1","2","1","1","2","2","1","2","1","0","1","0","0","1","1","0","0","0","0","1","1","0","1","0","5","1","5","2","2","4","4","5","1","1","634800368890413056","陈","266","","","","nonmatch","","","","","","","","","","","","","","key","j","16.653266129032296","799.9999682108573","445.8333156175091","j","true","nonmatch","img/square.png","六边","方形","ALT1_2","prac_ALT1_2","","","","","","","","","",""
"null","<span style='color:GreenYellow; font-size: 70px;'>正确! </span>","null","html-keyboard-response","56","233768","0.0-7.0-1.0-1.0-0.0-1.23","3","4","4","3","3","4","3","3","4","4","5","4","5","4","4","4","5","4","4","5","1","2","1","1","2","2","1","2","1","0","1","0","0","1","1","0","0","0","0","1","1","0","1","0","5","1","5","2","2","4","4","5","1","1","634800368890413056","陈","266","","","","","","","","","","","","","","","","","","","","","","","","","","","","","","feedback_test","","","","","","","","","",""
"799","","j","psychophysics","57","235571","0.0-7.0-1.0-1.0-0.0-0.24","3","4","4","3","3","4","3","3","4","4","5","4","5","4","4","4","5","4","4","5","1","2","1","1","2","2","1","2","1","0","1","0","0","1","1","0","0","0","0","1","1","0","1","0","5","1","5","2","2","4","4","5","1","1","634800368890413056","陈","266","","","","nonmatch","","","","","","","","","","","","","","key","j","16.653308411215043","799.9999682108573","445.8333156175091","j","true","nonmatch","img/circle.png","方形","圆形","ALT1_2","prac_ALT1_2","","","","","","","","","",""
"null","<span style='color:GreenYellow; font-size: 70px;'>正确! </span>","null","html-keyboard-response","58","236072","0.0-7.0-1.0-1.0-0.0-1.24","3","4","4","3","3","4","3","3","4","4","5","4","5","4","4","4","5","4","4","5","1","2","1","1","2","2","1","2","1","0","1","0","0","1","1","0","0","0","0","1","1","0","1","0","5","1","5","2","2","4","4","5","1","1","634800368890413056","陈","266","","","","","","","","","","","","","","","","","","","","","","","","","","","","","","feedback_test","","","","","","","","","",""
"1063","","f","psychophysics","59","238137","0.0-7.0-1.0-1.0-0.0-0.25","3","4","4","3","3","4","3","3","4","4","5","4","5","4","4","4","5","4","4","5","1","2","1","1","2","2","1","2","1","0","1","0","0","1","1","0","0","0","0","1","1","0","1","0","5","1","5","2","2","4","4","5","1","1","634800368890413056","陈","266","","","","match","","","","","","","","","","","","","","key","f","16.65491056910572","799.9999682108573","445.8333156175091","f","true","match","img/trapezoid.png","梯形","梯形","ALT1_2","prac_ALT1_2","","","","","","","","","",""
"null","<span style='color:GreenYellow; font-size: 70px;'>正确! </span>","null","html-keyboard-response","60","238638","0.0-7.0-1.0-1.0-0.0-1.25","3","4","4","3","3","4","3","3","4","4","5","4","5","4","4","4","5","4","4","5","1","2","1","1","2","2","1","2","1","0","1","0","0","1","1","0","0","0","0","1","1","0","1","0","5","1","5","2","2","4","4","5","1","1","634800368890413056","陈","266","","","","","","","","","","","","","","","","","","","","","","","","","","","","","","feedback_test","","","","","","","","","",""
"727","","f","psychophysics","61","240368","0.0-7.0-1.0-1.0-0.0-0.26","3","4","4","3","3","4","3","3","4","4","5","4","5","4","4","4","5","4","4","5","1","2","1","1","2","2","1","2","1","0","1","0","0","1","1","0","0","0","0","1","1","0","1","0","5","1","5","2","2","4","4","5","1","1","634800368890413056","陈","266","","","","match","","","","","","","","","","","","","","key","f","16.64667647058805","799.9999682108573","445.8333156175091","f","true","match","img/hexagon.png","六边","六边","ALT1_2","prac_ALT1_2","","","","","","","","","",""
"null","<span style='color:GreenYellow; font-size: 70px;'>正确! </span>","null","html-keyboard-response","62","240874","0.0-7.0-1.0-1.0-0.0-1.26","3","4","4","3","3","4","3","3","4","4","5","4","5","4","4","4","5","4","4","5","1","2","1","1","2","2","1","2","1","0","1","0","0","1","1","0","0","0","0","1","1","0","1","0","5","1","5","2","2","4","4","5","1","1","634800368890413056","陈","266","","","","","","","","","","","","","","","","","","","","","","","","","","","","","","feedback_test","","","","","","","","","",""
"739","","j","psychophysics","63","242614","0.0-7.0-1.0-1.0-0.0-0.27","3","4","4","3","3","4","3","3","4","4","5","4","5","4","4","4","5","4","4","5","1","2","1","1","2","2","1","2","1","0","1","0","0","1","1","0","0","0","0","1","1","0","1","0","5","1","5","2","2","4","4","5","1","1","634800368890413056","陈","266","","","","nonmatch","","","","","","","","","","","","","","key","j","16.653660194174662","799.9999682108573","445.8333156175091","j","true","nonmatch","img/circle.png","六边","圆形","ALT1_2","prac_ALT1_2","","","","","","","","","",""
"null","<span style='color:GreenYellow; font-size: 70px;'>正确! </span>","null","html-keyboard-response","64","243115","0.0-7.0-1.0-1.0-0.0-1.27","3","4","4","3","3","4","3","3","4","4","5","4","5","4","4","4","5","4","4","5","1","2","1","1","2","2","1","2","1","0","1","0","0","1","1","0","0","0","0","1","1","0","1","0","5","1","5","2","2","4","4","5","1","1","634800368890413056","陈","266","","","","","","","","","","","","","","","","","","","","","","","","","","","","","","feedback_test","","","","","","","","","",""
"823","","j","psychophysics","65","244943","0.0-7.0-1.0-1.0-0.0-0.28","3","4","4","3","3","4","3","3","4","4","5","4","5","4","4","4","5","4","4","5","1","2","1","1","2","2","1","2","1","0","1","0","0","1","1","0","0","0","0","1","1","0","1","0","5","1","5","2","2","4","4","5","1","1","634800368890413056","陈","266","","","","nonmatch","","","","","","","","","","","","","","key","j","16.65430275229374","799.9999682108573","445.8333156175091","j","true","nonmatch","img/square.png","圆形","方形","ALT1_2","prac_ALT1_2","","","","","","","","","",""
"null","<span style='color:GreenYellow; font-size: 70px;'>正确! </span>","null","html-keyboard-response","66","245445","0.0-7.0-1.0-1.0-0.0-1.28","3","4","4","3","3","4","3","3","4","4","5","4","5","4","4","4","5","4","4","5","1","2","1","1","2","2","1","2","1","0","1","0","0","1","1","0","0","0","0","1","1","0","1","0","5","1","5","2","2","4","4","5","1","1","634800368890413056","陈","266","","","","","","","","","","","","","","","","","","","","","","","","","","","","","","feedback_test","","","","","","","","","",""
"672","","j","psychophysics","67","247119","0.0-7.0-1.0-1.0-0.0-0.29","3","4","4","3","3","4","3","3","4","4","5","4","5","4","4","4","5","4","4","5","1","2","1","1","2","2","1","2","1","0","1","0","0","1","1","0","0","0","0","1","1","0","1","0","5","1","5","2","2","4","4","5","1","1","634800368890413056","陈","266","","","","nonmatch","","","","","","","","","","","","","","key","j","16.653789999999862","799.9999682108573","445.8333156175091","j","true","nonmatch","img/trapezoid.png","方形","梯形","ALT1_2","prac_ALT1_2","","","","","","","","","",""
"null","<span style='color:GreenYellow; font-size: 70px;'>正确! </span>","null","html-keyboard-response","68","247623","0.0-7.0-1.0-1.0-0.0-1.29","3","4","4","3","3","4","3","3","4","4","5","4","5","4","4","4","5","4","4","5","1","2","1","1","2","2","1","2","1","0","1","0","0","1","1","0","0","0","0","1","1","0","1","0","5","1","5","2","2","4","4","5","1","1","634800368890413056","陈","266","","","","","","","","","","","","","","","","","","","","","","","","","","","","","","feedback_test","","","","","","","","","",""
"667","","f","psychophysics","69","249290","0.0-7.0-1.0-1.0-0.0-0.30","3","4","4","3","3","4","3","3","4","4","5","4","5","4","4","4","5","4","4","5","1","2","1","1","2","2","1","2","1","0","1","0","0","1","1","0","0","0","0","1","1","0","1","0","5","1","5","2","2","4","4","5","1","1","634800368890413056","陈","266","","","","match","","","","","","","","","","","","","","key","f","16.65427272727259","799.9999682108573","445.8333156175091","f","true","match","img/square.png","方形","方形","ALT1_2","prac_ALT1_2","","","","","","","","","",""
"null","<span style='color:GreenYellow; font-size: 70px;'>正确! </span>","null","html-keyboard-response","70","249793","0.0-7.0-1.0-1.0-0.0-1.30","3","4","4","3","3","4","3","3","4","4","5","4","5","4","4","4","5","4","4","5","1","2","1","1","2","2","1","2","1","0","1","0","0","1","1","0","0","0","0","1","1","0","1","0","5","1","5","2","2","4","4","5","1","1","634800368890413056","陈","266","","","","","","","","","","","","","","","","","","","","","","","","","","","","","","feedback_test","","","","","","","","","",""
"856","","j","psychophysics","71","251651","0.0-7.0-1.0-1.0-0.0-0.31","3","4","4","3","3","4","3","3","4","4","5","4","5","4","4","4","5","4","4","5","1","2","1","1","2","2","1","2","1","0","1","0","0","1","1","0","0","0","0","1","1","0","1","0","5","1","5","2","2","4","4","5","1","1","634800368890413056","陈","266","","","","nonmatch","","","","","","","","","","","","","","key","j","16.653270270270326","799.9999682108573","445.8333156175091","j","true","nonmatch","img/hexagon.png","梯形","六边","ALT1_2","prac_ALT1_2","","","","","","","","","",""
"null","<span style='color:GreenYellow; font-size: 70px;'>正确! </span>","null","html-keyboard-response","72","252152","0.0-7.0-1.0-1.0-0.0-1.31","3","4","4","3","3","4","3","3","4","4","5","4","5","4","4","4","5","4","4","5","1","2","1","1","2","2","1","2","1","0","1","0","0","1","1","0","0","0","0","1","1","0","1","0","5","1","5","2","2","4","4","5","1","1","634800368890413056","陈","266","","","","","","","","","","","","","","","","","","","","","","","","","","","","","","feedback_test","","","","","","","","","",""
"623","","f","psychophysics","73","253777","0.0-7.0-1.0-1.0-0.0-0.32","3","4","4","3","3","4","3","3","4","4","5","4","5","4","4","4","5","4","4","5","1","2","1","1","2","2","1","2","1","0","1","0","0","1","1","0","0","0","0","1","1","0","1","0","5","1","5","2","2","4","4","5","1","1","634800368890413056","陈","266","","","","match","","","","","","","","","","","","","","key","f","16.652645833333434","799.9999682108573","445.8333156175091","f","true","match","img/square.png","方形","方形","ALT1_2","prac_ALT1_2","","","","","","","","","",""
"null","<span style='color:GreenYellow; font-size: 70px;'>正确! </span>","null","html-keyboard-response","74","254279","0.0-7.0-1.0-1.0-0.0-1.32","3","4","4","3","3","4","3","3","4","4","5","4","5","4","4","4","5","4","4","5","1","2","1","1","2","2","1","2","1","0","1","0","0","1","1","0","0","0","0","1","1","0","1","0","5","1","5","2","2","4","4","5","1","1","634800368890413056","陈","266","","","","","","","","","","","","","","","","","","","","","","","","","","","","","","feedback_test","","","","","","","","","",""
"659","","j","psychophysics","75","255941","0.0-7.0-1.0-1.0-0.0-0.33","3","4","4","3","3","4","3","3","4","4","5","4","5","4","4","4","5","4","4","5","1","2","1","1","2","2","1","2","1","0","1","0","0","1","1","0","0","0","0","1","1","0","1","0","5","1","5","2","2","4","4","5","1","1","634800368890413056","陈","266","","","","nonmatch","","","","","","","","","","","","","","key","j","16.654418367346956","799.9999682108573","445.8333156175091","j","true","nonmatch","img/trapezoid.png","圆形","梯形","ALT1_2","prac_ALT1_2","","","","","","","","","",""
"null","<span style='color:GreenYellow; font-size: 70px;'>正确! </span>","null","html-keyboard-response","76","256443","0.0-7.0-1.0-1.0-0.0-1.33","3","4","4","3","3","4","3","3","4","4","5","4","5","4","4","4","5","4","4","5","1","2","1","1","2","2","1","2","1","0","1","0","0","1","1","0","0","0","0","1","1","0","1","0","5","1","5","2","2","4","4","5","1","1","634800368890413056","陈","266","","","","","","","","","","","","","","","","","","","","","","","","","","","","","","feedback_test","","","","","","","","","",""
"741","","j","psychophysics","77","258186","0.0-7.0-1.0-1.0-0.0-0.34","3","4","4","3","3","4","3","3","4","4","5","4","5","4","4","4","5","4","4","5","1","2","1","1","2","2","1","2","1","0","1","0","0","1","1","0","0","0","0","1","1","0","1","0","5","1","5","2","2","4","4","5","1","1","634800368890413056","陈","266","","","","nonmatch","","","","","","","","","","","","","","key","j","16.65334951456323","799.9999682108573","445.8333156175091","j","true","nonmatch","img/square.png","梯形","方形","ALT1_2","prac_ALT1_2","","","","","","","","","",""
"null","<span style='color:GreenYellow; font-size: 70px;'>正确! </span>","null","html-keyboard-response","78","258686","0.0-7.0-1.0-1.0-0.0-1.34","3","4","4","3","3","4","3","3","4","4","5","4","5","4","4","4","5","4","4","5","1","2","1","1","2","2","1","2","1","0","1","0","0","1","1","0","0","0","0","1","1","0","1","0","5","1","5","2","2","4","4","5","1","1","634800368890413056","陈","266","","","","","","","","","","","","","","","","","","","","","","","","","","","","","","feedback_test","","","","","","","","","",""
"699","","f","psychophysics","79","260387","0.0-7.0-1.0-1.0-0.0-0.35","3","4","4","3","3","4","3","3","4","4","5","4","5","4","4","4","5","4","4","5","1","2","1","1","2","2","1","2","1","0","1","0","0","1","1","0","0","0","0","1","1","0","1","0","5","1","5","2","2","4","4","5","1","1","634800368890413056","陈","266","","","","match","","","","","","","","","","","","","","key","f","16.65362376237627","799.9999682108573","445.8333156175091","f","true","match","img/hexagon.png","六边","六边","ALT1_2","prac_ALT1_2","","","","","","","","","",""
"null","<span style='color:GreenYellow; font-size: 70px;'>正确! </span>","null","html-keyboard-response","80","260891","0.0-7.0-1.0-1.0-0.0-1.35","3","4","4","3","3","4","3","3","4","4","5","4","5","4","4","4","5","4","4","5","1","2","1","1","2","2","1","2","1","0","1","0","0","1","1","0","0","0","0","1","1","0","1","0","5","1","5","2","2","4","4","5","1","1","634800368890413056","陈","266","","","","","","","","","","","","","","","","","","","","","","","","","","","","","","feedback_test","","","","","","","","","",""
"789","","f","psychophysics","81","262682","0.0-7.0-1.0-1.0-0.0-0.36","3","4","4","3","3","4","3","3","4","4","5","4","5","4","4","4","5","4","4","5","1","2","1","1","2","2","1","2","1","0","1","0","0","1","1","0","0","0","0","1","1","0","1","0","5","1","5","2","2","4","4","5","1","1","634800368890413056","陈","266","","","","match","","","","","","","","","","","","","","key","f","16.65377358490555","799.9999682108573","445.8333156175091","f","true","match","img/circle.png","圆形","圆形","ALT1_2","prac_ALT1_2","","","","","","","","","",""
"null","<span style='color:GreenYellow; font-size: 70px;'>正确! </span>","null","html-keyboard-response","82","263184","0.0-7.0-1.0-1.0-0.0-1.36","3","4","4","3","3","4","3","3","4","4","5","4","5","4","4","4","5","4","4","5","1","2","1","1","2","2","1","2","1","0","1","0","0","1","1","0","0","0","0","1","1","0","1","0","5","1","5","2","2","4","4","5","1","1","634800368890413056","陈","266","","","","","","","","","","","","","","","","","","","","","","","","","","","","","","feedback_test","","","","","","","","","",""
"540","","f","psychophysics","83","264727","0.0-7.0-1.0-1.0-0.0-0.37","3","4","4","3","3","4","3","3","4","4","5","4","5","4","4","4","5","4","4","5","1","2","1","1","2","2","1","2","1","0","1","0","0","1","1","0","0","0","0","1","1","0","1","0","5","1","5","2","2","4","4","5","1","1","634800368890413056","陈","266","","","","match","","","","","","","","","","","","","","key","f","16.653684782608963","799.9999682108573","445.8333156175091","f","true","match","img/circle.png","圆形","圆形","ALT1_2","prac_ALT1_2","","","","","","","","","",""
"null","<span style='color:GreenYellow; font-size: 70px;'>正确! </span>","null","html-keyboard-response","84","265229","0.0-7.0-1.0-1.0-0.0-1.37","3","4","4","3","3","4","3","3","4","4","5","4","5","4","4","4","5","4","4","5","1","2","1","1","2","2","1","2","1","0","1","0","0","1","1","0","0","0","0","1","1","0","1","0","5","1","5","2","2","4","4","5","1","1","634800368890413056","陈","266","","","","","","","","","","","","","","","","","","","","","","","","","","","","","","feedback_test","","","","","","","","","",""
"609","","f","psychophysics","85","266840","0.0-7.0-1.0-1.0-0.0-0.38","3","4","4","3","3","4","3","3","4","4","5","4","5","4","4","4","5","4","4","5","1","2","1","1","2","2","1","2","1","0","1","0","0","1","1","0","0","0","0","1","1","0","1","0","5","1","5","2","2","4","4","5","1","1","634800368890413056","陈","266","","","","match","","","","","","","","","","","","","","key","f","16.653385416666424","799.9999682108573","445.8333156175091","f","true","match","img/hexagon.png","六边","六边","ALT1_2","prac_ALT1_2","","","","","","","","","",""
"null","<span style='color:GreenYellow; font-size: 70px;'>正确! </span>","null","html-keyboard-response","86","267341","0.0-7.0-1.0-1.0-0.0-1.38","3","4","4","3","3","4","3","3","4","4","5","4","5","4","4","4","5","4","4","5","1","2","1","1","2","2","1","2","1","0","1","0","0","1","1","0","0","0","0","1","1","0","1","0","5","1","5","2","2","4","4","5","1","1","634800368890413056","陈","266","","","","","","","","","","","","","","","","","","","","","","","","","","","","","","feedback_test","","","","","","","","","",""
"766","","f","psychophysics","87","269110","0.0-7.0-1.0-1.0-0.0-0.39","3","4","4","3","3","4","3","3","4","4","5","4","5","4","4","4","5","4","4","5","1","2","1","1","2","2","1","2","1","0","1","0","0","1","1","0","0","0","0","1","1","0","1","0","5","1","5","2","2","4","4","5","1","1","634800368890413056","陈","266","","","","match","","","","","","","","","","","","","","key","f","16.654371428571174","799.9999682108573","445.8333156175091","j","false","nonmatch","img/hexagon.png","圆形","六边","ALT1_2","prac_ALT1_2","","","","","","","","","",""
"null","<span style='color:red; font-size: 70px;'>错误! </span>","null","html-keyboard-response","88","269611","0.0-7.0-1.0-1.0-0.0-1.39","3","4","4","3","3","4","3","3","4","4","5","4","5","4","4","4","5","4","4","5","1","2","1","1","2","2","1","2","1","0","1","0","0","1","1","0","0","0","0","1","1","0","1","0","5","1","5","2","2","4","4","5","1","1","634800368890413056","陈","266","","","","","","","","","","","","","","","","","","","","","","","","","","","","","","feedback_test","","","","","","","","","",""
"632","","j","psychophysics","89","271245","0.0-7.0-1.0-1.0-0.0-0.40","3","4","4","3","3","4","3","3","4","4","5","4","5","4","4","4","5","4","4","5","1","2","1","1","2","2","1","2","1","0","1","0","0","1","1","0","0","0","0","1","1","0","1","0","5","1","5","2","2","4","4","5","1","1","634800368890413056","陈","266","","","","nonmatch","","","","","","","","","","","","","","key","j","16.6570206185564","799.9999682108573","445.8333156175091","j","true","nonmatch","img/trapezoid.png","六边","梯形","ALT1_2","prac_ALT1_2","","","","","","","","","",""
"null","<span style='color:GreenYellow; font-size: 70px;'>正确! </span>","null","html-keyboard-response","90","271760","0.0-7.0-1.0-1.0-0.0-1.40","3","4","4","3","3","4","3","3","4","4","5","4","5","4","4","4","5","4","4","5","1","2","1","1","2","2","1","2","1","0","1","0","0","1","1","0","0","0","0","1","1","0","1","0","5","1","5","2","2","4","4","5","1","1","634800368890413056","陈","266","","","","","","","","","","","","","","","","","","","","","","","","","","","","","","feedback_test","","","","","","","","","",""
"657","","j","psychophysics","91","273421","0.0-7.0-1.0-1.0-0.0-0.41","3","4","4","3","3","4","3","3","4","4","5","4","5","4","4","4","5","4","4","5","1","2","1","1","2","2","1","2","1","0","1","0","0","1","1","0","0","0","0","1","1","0","1","0","5","1","5","2","2","4","4","5","1","1","634800368890413056","陈","266","","","","nonmatch","","","","","","","","","","","","","","key","j","16.65339393939381","799.9999682108573","445.8333156175091","f","false","match","img/trapezoid.png","梯形","梯形","ALT1_2","prac_ALT1_2","","","","","","","","","",""
"null","<span style='color:red; font-size: 70px;'>错误! </span>","null","html-keyboard-response","92","273924","0.0-7.0-1.0-1.0-0.0-1.41","3","4","4","3","3","4","3","3","4","4","5","4","5","4","4","4","5","4","4","5","1","2","1","1","2","2","1","2","1","0","1","0","0","1","1","0","0","0","0","1","1","0","1","0","5","1","5","2","2","4","4","5","1","1","634800368890413056","陈","266","","","","","","","","","","","","","","","","","","","","","","","","","","","","","","feedback_test","","","","","","","","","",""
"670","","f","psychophysics","93","275598","0.0-7.0-1.0-1.0-0.0-0.42","3","4","4","3","3","4","3","3","4","4","5","4","5","4","4","4","5","4","4","5","1","2","1","1","2","2","1","2","1","0","1","0","0","1","1","0","0","0","0","1","1","0","1","0","5","1","5","2","2","4","4","5","1","1","634800368890413056","陈","266","","","","match","","","","","","","","","","","","","","key","f","16.65383999999962","799.9999682108573","445.8333156175091","j","false","nonmatch","img/circle.png","梯形","圆形","ALT1_2","prac_ALT1_2","","","","","","","","","",""
"null","<span style='color:red; font-size: 70px;'>错误! </span>","null","html-keyboard-response","94","276099","0.0-7.0-1.0-1.0-0.0-1.42","3","4","4","3","3","4","3","3","4","4","5","4","5","4","4","4","5","4","4","5","1","2","1","1","2","2","1","2","1","0","1","0","0","1","1","0","0","0","0","1","1","0","1","0","5","1","5","2","2","4","4","5","1","1","634800368890413056","陈","266","","","","","","","","","","","","","","","","","","","","","","","","","","","","","","feedback_test","","","","","","","","","",""
"726","","f","psychophysics","95","277827","0.0-7.0-1.0-1.0-0.0-0.43","3","4","4","3","3","4","3","3","4","4","5","4","5","4","4","4","5","4","4","5","1","2","1","1","2","2","1","2","1","0","1","0","0","1","1","0","0","0","0","1","1","0","1","0","5","1","5","2","2","4","4","5","1","1","634800368890413056","陈","266","","","","match","","","","","","","","","","","","","","key","f","16.653194174757093","799.9999682108573","445.8333156175091","f","true","match","img/circle.png","圆形","圆形","ALT1_2","prac_ALT1_2","","","","","","","","","",""
"null","<span style='color:GreenYellow; font-size: 70px;'>正确! </span>","null","html-keyboard-response","96","278328","0.0-7.0-1.0-1.0-0.0-1.43","3","4","4","3","3","4","3","3","4","4","5","4","5","4","4","4","5","4","4","5","1","2","1","1","2","2","1","2","1","0","1","0","0","1","1","0","0","0","0","1","1","0","1","0","5","1","5","2","2","4","4","5","1","1","634800368890413056","陈","266","","","","","","","","","","","","","","","","","","","","","","","","","","","","","","feedback_test","","","","","","","","","",""
"781","","j","psychophysics","97","280112","0.0-7.0-1.0-1.0-0.0-0.44","3","4","4","3","3","4","3","3","4","4","5","4","5","4","4","4","5","4","4","5","1","2","1","1","2","2","1","2","1","0","1","0","0","1","1","0","0","0","0","1","1","0","1","0","5","1","5","2","2","4","4","5","1","1","634800368890413056","陈","266","","","","nonmatch","","","","","","","","","","","","","","key","j","16.65310377358483","799.9999682108573","445.8333156175091","j","true","nonmatch","img/square.png","六边","方形","ALT1_2","prac_ALT1_2","","","","","","","","","",""
"null","<span style='color:GreenYellow; font-size: 70px;'>正确! </span>","null","html-keyboard-response","98","280613","0.0-7.0-1.0-1.0-0.0-1.44","3","4","4","3","3","4","3","3","4","4","5","4","5","4","4","4","5","4","4","5","1","2","1","1","2","2","1","2","1","0","1","0","0","1","1","0","0","0","0","1","1","0","1","0","5","1","5","2","2","4","4","5","1","1","634800368890413056","陈","266","","","","","","","","","","","","","","","","","","","","","","","","","","","","","","feedback_test","","","","","","","","","",""
"961","","f","psychophysics","99","282583","0.0-7.0-1.0-1.0-0.0-0.45","3","4","4","3","3","4","3","3","4","4","5","4","5","4","4","4","5","4","4","5","1","2","1","1","2","2","1","2","1","0","1","0","0","1","1","0","0","0","0","1","1","0","1","0","5","1","5","2","2","4","4","5","1","1","634800368890413056","陈","266","","","","match","","","","","","","","","","","","","","key","f","16.653452991452724","799.9999682108573","445.8333156175091","f","true","match","img/trapezoid.png","梯形","梯形","ALT1_2","prac_ALT1_2","","","","","","","","","",""
"null","<span style='color:GreenYellow; font-size: 70px;'>正确! </span>","null","html-keyboard-response","100","283084","0.0-7.0-1.0-1.0-0.0-1.45","3","4","4","3","3","4","3","3","4","4","5","4","5","4","4","4","5","4","4","5","1","2","1","1","2","2","1","2","1","0","1","0","0","1","1","0","0","0","0","1","1","0","1","0","5","1","5","2","2","4","4","5","1","1","634800368890413056","陈","266","","","","","","","","","","","","","","","","","","","","","","","","","","","","","","feedback_test","","","","","","","","","",""
"885","","j","psychophysics","101","284973","0.0-7.0-1.0-1.0-0.0-0.46","3","4","4","3","3","4","3","3","4","4","5","4","5","4","4","4","5","4","4","5","1","2","1","1","2","2","1","2","1","0","1","0","0","1","1","0","0","0","0","1","1","0","1","0","5","1","5","2","2","4","4","5","1","1","634800368890413056","陈","266","","","","nonmatch","","","","","","","","","","","","","","key","j","16.653203539823313","799.9999682108573","445.8333156175091","j","true","nonmatch","img/hexagon.png","方形","六边","ALT1_2","prac_ALT1_2","","","","","","","","","",""
"null","<span style='color:GreenYellow; font-size: 70px;'>正确! </span>","null","html-keyboard-response","102","285474","0.0-7.0-1.0-1.0-0.0-1.46","3","4","4","3","3","4","3","3","4","4","5","4","5","4","4","4","5","4","4","5","1","2","1","1","2","2","1","2","1","0","1","0","0","1","1","0","0","0","0","1","1","0","1","0","5","1","5","2","2","4","4","5","1","1","634800368890413056","陈","266","","","","","","","","","","","","","","","","","","","","","","","","","","","","","","feedback_test","","","","","","","","","",""
"663","","f","psychophysics","103","287148","0.0-7.0-1.0-1.0-0.0-0.47","3","4","4","3","3","4","3","3","4","4","5","4","5","4","4","4","5","4","4","5","1","2","1","1","2","2","1","2","1","0","1","0","0","1","1","0","0","0","0","1","1","0","1","0","5","1","5","2","2","4","4","5","1","1","634800368890413056","陈","266","","","","match","","","","","","","","","","","","","","key","f","16.65381818181821","799.9999682108573","445.8333156175091","f","true","match","img/square.png","方形","方形","ALT1_2","prac_ALT1_2","","","","","","","","","",""
"null","<span style='color:GreenYellow; font-size: 70px;'>正确! </span>","null","html-keyboard-response","104","287650","0.0-7.0-1.0-1.0-0.0-1.47","3","4","4","3","3","4","3","3","4","4","5","4","5","4","4","4","5","4","4","5","1","2","1","1","2","2","1","2","1","0","1","0","0","1","1","0","0","0","0","1","1","0","1","0","5","1","5","2","2","4","4","5","1","1","634800368890413056","陈","266","","","","","","","","","","","","","","","","","","","","","","","","","","","","","","feedback_test","","","","","","","","","",""
"1451","<style>.context{color:white; font-size: 35px; line-height:40px}</style>                          <div><p class='context'>您正确回答了83% 的试次。</p><p class='context'>您的平均反应时为741毫秒。</p><p class='context'>恭喜您完成练习。按空格键进入正式实验。</p><p class='footer' style='font-size: 35px; line-height:40px;'>请在进入正式实验实验之前将您的<span style='color: lightgreen;'>食指</span>放在电脑键盘的相应键位上进行按键。</p>"," ","html-keyboard-response","105","289103","0.0-7.0-1.0-2.0","3","4","4","3","3","4","3","3","4","4","5","4","5","4","4","4","5","4","4","5","1","2","1","1","2","2","1","2","1","0","1","0","0","1","1","0","0","0","0","1","1","0","1","0","5","1","5","2","2","4","4","5","1","1","634800368890413056","陈","266","","","","","","","","","","","","","","","","","","","","","","","","","","","","","","","","","","","","","","","",""
"2531","
  <p style='color: white; font-size: 22px'>请您将手指放在按键上，准备进入正式的匹配任务。</p>
  <p> <div style = ""color: green""><按空格键进入下一阶段的匹配任务></div></p>
  "," ","html-keyboard-response","106","291639","0.0-7.0-1.0-3.0","3","4","4","3","3","4","3","3","4","4","5","4","5","4","4","4","5","4","4","5","1","2","1","1","2","2","1","2","1","0","1","0","0","1","1","0","0","0","0","1","1","0","1","0","5","1","5","2","2","4","4","5","1","1","634800368890413056","陈","266","","","","","","","","","","","","","","","","","","","","","","","","","","","","","","","","","","","","","","","",""
"704","","f","psychophysics","107","293345","0.0-7.0-1.0-4.0-0.0-0.0","3","4","4","3","3","4","3","3","4","4","5","4","5","4","4","4","5","4","4","5","1","2","1","1","2","2","1","2","1","0","1","0","0","1","1","0","0","0","0","1","1","0","1","0","5","1","5","2","2","4","4","5","1","1","634800368890413056","陈","266","","","","match","","","","","","","","","","","","","","key","f","16.65176237623742","799.9999682108573","445.8333156175091","f","true","match","img/square.png","方形","方形","ALT1","formal_ALT1_2","","","","","","","","","",""
"null","<span style='color:GreenYellow; font-size: 70px;'>正确! </span>","null","html-keyboard-response","108","293855","0.0-7.0-1.0-4.0-0.0-1.0","3","4","4","3","3","4","3","3","4","4","5","4","5","4","4","4","5","4","4","5","1","2","1","1","2","2","1","2","1","0","1","0","0","1","1","0","0","0","0","1","1","0","1","0","5","1","5","2","2","4","4","5","1","1","634800368890413056","陈","266","","","","","","","","","","","","","","","","","","","","","","","","","","","","","","feedback_test","","","","","","","","","",""
"727","","j","psychophysics","109","295584","0.0-7.0-1.0-4.0-0.0-0.1","3","4","4","3","3","4","3","3","4","4","5","4","5","4","4","4","5","4","4","5","1","2","1","1","2","2","1","2","1","0","1","0","0","1","1","0","0","0","0","1","1","0","1","0","5","1","5","2","2","4","4","5","1","1","634800368890413056","陈","266","","","","nonmatch","","","","","","","","","","","","","","key","j","16.65340776699064","799.9999682108573","445.8333156175091","j","true","nonmatch","img/circle.png","方形","圆形","ALT1","formal_ALT1_2","","","","","","","","","",""
"null","<span style='color:GreenYellow; font-size: 70px;'>正确! </span>","null","html-keyboard-response","110","296085","0.0-7.0-1.0-4.0-0.0-1.1","3","4","4","3","3","4","3","3","4","4","5","4","5","4","4","4","5","4","4","5","1","2","1","1","2","2","1","2","1","0","1","0","0","1","1","0","0","0","0","1","1","0","1","0","5","1","5","2","2","4","4","5","1","1","634800368890413056","陈","266","","","","","","","","","","","","","","","","","","","","","","","","","","","","","","feedback_test","","","","","","","","","",""
"775","","f","psychophysics","111","297863","0.0-7.0-1.0-4.0-0.0-0.2","3","4","4","3","3","4","3","3","4","4","5","4","5","4","4","4","5","4","4","5","1","2","1","1","2","2","1","2","1","0","1","0","0","1","1","0","0","0","0","1","1","0","1","0","5","1","5","2","2","4","4","5","1","1","634800368890413056","陈","266","","","","match","","","","","","","","","","","","","","key","f","16.65086792452801","799.9999682108573","445.8333156175091","f","true","match","img/trapezoid.png","梯形","梯形","ALT1","formal_ALT1_2","","","","","","","","","",""
"null","<span style='color:GreenYellow; font-size: 70px;'>正确! </span>","null","html-keyboard-response","112","298364","0.0-7.0-1.0-4.0-0.0-1.2","3","4","4","3","3","4","3","3","4","4","5","4","5","4","4","4","5","4","4","5","1","2","1","1","2","2","1","2","1","0","1","0","0","1","1","0","0","0","0","1","1","0","1","0","5","1","5","2","2","4","4","5","1","1","634800368890413056","陈","266","","","","","","","","","","","","","","","","","","","","","","","","","","","","","","feedback_test","","","","","","","","","",""
"670","","f","psychophysics","113","300036","0.0-7.0-1.0-4.0-0.0-0.3","3","4","4","3","3","4","3","3","4","4","5","4","5","4","4","4","5","4","4","5","1","2","1","1","2","2","1","2","1","0","1","0","0","1","1","0","0","0","0","1","1","0","1","0","5","1","5","2","2","4","4","5","1","1","634800368890413056","陈","266","","","","match","","","","","","","","","","","","","","key","f","16.653797979797638","799.9999682108573","445.8333156175091","f","true","match","img/circle.png","圆形","圆形","ALT1","formal_ALT1_2","","","","","","","","","",""
"null","<span style='color:GreenYellow; font-size: 70px;'>正确! </span>","null","html-keyboard-response","114","300537","0.0-7.0-1.0-4.0-0.0-1.3","3","4","4","3","3","4","3","3","4","4","5","4","5","4","4","4","5","4","4","5","1","2","1","1","2","2","1","2","1","0","1","0","0","1","1","0","0","0","0","1","1","0","1","0","5","1","5","2","2","4","4","5","1","1","634800368890413056","陈","266","","","","","","","","","","","","","","","","","","","","","","","","","","","","","","feedback_test","","","","","","","","","",""
"614","","f","psychophysics","115","302152","0.0-7.0-1.0-4.0-0.0-0.4","3","4","4","3","3","4","3","3","4","4","5","4","5","4","4","4","5","4","4","5","1","2","1","1","2","2","1","2","1","0","1","0","0","1","1","0","0","0","0","1","1","0","1","0","5","1","5","2","2","4","4","5","1","1","634800368890413056","陈","266","","","","match","","","","","","","","","","","","","","key","f","16.642789473684235","799.9999682108573","445.8333156175091","f","true","match","img/circle.png","圆形","圆形","ALT1","formal_ALT1_2","","","","","","","","","",""
"null","<span style='color:GreenYellow; font-size: 70px;'>正确! </span>","null","html-keyboard-response","116","302654","0.0-7.0-1.0-4.0-0.0-1.4","3","4","4","3","3","4","3","3","4","4","5","4","5","4","4","4","5","4","4","5","1","2","1","1","2","2","1","2","1","0","1","0","0","1","1","0","0","0","0","1","1","0","1","0","5","1","5","2","2","4","4","5","1","1","634800368890413056","陈","266","","","","","","","","","","","","","","","","","","","","","","","","","","","","","","feedback_test","","","","","","","","","",""
"717","","j","psychophysics","117","304372","0.0-7.0-1.0-4.0-0.0-0.5","3","4","4","3","3","4","3","3","4","4","5","4","5","4","4","4","5","4","4","5","1","2","1","1","2","2","1","2","1","0","1","0","0","1","1","0","0","0","0","1","1","0","1","0","5","1","5","2","2","4","4","5","1","1","634800368890413056","陈","266","","","","nonmatch","","","","","","","","","","","","","","key","j","16.643598039215657","799.9999682108573","445.8333156175091","j","true","nonmatch","img/hexagon.png","方形","六边","ALT1","formal_ALT1_2","","","","","","","","","",""
"null","<span style='color:GreenYellow; font-size: 70px;'>正确! </span>","null","html-keyboard-response","118","304876","0.0-7.0-1.0-4.0-0.0-1.5","3","4","4","3","3","4","3","3","4","4","5","4","5","4","4","4","5","4","4","5","1","2","1","1","2","2","1","2","1","0","1","0","0","1","1","0","0","0","0","1","1","0","1","0","5","1","5","2","2","4","4","5","1","1","634800368890413056","陈","266","","","","","","","","","","","","","","","","","","","","","","","","","","","","","","feedback_test","","","","","","","","","",""
"648","","f","psychophysics","119","306525","0.0-7.0-1.0-4.0-0.0-0.6","3","4","4","3","3","4","3","3","4","4","5","4","5","4","4","4","5","4","4","5","1","2","1","1","2","2","1","2","1","0","1","0","0","1","1","0","0","0","0","1","1","0","1","0","5","1","5","2","2","4","4","5","1","1","634800368890413056","陈","266","","","","match","","","","","","","","","","","","","","key","f","16.653806122448724","799.9999682108573","445.8333156175091","f","true","match","img/hexagon.png","六边","六边","ALT1","formal_ALT1_2","","","","","","","","","",""
"null","<span style='color:GreenYellow; font-size: 70px;'>正确! </span>","null","html-keyboard-response","120","307026","0.0-7.0-1.0-4.0-0.0-1.6","3","4","4","3","3","4","3","3","4","4","5","4","5","4","4","4","5","4","4","5","1","2","1","1","2","2","1","2","1","0","1","0","0","1","1","0","0","0","0","1","1","0","1","0","5","1","5","2","2","4","4","5","1","1","634800368890413056","陈","266","","","","","","","","","","","","","","","","","","","","","","","","","","","","","","feedback_test","","","","","","","","","",""
"656","","j","psychophysics","121","308684","0.0-7.0-1.0-4.0-0.0-0.7","3","4","4","3","3","4","3","3","4","4","5","4","5","4","4","4","5","4","4","5","1","2","1","1","2","2","1","2","1","0","1","0","0","1","1","0","0","0","0","1","1","0","1","0","5","1","5","2","2","4","4","5","1","1","634800368890413056","陈","266","","","","nonmatch","","","","","","","","","","","","","","key","j","16.64935714285702","799.9999682108573","445.8333156175091","j","true","nonmatch","img/hexagon.png","圆形","六边","ALT1","formal_ALT1_2","","","","","","","","","",""
"null","<span style='color:GreenYellow; font-size: 70px;'>正确! </span>","null","html-keyboard-response","122","309186","0.0-7.0-1.0-4.0-0.0-1.7","3","4","4","3","3","4","3","3","4","4","5","4","5","4","4","4","5","4","4","5","1","2","1","1","2","2","1","2","1","0","1","0","0","1","1","0","0","0","0","1","1","0","1","0","5","1","5","2","2","4","4","5","1","1","634800368890413056","陈","266","","","","","","","","","","","","","","","","","","","","","","","","","","","","","","feedback_test","","","","","","","","","",""
"636","","f","psychophysics","123","310823","0.0-7.0-1.0-4.0-0.0-0.8","3","4","4","3","3","4","3","3","4","4","5","4","5","4","4","4","5","4","4","5","1","2","1","1","2","2","1","2","1","0","1","0","0","1","1","0","0","0","0","1","1","0","1","0","5","1","5","2","2","4","4","5","1","1","634800368890413056","陈","266","","","","match","","","","","","","","","","","","","","key","f","16.653164948453796","799.9999682108573","445.8333156175091","f","true","match","img/square.png","方形","方形","ALT1","formal_ALT1_2","","","","","","","","","",""
"null","<span style='color:GreenYellow; font-size: 70px;'>正确! </span>","null","html-keyboard-response","124","311326","0.0-7.0-1.0-4.0-0.0-1.8","3","4","4","3","3","4","3","3","4","4","5","4","5","4","4","4","5","4","4","5","1","2","1","1","2","2","1","2","1","0","1","0","0","1","1","0","0","0","0","1","1","0","1","0","5","1","5","2","2","4","4","5","1","1","634800368890413056","陈","266","","","","","","","","","","","","","","","","","","","","","","","","","","","","","","feedback_test","","","","","","","","","",""
"681","","j","psychophysics","125","313008","0.0-7.0-1.0-4.0-0.0-0.9","3","4","4","3","3","4","3","3","4","4","5","4","5","4","4","4","5","4","4","5","1","2","1","1","2","2","1","2","1","0","1","0","0","1","1","0","0","0","0","1","1","0","1","0","5","1","5","2","2","4","4","5","1","1","634800368890413056","陈","266","","","","nonmatch","","","","","","","","","","","","","","key","j","16.654220000000205","799.9999682108573","445.8333156175091","j","true","nonmatch","img/square.png","圆形","方形","ALT1","formal_ALT1_2","","","","","","","","","",""
"null","<span style='color:GreenYellow; font-size: 70px;'>正确! </span>","null","html-keyboard-response","126","313510","0.0-7.0-1.0-4.0-0.0-1.9","3","4","4","3","3","4","3","3","4","4","5","4","5","4","4","4","5","4","4","5","1","2","1","1","2","2","1","2","1","0","1","0","0","1","1","0","0","0","0","1","1","0","1","0","5","1","5","2","2","4","4","5","1","1","634800368890413056","陈","266","","","","","","","","","","","","","","","","","","","","","","","","","","","","","","feedback_test","","","","","","","","","",""
"771","","j","psychophysics","127","315284","0.0-7.0-1.0-4.0-0.0-0.10","3","4","4","3","3","4","3","3","4","4","5","4","5","4","4","4","5","4","4","5","1","2","1","1","2","2","1","2","1","0","1","0","0","1","1","0","0","0","0","1","1","0","1","0","5","1","5","2","2","4","4","5","1","1","634800368890413056","陈","266","","","","nonmatch","","","","","","","","","","","","","","key","j","16.648161904762187","799.9999682108573","445.8333156175091","j","true","nonmatch","img/hexagon.png","梯形","六边","ALT1","formal_ALT1_2","","","","","","","","","",""
"null","<span style='color:GreenYellow; font-size: 70px;'>正确! </span>","null","html-keyboard-response","128","315785","0.0-7.0-1.0-4.0-0.0-1.10","3","4","4","3","3","4","3","3","4","4","5","4","5","4","4","4","5","4","4","5","1","2","1","1","2","2","1","2","1","0","1","0","0","1","1","0","0","0","0","1","1","0","1","0","5","1","5","2","2","4","4","5","1","1","634800368890413056","陈","266","","","","","","","","","","","","","","","","","","","","","","","","","","","","","","feedback_test","","","","","","","","","",""
"709","","f","psychophysics","129","317497","0.0-7.0-1.0-4.0-0.0-0.11","3","4","4","3","3","4","3","3","4","4","5","4","5","4","4","4","5","4","4","5","1","2","1","1","2","2","1","2","1","0","1","0","0","1","1","0","0","0","0","1","1","0","1","0","5","1","5","2","2","4","4","5","1","1","634800368890413056","陈","266","","","","match","","","","","","","","","","","","","","key","f","16.653352941176397","799.9999682108573","445.8333156175091","f","true","match","img/trapezoid.png","梯形","梯形","ALT1","formal_ALT1_2","","","","","","","","","",""
"null","<span style='color:GreenYellow; font-size: 70px;'>正确! </span>","null","html-keyboard-response","130","317999","0.0-7.0-1.0-4.0-0.0-1.11","3","4","4","3","3","4","3","3","4","4","5","4","5","4","4","4","5","4","4","5","1","2","1","1","2","2","1","2","1","0","1","0","0","1","1","0","0","0","0","1","1","0","1","0","5","1","5","2","2","4","4","5","1","1","634800368890413056","陈","266","","","","","","","","","","","","","","","","","","","","","","","","","","","","","","feedback_test","","","","","","","","","",""
"715","","j","psychophysics","131","319717","0.0-7.0-1.0-4.0-0.0-0.12","3","4","4","3","3","4","3","3","4","4","5","4","5","4","4","4","5","4","4","5","1","2","1","1","2","2","1","2","1","0","1","0","0","1","1","0","0","0","0","1","1","0","1","0","5","1","5","2","2","4","4","5","1","1","634800368890413056","陈","266","","","","nonmatch","","","","","","","","","","","","","","key","j","16.65367647058812","799.9999682108573","445.8333156175091","j","true","nonmatch","img/square.png","梯形","方形","ALT1","formal_ALT1_2","","","","","","","","","",""
"null","<span style='color:GreenYellow; font-size: 70px;'>正确! </span>","null","html-keyboard-response","132","320218","0.0-7.0-1.0-4.0-0.0-1.12","3","4","4","3","3","4","3","3","4","4","5","4","5","4","4","4","5","4","4","5","1","2","1","1","2","2","1","2","1","0","1","0","0","1","1","0","0","0","0","1","1","0","1","0","5","1","5","2","2","4","4","5","1","1","634800368890413056","陈","266","","","","","","","","","","","","","","","","","","","","","","","","","","","","","","feedback_test","","","","","","","","","",""
"790","","j","psychophysics","133","322010","0.0-7.0-1.0-4.0-0.0-0.13","3","4","4","3","3","4","3","3","4","4","5","4","5","4","4","4","5","4","4","5","1","2","1","1","2","2","1","2","1","0","1","0","0","1","1","0","0","0","0","1","1","0","1","0","5","1","5","2","2","4","4","5","1","1","634800368890413056","陈","266","","","","nonmatch","","","","","","","","","","","","","","key","j","16.653551401869095","799.9999682108573","445.8333156175091","j","true","nonmatch","img/square.png","六边","方形","ALT1","formal_ALT1_2","","","","","","","","","",""
"null","<span style='color:GreenYellow; font-size: 70px;'>正确! </span>","null","html-keyboard-response","134","322511","0.0-7.0-1.0-4.0-0.0-1.13","3","4","4","3","3","4","3","3","4","4","5","4","5","4","4","4","5","4","4","5","1","2","1","1","2","2","1","2","1","0","1","0","0","1","1","0","0","0","0","1","1","0","1","0","5","1","5","2","2","4","4","5","1","1","634800368890413056","陈","266","","","","","","","","","","","","","","","","","","","","","","","","","","","","","","feedback_test","","","","","","","","","",""
"698","","f","psychophysics","135","324212","0.0-7.0-1.0-4.0-0.0-0.14","3","4","4","3","3","4","3","3","4","4","5","4","5","4","4","4","5","4","4","5","1","2","1","1","2","2","1","2","1","0","1","0","0","1","1","0","0","0","0","1","1","0","1","0","5","1","5","2","2","4","4","5","1","1","634800368890413056","陈","266","","","","match","","","","","","","","","","","","","","key","f","16.651623762376367","799.9999682108573","445.8333156175091","f","true","match","img/hexagon.png","六边","六边","ALT1","formal_ALT1_2","","","","","","","","","",""
"null","<span style='color:GreenYellow; font-size: 70px;'>正确! </span>","null","html-keyboard-response","136","324715","0.0-7.0-1.0-4.0-0.0-1.14","3","4","4","3","3","4","3","3","4","4","5","4","5","4","4","4","5","4","4","5","1","2","1","1","2","2","1","2","1","0","1","0","0","1","1","0","0","0","0","1","1","0","1","0","5","1","5","2","2","4","4","5","1","1","634800368890413056","陈","266","","","","","","","","","","","","","","","","","","","","","","","","","","","","","","feedback_test","","","","","","","","","",""
"796","","j","psychophysics","137","326513","0.0-7.0-1.0-4.0-0.0-0.15","3","4","4","3","3","4","3","3","4","4","5","4","5","4","4","4","5","4","4","5","1","2","1","1","2","2","1","2","1","0","1","0","0","1","1","0","0","0","0","1","1","0","1","0","5","1","5","2","2","4","4","5","1","1","634800368890413056","陈","266","","","","nonmatch","","","","","","","","","","","","","","key","j","16.6538691588783","799.9999682108573","445.8333156175091","j","true","nonmatch","img/circle.png","六边","圆形","ALT1","formal_ALT1_2","","","","","","","","","",""
"null","<span style='color:GreenYellow; font-size: 70px;'>正确! </span>","null","html-keyboard-response","138","327014","0.0-7.0-1.0-4.0-0.0-1.15","3","4","4","3","3","4","3","3","4","4","5","4","5","4","4","4","5","4","4","5","1","2","1","1","2","2","1","2","1","0","1","0","0","1","1","0","0","0","0","1","1","0","1","0","5","1","5","2","2","4","4","5","1","1","634800368890413056","陈","266","","","","","","","","","","","","","","","","","","","","","","","","","","","","","","feedback_test","","","","","","","","","",""
"626","","j","psychophysics","139","328644","0.0-7.0-1.0-4.0-0.0-0.16","3","4","4","3","3","4","3","3","4","4","5","4","5","4","4","4","5","4","4","5","1","2","1","1","2","2","1","2","1","0","1","0","0","1","1","0","0","0","0","1","1","0","1","0","5","1","5","2","2","4","4","5","1","1","634800368890413056","陈","266","","","","nonmatch","","","","","","","","","","","","","","key","j","16.65369072164944","799.9999682108573","445.8333156175091","j","true","nonmatch","img/trapezoid.png","六边","梯形","ALT1","formal_ALT1_2","","","","","","","","","",""
"null","<span style='color:GreenYellow; font-size: 70px;'>正确! </span>","null","html-keyboard-response","140","329145","0.0-7.0-1.0-4.0-0.0-1.16","3","4","4","3","3","4","3","3","4","4","5","4","5","4","4","4","5","4","4","5","1","2","1","1","2","2","1","2","1","0","1","0","0","1","1","0","0","0","0","1","1","0","1","0","5","1","5","2","2","4","4","5","1","1","634800368890413056","陈","266","","","","","","","","","","","","","","","","","","","","","","","","","","","","","","feedback_test","","","","","","","","","",""
"886","","f","psychophysics","141","331036","0.0-7.0-1.0-4.0-0.0-0.17","3","4","4","3","3","4","3","3","4","4","5","4","5","4","4","4","5","4","4","5","1","2","1","1","2","2","1","2","1","0","1","0","0","1","1","0","0","0","0","1","1","0","1","0","5","1","5","2","2","4","4","5","1","1","634800368890413056","陈","266","","","","match","","","","","","","","","","","","","","key","f","16.65269911504429","799.9999682108573","445.8333156175091","f","true","match","img/trapezoid.png","梯形","梯形","ALT1","formal_ALT1_2","","","","","","","","","",""
"null","<span style='color:GreenYellow; font-size: 70px;'>正确! </span>","null","html-keyboard-response","142","331539","0.0-7.0-1.0-4.0-0.0-1.17","3","4","4","3","3","4","3","3","4","4","5","4","5","4","4","4","5","4","4","5","1","2","1","1","2","2","1","2","1","0","1","0","0","1","1","0","0","0","0","1","1","0","1","0","5","1","5","2","2","4","4","5","1","1","634800368890413056","陈","266","","","","","","","","","","","","","","","","","","","","","","","","","","","","","","feedback_test","","","","","","","","","",""
"662","","f","psychophysics","143","333202","0.0-7.0-1.0-4.0-0.0-0.18","3","4","4","3","3","4","3","3","4","4","5","4","5","4","4","4","5","4","4","5","1","2","1","1","2","2","1","2","1","0","1","0","0","1","1","0","0","0","0","1","1","0","1","0","5","1","5","2","2","4","4","5","1","1","634800368890413056","陈","266","","","","match","","","","","","","","","","","","","","key","f","16.646555555555757","799.9999682108573","445.8333156175091","f","true","match","img/hexagon.png","六边","六边","ALT1","formal_ALT1_2","","","","","","","","","",""
"null","<span style='color:GreenYellow; font-size: 70px;'>正确! </span>","null","html-keyboard-response","144","333703","0.0-7.0-1.0-4.0-0.0-1.18","3","4","4","3","3","4","3","3","4","4","5","4","5","4","4","4","5","4","4","5","1","2","1","1","2","2","1","2","1","0","1","0","0","1","1","0","0","0","0","1","1","0","1","0","5","1","5","2","2","4","4","5","1","1","634800368890413056","陈","266","","","","","","","","","","","","","","","","","","","","","","","","","","","","","","feedback_test","","","","","","","","","",""
"858","","f","psychophysics","145","335565","0.0-7.0-1.0-4.0-0.0-0.19","3","4","4","3","3","4","3","3","4","4","5","4","5","4","4","4","5","4","4","5","1","2","1","1","2","2","1","2","1","0","1","0","0","1","1","0","0","0","0","1","1","0","1","0","5","1","5","2","2","4","4","5","1","1","634800368890413056","陈","266","","","","match","","","","","","","","","","","","","","key","f","16.65426126126093","799.9999682108573","445.8333156175091","f","true","match","img/square.png","方形","方形","ALT1","formal_ALT1_2","","","","","","","","","",""
"null","<span style='color:GreenYellow; font-size: 70px;'>正确! </span>","null","html-keyboard-response","146","336067","0.0-7.0-1.0-4.0-0.0-1.19","3","4","4","3","3","4","3","3","4","4","5","4","5","4","4","4","5","4","4","5","1","2","1","1","2","2","1","2","1","0","1","0","0","1","1","0","0","0","0","1","1","0","1","0","5","1","5","2","2","4","4","5","1","1","634800368890413056","陈","266","","","","","","","","","","","","","","","","","","","","","","","","","","","","","","feedback_test","","","","","","","","","",""
"916","","j","psychophysics","147","337985","0.0-7.0-1.0-4.0-0.0-0.20","3","4","4","3","3","4","3","3","4","4","5","4","5","4","4","4","5","4","4","5","1","2","1","1","2","2","1","2","1","0","1","0","0","1","1","0","0","0","0","1","1","0","1","0","5","1","5","2","2","4","4","5","1","1","634800368890413056","陈","266","","","","nonmatch","","","","","","","","","","","","","","key","j","16.65397368421065","799.9999682108573","445.8333156175091","j","true","nonmatch","img/trapezoid.png","方形","梯形","ALT1","formal_ALT1_2","","","","","","","","","",""
"null","<span style='color:GreenYellow; font-size: 70px;'>正确! </span>","null","html-keyboard-response","148","338499","0.0-7.0-1.0-4.0-0.0-1.20","3","4","4","3","3","4","3","3","4","4","5","4","5","4","4","4","5","4","4","5","1","2","1","1","2","2","1","2","1","0","1","0","0","1","1","0","0","0","0","1","1","0","1","0","5","1","5","2","2","4","4","5","1","1","634800368890413056","陈","266","","","","","","","","","","","","","","","","","","","","","","","","","","","","","","feedback_test","","","","","","","","","",""
"615","","j","psychophysics","149","340115","0.0-7.0-1.0-4.0-0.0-0.21","3","4","4","3","3","4","3","3","4","4","5","4","5","4","4","4","5","4","4","5","1","2","1","1","2","2","1","2","1","0","1","0","0","1","1","0","0","0","0","1","1","0","1","0","5","1","5","2","2","4","4","5","1","1","634800368890413056","陈","266","","","","nonmatch","","","","","","","","","","","","","","key","j","16.65204166666687","799.9999682108573","445.8333156175091","j","true","nonmatch","img/trapezoid.png","圆形","梯形","ALT1","formal_ALT1_2","","","","","","","","","",""
"null","<span style='color:GreenYellow; font-size: 70px;'>正确! </span>","null","html-keyboard-response","150","340616","0.0-7.0-1.0-4.0-0.0-1.21","3","4","4","3","3","4","3","3","4","4","5","4","5","4","4","4","5","4","4","5","1","2","1","1","2","2","1","2","1","0","1","0","0","1","1","0","0","0","0","1","1","0","1","0","5","1","5","2","2","4","4","5","1","1","634800368890413056","陈","266","","","","","","","","","","","","","","","","","","","","","","","","","","","","","","feedback_test","","","","","","","","","",""
"923","","j","psychophysics","151","342542","0.0-7.0-1.0-4.0-0.0-0.22","3","4","4","3","3","4","3","3","4","4","5","4","5","4","4","4","5","4","4","5","1","2","1","1","2","2","1","2","1","0","1","0","0","1","1","0","0","0","0","1","1","0","1","0","5","1","5","2","2","4","4","5","1","1","634800368890413056","陈","266","","","","nonmatch","","","","","","","","","","","","","","key","j","16.65354782608692","799.9999682108573","445.8333156175091","j","true","nonmatch","img/circle.png","梯形","圆形","ALT1","formal_ALT1_2","","","","","","","","","",""
"null","<span style='color:GreenYellow; font-size: 70px;'>正确! </span>","null","html-keyboard-response","152","343045","0.0-7.0-1.0-4.0-0.0-1.22","3","4","4","3","3","4","3","3","4","4","5","4","5","4","4","4","5","4","4","5","1","2","1","1","2","2","1","2","1","0","1","0","0","1","1","0","0","0","0","1","1","0","1","0","5","1","5","2","2","4","4","5","1","1","634800368890413056","陈","266","","","","","","","","","","","","","","","","","","","","","","","","","","","","","","feedback_test","","","","","","","","","",""
"655","","f","psychophysics","153","344702","0.0-7.0-1.0-4.0-0.0-0.23","3","4","4","3","3","4","3","3","4","4","5","4","5","4","4","4","5","4","4","5","1","2","1","1","2","2","1","2","1","0","1","0","0","1","1","0","0","0","0","1","1","0","1","0","5","1","5","2","2","4","4","5","1","1","634800368890413056","陈","266","","","","match","","","","","","","","","","","","","","key","f","16.647561224489902","799.9999682108573","445.8333156175091","f","true","match","img/circle.png","圆形","圆形","ALT1","formal_ALT1_2","","","","","","","","","",""
"null","<span style='color:GreenYellow; font-size: 70px;'>正确! </span>","null","html-keyboard-response","154","345204","0.0-7.0-1.0-4.0-0.0-1.23","3","4","4","3","3","4","3","3","4","4","5","4","5","4","4","4","5","4","4","5","1","2","1","1","2","2","1","2","1","0","1","0","0","1","1","0","0","0","0","1","1","0","1","0","5","1","5","2","2","4","4","5","1","1","634800368890413056","陈","266","","","","","","","","","","","","","","","","","","","","","","","","","","","","","","feedback_test","","","","","","","","","",""
"684","","f","psychophysics","155","346890","0.0-7.0-1.0-4.0-0.0-0.24","3","4","4","3","3","4","3","3","4","4","5","4","5","4","4","4","5","4","4","5","1","2","1","1","2","2","1","2","1","0","1","0","0","1","1","0","0","0","0","1","1","0","1","0","5","1","5","2","2","4","4","5","1","1","634800368890413056","陈","266","","","","match","","","","","","","","","","","","","","key","f","16.65341000000015","799.9999682108573","445.8333156175091","f","true","match","img/square.png","方形","方形","ALT1","formal_ALT1_2","","","","","","","","","",""
"null","<span style='color:GreenYellow; font-size: 70px;'>正确! </span>","null","html-keyboard-response","156","347391","0.0-7.0-1.0-4.0-0.0-1.24","3","4","4","3","3","4","3","3","4","4","5","4","5","4","4","4","5","4","4","5","1","2","1","1","2","2","1","2","1","0","1","0","0","1","1","0","0","0","0","1","1","0","1","0","5","1","5","2","2","4","4","5","1","1","634800368890413056","陈","266","","","","","","","","","","","","","","","","","","","","","","","","","","","","","","feedback_test","","","","","","","","","",""
"772","","f","psychophysics","157","349164","0.0-7.0-1.0-4.0-0.0-0.25","3","4","4","3","3","4","3","3","4","4","5","4","5","4","4","4","5","4","4","5","1","2","1","1","2","2","1","2","1","0","1","0","0","1","1","0","0","0","0","1","1","0","1","0","5","1","5","2","2","4","4","5","1","1","634800368890413056","陈","266","","","","match","","","","","","","","","","","","","","key","f","16.654714285714242","799.9999682108573","445.8333156175091","f","true","match","img/trapezoid.png","梯形","梯形","ALT1","formal_ALT1_2","","","","","","","","","",""
"null","<span style='color:GreenYellow; font-size: 70px;'>正确! </span>","null","html-keyboard-response","158","349669","0.0-7.0-1.0-4.0-0.0-1.25","3","4","4","3","3","4","3","3","4","4","5","4","5","4","4","4","5","4","4","5","1","2","1","1","2","2","1","2","1","0","1","0","0","1","1","0","0","0","0","1","1","0","1","0","5","1","5","2","2","4","4","5","1","1","634800368890413056","陈","266","","","","","","","","","","","","","","","","","","","","","","","","","","","","","","feedback_test","","","","","","","","","",""
"766","","j","psychophysics","159","351437","0.0-7.0-1.0-4.0-0.0-0.26","3","4","4","3","3","4","3","3","4","4","5","4","5","4","4","4","5","4","4","5","1","2","1","1","2","2","1","2","1","0","1","0","0","1","1","0","0","0","0","1","1","0","1","0","5","1","5","2","2","4","4","5","1","1","634800368890413056","陈","266","","","","nonmatch","","","","","","","","","","","","","","key","j","16.653485714286077","799.9999682108573","445.8333156175091","j","true","nonmatch","img/trapezoid.png","圆形","梯形","ALT1","formal_ALT1_2","","","","","","","","","",""
"null","<span style='color:GreenYellow; font-size: 70px;'>正确! </span>","null","html-keyboard-response","160","351938","0.0-7.0-1.0-4.0-0.0-1.26","3","4","4","3","3","4","3","3","4","4","5","4","5","4","4","4","5","4","4","5","1","2","1","1","2","2","1","2","1","0","1","0","0","1","1","0","0","0","0","1","1","0","1","0","5","1","5","2","2","4","4","5","1","1","634800368890413056","陈","266","","","","","","","","","","","","","","","","","","","","","","","","","","","","","","feedback_test","","","","","","","","","",""
"628","","f","psychophysics","161","353569","0.0-7.0-1.0-4.0-0.0-0.27","3","4","4","3","3","4","3","3","4","4","5","4","5","4","4","4","5","4","4","5","1","2","1","1","2","2","1","2","1","0","1","0","0","1","1","0","0","0","0","1","1","0","1","0","5","1","5","2","2","4","4","5","1","1","634800368890413056","陈","266","","","","match","","","","","","","","","","","","","","key","f","16.650680412370928","799.9999682108573","445.8333156175091","f","true","match","img/square.png","方形","方形","ALT1","formal_ALT1_2","","","","","","","","","",""
"null","<span style='color:GreenYellow; font-size: 70px;'>正确! </span>","null","html-keyboard-response","162","354070","0.0-7.0-1.0-4.0-0.0-1.27","3","4","4","3","3","4","3","3","4","4","5","4","5","4","4","4","5","4","4","5","1","2","1","1","2","2","1","2","1","0","1","0","0","1","1","0","0","0","0","1","1","0","1","0","5","1","5","2","2","4","4","5","1","1","634800368890413056","陈","266","","","","","","","","","","","","","","","","","","","","","","","","","","","","","","feedback_test","","","","","","","","","",""
"744","","j","psychophysics","163","355816","0.0-7.0-1.0-4.0-0.0-0.28","3","4","4","3","3","4","3","3","4","4","5","4","5","4","4","4","5","4","4","5","1","2","1","1","2","2","1","2","1","0","1","0","0","1","1","0","0","0","0","1","1","0","1","0","5","1","5","2","2","4","4","5","1","1","634800368890413056","陈","266","","","","nonmatch","","","","","","","","","","","","","","key","j","16.64825000000005","799.9999682108573","445.8333156175091","j","true","nonmatch","img/circle.png","六边","圆形","ALT1","formal_ALT1_2","","","","","","","","","",""
"null","<span style='color:GreenYellow; font-size: 70px;'>正确! </span>","null","html-keyboard-response","164","356317","0.0-7.0-1.0-4.0-0.0-1.28","3","4","4","3","3","4","3","3","4","4","5","4","5","4","4","4","5","4","4","5","1","2","1","1","2","2","1","2","1","0","1","0","0","1","1","0","0","0","0","1","1","0","1","0","5","1","5","2","2","4","4","5","1","1","634800368890413056","陈","266","","","","","","","","","","","","","","","","","","","","","","","","","","","","","","feedback_test","","","","","","","","","",""
"688","","j","psychophysics","165","358006","0.0-7.0-1.0-4.0-0.0-0.29","3","4","4","3","3","4","3","3","4","4","5","4","5","4","4","4","5","4","4","5","1","2","1","1","2","2","1","2","1","0","1","0","0","1","1","0","0","0","0","1","1","0","1","0","5","1","5","2","2","4","4","5","1","1","634800368890413056","陈","266","","","","nonmatch","","","","","","","","","","","","","","key","j","16.6488400000002","799.9999682108573","445.8333156175091","j","true","nonmatch","img/trapezoid.png","方形","梯形","ALT1","formal_ALT1_2","","","","","","","","","",""
"null","<span style='color:GreenYellow; font-size: 70px;'>正确! </span>","null","html-keyboard-response","166","358508","0.0-7.0-1.0-4.0-0.0-1.29","3","4","4","3","3","4","3","3","4","4","5","4","5","4","4","4","5","4","4","5","1","2","1","1","2","2","1","2","1","0","1","0","0","1","1","0","0","0","0","1","1","0","1","0","5","1","5","2","2","4","4","5","1","1","634800368890413056","陈","266","","","","","","","","","","","","","","","","","","","","","","","","","","","","","","feedback_test","","","","","","","","","",""
"723","","f","psychophysics","167","360233","0.0-7.0-1.0-4.0-0.0-0.30","3","4","4","3","3","4","3","3","4","4","5","4","5","4","4","4","5","4","4","5","1","2","1","1","2","2","1","2","1","0","1","0","0","1","1","0","0","0","0","1","1","0","1","0","5","1","5","2","2","4","4","5","1","1","634800368890413056","陈","266","","","","match","","","","","","","","","","","","","","key","f","16.653323529411438","799.9999682108573","445.8333156175091","f","true","match","img/trapezoid.png","梯形","梯形","ALT1","formal_ALT1_2","","","","","","","","","",""
"null","<span style='color:GreenYellow; font-size: 70px;'>正确! </span>","null","html-keyboard-response","168","360742","0.0-7.0-1.0-4.0-0.0-1.30","3","4","4","3","3","4","3","3","4","4","5","4","5","4","4","4","5","4","4","5","1","2","1","1","2","2","1","2","1","0","1","0","0","1","1","0","0","0","0","1","1","0","1","0","5","1","5","2","2","4","4","5","1","1","634800368890413056","陈","266","","","","","","","","","","","","","","","","","","","","","","","","","","","","","","feedback_test","","","","","","","","","",""
"768","","j","psychophysics","169","362514","0.0-7.0-1.0-4.0-0.0-0.31","3","4","4","3","3","4","3","3","4","4","5","4","5","4","4","4","5","4","4","5","1","2","1","1","2","2","1","2","1","0","1","0","0","1","1","0","0","0","0","1","1","0","1","0","5","1","5","2","2","4","4","5","1","1","634800368890413056","陈","266","","","","nonmatch","","","","","","","","","","","","","","key","j","16.653400000000172","799.9999682108573","445.8333156175091","j","true","nonmatch","img/square.png","梯形","方形","ALT1","formal_ALT1_2","","","","","","","","","",""
"null","<span style='color:GreenYellow; font-size: 70px;'>正确! </span>","null","html-keyboard-response","170","363014","0.0-7.0-1.0-4.0-0.0-1.31","3","4","4","3","3","4","3","3","4","4","5","4","5","4","4","4","5","4","4","5","1","2","1","1","2","2","1","2","1","0","1","0","0","1","1","0","0","0","0","1","1","0","1","0","5","1","5","2","2","4","4","5","1","1","634800368890413056","陈","266","","","","","","","","","","","","","","","","","","","","","","","","","","","","","","feedback_test","","","","","","","","","",""
"664","","j","psychophysics","171","364680","0.0-7.0-1.0-4.0-0.0-0.32","3","4","4","3","3","4","3","3","4","4","5","4","5","4","4","4","5","4","4","5","1","2","1","1","2","2","1","2","1","0","1","0","0","1","1","0","0","0","0","1","1","0","1","0","5","1","5","2","2","4","4","5","1","1","634800368890413056","陈","266","","","","nonmatch","","","","","","","","","","","","","","key","j","16.652676767676674","799.9999682108573","445.8333156175091","j","true","nonmatch","img/circle.png","梯形","圆形","ALT1","formal_ALT1_2","","","","","","","","","",""
"null","<span style='color:GreenYellow; font-size: 70px;'>正确! </span>","null","html-keyboard-response","172","365181","0.0-7.0-1.0-4.0-0.0-1.32","3","4","4","3","3","4","3","3","4","4","5","4","5","4","4","4","5","4","4","5","1","2","1","1","2","2","1","2","1","0","1","0","0","1","1","0","0","0","0","1","1","0","1","0","5","1","5","2","2","4","4","5","1","1","634800368890413056","陈","266","","","","","","","","","","","","","","","","","","","","","","","","","","","","","","feedback_test","","","","","","","","","",""
"848","","f","psychophysics","173","367031","0.0-7.0-1.0-4.0-0.0-0.33","3","4","4","3","3","4","3","3","4","4","5","4","5","4","4","4","5","4","4","5","1","2","1","1","2","2","1","2","1","0","1","0","0","1","1","0","0","0","0","1","1","0","1","0","5","1","5","2","2","4","4","5","1","1","634800368890413056","陈","266","","","","match","","","","","","","","","","","","","","key","f","16.654063636363507","799.9999682108573","445.8333156175091","f","true","match","img/circle.png","圆形","圆形","ALT1","formal_ALT1_2","","","","","","","","","",""
"null","<span style='color:GreenYellow; font-size: 70px;'>正确! </span>","null","html-keyboard-response","174","367533","0.0-7.0-1.0-4.0-0.0-1.33","3","4","4","3","3","4","3","3","4","4","5","4","5","4","4","4","5","4","4","5","1","2","1","1","2","2","1","2","1","0","1","0","0","1","1","0","0","0","0","1","1","0","1","0","5","1","5","2","2","4","4","5","1","1","634800368890413056","陈","266","","","","","","","","","","","","","","","","","","","","","","","","","","","","","","feedback_test","","","","","","","","","",""
"858","","f","psychophysics","175","369393","0.0-7.0-1.0-4.0-0.0-0.34","3","4","4","3","3","4","3","3","4","4","5","4","5","4","4","4","5","4","4","5","1","2","1","1","2","2","1","2","1","0","1","0","0","1","1","0","0","0","0","1","1","0","1","0","5","1","5","2","2","4","4","5","1","1","634800368890413056","陈","266","","","","match","","","","","","","","","","","","","","key","f","16.647845454545248","799.9999682108573","445.8333156175091","f","true","match","img/trapezoid.png","梯形","梯形","ALT1","formal_ALT1_2","","","","","","","","","",""
"null","<span style='color:GreenYellow; font-size: 70px;'>正确! </span>","null","html-keyboard-response","176","369896","0.0-7.0-1.0-4.0-0.0-1.34","3","4","4","3","3","4","3","3","4","4","5","4","5","4","4","4","5","4","4","5","1","2","1","1","2","2","1","2","1","0","1","0","0","1","1","0","0","0","0","1","1","0","1","0","5","1","5","2","2","4","4","5","1","1","634800368890413056","陈","266","","","","","","","","","","","","","","","","","","","","","","","","","","","","","","feedback_test","","","","","","","","","",""
"680","","j","psychophysics","177","371577","0.0-7.0-1.0-4.0-0.0-0.35","3","4","4","3","3","4","3","3","4","4","5","4","5","4","4","4","5","4","4","5","1","2","1","1","2","2","1","2","1","0","1","0","0","1","1","0","0","0","0","1","1","0","1","0","5","1","5","2","2","4","4","5","1","1","634800368890413056","陈","266","","","","nonmatch","","","","","","","","","","","","","","key","j","16.653309999999475","799.9999682108573","445.8333156175091","j","true","nonmatch","img/hexagon.png","方形","六边","ALT1","formal_ALT1_2","","","","","","","","","",""
"null","<span style='color:GreenYellow; font-size: 70px;'>正确! </span>","null","html-keyboard-response","178","372082","0.0-7.0-1.0-4.0-0.0-1.35","3","4","4","3","3","4","3","3","4","4","5","4","5","4","4","4","5","4","4","5","1","2","1","1","2","2","1","2","1","0","1","0","0","1","1","0","0","0","0","1","1","0","1","0","5","1","5","2","2","4","4","5","1","1","634800368890413056","陈","266","","","","","","","","","","","","","","","","","","","","","","","","","","","","","","feedback_test","","","","","","","","","",""
"758","","j","psychophysics","179","373842","0.0-7.0-1.0-4.0-0.0-0.36","3","4","4","3","3","4","3","3","4","4","5","4","5","4","4","4","5","4","4","5","1","2","1","1","2","2","1","2","1","0","1","0","0","1","1","0","0","0","0","1","1","0","1","0","5","1","5","2","2","4","4","5","1","1","634800368890413056","陈","266","","","","nonmatch","","","","","","","","","","","","","","key","j","16.653221153846133","799.9999682108573","445.8333156175091","j","true","nonmatch","img/hexagon.png","圆形","六边","ALT1","formal_ALT1_2","","","","","","","","","",""
"null","<span style='color:GreenYellow; font-size: 70px;'>正确! </span>","null","html-keyboard-response","180","374343","0.0-7.0-1.0-4.0-0.0-1.36","3","4","4","3","3","4","3","3","4","4","5","4","5","4","4","4","5","4","4","5","1","2","1","1","2","2","1","2","1","0","1","0","0","1","1","0","0","0","0","1","1","0","1","0","5","1","5","2","2","4","4","5","1","1","634800368890413056","陈","266","","","","","","","","","","","","","","","","","","","","","","","","","","","","","","feedback_test","","","","","","","","","",""
