"rt","stimulus","response","trial_type","trial_index","time_elapsed","internal_node_id","ses_1","ses_2","ses_3","ses_4","ses_5","ses_6","ses_7","ses_8","ses_9","ses_10","coreself_1","coreself_2","coreself_3","coreself_4","coreself_5","coreself_6","coreself_7","coreself_8","coreself_9","coreself_10","SGPS_1","SGPS_2","SGPS_3","SGPS_4","SGPS_5","SGPS_6","SGPS_7","SGPS_8","SGPS_9","NPI1","NPI2","NPI3","NPI4","NPI5","NPI6","NPI7","NPI8","NPI9","NPI10","NPI11","NPI12","NPI13","NPI14","NPI15","hsns_1","hsns_2","hsns_3","hsns_4","hsns_5","hsns_6","hsns_7","hsns_8","hsns_9","hsns_10","subj_idx","friend_name","ParticipantID","value","success","user_agent","responses","item_order","radio_event_ids","radio_event_times","key_event_times","mouse_event_times","straightlining","zigzagging","honeypot","timeout","failed_images","failed_audio","failed_video","version_attrib2","version_target2","correct","IAT","screen_id","task_id","RT","condition","word","varname","summary","version_attrib","version_target","time_stamp","view_history","response_type","key_press","avg_frame_time","center_x","center_y","correct_response","identity","Image","question_order"
"20130","
   <p><div style = ""color: white;font-size:25px;"">您好，欢迎参加本次实验。</div> </p>
   <p><div style = ""color: white;font-size:25px;"">为充分保障您的权利，请确保您已经知晓并同意《参与实验同意书》以及《数据公开知情同意书》。</div></p>
   <p><div style = ""color: white;font-size:25px;"">如果您未见过上述内容，请咨询实验员。</div></p>
   <p><div style = ""color: white;font-size:25px;"">如果您选择继续实验，则表示您已经清楚两份知情同意书的内容并同意。</div></p>
   <p><div style = ""color: red;font-size:30px;"">请确保您记得day0的实验编号，您将在本次实验输入该编号，若您忘记，请咨询实验员后作答。</div></p>
   <p> <div style = ""color: green;font-size:25px;""><按空格键至下页></div> </p>
   "," ","html-keyboard-response","0","20138","0.0-0.0","4","3","4","3","3","4","3","1","4","4","4","4","5","4","4","5","4","5","4","4","4","5","4","4","1","3","4","5","4","1","0","1","1","0","1","0","1","0","1","1","0","1","0","1","5","2","4","1","4","2","4","5","5","4","631124847648309248","赵","566","","","","","","","","","","","","","","","","","","","","","","","","","","","","","","","","","","","","","","","",""
"","","","call-function","1","20144","0.0-1.0-0.0","4","3","4","3","3","4","3","1","4","4","4","4","5","4","4","5","4","5","4","4","4","5","4","4","1","3","4","5","4","1","0","1","1","0","1","0","1","0","1","1","0","1","0","1","5","2","4","1","4","2","4","5","5","4","631124847648309248","赵","566","","","","","","","","","","","","","","","","","","","","","","","","","","","","","","","","","","","","","","","",""
"12759","","{""friend_name"":""赵"",""ParticipantID"":""566""}","survey-html-form","2","32908","0.0-1.0-1.0","4","3","4","3","3","4","3","1","4","4","4","4","5","4","4","5","4","5","4","4","4","5","4","4","1","3","4","5","4","1","0","1","1","0","1","0","1","0","1","1","0","1","0","1","5","2","4","1","4","2","4","5","5","4","631124847648309248","赵","566","","","","","","","","","","","","","","","","","","","","","","","","","","","","","","","","","","","","","","","",""
"","","","fullscreen","3","34898","0.0-2.0","4","3","4","3","3","4","3","1","4","4","4","4","5","4","4","5","4","5","4","4","4","5","4","4","1","3","4","5","4","1","0","1","1","0","1","0","1","0","1","1","0","1","0","1","5","2","4","1","4","2","4","5","5","4","631124847648309248","赵","566","","true","{}","","","","","","","","","","","","","","","","","","","","","","","","","","","","","","","","","","","","",""
"41440.700000047684","","{""Q01"":""4"",""Q02"":""3"",""Q03"":""4"",""Q04"":""3"",""Q05"":""3"",""Q06"":""4"",""Q07"":""3"",""Q08"":""1"",""Q09"":""4"",""Q10"":""4""}","survey-template","4","76349","0.0-3.0","4","3","4","3","3","4","3","1","4","4","4","4","5","4","4","5","4","5","4","4","4","5","4","4","1","3","4","5","4","1","0","1","1","0","1","0","1","0","1","1","0","1","0","1","5","2","4","1","4","2","4","5","5","4","631124847648309248","赵","566","","","","{""Q01"":""4"",""Q02"":""3"",""Q03"":""4"",""Q04"":""3"",""Q05"":""3"",""Q06"":""4"",""Q07"":""3"",""Q08"":""1"",""Q09"":""4"",""Q10"":""4""}","[0,1,2,3,4,5,6,7,8,9]","[""Q01"",""Q02"",""Q03"",""Q04"",""Q05"",""Q05"",""Q05"",""Q06"",""Q07"",""Q08"",""Q09"",""Q09"",""Q09"",""Q10""]","[19318.700000047684,20905,24534.099999904633,26879.200000047684,29198.599999904633,29805.799999952316,31879.39999985695,33295.5,34734.200000047684,36038.299999952316,37565.89999985695,38462.39999985695,38494.89999985695,39310.200000047684]","[]","[18830.700000047684,19318.700000047684,20487.099999904633,20905,23870.200000047684,24133.799999952316,24150,24534.099999904633,26518.299999952316,26879.200000047684,28302.099999904633,28317.799999952316,29198.599999904633,29805.799999952316,31558.200000047684,31879.39999985695,33295.5,34734.200000047684,36038.299999952316,37565.89999985695,38462.39999985695,38494.89999985695,39310.200000047684,41439.5]","0.3","0.5555555555555556","0","","","","","","","","","","","","","","","","","","","","","","","","","","","",""
"19664.099999904633","","{""Q01"":""4"",""Q02"":""4"",""Q03"":""5"",""Q04"":""4"",""Q05"":""4"",""Q06"":""5"",""Q07"":""4"",""Q08"":""5"",""Q09"":""4"",""Q10"":""4""}","survey-template","5","96024","0.0-4.0","4","3","4","3","3","4","3","1","4","4","4","4","5","4","4","5","4","5","4","4","4","5","4","4","1","3","4","5","4","1","0","1","1","0","1","0","1","0","1","1","0","1","0","1","5","2","4","1","4","2","4","5","5","4","631124847648309248","赵","566","","","","{""Q01"":""4"",""Q02"":""4"",""Q03"":""5"",""Q04"":""4"",""Q05"":""4"",""Q06"":""5"",""Q07"":""4"",""Q08"":""5"",""Q09"":""4"",""Q10"":""4""}","[0,1,2,3,4,5,6,7,8,9]","[""Q01"",""Q02"",""Q03"",""Q04"",""Q05"",""Q05"",""Q06"",""Q07"",""Q08"",""Q09"",""Q10""]","[2598.899999856949,3895.199999809265,5303.099999904633,7191.799999952316,8695.599999904633,8711.599999904633,10480,11759,13367.199999809265,15471.099999904633,18294.699999809265]","[]","[2246.899999856949,2598.899999856949,3895.199999809265,5303.099999904633,6480.399999856949,6758.799999952316,7191.799999952316,8695.599999904633,8711.599999904633,10199.799999952316,10480,11759,13367.199999809265,14985.199999809265,15471.099999904633,17367.099999904633,18294.699999809265,19662.799999952316]","0.4","0.2222222222222222","0","","","","","","","","","","","","","","","","","","","","","","","","","","","",""
"","","","preload","6","97218","0.0-5.0","4","3","4","3","3","4","3","1","4","4","4","4","5","4","4","5","4","5","4","4","4","5","4","4","1","3","4","5","4","1","0","1","1","0","1","0","1","0","1","1","0","1","0","1","5","2","4","1","4","2","4","5","5","4","631124847648309248","赵","566","","true","","","","","","","","","","","false","[]","[]","[]","","","","","","","","","","","","","","","","","","","","","","","",""
"40031","
    <h3>词语分类任务</h3>
    <p>在接下来的任务中，你需要对一系列词语进行分类。<p/>
    请先熟悉这些词语，这有利于你完成接下来的任务。</p>
    <table align=""center"" border=1 cellpadding=3 cellspacing=0>
    <tr> <th>类别</th> <th>词语</th> </tr>
    <tr> <td>&emsp;积极&emsp;</td> <td>&emsp;高尚、诚信、善良、君子、廉正、正直&emsp;</td> </tr>
    <tr> <td>&emsp;消极&emsp;</td> <td>&emsp;缺德、卑鄙、不孝、不仁、小人、黑心&emsp;</td> </tr>
    <tr> <td>&emsp;自我&emsp;</td> <td>&emsp;我、我的、自己、自己的、本人、本人的&emsp;</td> </tr>
    <tr> <td>&emsp;他人&emsp;</td> <td>&emsp;他、他的、别人、别人的、他人、他人的&emsp;</td> </tr>
    </table><br/>","0","html-button-response","7","137254","0.0-6.0-1.0-0.0","4","3","4","3","3","4","3","1","4","4","4","4","5","4","4","5","4","5","4","4","4","5","4","4","1","3","4","5","4","1","0","1","1","0","1","0","1","0","1","1","0","1","0","1","5","2","4","1","4","2","4","5","5","4","631124847648309248","赵","566","","","","","","","","","","","","","","","","","1","2","","","","","","","","","","","","","","","","","","","","","",""
"47588","
    <div class=""tag-bottom""><p>
    —— 任务1：对“他人”词和“自我”词分类 ——<p/>
    不同词语会出现在屏幕中央，类别标签将始终显示在屏幕上方<p/>   
    <span style=""color:#FFD866""><b>请根据上方标签的提示，尽可能正确并且快速地做出按键反应</b></span><p/>
    当按键错误时屏幕中会出现<span style=""color:red""> X </span>，需要按另一个键纠正才能继续<br/><p/>
    请把双手食指分别放在键盘的“E”键和“I”键上<p/>
    按<空格键>开始
    </p></div>"," ","html-keyboard-response","8","184847","0.0-6.0-1.0-1.0","4","3","4","3","3","4","3","1","4","4","4","4","5","4","4","5","4","5","4","4","4","5","4","4","1","3","4","5","4","1","0","1","1","0","1","0","1","0","1","1","0","1","0","1","5","2","4","1","4","2","4","5","5","4","631124847648309248","赵","566","","","","","","","","","","","","","","","","","","","","","","","","","","","","","","","","","","","","","","","",""
"null","","null","html-keyboard-response","9","185104","0.0-6.0-1.0-2.0-0.0","4","3","4","3","3","4","3","1","4","4","4","4","5","4","4","5","4","5","4","4","4","5","4","4","1","3","4","5","4","1","0","1","1","0","1","0","1","0","1","1","0","1","0","1","5","2","4","1","4","2","4","5","5","4","631124847648309248","赵","566","","","","","","","","","","","","","","","","","","","","","","","","","","","","","","","","","","","","","","","",""
"839","<p style=""color:rgb(150, 250, 100); font-size: 35px;"">我的</p>","i","categorize-html","10","185956","0.0-6.0-1.0-2.0-1.0","4","3","4","3","3","4","3","1","4","4","4","4","5","4","4","5","4","5","4","4","4","5","4","4","1","3","4","5","4","1","0","1","1","0","1","0","1","0","1","1","0","1","0","1","5","2","4","1","4","2","4","5","5","4","631124847648309248","赵","566","","","","","","","","","","","","","","","","","","","true","11","1","moral","839","self","我的","","","","","","","","","","","","","","",""
"null","","null","html-keyboard-response","11","186211","0.0-6.0-1.0-2.0-0.1","4","3","4","3","3","4","3","1","4","4","4","4","5","4","4","5","4","5","4","4","4","5","4","4","1","3","4","5","4","1","0","1","1","0","1","0","1","0","1","1","0","1","0","1","5","2","4","1","4","2","4","5","5","4","631124847648309248","赵","566","","","","","","","","","","","","","","","","","","","","","","","","","","","","","","","","","","","","","","","",""
"487","<p style=""color:rgb(150, 250, 100); font-size: 35px;"">本人</p>","i","categorize-html","12","186705","0.0-6.0-1.0-2.0-1.1","4","3","4","3","3","4","3","1","4","4","4","4","5","4","4","5","4","5","4","4","4","5","4","4","1","3","4","5","4","1","0","1","1","0","1","0","1","0","1","1","0","1","0","1","5","2","4","1","4","2","4","5","5","4","631124847648309248","赵","566","","","","","","","","","","","","","","","","","","","true","11","1","moral","487","self","本人","","","","","","","","","","","","","","",""
"null","","null","html-keyboard-response","13","186957","0.0-6.0-1.0-2.0-0.2","4","3","4","3","3","4","3","1","4","4","4","4","5","4","4","5","4","5","4","4","4","5","4","4","1","3","4","5","4","1","0","1","1","0","1","0","1","0","1","1","0","1","0","1","5","2","4","1","4","2","4","5","5","4","631124847648309248","赵","566","","","","","","","","","","","","","","","","","","","","","","","","","","","","","","","","","","","","","","","",""
"586","<p style=""color:rgb(150, 250, 100); font-size: 35px;"">别人</p>","e","categorize-html","14","187551","0.0-6.0-1.0-2.0-1.2","4","3","4","3","3","4","3","1","4","4","4","4","5","4","4","5","4","5","4","4","4","5","4","4","1","3","4","5","4","1","0","1","1","0","1","0","1","0","1","1","0","1","0","1","5","2","4","1","4","2","4","5","5","4","631124847648309248","赵","566","","","","","","","","","","","","","","","","","","","true","11","1","moral","586","other","别人","","","","","","","","","","","","","","",""
"null","","null","html-keyboard-response","15","187802","0.0-6.0-1.0-2.0-0.3","4","3","4","3","3","4","3","1","4","4","4","4","5","4","4","5","4","5","4","4","4","5","4","4","1","3","4","5","4","1","0","1","1","0","1","0","1","0","1","1","0","1","0","1","5","2","4","1","4","2","4","5","5","4","631124847648309248","赵","566","","","","","","","","","","","","","","","","","","","","","","","","","","","","","","","","","","","","","","","",""
"443","<p style=""color:rgb(150, 250, 100); font-size: 35px;"">自己</p>","i","categorize-html","16","188252","0.0-6.0-1.0-2.0-1.3","4","3","4","3","3","4","3","1","4","4","4","4","5","4","4","5","4","5","4","4","4","5","4","4","1","3","4","5","4","1","0","1","1","0","1","0","1","0","1","1","0","1","0","1","5","2","4","1","4","2","4","5","5","4","631124847648309248","赵","566","","","","","","","","","","","","","","","","","","","true","11","1","moral","443","self","自己","","","","","","","","","","","","","","",""
"null","","null","html-keyboard-response","17","188506","0.0-6.0-1.0-2.0-0.4","4","3","4","3","3","4","3","1","4","4","4","4","5","4","4","5","4","5","4","4","4","5","4","4","1","3","4","5","4","1","0","1","1","0","1","0","1","0","1","1","0","1","0","1","5","2","4","1","4","2","4","5","5","4","631124847648309248","赵","566","","","","","","","","","","","","","","","","","","","","","","","","","","","","","","","","","","","","","","","",""
"541","<p style=""color:rgb(150, 250, 100); font-size: 35px;"">别人的</p>","e","categorize-html","18","189051","0.0-6.0-1.0-2.0-1.4","4","3","4","3","3","4","3","1","4","4","4","4","5","4","4","5","4","5","4","4","4","5","4","4","1","3","4","5","4","1","0","1","1","0","1","0","1","0","1","1","0","1","0","1","5","2","4","1","4","2","4","5","5","4","631124847648309248","赵","566","","","","","","","","","","","","","","","","","","","true","11","1","moral","541","other","别人的","","","","","","","","","","","","","","",""
"null","","null","html-keyboard-response","19","189304","0.0-6.0-1.0-2.0-0.5","4","3","4","3","3","4","3","1","4","4","4","4","5","4","4","5","4","5","4","4","4","5","4","4","1","3","4","5","4","1","0","1","1","0","1","0","1","0","1","1","0","1","0","1","5","2","4","1","4","2","4","5","5","4","631124847648309248","赵","566","","","","","","","","","","","","","","","","","","","","","","","","","","","","","","","","","","","","","","","",""
"569","<p style=""color:rgb(150, 250, 100); font-size: 35px;"">他的</p>","e","categorize-html","20","189879","0.0-6.0-1.0-2.0-1.5","4","3","4","3","3","4","3","1","4","4","4","4","5","4","4","5","4","5","4","4","4","5","4","4","1","3","4","5","4","1","0","1","1","0","1","0","1","0","1","1","0","1","0","1","5","2","4","1","4","2","4","5","5","4","631124847648309248","赵","566","","","","","","","","","","","","","","","","","","","true","11","1","moral","569","other","他的","","","","","","","","","","","","","","",""
"null","","null","html-keyboard-response","21","190132","0.0-6.0-1.0-2.0-0.6","4","3","4","3","3","4","3","1","4","4","4","4","5","4","4","5","4","5","4","4","4","5","4","4","1","3","4","5","4","1","0","1","1","0","1","0","1","0","1","1","0","1","0","1","5","2","4","1","4","2","4","5","5","4","631124847648309248","赵","566","","","","","","","","","","","","","","","","","","","","","","","","","","","","","","","","","","","","","","","",""
"472","<p style=""color:rgb(150, 250, 100); font-size: 35px;"">自己的</p>","i","categorize-html","22","190610","0.0-6.0-1.0-2.0-1.6","4","3","4","3","3","4","3","1","4","4","4","4","5","4","4","5","4","5","4","4","4","5","4","4","1","3","4","5","4","1","0","1","1","0","1","0","1","0","1","1","0","1","0","1","5","2","4","1","4","2","4","5","5","4","631124847648309248","赵","566","","","","","","","","","","","","","","","","","","","true","11","1","moral","472","self","自己的","","","","","","","","","","","","","","",""
"null","","null","html-keyboard-response","23","190875","0.0-6.0-1.0-2.0-0.7","4","3","4","3","3","4","3","1","4","4","4","4","5","4","4","5","4","5","4","4","4","5","4","4","1","3","4","5","4","1","0","1","1","0","1","0","1","0","1","1","0","1","0","1","5","2","4","1","4","2","4","5","5","4","631124847648309248","赵","566","","","","","","","","","","","","","","","","","","","","","","","","","","","","","","","","","","","","","","","",""
"473","<p style=""color:rgb(150, 250, 100); font-size: 35px;"">他人</p>","e","categorize-html","24","191354","0.0-6.0-1.0-2.0-1.7","4","3","4","3","3","4","3","1","4","4","4","4","5","4","4","5","4","5","4","4","4","5","4","4","1","3","4","5","4","1","0","1","1","0","1","0","1","0","1","1","0","1","0","1","5","2","4","1","4","2","4","5","5","4","631124847648309248","赵","566","","","","","","","","","","","","","","","","","","","true","11","1","moral","473","other","他人","","","","","","","","","","","","","","",""
"null","","null","html-keyboard-response","25","191609","0.0-6.0-1.0-2.0-0.8","4","3","4","3","3","4","3","1","4","4","4","4","5","4","4","5","4","5","4","4","4","5","4","4","1","3","4","5","4","1","0","1","1","0","1","0","1","0","1","1","0","1","0","1","5","2","4","1","4","2","4","5","5","4","631124847648309248","赵","566","","","","","","","","","","","","","","","","","","","","","","","","","","","","","","","","","","","","","","","",""
"535","<p style=""color:rgb(150, 250, 100); font-size: 35px;"">他</p>","e","categorize-html","26","192151","0.0-6.0-1.0-2.0-1.8","4","3","4","3","3","4","3","1","4","4","4","4","5","4","4","5","4","5","4","4","4","5","4","4","1","3","4","5","4","1","0","1","1","0","1","0","1","0","1","1","0","1","0","1","5","2","4","1","4","2","4","5","5","4","631124847648309248","赵","566","","","","","","","","","","","","","","","","","","","true","11","1","moral","535","other","他","","","","","","","","","","","","","","",""
"null","","null","html-keyboard-response","27","192403","0.0-6.0-1.0-2.0-0.9","4","3","4","3","3","4","3","1","4","4","4","4","5","4","4","5","4","5","4","4","4","5","4","4","1","3","4","5","4","1","0","1","1","0","1","0","1","0","1","1","0","1","0","1","5","2","4","1","4","2","4","5","5","4","631124847648309248","赵","566","","","","","","","","","","","","","","","","","","","","","","","","","","","","","","","","","","","","","","","",""
"434","<p style=""color:rgb(150, 250, 100); font-size: 35px;"">本人的</p>","i","categorize-html","28","192843","0.0-6.0-1.0-2.0-1.9","4","3","4","3","3","4","3","1","4","4","4","4","5","4","4","5","4","5","4","4","4","5","4","4","1","3","4","5","4","1","0","1","1","0","1","0","1","0","1","1","0","1","0","1","5","2","4","1","4","2","4","5","5","4","631124847648309248","赵","566","","","","","","","","","","","","","","","","","","","true","11","1","moral","434","self","本人的","","","","","","","","","","","","","","",""
"null","","null","html-keyboard-response","29","193097","0.0-6.0-1.0-2.0-0.10","4","3","4","3","3","4","3","1","4","4","4","4","5","4","4","5","4","5","4","4","4","5","4","4","1","3","4","5","4","1","0","1","1","0","1","0","1","0","1","1","0","1","0","1","5","2","4","1","4","2","4","5","5","4","631124847648309248","赵","566","","","","","","","","","","","","","","","","","","","","","","","","","","","","","","","","","","","","","","","",""
"492","<p style=""color:rgb(150, 250, 100); font-size: 35px;"">我</p>","i","categorize-html","30","193595","0.0-6.0-1.0-2.0-1.10","4","3","4","3","3","4","3","1","4","4","4","4","5","4","4","5","4","5","4","4","4","5","4","4","1","3","4","5","4","1","0","1","1","0","1","0","1","0","1","1","0","1","0","1","5","2","4","1","4","2","4","5","5","4","631124847648309248","赵","566","","","","","","","","","","","","","","","","","","","true","11","1","moral","492","self","我","","","","","","","","","","","","","","",""
"null","","null","html-keyboard-response","31","193849","0.0-6.0-1.0-2.0-0.11","4","3","4","3","3","4","3","1","4","4","4","4","5","4","4","5","4","5","4","4","4","5","4","4","1","3","4","5","4","1","0","1","1","0","1","0","1","0","1","1","0","1","0","1","5","2","4","1","4","2","4","5","5","4","631124847648309248","赵","566","","","","","","","","","","","","","","","","","","","","","","","","","","","","","","","","","","","","","","","",""
"575","<p style=""color:rgb(150, 250, 100); font-size: 35px;"">他人的</p>","e","categorize-html","32","194430","0.0-6.0-1.0-2.0-1.11","4","3","4","3","3","4","3","1","4","4","4","4","5","4","4","5","4","5","4","4","4","5","4","4","1","3","4","5","4","1","0","1","1","0","1","0","1","0","1","1","0","1","0","1","5","2","4","1","4","2","4","5","5","4","631124847648309248","赵","566","","","","","","","","","","","","","","","","","","","true","11","1","moral","575","other","他人的","","","","","","","","","","","","","","",""
"1919","
    <div class=""tag-bottom""><p>
    —— 任务2：对“积极”词和“消极”词分类 ——<p/>   
    <span style=""color:#78DCE8""><b>注意上方，类别标签和需要分类的词语都已经改变</b></span><p/>
    <span style=""color:#FFD866""><b>请根据上方标签的提示，尽可能正确并且快速地做出按键反应</b></span><p/>
    当按键错误时屏幕中会出现<span style=""color:red""> X </span>，需要按另一个键纠正才能继续<br/><p/>
    请把双手食指分别放在键盘的“E”键和“I”键上<p/>
    按<空格键>开始
    </p></div>"," ","html-keyboard-response","33","196351","0.0-6.0-1.0-3.0","4","3","4","3","3","4","3","1","4","4","4","4","5","4","4","5","4","5","4","4","4","5","4","4","1","3","4","5","4","1","0","1","1","0","1","0","1","0","1","1","0","1","0","1","5","2","4","1","4","2","4","5","5","4","631124847648309248","赵","566","","","","","","","","","","","","","","","","","","","","","","","","","","","","","","","","","","","","","","","",""
"null","","null","html-keyboard-response","34","196619","0.0-6.0-1.0-4.0-0.0","4","3","4","3","3","4","3","1","4","4","4","4","5","4","4","5","4","5","4","4","4","5","4","4","1","3","4","5","4","1","0","1","1","0","1","0","1","0","1","1","0","1","0","1","5","2","4","1","4","2","4","5","5","4","631124847648309248","赵","566","","","","","","","","","","","","","","","","","","","","","","","","","","","","","","","","","","","","","","","",""
"734","<p style=""color:white; font-size: 35px;"">小人</p>","i","categorize-html","35","197360","0.0-6.0-1.0-4.0-1.0","4","3","4","3","3","4","3","1","4","4","4","4","5","4","4","5","4","5","4","4","4","5","4","4","1","3","4","5","4","1","0","1","1","0","1","0","1","0","1","1","0","1","0","1","5","2","4","1","4","2","4","5","5","4","631124847648309248","赵","566","","","","","","","","","","","","","","","","","","","true","12","2","moral","734","negative","小人","","","","","","","","","","","","","","",""
"null","","null","html-keyboard-response","36","197615","0.0-6.0-1.0-4.0-0.1","4","3","4","3","3","4","3","1","4","4","4","4","5","4","4","5","4","5","4","4","4","5","4","4","1","3","4","5","4","1","0","1","1","0","1","0","1","0","1","1","0","1","0","1","5","2","4","1","4","2","4","5","5","4","631124847648309248","赵","566","","","","","","","","","","","","","","","","","","","","","","","","","","","","","","","","","","","","","","","",""
"564","<p style=""color:white; font-size: 35px;"">黑心</p>","i","categorize-html","37","198185","0.0-6.0-1.0-4.0-1.1","4","3","4","3","3","4","3","1","4","4","4","4","5","4","4","5","4","5","4","4","4","5","4","4","1","3","4","5","4","1","0","1","1","0","1","0","1","0","1","1","0","1","0","1","5","2","4","1","4","2","4","5","5","4","631124847648309248","赵","566","","","","","","","","","","","","","","","","","","","true","12","2","moral","564","negative","黑心","","","","","","","","","","","","","","",""
"null","","null","html-keyboard-response","38","198440","0.0-6.0-1.0-4.0-0.2","4","3","4","3","3","4","3","1","4","4","4","4","5","4","4","5","4","5","4","4","4","5","4","4","1","3","4","5","4","1","0","1","1","0","1","0","1","0","1","1","0","1","0","1","5","2","4","1","4","2","4","5","5","4","631124847648309248","赵","566","","","","","","","","","","","","","","","","","","","","","","","","","","","","","","","","","","","","","","","",""
"495","<p style=""color:white; font-size: 35px;"">君子</p>","e","categorize-html","39","198941","0.0-6.0-1.0-4.0-1.2","4","3","4","3","3","4","3","1","4","4","4","4","5","4","4","5","4","5","4","4","4","5","4","4","1","3","4","5","4","1","0","1","1","0","1","0","1","0","1","1","0","1","0","1","5","2","4","1","4","2","4","5","5","4","631124847648309248","赵","566","","","","","","","","","","","","","","","","","","","true","12","2","moral","495","positive","君子","","","","","","","","","","","","","","",""
"null","","null","html-keyboard-response","40","199194","0.0-6.0-1.0-4.0-0.3","4","3","4","3","3","4","3","1","4","4","4","4","5","4","4","5","4","5","4","4","4","5","4","4","1","3","4","5","4","1","0","1","1","0","1","0","1","0","1","1","0","1","0","1","5","2","4","1","4","2","4","5","5","4","631124847648309248","赵","566","","","","","","","","","","","","","","","","","","","","","","","","","","","","","","","","","","","","","","","",""
"511","<p style=""color:white; font-size: 35px;"">善良</p>","e","categorize-html","41","199714","0.0-6.0-1.0-4.0-1.3","4","3","4","3","3","4","3","1","4","4","4","4","5","4","4","5","4","5","4","4","4","5","4","4","1","3","4","5","4","1","0","1","1","0","1","0","1","0","1","1","0","1","0","1","5","2","4","1","4","2","4","5","5","4","631124847648309248","赵","566","","","","","","","","","","","","","","","","","","","true","12","2","moral","511","positive","善良","","","","","","","","","","","","","","",""
"null","","null","html-keyboard-response","42","199966","0.0-6.0-1.0-4.0-0.4","4","3","4","3","3","4","3","1","4","4","4","4","5","4","4","5","4","5","4","4","4","5","4","4","1","3","4","5","4","1","0","1","1","0","1","0","1","0","1","1","0","1","0","1","5","2","4","1","4","2","4","5","5","4","631124847648309248","赵","566","","","","","","","","","","","","","","","","","","","","","","","","","","","","","","","","","","","","","","","",""
"520","<p style=""color:white; font-size: 35px;"">高尚</p>","e","categorize-html","43","200494","0.0-6.0-1.0-4.0-1.4","4","3","4","3","3","4","3","1","4","4","4","4","5","4","4","5","4","5","4","4","4","5","4","4","1","3","4","5","4","1","0","1","1","0","1","0","1","0","1","1","0","1","0","1","5","2","4","1","4","2","4","5","5","4","631124847648309248","赵","566","","","","","","","","","","","","","","","","","","","true","12","2","moral","520","positive","高尚","","","","","","","","","","","","","","",""
"null","","null","html-keyboard-response","44","200747","0.0-6.0-1.0-4.0-0.5","4","3","4","3","3","4","3","1","4","4","4","4","5","4","4","5","4","5","4","4","4","5","4","4","1","3","4","5","4","1","0","1","1","0","1","0","1","0","1","1","0","1","0","1","5","2","4","1","4","2","4","5","5","4","631124847648309248","赵","566","","","","","","","","","","","","","","","","","","","","","","","","","","","","","","","","","","","","","","","",""
"497","<p style=""color:white; font-size: 35px;"">不孝</p>","i","categorize-html","45","201250","0.0-6.0-1.0-4.0-1.5","4","3","4","3","3","4","3","1","4","4","4","4","5","4","4","5","4","5","4","4","4","5","4","4","1","3","4","5","4","1","0","1","1","0","1","0","1","0","1","1","0","1","0","1","5","2","4","1","4","2","4","5","5","4","631124847648309248","赵","566","","","","","","","","","","","","","","","","","","","true","12","2","moral","497","negative","不孝","","","","","","","","","","","","","","",""
"null","","null","html-keyboard-response","46","201502","0.0-6.0-1.0-4.0-0.6","4","3","4","3","3","4","3","1","4","4","4","4","5","4","4","5","4","5","4","4","4","5","4","4","1","3","4","5","4","1","0","1","1","0","1","0","1","0","1","1","0","1","0","1","5","2","4","1","4","2","4","5","5","4","631124847648309248","赵","566","","","","","","","","","","","","","","","","","","","","","","","","","","","","","","","","","","","","","","","",""
"462","<p style=""color:white; font-size: 35px;"">廉正</p>","e","categorize-html","47","201970","0.0-6.0-1.0-4.0-1.6","4","3","4","3","3","4","3","1","4","4","4","4","5","4","4","5","4","5","4","4","4","5","4","4","1","3","4","5","4","1","0","1","1","0","1","0","1","0","1","1","0","1","0","1","5","2","4","1","4","2","4","5","5","4","631124847648309248","赵","566","","","","","","","","","","","","","","","","","","","true","12","2","moral","462","positive","廉正","","","","","","","","","","","","","","",""
"null","","null","html-keyboard-response","48","202223","0.0-6.0-1.0-4.0-0.7","4","3","4","3","3","4","3","1","4","4","4","4","5","4","4","5","4","5","4","4","4","5","4","4","1","3","4","5","4","1","0","1","1","0","1","0","1","0","1","1","0","1","0","1","5","2","4","1","4","2","4","5","5","4","631124847648309248","赵","566","","","","","","","","","","","","","","","","","","","","","","","","","","","","","","","","","","","","","","","",""
"463","<p style=""color:white; font-size: 35px;"">不仁</p>","i","categorize-html","49","202692","0.0-6.0-1.0-4.0-1.7","4","3","4","3","3","4","3","1","4","4","4","4","5","4","4","5","4","5","4","4","4","5","4","4","1","3","4","5","4","1","0","1","1","0","1","0","1","0","1","1","0","1","0","1","5","2","4","1","4","2","4","5","5","4","631124847648309248","赵","566","","","","","","","","","","","","","","","","","","","true","12","2","moral","463","negative","不仁","","","","","","","","","","","","","","",""
"null","","null","html-keyboard-response","50","202945","0.0-6.0-1.0-4.0-0.8","4","3","4","3","3","4","3","1","4","4","4","4","5","4","4","5","4","5","4","4","4","5","4","4","1","3","4","5","4","1","0","1","1","0","1","0","1","0","1","1","0","1","0","1","5","2","4","1","4","2","4","5","5","4","631124847648309248","赵","566","","","","","","","","","","","","","","","","","","","","","","","","","","","","","","","","","","","","","","","",""
"611","<p style=""color:white; font-size: 35px;"">卑鄙</p>","i","categorize-html","51","203562","0.0-6.0-1.0-4.0-1.8","4","3","4","3","3","4","3","1","4","4","4","4","5","4","4","5","4","5","4","4","4","5","4","4","1","3","4","5","4","1","0","1","1","0","1","0","1","0","1","1","0","1","0","1","5","2","4","1","4","2","4","5","5","4","631124847648309248","赵","566","","","","","","","","","","","","","","","","","","","true","12","2","moral","611","negative","卑鄙","","","","","","","","","","","","","","",""
"null","","null","html-keyboard-response","52","203814","0.0-6.0-1.0-4.0-0.9","4","3","4","3","3","4","3","1","4","4","4","4","5","4","4","5","4","5","4","4","4","5","4","4","1","3","4","5","4","1","0","1","1","0","1","0","1","0","1","1","0","1","0","1","5","2","4","1","4","2","4","5","5","4","631124847648309248","赵","566","","","","","","","","","","","","","","","","","","","","","","","","","","","","","","","","","","","","","","","",""
"476","<p style=""color:white; font-size: 35px;"">诚信</p>","e","categorize-html","53","204299","0.0-6.0-1.0-4.0-1.9","4","3","4","3","3","4","3","1","4","4","4","4","5","4","4","5","4","5","4","4","4","5","4","4","1","3","4","5","4","1","0","1","1","0","1","0","1","0","1","1","0","1","0","1","5","2","4","1","4","2","4","5","5","4","631124847648309248","赵","566","","","","","","","","","","","","","","","","","","","true","12","2","moral","476","positive","诚信","","","","","","","","","","","","","","",""
"null","","null","html-keyboard-response","54","204554","0.0-6.0-1.0-4.0-0.10","4","3","4","3","3","4","3","1","4","4","4","4","5","4","4","5","4","5","4","4","4","5","4","4","1","3","4","5","4","1","0","1","1","0","1","0","1","0","1","1","0","1","0","1","5","2","4","1","4","2","4","5","5","4","631124847648309248","赵","566","","","","","","","","","","","","","","","","","","","","","","","","","","","","","","","","","","","","","","","",""
"525","<p style=""color:white; font-size: 35px;"">正直</p>","e","categorize-html","55","205090","0.0-6.0-1.0-4.0-1.10","4","3","4","3","3","4","3","1","4","4","4","4","5","4","4","5","4","5","4","4","4","5","4","4","1","3","4","5","4","1","0","1","1","0","1","0","1","0","1","1","0","1","0","1","5","2","4","1","4","2","4","5","5","4","631124847648309248","赵","566","","","","","","","","","","","","","","","","","","","true","12","2","moral","525","positive","正直","","","","","","","","","","","","","","",""
"null","","null","html-keyboard-response","56","205342","0.0-6.0-1.0-4.0-0.11","4","3","4","3","3","4","3","1","4","4","4","4","5","4","4","5","4","5","4","4","4","5","4","4","1","3","4","5","4","1","0","1","1","0","1","0","1","0","1","1","0","1","0","1","5","2","4","1","4","2","4","5","5","4","631124847648309248","赵","566","","","","","","","","","","","","","","","","","","","","","","","","","","","","","","","","","","","","","","","",""
"607","<p style=""color:white; font-size: 35px;"">缺德</p>","i","categorize-html","57","205954","0.0-6.0-1.0-4.0-1.11","4","3","4","3","3","4","3","1","4","4","4","4","5","4","4","5","4","5","4","4","4","5","4","4","1","3","4","5","4","1","0","1","1","0","1","0","1","0","1","1","0","1","0","1","5","2","4","1","4","2","4","5","5","4","631124847648309248","赵","566","","","","","","","","","","","","","","","","","","","true","12","2","moral","607","negative","缺德","","","","","","","","","","","","","","",""
"4199","
    <div class=""tag-bottom""><p>
    —— 任务3：对“他人/积极”词和“自我/消极”词分类 ——<p/>
    <span style=""color:#78DCE8""><b>注意上方，之前的四类词语将混合在一起交替呈现</b></span><p/>
    <span style=""color:#FFD866""><b>请根据上方标签的提示，尽可能正确并且快速地做出按键反应</b></span><p/>
    当按键错误时屏幕中会出现<span style=""color:red""> X </span>，需要按另一个键纠正才能继续<br/><p/>
    请把双手食指分别放在键盘的“E”键和“I”键上<p/>
    按<空格键>开始
    </p></div>"," ","html-keyboard-response","58","210158","0.0-6.0-1.0-5.0","4","3","4","3","3","4","3","1","4","4","4","4","5","4","4","5","4","5","4","4","4","5","4","4","1","3","4","5","4","1","0","1","1","0","1","0","1","0","1","1","0","1","0","1","5","2","4","1","4","2","4","5","5","4","631124847648309248","赵","566","","","","","","","","","","","","","","","","","","","","","","","","","","","","","","","","","","","","","","","",""
"null","","null","html-keyboard-response","59","210413","0.0-6.0-1.0-6.0-0.0","4","3","4","3","3","4","3","1","4","4","4","4","5","4","4","5","4","5","4","4","4","5","4","4","1","3","4","5","4","1","0","1","1","0","1","0","1","0","1","1","0","1","0","1","5","2","4","1","4","2","4","5","5","4","631124847648309248","赵","566","","","","","","","","","","","","","","","","","","","","","","","","","","","","","","","","","","","","","","","",""
"651","<p style=""color:rgb(150, 250, 100); font-size: 35px;"">自己</p>","i","categorize-html","60","211073","0.0-6.0-1.0-6.0-1.0","4","3","4","3","3","4","3","1","4","4","4","4","5","4","4","5","4","5","4","4","4","5","4","4","1","3","4","5","4","1","0","1","1","0","1","0","1","0","1","1","0","1","0","1","5","2","4","1","4","2","4","5","5","4","631124847648309248","赵","566","","","","","","","","","","","","","","","","","","","true","13","3","moral","651","self","自己","","","","","","","","","","","","","","",""
"null","","null","html-keyboard-response","61","211332","0.0-6.0-1.0-6.0-0.1","4","3","4","3","3","4","3","1","4","4","4","4","5","4","4","5","4","5","4","4","4","5","4","4","1","3","4","5","4","1","0","1","1","0","1","0","1","0","1","1","0","1","0","1","5","2","4","1","4","2","4","5","5","4","631124847648309248","赵","566","","","","","","","","","","","","","","","","","","","","","","","","","","","","","","","","","","","","","","","",""
"551","<p style=""color:white; font-size: 35px;"">君子</p>","e","categorize-html","62","211891","0.0-6.0-1.0-6.0-1.1","4","3","4","3","3","4","3","1","4","4","4","4","5","4","4","5","4","5","4","4","4","5","4","4","1","3","4","5","4","1","0","1","1","0","1","0","1","0","1","1","0","1","0","1","5","2","4","1","4","2","4","5","5","4","631124847648309248","赵","566","","","","","","","","","","","","","","","","","","","true","13","3","moral","551","positive","君子","","","","","","","","","","","","","","",""
"null","","null","html-keyboard-response","63","212144","0.0-6.0-1.0-6.0-0.2","4","3","4","3","3","4","3","1","4","4","4","4","5","4","4","5","4","5","4","4","4","5","4","4","1","3","4","5","4","1","0","1","1","0","1","0","1","0","1","1","0","1","0","1","5","2","4","1","4","2","4","5","5","4","631124847648309248","赵","566","","","","","","","","","","","","","","","","","","","","","","","","","","","","","","","","","","","","","","","",""
"797","<p style=""color:rgb(150, 250, 100); font-size: 35px;"">他的</p>","i","categorize-html","64","213314","0.0-6.0-1.0-6.0-1.2","4","3","4","3","3","4","3","1","4","4","4","4","5","4","4","5","4","5","4","4","4","5","4","4","1","3","4","5","4","1","0","1","1","0","1","0","1","0","1","1","0","1","0","1","5","2","4","1","4","2","4","5","5","4","631124847648309248","赵","566","","","","","","","","","","","","","","","","","","","false","13","3","moral","1268.5","other","他的","","","","","","","","","","","","","","",""
"null","","null","html-keyboard-response","65","213569","0.0-6.0-1.0-6.0-0.3","4","3","4","3","3","4","3","1","4","4","4","4","5","4","4","5","4","5","4","4","4","5","4","4","1","3","4","5","4","1","0","1","1","0","1","0","1","0","1","1","0","1","0","1","5","2","4","1","4","2","4","5","5","4","631124847648309248","赵","566","","","","","","","","","","","","","","","","","","","","","","","","","","","","","","","","","","","","","","","",""
"860","<p style=""color:white; font-size: 35px;"">不仁</p>","i","categorize-html","66","214437","0.0-6.0-1.0-6.0-1.3","4","3","4","3","3","4","3","1","4","4","4","4","5","4","4","5","4","5","4","4","4","5","4","4","1","3","4","5","4","1","0","1","1","0","1","0","1","0","1","1","0","1","0","1","5","2","4","1","4","2","4","5","5","4","631124847648309248","赵","566","","","","","","","","","","","","","","","","","","","true","13","3","moral","860","negative","不仁","","","","","","","","","","","","","","",""
"null","","null","html-keyboard-response","67","214702","0.0-6.0-1.0-6.0-0.4","4","3","4","3","3","4","3","1","4","4","4","4","5","4","4","5","4","5","4","4","4","5","4","4","1","3","4","5","4","1","0","1","1","0","1","0","1","0","1","1","0","1","0","1","5","2","4","1","4","2","4","5","5","4","631124847648309248","赵","566","","","","","","","","","","","","","","","","","","","","","","","","","","","","","","","","","","","","","","","",""
"678","<p style=""color:rgb(150, 250, 100); font-size: 35px;"">我的</p>","i","categorize-html","68","215384","0.0-6.0-1.0-6.0-1.4","4","3","4","3","3","4","3","1","4","4","4","4","5","4","4","5","4","5","4","4","4","5","4","4","1","3","4","5","4","1","0","1","1","0","1","0","1","0","1","1","0","1","0","1","5","2","4","1","4","2","4","5","5","4","631124847648309248","赵","566","","","","","","","","","","","","","","","","","","","true","13","3","moral","678","self","我的","","","","","","","","","","","","","","",""
"null","","null","html-keyboard-response","69","215635","0.0-6.0-1.0-6.0-0.5","4","3","4","3","3","4","3","1","4","4","4","4","5","4","4","5","4","5","4","4","4","5","4","4","1","3","4","5","4","1","0","1","1","0","1","0","1","0","1","1","0","1","0","1","5","2","4","1","4","2","4","5","5","4","631124847648309248","赵","566","","","","","","","","","","","","","","","","","","","","","","","","","","","","","","","","","","","","","","","",""
"766","<p style=""color:white; font-size: 35px;"">小人</p>","i","categorize-html","70","216407","0.0-6.0-1.0-6.0-1.5","4","3","4","3","3","4","3","1","4","4","4","4","5","4","4","5","4","5","4","4","4","5","4","4","1","3","4","5","4","1","0","1","1","0","1","0","1","0","1","1","0","1","0","1","5","2","4","1","4","2","4","5","5","4","631124847648309248","赵","566","","","","","","","","","","","","","","","","","","","true","13","3","moral","766","negative","小人","","","","","","","","","","","","","","",""
"null","","null","html-keyboard-response","71","216660","0.0-6.0-1.0-6.0-0.6","4","3","4","3","3","4","3","1","4","4","4","4","5","4","4","5","4","5","4","4","4","5","4","4","1","3","4","5","4","1","0","1","1","0","1","0","1","0","1","1","0","1","0","1","5","2","4","1","4","2","4","5","5","4","631124847648309248","赵","566","","","","","","","","","","","","","","","","","","","","","","","","","","","","","","","","","","","","","","","",""
"604","<p style=""color:rgb(150, 250, 100); font-size: 35px;"">他人的</p>","e","categorize-html","72","217271","0.0-6.0-1.0-6.0-1.6","4","3","4","3","3","4","3","1","4","4","4","4","5","4","4","5","4","5","4","4","4","5","4","4","1","3","4","5","4","1","0","1","1","0","1","0","1","0","1","1","0","1","0","1","5","2","4","1","4","2","4","5","5","4","631124847648309248","赵","566","","","","","","","","","","","","","","","","","","","true","13","3","moral","604","other","他人的","","","","","","","","","","","","","","",""
"null","","null","html-keyboard-response","73","217524","0.0-6.0-1.0-6.0-0.7","4","3","4","3","3","4","3","1","4","4","4","4","5","4","4","5","4","5","4","4","4","5","4","4","1","3","4","5","4","1","0","1","1","0","1","0","1","0","1","1","0","1","0","1","5","2","4","1","4","2","4","5","5","4","631124847648309248","赵","566","","","","","","","","","","","","","","","","","","","","","","","","","","","","","","","","","","","","","","","",""
"616","<p style=""color:white; font-size: 35px;"">高尚</p>","e","categorize-html","74","218148","0.0-6.0-1.0-6.0-1.7","4","3","4","3","3","4","3","1","4","4","4","4","5","4","4","5","4","5","4","4","4","5","4","4","1","3","4","5","4","1","0","1","1","0","1","0","1","0","1","1","0","1","0","1","5","2","4","1","4","2","4","5","5","4","631124847648309248","赵","566","","","","","","","","","","","","","","","","","","","true","13","3","moral","616","positive","高尚","","","","","","","","","","","","","","",""
"null","","null","html-keyboard-response","75","218402","0.0-6.0-1.0-6.0-0.8","4","3","4","3","3","4","3","1","4","4","4","4","5","4","4","5","4","5","4","4","4","5","4","4","1","3","4","5","4","1","0","1","1","0","1","0","1","0","1","1","0","1","0","1","5","2","4","1","4","2","4","5","5","4","631124847648309248","赵","566","","","","","","","","","","","","","","","","","","","","","","","","","","","","","","","","","","","","","","","",""
"694","<p style=""color:rgb(150, 250, 100); font-size: 35px;"">本人的</p>","i","categorize-html","76","219103","0.0-6.0-1.0-6.0-1.8","4","3","4","3","3","4","3","1","4","4","4","4","5","4","4","5","4","5","4","4","4","5","4","4","1","3","4","5","4","1","0","1","1","0","1","0","1","0","1","1","0","1","0","1","5","2","4","1","4","2","4","5","5","4","631124847648309248","赵","566","","","","","","","","","","","","","","","","","","","true","13","3","moral","694","self","本人的","","","","","","","","","","","","","","",""
"null","","null","html-keyboard-response","77","219355","0.0-6.0-1.0-6.0-0.9","4","3","4","3","3","4","3","1","4","4","4","4","5","4","4","5","4","5","4","4","4","5","4","4","1","3","4","5","4","1","0","1","1","0","1","0","1","0","1","1","0","1","0","1","5","2","4","1","4","2","4","5","5","4","631124847648309248","赵","566","","","","","","","","","","","","","","","","","","","","","","","","","","","","","","","","","","","","","","","",""
"872","<p style=""color:white; font-size: 35px;"">卑鄙</p>","i","categorize-html","78","220234","0.0-6.0-1.0-6.0-1.9","4","3","4","3","3","4","3","1","4","4","4","4","5","4","4","5","4","5","4","4","4","5","4","4","1","3","4","5","4","1","0","1","1","0","1","0","1","0","1","1","0","1","0","1","5","2","4","1","4","2","4","5","5","4","631124847648309248","赵","566","","","","","","","","","","","","","","","","","","","true","13","3","moral","872","negative","卑鄙","","","","","","","","","","","","","","",""
"null","","null","html-keyboard-response","79","220487","0.0-6.0-1.0-6.0-0.10","4","3","4","3","3","4","3","1","4","4","4","4","5","4","4","5","4","5","4","4","4","5","4","4","1","3","4","5","4","1","0","1","1","0","1","0","1","0","1","1","0","1","0","1","5","2","4","1","4","2","4","5","5","4","631124847648309248","赵","566","","","","","","","","","","","","","","","","","","","","","","","","","","","","","","","","","","","","","","","",""
"477","<p style=""color:rgb(150, 250, 100); font-size: 35px;"">别人</p>","e","categorize-html","80","220971","0.0-6.0-1.0-6.0-1.10","4","3","4","3","3","4","3","1","4","4","4","4","5","4","4","5","4","5","4","4","4","5","4","4","1","3","4","5","4","1","0","1","1","0","1","0","1","0","1","1","0","1","0","1","5","2","4","1","4","2","4","5","5","4","631124847648309248","赵","566","","","","","","","","","","","","","","","","","","","true","13","3","moral","477","other","别人","","","","","","","","","","","","","","",""
"null","","null","html-keyboard-response","81","221225","0.0-6.0-1.0-6.0-0.11","4","3","4","3","3","4","3","1","4","4","4","4","5","4","4","5","4","5","4","4","4","5","4","4","1","3","4","5","4","1","0","1","1","0","1","0","1","0","1","1","0","1","0","1","5","2","4","1","4","2","4","5","5","4","631124847648309248","赵","566","","","","","","","","","","","","","","","","","","","","","","","","","","","","","","","","","","","","","","","",""
"597","<p style=""color:white; font-size: 35px;"">廉正</p>","e","categorize-html","82","221830","0.0-6.0-1.0-6.0-1.11","4","3","4","3","3","4","3","1","4","4","4","4","5","4","4","5","4","5","4","4","4","5","4","4","1","3","4","5","4","1","0","1","1","0","1","0","1","0","1","1","0","1","0","1","5","2","4","1","4","2","4","5","5","4","631124847648309248","赵","566","","","","","","","","","","","","","","","","","","","true","13","3","moral","597","positive","廉正","","","","","","","","","","","","","","",""
"null","","null","html-keyboard-response","83","222085","0.0-6.0-1.0-6.0-0.12","4","3","4","3","3","4","3","1","4","4","4","4","5","4","4","5","4","5","4","4","4","5","4","4","1","3","4","5","4","1","0","1","1","0","1","0","1","0","1","1","0","1","0","1","5","2","4","1","4","2","4","5","5","4","631124847648309248","赵","566","","","","","","","","","","","","","","","","","","","","","","","","","","","","","","","","","","","","","","","",""
"775","<p style=""color:rgb(150, 250, 100); font-size: 35px;"">他人</p>","e","categorize-html","84","222867","0.0-6.0-1.0-6.0-1.12","4","3","4","3","3","4","3","1","4","4","4","4","5","4","4","5","4","5","4","4","4","5","4","4","1","3","4","5","4","1","0","1","1","0","1","0","1","0","1","1","0","1","0","1","5","2","4","1","4","2","4","5","5","4","631124847648309248","赵","566","","","","","","","","","","","","","","","","","","","true","13","3","moral","775","other","他人","","","","","","","","","","","","","","",""
"null","","null","html-keyboard-response","85","223120","0.0-6.0-1.0-6.0-0.13","4","3","4","3","3","4","3","1","4","4","4","4","5","4","4","5","4","5","4","4","4","5","4","4","1","3","4","5","4","1","0","1","1","0","1","0","1","0","1","1","0","1","0","1","5","2","4","1","4","2","4","5","5","4","631124847648309248","赵","566","","","","","","","","","","","","","","","","","","","","","","","","","","","","","","","","","","","","","","","",""
"591","<p style=""color:white; font-size: 35px;"">缺德</p>","i","categorize-html","86","223717","0.0-6.0-1.0-6.0-1.13","4","3","4","3","3","4","3","1","4","4","4","4","5","4","4","5","4","5","4","4","4","5","4","4","1","3","4","5","4","1","0","1","1","0","1","0","1","0","1","1","0","1","0","1","5","2","4","1","4","2","4","5","5","4","631124847648309248","赵","566","","","","","","","","","","","","","","","","","","","true","13","3","moral","591","negative","缺德","","","","","","","","","","","","","","",""
"null","","null","html-keyboard-response","87","223971","0.0-6.0-1.0-6.0-0.14","4","3","4","3","3","4","3","1","4","4","4","4","5","4","4","5","4","5","4","4","4","5","4","4","1","3","4","5","4","1","0","1","1","0","1","0","1","0","1","1","0","1","0","1","5","2","4","1","4","2","4","5","5","4","631124847648309248","赵","566","","","","","","","","","","","","","","","","","","","","","","","","","","","","","","","","","","","","","","","",""
"502","<p style=""color:rgb(150, 250, 100); font-size: 35px;"">我</p>","e","categorize-html","88","224943","0.0-6.0-1.0-6.0-1.14","4","3","4","3","3","4","3","1","4","4","4","4","5","4","4","5","4","5","4","4","4","5","4","4","1","3","4","5","4","1","0","1","1","0","1","0","1","0","1","1","0","1","0","1","5","2","4","1","4","2","4","5","5","4","631124847648309248","赵","566","","","","","","","","","","","","","","","","","","","false","13","3","moral","1268.5","self","我","","","","","","","","","","","","","","",""
"null","","null","html-keyboard-response","89","225197","0.0-6.0-1.0-6.0-0.15","4","3","4","3","3","4","3","1","4","4","4","4","5","4","4","5","4","5","4","4","4","5","4","4","1","3","4","5","4","1","0","1","1","0","1","0","1","0","1","1","0","1","0","1","5","2","4","1","4","2","4","5","5","4","631124847648309248","赵","566","","","","","","","","","","","","","","","","","","","","","","","","","","","","","","","","","","","","","","","",""
"621","<p style=""color:white; font-size: 35px;"">正直</p>","e","categorize-html","90","225824","0.0-6.0-1.0-6.0-1.15","4","3","4","3","3","4","3","1","4","4","4","4","5","4","4","5","4","5","4","4","4","5","4","4","1","3","4","5","4","1","0","1","1","0","1","0","1","0","1","1","0","1","0","1","5","2","4","1","4","2","4","5","5","4","631124847648309248","赵","566","","","","","","","","","","","","","","","","","","","true","13","3","moral","621","positive","正直","","","","","","","","","","","","","","",""
"null","","null","html-keyboard-response","91","226075","0.0-6.0-1.0-6.0-0.16","4","3","4","3","3","4","3","1","4","4","4","4","5","4","4","5","4","5","4","4","4","5","4","4","1","3","4","5","4","1","0","1","1","0","1","0","1","0","1","1","0","1","0","1","5","2","4","1","4","2","4","5","5","4","631124847648309248","赵","566","","","","","","","","","","","","","","","","","","","","","","","","","","","","","","","","","","","","","","","",""
"593","<p style=""color:rgb(150, 250, 100); font-size: 35px;"">自己的</p>","i","categorize-html","92","226676","0.0-6.0-1.0-6.0-1.16","4","3","4","3","3","4","3","1","4","4","4","4","5","4","4","5","4","5","4","4","4","5","4","4","1","3","4","5","4","1","0","1","1","0","1","0","1","0","1","1","0","1","0","1","5","2","4","1","4","2","4","5","5","4","631124847648309248","赵","566","","","","","","","","","","","","","","","","","","","true","13","3","moral","593","self","自己的","","","","","","","","","","","","","","",""
"null","","null","html-keyboard-response","93","226928","0.0-6.0-1.0-6.0-0.17","4","3","4","3","3","4","3","1","4","4","4","4","5","4","4","5","4","5","4","4","4","5","4","4","1","3","4","5","4","1","0","1","1","0","1","0","1","0","1","1","0","1","0","1","5","2","4","1","4","2","4","5","5","4","631124847648309248","赵","566","","","","","","","","","","","","","","","","","","","","","","","","","","","","","","","","","","","","","","","",""
"496","<p style=""color:white; font-size: 35px;"">诚信</p>","e","categorize-html","94","227430","0.0-6.0-1.0-6.0-1.17","4","3","4","3","3","4","3","1","4","4","4","4","5","4","4","5","4","5","4","4","4","5","4","4","1","3","4","5","4","1","0","1","1","0","1","0","1","0","1","1","0","1","0","1","5","2","4","1","4","2","4","5","5","4","631124847648309248","赵","566","","","","","","","","","","","","","","","","","","","true","13","3","moral","496","positive","诚信","","","","","","","","","","","","","","",""
"null","","null","html-keyboard-response","95","227684","0.0-6.0-1.0-6.0-0.18","4","3","4","3","3","4","3","1","4","4","4","4","5","4","4","5","4","5","4","4","4","5","4","4","1","3","4","5","4","1","0","1","1","0","1","0","1","0","1","1","0","1","0","1","5","2","4","1","4","2","4","5","5","4","631124847648309248","赵","566","","","","","","","","","","","","","","","","","","","","","","","","","","","","","","","","","","","","","","","",""
"1206","<p style=""color:rgb(150, 250, 100); font-size: 35px;"">别人的</p>","e","categorize-html","96","228896","0.0-6.0-1.0-6.0-1.18","4","3","4","3","3","4","3","1","4","4","4","4","5","4","4","5","4","5","4","4","4","5","4","4","1","3","4","5","4","1","0","1","1","0","1","0","1","0","1","1","0","1","0","1","5","2","4","1","4","2","4","5","5","4","631124847648309248","赵","566","","","","","","","","","","","","","","","","","","","true","13","3","moral","1206","other","别人的","","","","","","","","","","","","","","",""
"null","","null","html-keyboard-response","97","229150","0.0-6.0-1.0-6.0-0.19","4","3","4","3","3","4","3","1","4","4","4","4","5","4","4","5","4","5","4","4","4","5","4","4","1","3","4","5","4","1","0","1","1","0","1","0","1","0","1","1","0","1","0","1","5","2","4","1","4","2","4","5","5","4","631124847648309248","赵","566","","","","","","","","","","","","","","","","","","","","","","","","","","","","","","","","","","","","","","","",""
"811","<p style=""color:white; font-size: 35px;"">不孝</p>","i","categorize-html","98","229970","0.0-6.0-1.0-6.0-1.19","4","3","4","3","3","4","3","1","4","4","4","4","5","4","4","5","4","5","4","4","4","5","4","4","1","3","4","5","4","1","0","1","1","0","1","0","1","0","1","1","0","1","0","1","5","2","4","1","4","2","4","5","5","4","631124847648309248","赵","566","","","","","","","","","","","","","","","","","","","true","13","3","moral","811","negative","不孝","","","","","","","","","","","","","","",""
"null","","null","html-keyboard-response","99","230223","0.0-6.0-1.0-6.0-0.20","4","3","4","3","3","4","3","1","4","4","4","4","5","4","4","5","4","5","4","4","4","5","4","4","1","3","4","5","4","1","0","1","1","0","1","0","1","0","1","1","0","1","0","1","5","2","4","1","4","2","4","5","5","4","631124847648309248","赵","566","","","","","","","","","","","","","","","","","","","","","","","","","","","","","","","","","","","","","","","",""
"472","<p style=""color:rgb(150, 250, 100); font-size: 35px;"">他</p>","e","categorize-html","100","230700","0.0-6.0-1.0-6.0-1.20","4","3","4","3","3","4","3","1","4","4","4","4","5","4","4","5","4","5","4","4","4","5","4","4","1","3","4","5","4","1","0","1","1","0","1","0","1","0","1","1","0","1","0","1","5","2","4","1","4","2","4","5","5","4","631124847648309248","赵","566","","","","","","","","","","","","","","","","","","","true","13","3","moral","472","other","他","","","","","","","","","","","","","","",""
"null","","null","html-keyboard-response","101","230955","0.0-6.0-1.0-6.0-0.21","4","3","4","3","3","4","3","1","4","4","4","4","5","4","4","5","4","5","4","4","4","5","4","4","1","3","4","5","4","1","0","1","1","0","1","0","1","0","1","1","0","1","0","1","5","2","4","1","4","2","4","5","5","4","631124847648309248","赵","566","","","","","","","","","","","","","","","","","","","","","","","","","","","","","","","","","","","","","","","",""
"492","<p style=""color:white; font-size: 35px;"">善良</p>","e","categorize-html","102","231455","0.0-6.0-1.0-6.0-1.21","4","3","4","3","3","4","3","1","4","4","4","4","5","4","4","5","4","5","4","4","4","5","4","4","1","3","4","5","4","1","0","1","1","0","1","0","1","0","1","1","0","1","0","1","5","2","4","1","4","2","4","5","5","4","631124847648309248","赵","566","","","","","","","","","","","","","","","","","","","true","13","3","moral","492","positive","善良","","","","","","","","","","","","","","",""
"null","","null","html-keyboard-response","103","231708","0.0-6.0-1.0-6.0-0.22","4","3","4","3","3","4","3","1","4","4","4","4","5","4","4","5","4","5","4","4","4","5","4","4","1","3","4","5","4","1","0","1","1","0","1","0","1","0","1","1","0","1","0","1","5","2","4","1","4","2","4","5","5","4","631124847648309248","赵","566","","","","","","","","","","","","","","","","","","","","","","","","","","","","","","","","","","","","","","","",""
"644","<p style=""color:rgb(150, 250, 100); font-size: 35px;"">本人</p>","i","categorize-html","104","232358","0.0-6.0-1.0-6.0-1.22","4","3","4","3","3","4","3","1","4","4","4","4","5","4","4","5","4","5","4","4","4","5","4","4","1","3","4","5","4","1","0","1","1","0","1","0","1","0","1","1","0","1","0","1","5","2","4","1","4","2","4","5","5","4","631124847648309248","赵","566","","","","","","","","","","","","","","","","","","","true","13","3","moral","644","self","本人","","","","","","","","","","","","","","",""
"null","","null","html-keyboard-response","105","232610","0.0-6.0-1.0-6.0-0.23","4","3","4","3","3","4","3","1","4","4","4","4","5","4","4","5","4","5","4","4","4","5","4","4","1","3","4","5","4","1","0","1","1","0","1","0","1","0","1","1","0","1","0","1","5","2","4","1","4","2","4","5","5","4","631124847648309248","赵","566","","","","","","","","","","","","","","","","","","","","","","","","","","","","","","","","","","","","","","","",""
"640","<p style=""color:white; font-size: 35px;"">黑心</p>","i","categorize-html","106","233252","0.0-6.0-1.0-6.0-1.23","4","3","4","3","3","4","3","1","4","4","4","4","5","4","4","5","4","5","4","4","4","5","4","4","1","3","4","5","4","1","0","1","1","0","1","0","1","0","1","1","0","1","0","1","5","2","4","1","4","2","4","5","5","4","631124847648309248","赵","566","","","","","","","","","","","","","","","","","","","true","13","3","moral","640","negative","黑心","","","","","","","","","","","","","","",""
"1353","
    <div class=""tag-bottom""><p>
    —— 任务4：对“他人/积极”词和“自我/消极”词分类 ——<p/>
    <span style=""color:#78DCE8""><b>与刚才的任务完全相同，请再次对这四类词语分类</b></span><p/>
    <span style=""color:#FFD866""><b>请根据上方标签的提示，尽可能正确并且快速地做出按键反应</b></span><p/>
    当按键错误时屏幕中会出现<span style=""color:red""> X </span>，需要按另一个键纠正才能继续<br/><p/>
    请把双手食指分别放在键盘的“E”键和“I”键上<p/>
    按<空格键>开始
    </p></div>"," ","html-keyboard-response","107","234609","0.0-6.0-1.0-7.0","4","3","4","3","3","4","3","1","4","4","4","4","5","4","4","5","4","5","4","4","4","5","4","4","1","3","4","5","4","1","0","1","1","0","1","0","1","0","1","1","0","1","0","1","5","2","4","1","4","2","4","5","5","4","631124847648309248","赵","566","","","","","","","","","","","","","","","","","","","","","","","","","","","","","","","","","","","","","","","",""
"null","","null","html-keyboard-response","108","234861","0.0-6.0-1.0-8.0-0.0","4","3","4","3","3","4","3","1","4","4","4","4","5","4","4","5","4","5","4","4","4","5","4","4","1","3","4","5","4","1","0","1","1","0","1","0","1","0","1","1","0","1","0","1","5","2","4","1","4","2","4","5","5","4","631124847648309248","赵","566","","","","","","","","","","","","","","","","","","","","","","","","","","","","","","","","","","","","","","","",""
"593","<p style=""color:rgb(150, 250, 100); font-size: 35px;"">本人的</p>","i","categorize-html","109","235460","0.0-6.0-1.0-8.0-1.0","4","3","4","3","3","4","3","1","4","4","4","4","5","4","4","5","4","5","4","4","4","5","4","4","1","3","4","5","4","1","0","1","1","0","1","0","1","0","1","1","0","1","0","1","5","2","4","1","4","2","4","5","5","4","631124847648309248","赵","566","","","","","","","","","","","","","","","","","","","true","14","4","moral","593","self","本人的","","","","","","","","","","","","","","",""
"null","","null","html-keyboard-response","110","235713","0.0-6.0-1.0-8.0-0.1","4","3","4","3","3","4","3","1","4","4","4","4","5","4","4","5","4","5","4","4","4","5","4","4","1","3","4","5","4","1","0","1","1","0","1","0","1","0","1","1","0","1","0","1","5","2","4","1","4","2","4","5","5","4","631124847648309248","赵","566","","","","","","","","","","","","","","","","","","","","","","","","","","","","","","","","","","","","","","","",""
"711","<p style=""color:white; font-size: 35px;"">卑鄙</p>","i","categorize-html","111","236428","0.0-6.0-1.0-8.0-1.1","4","3","4","3","3","4","3","1","4","4","4","4","5","4","4","5","4","5","4","4","4","5","4","4","1","3","4","5","4","1","0","1","1","0","1","0","1","0","1","1","0","1","0","1","5","2","4","1","4","2","4","5","5","4","631124847648309248","赵","566","","","","","","","","","","","","","","","","","","","true","14","4","moral","711","negative","卑鄙","","","","","","","","","","","","","","",""
"null","","null","html-keyboard-response","112","236682","0.0-6.0-1.0-8.0-0.2","4","3","4","3","3","4","3","1","4","4","4","4","5","4","4","5","4","5","4","4","4","5","4","4","1","3","4","5","4","1","0","1","1","0","1","0","1","0","1","1","0","1","0","1","5","2","4","1","4","2","4","5","5","4","631124847648309248","赵","566","","","","","","","","","","","","","","","","","","","","","","","","","","","","","","","","","","","","","","","",""
"577","<p style=""color:rgb(150, 250, 100); font-size: 35px;"">别人</p>","e","categorize-html","113","237265","0.0-6.0-1.0-8.0-1.2","4","3","4","3","3","4","3","1","4","4","4","4","5","4","4","5","4","5","4","4","4","5","4","4","1","3","4","5","4","1","0","1","1","0","1","0","1","0","1","1","0","1","0","1","5","2","4","1","4","2","4","5","5","4","631124847648309248","赵","566","","","","","","","","","","","","","","","","","","","true","14","4","moral","577","other","别人","","","","","","","","","","","","","","",""
"null","","null","html-keyboard-response","114","237518","0.0-6.0-1.0-8.0-0.3","4","3","4","3","3","4","3","1","4","4","4","4","5","4","4","5","4","5","4","4","4","5","4","4","1","3","4","5","4","1","0","1","1","0","1","0","1","0","1","1","0","1","0","1","5","2","4","1","4","2","4","5","5","4","631124847648309248","赵","566","","","","","","","","","","","","","","","","","","","","","","","","","","","","","","","","","","","","","","","",""
"1104","<p style=""color:white; font-size: 35px;"">君子</p>","e","categorize-html","115","238628","0.0-6.0-1.0-8.0-1.3","4","3","4","3","3","4","3","1","4","4","4","4","5","4","4","5","4","5","4","4","4","5","4","4","1","3","4","5","4","1","0","1","1","0","1","0","1","0","1","1","0","1","0","1","5","2","4","1","4","2","4","5","5","4","631124847648309248","赵","566","","","","","","","","","","","","","","","","","","","true","14","4","moral","1104","positive","君子","","","","","","","","","","","","","","",""
"null","","null","html-keyboard-response","116","238881","0.0-6.0-1.0-8.0-0.4","4","3","4","3","3","4","3","1","4","4","4","4","5","4","4","5","4","5","4","4","4","5","4","4","1","3","4","5","4","1","0","1","1","0","1","0","1","0","1","1","0","1","0","1","5","2","4","1","4","2","4","5","5","4","631124847648309248","赵","566","","","","","","","","","","","","","","","","","","","","","","","","","","","","","","","","","","","","","","","",""
"767","<p style=""color:rgb(150, 250, 100); font-size: 35px;"">别人的</p>","e","categorize-html","117","239654","0.0-6.0-1.0-8.0-1.4","4","3","4","3","3","4","3","1","4","4","4","4","5","4","4","5","4","5","4","4","4","5","4","4","1","3","4","5","4","1","0","1","1","0","1","0","1","0","1","1","0","1","0","1","5","2","4","1","4","2","4","5","5","4","631124847648309248","赵","566","","","","","","","","","","","","","","","","","","","true","14","4","moral","767","other","别人的","","","","","","","","","","","","","","",""
"null","","null","html-keyboard-response","118","239907","0.0-6.0-1.0-8.0-0.5","4","3","4","3","3","4","3","1","4","4","4","4","5","4","4","5","4","5","4","4","4","5","4","4","1","3","4","5","4","1","0","1","1","0","1","0","1","0","1","1","0","1","0","1","5","2","4","1","4","2","4","5","5","4","631124847648309248","赵","566","","","","","","","","","","","","","","","","","","","","","","","","","","","","","","","","","","","","","","","",""
"513","<p style=""color:white; font-size: 35px;"">缺德</p>","i","categorize-html","119","240427","0.0-6.0-1.0-8.0-1.5","4","3","4","3","3","4","3","1","4","4","4","4","5","4","4","5","4","5","4","4","4","5","4","4","1","3","4","5","4","1","0","1","1","0","1","0","1","0","1","1","0","1","0","1","5","2","4","1","4","2","4","5","5","4","631124847648309248","赵","566","","","","","","","","","","","","","","","","","","","true","14","4","moral","513","negative","缺德","","","","","","","","","","","","","","",""
"null","","null","html-keyboard-response","120","240680","0.0-6.0-1.0-8.0-0.6","4","3","4","3","3","4","3","1","4","4","4","4","5","4","4","5","4","5","4","4","4","5","4","4","1","3","4","5","4","1","0","1","1","0","1","0","1","0","1","1","0","1","0","1","5","2","4","1","4","2","4","5","5","4","631124847648309248","赵","566","","","","","","","","","","","","","","","","","","","","","","","","","","","","","","","","","","","","","","","",""
"699","<p style=""color:rgb(150, 250, 100); font-size: 35px;"">本人</p>","i","categorize-html","121","241386","0.0-6.0-1.0-8.0-1.6","4","3","4","3","3","4","3","1","4","4","4","4","5","4","4","5","4","5","4","4","4","5","4","4","1","3","4","5","4","1","0","1","1","0","1","0","1","0","1","1","0","1","0","1","5","2","4","1","4","2","4","5","5","4","631124847648309248","赵","566","","","","","","","","","","","","","","","","","","","true","14","4","moral","699","self","本人","","","","","","","","","","","","","","",""
"null","","null","html-keyboard-response","122","241638","0.0-6.0-1.0-8.0-0.7","4","3","4","3","3","4","3","1","4","4","4","4","5","4","4","5","4","5","4","4","4","5","4","4","1","3","4","5","4","1","0","1","1","0","1","0","1","0","1","1","0","1","0","1","5","2","4","1","4","2","4","5","5","4","631124847648309248","赵","566","","","","","","","","","","","","","","","","","","","","","","","","","","","","","","","","","","","","","","","",""
"663","<p style=""color:white; font-size: 35px;"">君子</p>","e","categorize-html","123","242315","0.0-6.0-1.0-8.0-1.7","4","3","4","3","3","4","3","1","4","4","4","4","5","4","4","5","4","5","4","4","4","5","4","4","1","3","4","5","4","1","0","1","1","0","1","0","1","0","1","1","0","1","0","1","5","2","4","1","4","2","4","5","5","4","631124847648309248","赵","566","","","","","","","","","","","","","","","","","","","true","14","4","moral","663","positive","君子","","","","","","","","","","","","","","",""
"null","","null","html-keyboard-response","124","242568","0.0-6.0-1.0-8.0-0.8","4","3","4","3","3","4","3","1","4","4","4","4","5","4","4","5","4","5","4","4","4","5","4","4","1","3","4","5","4","1","0","1","1","0","1","0","1","0","1","1","0","1","0","1","5","2","4","1","4","2","4","5","5","4","631124847648309248","赵","566","","","","","","","","","","","","","","","","","","","","","","","","","","","","","","","","","","","","","","","",""
"630","<p style=""color:rgb(150, 250, 100); font-size: 35px;"">我的</p>","e","categorize-html","125","243716","0.0-6.0-1.0-8.0-1.8","4","3","4","3","3","4","3","1","4","4","4","4","5","4","4","5","4","5","4","4","4","5","4","4","1","3","4","5","4","1","0","1","1","0","1","0","1","0","1","1","0","1","0","1","5","2","4","1","4","2","4","5","5","4","631124847648309248","赵","566","","","","","","","","","","","","","","","","","","","false","14","4","moral","1392.3636363636365","self","我的","","","","","","","","","","","","","","",""
"null","","null","html-keyboard-response","126","243969","0.0-6.0-1.0-8.0-0.9","4","3","4","3","3","4","3","1","4","4","4","4","5","4","4","5","4","5","4","4","4","5","4","4","1","3","4","5","4","1","0","1","1","0","1","0","1","0","1","1","0","1","0","1","5","2","4","1","4","2","4","5","5","4","631124847648309248","赵","566","","","","","","","","","","","","","","","","","","","","","","","","","","","","","","","","","","","","","","","",""
"2390","<p style=""color:white; font-size: 35px;"">善良</p>","e","categorize-html","127","246366","0.0-6.0-1.0-8.0-1.9","4","3","4","3","3","4","3","1","4","4","4","4","5","4","4","5","4","5","4","4","4","5","4","4","1","3","4","5","4","1","0","1","1","0","1","0","1","0","1","1","0","1","0","1","5","2","4","1","4","2","4","5","5","4","631124847648309248","赵","566","","","","","","","","","","","","","","","","","","","true","14","4","moral","2390","positive","善良","","","","","","","","","","","","","","",""
"null","","null","html-keyboard-response","128","246619","0.0-6.0-1.0-8.0-0.10","4","3","4","3","3","4","3","1","4","4","4","4","5","4","4","5","4","5","4","4","4","5","4","4","1","3","4","5","4","1","0","1","1","0","1","0","1","0","1","1","0","1","0","1","5","2","4","1","4","2","4","5","5","4","631124847648309248","赵","566","","","","","","","","","","","","","","","","","","","","","","","","","","","","","","","","","","","","","","","",""
"585","<p style=""color:rgb(150, 250, 100); font-size: 35px;"">他人</p>","e","categorize-html","129","247212","0.0-6.0-1.0-8.0-1.10","4","3","4","3","3","4","3","1","4","4","4","4","5","4","4","5","4","5","4","4","4","5","4","4","1","3","4","5","4","1","0","1","1","0","1","0","1","0","1","1","0","1","0","1","5","2","4","1","4","2","4","5","5","4","631124847648309248","赵","566","","","","","","","","","","","","","","","","","","","true","14","4","moral","585","other","他人","","","","","","","","","","","","","","",""
"null","","null","html-keyboard-response","130","247464","0.0-6.0-1.0-8.0-0.11","4","3","4","3","3","4","3","1","4","4","4","4","5","4","4","5","4","5","4","4","4","5","4","4","1","3","4","5","4","1","0","1","1","0","1","0","1","0","1","1","0","1","0","1","5","2","4","1","4","2","4","5","5","4","631124847648309248","赵","566","","","","","","","","","","","","","","","","","","","","","","","","","","","","","","","","","","","","","","","",""
"530","<p style=""color:white; font-size: 35px;"">缺德</p>","i","categorize-html","131","248003","0.0-6.0-1.0-8.0-1.11","4","3","4","3","3","4","3","1","4","4","4","4","5","4","4","5","4","5","4","4","4","5","4","4","1","3","4","5","4","1","0","1","1","0","1","0","1","0","1","1","0","1","0","1","5","2","4","1","4","2","4","5","5","4","631124847648309248","赵","566","","","","","","","","","","","","","","","","","","","true","14","4","moral","530","negative","缺德","","","","","","","","","","","","","","",""
"null","","null","html-keyboard-response","132","248257","0.0-6.0-1.0-8.0-0.12","4","3","4","3","3","4","3","1","4","4","4","4","5","4","4","5","4","5","4","4","4","5","4","4","1","3","4","5","4","1","0","1","1","0","1","0","1","0","1","1","0","1","0","1","5","2","4","1","4","2","4","5","5","4","631124847648309248","赵","566","","","","","","","","","","","","","","","","","","","","","","","","","","","","","","","","","","","","","","","",""
"1002","<p style=""color:rgb(150, 250, 100); font-size: 35px;"">我</p>","i","categorize-html","133","249266","0.0-6.0-1.0-8.0-1.12","4","3","4","3","3","4","3","1","4","4","4","4","5","4","4","5","4","5","4","4","4","5","4","4","1","3","4","5","4","1","0","1","1","0","1","0","1","0","1","1","0","1","0","1","5","2","4","1","4","2","4","5","5","4","631124847648309248","赵","566","","","","","","","","","","","","","","","","","","","true","14","4","moral","1002","self","我","","","","","","","","","","","","","","",""
"null","","null","html-keyboard-response","134","249519","0.0-6.0-1.0-8.0-0.13","4","3","4","3","3","4","3","1","4","4","4","4","5","4","4","5","4","5","4","4","4","5","4","4","1","3","4","5","4","1","0","1","1","0","1","0","1","0","1","1","0","1","0","1","5","2","4","1","4","2","4","5","5","4","631124847648309248","赵","566","","","","","","","","","","","","","","","","","","","","","","","","","","","","","","","","","","","","","","","",""
"578","<p style=""color:white; font-size: 35px;"">正直</p>","e","categorize-html","135","250102","0.0-6.0-1.0-8.0-1.13","4","3","4","3","3","4","3","1","4","4","4","4","5","4","4","5","4","5","4","4","4","5","4","4","1","3","4","5","4","1","0","1","1","0","1","0","1","0","1","1","0","1","0","1","5","2","4","1","4","2","4","5","5","4","631124847648309248","赵","566","","","","","","","","","","","","","","","","","","","true","14","4","moral","578","positive","正直","","","","","","","","","","","","","","",""
"null","","null","html-keyboard-response","136","250355","0.0-6.0-1.0-8.0-0.14","4","3","4","3","3","4","3","1","4","4","4","4","5","4","4","5","4","5","4","4","4","5","4","4","1","3","4","5","4","1","0","1","1","0","1","0","1","0","1","1","0","1","0","1","5","2","4","1","4","2","4","5","5","4","631124847648309248","赵","566","","","","","","","","","","","","","","","","","","","","","","","","","","","","","","","","","","","","","","","",""
"1401","<p style=""color:rgb(150, 250, 100); font-size: 35px;"">别人的</p>","e","categorize-html","137","251762","0.0-6.0-1.0-8.0-1.14","4","3","4","3","3","4","3","1","4","4","4","4","5","4","4","5","4","5","4","4","4","5","4","4","1","3","4","5","4","1","0","1","1","0","1","0","1","0","1","1","0","1","0","1","5","2","4","1","4","2","4","5","5","4","631124847648309248","赵","566","","","","","","","","","","","","","","","","","","","true","14","4","moral","1401","other","别人的","","","","","","","","","","","","","","",""
"null","","null","html-keyboard-response","138","252014","0.0-6.0-1.0-8.0-0.15","4","3","4","3","3","4","3","1","4","4","4","4","5","4","4","5","4","5","4","4","4","5","4","4","1","3","4","5","4","1","0","1","1","0","1","0","1","0","1","1","0","1","0","1","5","2","4","1","4","2","4","5","5","4","631124847648309248","赵","566","","","","","","","","","","","","","","","","","","","","","","","","","","","","","","","","","","","","","","","",""
"723","<p style=""color:white; font-size: 35px;"">不孝</p>","i","categorize-html","139","252743","0.0-6.0-1.0-8.0-1.15","4","3","4","3","3","4","3","1","4","4","4","4","5","4","4","5","4","5","4","4","4","5","4","4","1","3","4","5","4","1","0","1","1","0","1","0","1","0","1","1","0","1","0","1","5","2","4","1","4","2","4","5","5","4","631124847648309248","赵","566","","","","","","","","","","","","","","","","","","","true","14","4","moral","723","negative","不孝","","","","","","","","","","","","","","",""
"null","","null","html-keyboard-response","140","252998","0.0-6.0-1.0-8.0-0.16","4","3","4","3","3","4","3","1","4","4","4","4","5","4","4","5","4","5","4","4","4","5","4","4","1","3","4","5","4","1","0","1","1","0","1","0","1","0","1","1","0","1","0","1","5","2","4","1","4","2","4","5","5","4","631124847648309248","赵","566","","","","","","","","","","","","","","","","","","","","","","","","","","","","","","","","","","","","","","","",""
"706","<p style=""color:rgb(150, 250, 100); font-size: 35px;"">我</p>","i","categorize-html","141","253709","0.0-6.0-1.0-8.0-1.16","4","3","4","3","3","4","3","1","4","4","4","4","5","4","4","5","4","5","4","4","4","5","4","4","1","3","4","5","4","1","0","1","1","0","1","0","1","0","1","1","0","1","0","1","5","2","4","1","4","2","4","5","5","4","631124847648309248","赵","566","","","","","","","","","","","","","","","","","","","true","14","4","moral","706","self","我","","","","","","","","","","","","","","",""
"null","","null","html-keyboard-response","142","253963","0.0-6.0-1.0-8.0-0.17","4","3","4","3","3","4","3","1","4","4","4","4","5","4","4","5","4","5","4","4","4","5","4","4","1","3","4","5","4","1","0","1","1","0","1","0","1","0","1","1","0","1","0","1","5","2","4","1","4","2","4","5","5","4","631124847648309248","赵","566","","","","","","","","","","","","","","","","","","","","","","","","","","","","","","","","","","","","","","","",""
"517","<p style=""color:white; font-size: 35px;"">诚信</p>","e","categorize-html","143","254486","0.0-6.0-1.0-8.0-1.17","4","3","4","3","3","4","3","1","4","4","4","4","5","4","4","5","4","5","4","4","4","5","4","4","1","3","4","5","4","1","0","1","1","0","1","0","1","0","1","1","0","1","0","1","5","2","4","1","4","2","4","5","5","4","631124847648309248","赵","566","","","","","","","","","","","","","","","","","","","true","14","4","moral","517","positive","诚信","","","","","","","","","","","","","","",""
"null","","null","html-keyboard-response","144","254739","0.0-6.0-1.0-8.0-0.18","4","3","4","3","3","4","3","1","4","4","4","4","5","4","4","5","4","5","4","4","4","5","4","4","1","3","4","5","4","1","0","1","1","0","1","0","1","0","1","1","0","1","0","1","5","2","4","1","4","2","4","5","5","4","631124847648309248","赵","566","","","","","","","","","","","","","","","","","","","","","","","","","","","","","","","","","","","","","","","",""
"547","<p style=""color:rgb(150, 250, 100); font-size: 35px;"">他</p>","e","categorize-html","145","255291","0.0-6.0-1.0-8.0-1.18","4","3","4","3","3","4","3","1","4","4","4","4","5","4","4","5","4","5","4","4","4","5","4","4","1","3","4","5","4","1","0","1","1","0","1","0","1","0","1","1","0","1","0","1","5","2","4","1","4","2","4","5","5","4","631124847648309248","赵","566","","","","","","","","","","","","","","","","","","","true","14","4","moral","547","other","他","","","","","","","","","","","","","","",""
"null","","null","html-keyboard-response","146","255543","0.0-6.0-1.0-8.0-0.19","4","3","4","3","3","4","3","1","4","4","4","4","5","4","4","5","4","5","4","4","4","5","4","4","1","3","4","5","4","1","0","1","1","0","1","0","1","0","1","1","0","1","0","1","5","2","4","1","4","2","4","5","5","4","631124847648309248","赵","566","","","","","","","","","","","","","","","","","","","","","","","","","","","","","","","","","","","","","","","",""
"518","<p style=""color:white; font-size: 35px;"">不仁</p>","i","categorize-html","147","256068","0.0-6.0-1.0-8.0-1.19","4","3","4","3","3","4","3","1","4","4","4","4","5","4","4","5","4","5","4","4","4","5","4","4","1","3","4","5","4","1","0","1","1","0","1","0","1","0","1","1","0","1","0","1","5","2","4","1","4","2","4","5","5","4","631124847648309248","赵","566","","","","","","","","","","","","","","","","","","","true","14","4","moral","518","negative","不仁","","","","","","","","","","","","","","",""
"null","","null","html-keyboard-response","148","256320","0.0-6.0-1.0-8.0-0.20","4","3","4","3","3","4","3","1","4","4","4","4","5","4","4","5","4","5","4","4","4","5","4","4","1","3","4","5","4","1","0","1","1","0","1","0","1","0","1","1","0","1","0","1","5","2","4","1","4","2","4","5","5","4","631124847648309248","赵","566","","","","","","","","","","","","","","","","","","","","","","","","","","","","","","","","","","","","","","","",""
"766","<p style=""color:rgb(150, 250, 100); font-size: 35px;"">自己</p>","i","categorize-html","149","257094","0.0-6.0-1.0-8.0-1.20","4","3","4","3","3","4","3","1","4","4","4","4","5","4","4","5","4","5","4","4","4","5","4","4","1","3","4","5","4","1","0","1","1","0","1","0","1","0","1","1","0","1","0","1","5","2","4","1","4","2","4","5","5","4","631124847648309248","赵","566","","","","","","","","","","","","","","","","","","","true","14","4","moral","766","self","自己","","","","","","","","","","","","","","",""
"null","","null","html-keyboard-response","150","257346","0.0-6.0-1.0-8.0-0.21","4","3","4","3","3","4","3","1","4","4","4","4","5","4","4","5","4","5","4","4","4","5","4","4","1","3","4","5","4","1","0","1","1","0","1","0","1","0","1","1","0","1","0","1","5","2","4","1","4","2","4","5","5","4","631124847648309248","赵","566","","","","","","","","","","","","","","","","","","","","","","","","","","","","","","","","","","","","","","","",""
"587","<p style=""color:white; font-size: 35px;"">善良</p>","e","categorize-html","151","257938","0.0-6.0-1.0-8.0-1.21","4","3","4","3","3","4","3","1","4","4","4","4","5","4","4","5","4","5","4","4","4","5","4","4","1","3","4","5","4","1","0","1","1","0","1","0","1","0","1","1","0","1","0","1","5","2","4","1","4","2","4","5","5","4","631124847648309248","赵","566","","","","","","","","","","","","","","","","","","","true","14","4","moral","587","positive","善良","","","","","","","","","","","","","","",""
"null","","null","html-keyboard-response","152","258190","0.0-6.0-1.0-8.0-0.22","4","3","4","3","3","4","3","1","4","4","4","4","5","4","4","5","4","5","4","4","4","5","4","4","1","3","4","5","4","1","0","1","1","0","1","0","1","0","1","1","0","1","0","1","5","2","4","1","4","2","4","5","5","4","631124847648309248","赵","566","","","","","","","","","","","","","","","","","","","","","","","","","","","","","","","","","","","","","","","",""
"737","<p style=""color:rgb(150, 250, 100); font-size: 35px;"">他人的</p>","i","categorize-html","153","259321","0.0-6.0-1.0-8.0-1.22","4","3","4","3","3","4","3","1","4","4","4","4","5","4","4","5","4","5","4","4","4","5","4","4","1","3","4","5","4","1","0","1","1","0","1","0","1","0","1","1","0","1","0","1","5","2","4","1","4","2","4","5","5","4","631124847648309248","赵","566","","","","","","","","","","","","","","","","","","","false","14","4","moral","1392.3636363636365","other","他人的","","","","","","","","","","","","","","",""
"null","","null","html-keyboard-response","154","259572","0.0-6.0-1.0-8.0-0.23","4","3","4","3","3","4","3","1","4","4","4","4","5","4","4","5","4","5","4","4","4","5","4","4","1","3","4","5","4","1","0","1","1","0","1","0","1","0","1","1","0","1","0","1","5","2","4","1","4","2","4","5","5","4","631124847648309248","赵","566","","","","","","","","","","","","","","","","","","","","","","","","","","","","","","","","","","","","","","","",""
"576","<p style=""color:white; font-size: 35px;"">不孝</p>","i","categorize-html","155","260156","0.0-6.0-1.0-8.0-1.23","4","3","4","3","3","4","3","1","4","4","4","4","5","4","4","5","4","5","4","4","4","5","4","4","1","3","4","5","4","1","0","1","1","0","1","0","1","0","1","1","0","1","0","1","5","2","4","1","4","2","4","5","5","4","631124847648309248","赵","566","","","","","","","","","","","","","","","","","","","true","14","4","moral","576","negative","不孝","","","","","","","","","","","","","","",""
"null","","null","html-keyboard-response","156","260408","0.0-6.0-1.0-8.0-0.24","4","3","4","3","3","4","3","1","4","4","4","4","5","4","4","5","4","5","4","4","4","5","4","4","1","3","4","5","4","1","0","1","1","0","1","0","1","0","1","1","0","1","0","1","5","2","4","1","4","2","4","5","5","4","631124847648309248","赵","566","","","","","","","","","","","","","","","","","","","","","","","","","","","","","","","","","","","","","","","",""
"821","<p style=""color:rgb(150, 250, 100); font-size: 35px;"">他的</p>","e","categorize-html","157","261236","0.0-6.0-1.0-8.0-1.24","4","3","4","3","3","4","3","1","4","4","4","4","5","4","4","5","4","5","4","4","4","5","4","4","1","3","4","5","4","1","0","1","1","0","1","0","1","0","1","1","0","1","0","1","5","2","4","1","4","2","4","5","5","4","631124847648309248","赵","566","","","","","","","","","","","","","","","","","","","true","14","4","moral","821","other","他的","","","","","","","","","","","","","","",""
"null","","null","html-keyboard-response","158","261490","0.0-6.0-1.0-8.0-0.25","4","3","4","3","3","4","3","1","4","4","4","4","5","4","4","5","4","5","4","4","4","5","4","4","1","3","4","5","4","1","0","1","1","0","1","0","1","0","1","1","0","1","0","1","5","2","4","1","4","2","4","5","5","4","631124847648309248","赵","566","","","","","","","","","","","","","","","","","","","","","","","","","","","","","","","","","","","","","","","",""
"486","<p style=""color:white; font-size: 35px;"">高尚</p>","e","categorize-html","159","261982","0.0-6.0-1.0-8.0-1.25","4","3","4","3","3","4","3","1","4","4","4","4","5","4","4","5","4","5","4","4","4","5","4","4","1","3","4","5","4","1","0","1","1","0","1","0","1","0","1","1","0","1","0","1","5","2","4","1","4","2","4","5","5","4","631124847648309248","赵","566","","","","","","","","","","","","","","","","","","","true","14","4","moral","486","positive","高尚","","","","","","","","","","","","","","",""
"null","","null","html-keyboard-response","160","262235","0.0-6.0-1.0-8.0-0.26","4","3","4","3","3","4","3","1","4","4","4","4","5","4","4","5","4","5","4","4","4","5","4","4","1","3","4","5","4","1","0","1","1","0","1","0","1","0","1","1","0","1","0","1","5","2","4","1","4","2","4","5","5","4","631124847648309248","赵","566","","","","","","","","","","","","","","","","","","","","","","","","","","","","","","","","","","","","","","","",""
"588","<p style=""color:rgb(150, 250, 100); font-size: 35px;"">本人</p>","i","categorize-html","161","262832","0.0-6.0-1.0-8.0-1.26","4","3","4","3","3","4","3","1","4","4","4","4","5","4","4","5","4","5","4","4","4","5","4","4","1","3","4","5","4","1","0","1","1","0","1","0","1","0","1","1","0","1","0","1","5","2","4","1","4","2","4","5","5","4","631124847648309248","赵","566","","","","","","","","","","","","","","","","","","","true","14","4","moral","588","self","本人","","","","","","","","","","","","","","",""
"null","","null","html-keyboard-response","162","263088","0.0-6.0-1.0-8.0-0.27","4","3","4","3","3","4","3","1","4","4","4","4","5","4","4","5","4","5","4","4","4","5","4","4","1","3","4","5","4","1","0","1","1","0","1","0","1","0","1","1","0","1","0","1","5","2","4","1","4","2","4","5","5","4","631124847648309248","赵","566","","","","","","","","","","","","","","","","","","","","","","","","","","","","","","","","","","","","","","","",""
"671","<p style=""color:white; font-size: 35px;"">小人</p>","e","categorize-html","163","264139","0.0-6.0-1.0-8.0-1.27","4","3","4","3","3","4","3","1","4","4","4","4","5","4","4","5","4","5","4","4","4","5","4","4","1","3","4","5","4","1","0","1","1","0","1","0","1","0","1","1","0","1","0","1","5","2","4","1","4","2","4","5","5","4","631124847648309248","赵","566","","","","","","","","","","","","","","","","","","","false","14","4","moral","1392.3636363636365","negative","小人","","","","","","","","","","","","","","",""
"null","","null","html-keyboard-response","164","264392","0.0-6.0-1.0-8.0-0.28","4","3","4","3","3","4","3","1","4","4","4","4","5","4","4","5","4","5","4","4","4","5","4","4","1","3","4","5","4","1","0","1","1","0","1","0","1","0","1","1","0","1","0","1","5","2","4","1","4","2","4","5","5","4","631124847648309248","赵","566","","","","","","","","","","","","","","","","","","","","","","","","","","","","","","","","","","","","","","","",""
"625","<p style=""color:rgb(150, 250, 100); font-size: 35px;"">自己</p>","e","categorize-html","165","265447","0.0-6.0-1.0-8.0-1.28","4","3","4","3","3","4","3","1","4","4","4","4","5","4","4","5","4","5","4","4","4","5","4","4","1","3","4","5","4","1","0","1","1","0","1","0","1","0","1","1","0","1","0","1","5","2","4","1","4","2","4","5","5","4","631124847648309248","赵","566","","","","","","","","","","","","","","","","","","","false","14","4","moral","1392.3636363636365","self","自己","","","","","","","","","","","","","","",""
"null","","null","html-keyboard-response","166","265699","0.0-6.0-1.0-8.0-0.29","4","3","4","3","3","4","3","1","4","4","4","4","5","4","4","5","4","5","4","4","4","5","4","4","1","3","4","5","4","1","0","1","1","0","1","0","1","0","1","1","0","1","0","1","5","2","4","1","4","2","4","5","5","4","631124847648309248","赵","566","","","","","","","","","","","","","","","","","","","","","","","","","","","","","","","","","","","","","","","",""
"595","<p style=""color:white; font-size: 35px;"">卑鄙</p>","i","categorize-html","167","266297","0.0-6.0-1.0-8.0-1.29","4","3","4","3","3","4","3","1","4","4","4","4","5","4","4","5","4","5","4","4","4","5","4","4","1","3","4","5","4","1","0","1","1","0","1","0","1","0","1","1","0","1","0","1","5","2","4","1","4","2","4","5","5","4","631124847648309248","赵","566","","","","","","","","","","","","","","","","","","","true","14","4","moral","595","negative","卑鄙","","","","","","","","","","","","","","",""
"null","","null","html-keyboard-response","168","266551","0.0-6.0-1.0-8.0-0.30","4","3","4","3","3","4","3","1","4","4","4","4","5","4","4","5","4","5","4","4","4","5","4","4","1","3","4","5","4","1","0","1","1","0","1","0","1","0","1","1","0","1","0","1","5","2","4","1","4","2","4","5","5","4","631124847648309248","赵","566","","","","","","","","","","","","","","","","","","","","","","","","","","","","","","","","","","","","","","","",""
"524","<p style=""color:rgb(150, 250, 100); font-size: 35px;"">他人的</p>","e","categorize-html","169","267083","0.0-6.0-1.0-8.0-1.30","4","3","4","3","3","4","3","1","4","4","4","4","5","4","4","5","4","5","4","4","4","5","4","4","1","3","4","5","4","1","0","1","1","0","1","0","1","0","1","1","0","1","0","1","5","2","4","1","4","2","4","5","5","4","631124847648309248","赵","566","","","","","","","","","","","","","","","","","","","true","14","4","moral","524","other","他人的","","","","","","","","","","","","","","",""
"null","","null","html-keyboard-response","170","267336","0.0-6.0-1.0-8.0-0.31","4","3","4","3","3","4","3","1","4","4","4","4","5","4","4","5","4","5","4","4","4","5","4","4","1","3","4","5","4","1","0","1","1","0","1","0","1","0","1","1","0","1","0","1","5","2","4","1","4","2","4","5","5","4","631124847648309248","赵","566","","","","","","","","","","","","","","","","","","","","","","","","","","","","","","","","","","","","","","","",""
"661","<p style=""color:white; font-size: 35px;"">廉正</p>","e","categorize-html","171","268004","0.0-6.0-1.0-8.0-1.31","4","3","4","3","3","4","3","1","4","4","4","4","5","4","4","5","4","5","4","4","4","5","4","4","1","3","4","5","4","1","0","1","1","0","1","0","1","0","1","1","0","1","0","1","5","2","4","1","4","2","4","5","5","4","631124847648309248","赵","566","","","","","","","","","","","","","","","","","","","true","14","4","moral","661","positive","廉正","","","","","","","","","","","","","","",""
"null","","null","html-keyboard-response","172","268258","0.0-6.0-1.0-8.0-0.32","4","3","4","3","3","4","3","1","4","4","4","4","5","4","4","5","4","5","4","4","4","5","4","4","1","3","4","5","4","1","0","1","1","0","1","0","1","0","1","1","0","1","0","1","5","2","4","1","4","2","4","5","5","4","631124847648309248","赵","566","","","","","","","","","","","","","","","","","","","","","","","","","","","","","","","","","","","","","","","",""
"565","<p style=""color:rgb(150, 250, 100); font-size: 35px;"">自己的</p>","i","categorize-html","173","268828","0.0-6.0-1.0-8.0-1.32","4","3","4","3","3","4","3","1","4","4","4","4","5","4","4","5","4","5","4","4","4","5","4","4","1","3","4","5","4","1","0","1","1","0","1","0","1","0","1","1","0","1","0","1","5","2","4","1","4","2","4","5","5","4","631124847648309248","赵","566","","","","","","","","","","","","","","","","","","","true","14","4","moral","565","self","自己的","","","","","","","","","","","","","","",""
"null","","null","html-keyboard-response","174","269080","0.0-6.0-1.0-8.0-0.33","4","3","4","3","3","4","3","1","4","4","4","4","5","4","4","5","4","5","4","4","4","5","4","4","1","3","4","5","4","1","0","1","1","0","1","0","1","0","1","1","0","1","0","1","5","2","4","1","4","2","4","5","5","4","631124847648309248","赵","566","","","","","","","","","","","","","","","","","","","","","","","","","","","","","","","","","","","","","","","",""
"558","<p style=""color:white; font-size: 35px;"">黑心</p>","i","categorize-html","175","269644","0.0-6.0-1.0-8.0-1.33","4","3","4","3","3","4","3","1","4","4","4","4","5","4","4","5","4","5","4","4","4","5","4","4","1","3","4","5","4","1","0","1","1","0","1","0","1","0","1","1","0","1","0","1","5","2","4","1","4","2","4","5","5","4","631124847648309248","赵","566","","","","","","","","","","","","","","","","","","","true","14","4","moral","558","negative","黑心","","","","","","","","","","","","","","",""
"null","","null","html-keyboard-response","176","269896","0.0-6.0-1.0-8.0-0.34","4","3","4","3","3","4","3","1","4","4","4","4","5","4","4","5","4","5","4","4","4","5","4","4","1","3","4","5","4","1","0","1","1","0","1","0","1","0","1","1","0","1","0","1","5","2","4","1","4","2","4","5","5","4","631124847648309248","赵","566","","","","","","","","","","","","","","","","","","","","","","","","","","","","","","","","","","","","","","","",""
"629","<p style=""color:rgb(150, 250, 100); font-size: 35px;"">别人</p>","e","categorize-html","177","270532","0.0-6.0-1.0-8.0-1.34","4","3","4","3","3","4","3","1","4","4","4","4","5","4","4","5","4","5","4","4","4","5","4","4","1","3","4","5","4","1","0","1","1","0","1","0","1","0","1","1","0","1","0","1","5","2","4","1","4","2","4","5","5","4","631124847648309248","赵","566","","","","","","","","","","","","","","","","","","","true","14","4","moral","629","other","别人","","","","","","","","","","","","","","",""
"null","","null","html-keyboard-response","178","270784","0.0-6.0-1.0-8.0-0.35","4","3","4","3","3","4","3","1","4","4","4","4","5","4","4","5","4","5","4","4","4","5","4","4","1","3","4","5","4","1","0","1","1","0","1","0","1","0","1","1","0","1","0","1","5","2","4","1","4","2","4","5","5","4","631124847648309248","赵","566","","","","","","","","","","","","","","","","","","","","","","","","","","","","","","","","","","","","","","","",""
"1603","<p style=""color:white; font-size: 35px;"">廉正</p>","e","categorize-html","179","272391","0.0-6.0-1.0-8.0-1.35","4","3","4","3","3","4","3","1","4","4","4","4","5","4","4","5","4","5","4","4","4","5","4","4","1","3","4","5","4","1","0","1","1","0","1","0","1","0","1","1","0","1","0","1","5","2","4","1","4","2","4","5","5","4","631124847648309248","赵","566","","","","","","","","","","","","","","","","","","","true","14","4","moral","1603","positive","廉正","","","","","","","","","","","","","","",""
"null","","null","html-keyboard-response","180","272641","0.0-6.0-1.0-8.0-0.36","4","3","4","3","3","4","3","1","4","4","4","4","5","4","4","5","4","5","4","4","4","5","4","4","1","3","4","5","4","1","0","1","1","0","1","0","1","0","1","1","0","1","0","1","5","2","4","1","4","2","4","5","5","4","631124847648309248","赵","566","","","","","","","","","","","","","","","","","","","","","","","","","","","","","","","","","","","","","","","",""
"647","<p style=""color:rgb(150, 250, 100); font-size: 35px;"">本人的</p>","i","categorize-html","181","273293","0.0-6.0-1.0-8.0-1.36","4","3","4","3","3","4","3","1","4","4","4","4","5","4","4","5","4","5","4","4","4","5","4","4","1","3","4","5","4","1","0","1","1","0","1","0","1","0","1","1","0","1","0","1","5","2","4","1","4","2","4","5","5","4","631124847648309248","赵","566","","","","","","","","","","","","","","","","","","","true","14","4","moral","647","self","本人的","","","","","","","","","","","","","","",""
"null","","null","html-keyboard-response","182","273544","0.0-6.0-1.0-8.0-0.37","4","3","4","3","3","4","3","1","4","4","4","4","5","4","4","5","4","5","4","4","4","5","4","4","1","3","4","5","4","1","0","1","1","0","1","0","1","0","1","1","0","1","0","1","5","2","4","1","4","2","4","5","5","4","631124847648309248","赵","566","","","","","","","","","","","","","","","","","","","","","","","","","","","","","","","","","","","","","","","",""
"624","<p style=""color:white; font-size: 35px;"">黑心</p>","i","categorize-html","183","274174","0.0-6.0-1.0-8.0-1.37","4","3","4","3","3","4","3","1","4","4","4","4","5","4","4","5","4","5","4","4","4","5","4","4","1","3","4","5","4","1","0","1","1","0","1","0","1","0","1","1","0","1","0","1","5","2","4","1","4","2","4","5","5","4","631124847648309248","赵","566","","","","","","","","","","","","","","","","","","","true","14","4","moral","624","negative","黑心","","","","","","","","","","","","","","",""
"null","","null","html-keyboard-response","184","274426","0.0-6.0-1.0-8.0-0.38","4","3","4","3","3","4","3","1","4","4","4","4","5","4","4","5","4","5","4","4","4","5","4","4","1","3","4","5","4","1","0","1","1","0","1","0","1","0","1","1","0","1","0","1","5","2","4","1","4","2","4","5","5","4","631124847648309248","赵","566","","","","","","","","","","","","","","","","","","","","","","","","","","","","","","","","","","","","","","","",""
"589","<p style=""color:rgb(150, 250, 100); font-size: 35px;"">他的</p>","e","categorize-html","185","275021","0.0-6.0-1.0-8.0-1.38","4","3","4","3","3","4","3","1","4","4","4","4","5","4","4","5","4","5","4","4","4","5","4","4","1","3","4","5","4","1","0","1","1","0","1","0","1","0","1","1","0","1","0","1","5","2","4","1","4","2","4","5","5","4","631124847648309248","赵","566","","","","","","","","","","","","","","","","","","","true","14","4","moral","589","other","他的","","","","","","","","","","","","","","",""
"null","","null","html-keyboard-response","186","275273","0.0-6.0-1.0-8.0-0.39","4","3","4","3","3","4","3","1","4","4","4","4","5","4","4","5","4","5","4","4","4","5","4","4","1","3","4","5","4","1","0","1","1","0","1","0","1","0","1","1","0","1","0","1","5","2","4","1","4","2","4","5","5","4","631124847648309248","赵","566","","","","","","","","","","","","","","","","","","","","","","","","","","","","","","","","","","","","","","","",""
"666","<p style=""color:white; font-size: 35px;"">诚信</p>","e","categorize-html","187","275942","0.0-6.0-1.0-8.0-1.39","4","3","4","3","3","4","3","1","4","4","4","4","5","4","4","5","4","5","4","4","4","5","4","4","1","3","4","5","4","1","0","1","1","0","1","0","1","0","1","1","0","1","0","1","5","2","4","1","4","2","4","5","5","4","631124847648309248","赵","566","","","","","","","","","","","","","","","","","","","true","14","4","moral","666","positive","诚信","","","","","","","","","","","","","","",""
"null","","null","html-keyboard-response","188","276194","0.0-6.0-1.0-8.0-0.40","4","3","4","3","3","4","3","1","4","4","4","4","5","4","4","5","4","5","4","4","4","5","4","4","1","3","4","5","4","1","0","1","1","0","1","0","1","0","1","1","0","1","0","1","5","2","4","1","4","2","4","5","5","4","631124847648309248","赵","566","","","","","","","","","","","","","","","","","","","","","","","","","","","","","","","","","","","","","","","",""
"813","<p style=""color:rgb(150, 250, 100); font-size: 35px;"">我的</p>","i","categorize-html","189","277012","0.0-6.0-1.0-8.0-1.40","4","3","4","3","3","4","3","1","4","4","4","4","5","4","4","5","4","5","4","4","4","5","4","4","1","3","4","5","4","1","0","1","1","0","1","0","1","0","1","1","0","1","0","1","5","2","4","1","4","2","4","5","5","4","631124847648309248","赵","566","","","","","","","","","","","","","","","","","","","true","14","4","moral","813","self","我的","","","","","","","","","","","","","","",""
"null","","null","html-keyboard-response","190","277264","0.0-6.0-1.0-8.0-0.41","4","3","4","3","3","4","3","1","4","4","4","4","5","4","4","5","4","5","4","4","4","5","4","4","1","3","4","5","4","1","0","1","1","0","1","0","1","0","1","1","0","1","0","1","5","2","4","1","4","2","4","5","5","4","631124847648309248","赵","566","","","","","","","","","","","","","","","","","","","","","","","","","","","","","","","","","","","","","","","",""
"686","<p style=""color:white; font-size: 35px;"">小人</p>","i","categorize-html","191","277958","0.0-6.0-1.0-8.0-1.41","4","3","4","3","3","4","3","1","4","4","4","4","5","4","4","5","4","5","4","4","4","5","4","4","1","3","4","5","4","1","0","1","1","0","1","0","1","0","1","1","0","1","0","1","5","2","4","1","4","2","4","5","5","4","631124847648309248","赵","566","","","","","","","","","","","","","","","","","","","true","14","4","moral","686","negative","小人","","","","","","","","","","","","","","",""
"null","","null","html-keyboard-response","192","278211","0.0-6.0-1.0-8.0-0.42","4","3","4","3","3","4","3","1","4","4","4","4","5","4","4","5","4","5","4","4","4","5","4","4","1","3","4","5","4","1","0","1","1","0","1","0","1","0","1","1","0","1","0","1","5","2","4","1","4","2","4","5","5","4","631124847648309248","赵","566","","","","","","","","","","","","","","","","","","","","","","","","","","","","","","","","","","","","","","","",""
"758","<p style=""color:rgb(150, 250, 100); font-size: 35px;"">他</p>","e","categorize-html","193","278977","0.0-6.0-1.0-8.0-1.42","4","3","4","3","3","4","3","1","4","4","4","4","5","4","4","5","4","5","4","4","4","5","4","4","1","3","4","5","4","1","0","1","1","0","1","0","1","0","1","1","0","1","0","1","5","2","4","1","4","2","4","5","5","4","631124847648309248","赵","566","","","","","","","","","","","","","","","","","","","true","14","4","moral","758","other","他","","","","","","","","","","","","","","",""
"null","","null","html-keyboard-response","194","279229","0.0-6.0-1.0-8.0-0.43","4","3","4","3","3","4","3","1","4","4","4","4","5","4","4","5","4","5","4","4","4","5","4","4","1","3","4","5","4","1","0","1","1","0","1","0","1","0","1","1","0","1","0","1","5","2","4","1","4","2","4","5","5","4","631124847648309248","赵","566","","","","","","","","","","","","","","","","","","","","","","","","","","","","","","","","","","","","","","","",""
"1548","<p style=""color:white; font-size: 35px;"">正直</p>","e","categorize-html","195","280784","0.0-6.0-1.0-8.0-1.43","4","3","4","3","3","4","3","1","4","4","4","4","5","4","4","5","4","5","4","4","4","5","4","4","1","3","4","5","4","1","0","1","1","0","1","0","1","0","1","1","0","1","0","1","5","2","4","1","4","2","4","5","5","4","631124847648309248","赵","566","","","","","","","","","","","","","","","","","","","true","14","4","moral","1548","positive","正直","","","","","","","","","","","","","","",""
"null","","null","html-keyboard-response","196","281035","0.0-6.0-1.0-8.0-0.44","4","3","4","3","3","4","3","1","4","4","4","4","5","4","4","5","4","5","4","4","4","5","4","4","1","3","4","5","4","1","0","1","1","0","1","0","1","0","1","1","0","1","0","1","5","2","4","1","4","2","4","5","5","4","631124847648309248","赵","566","","","","","","","","","","","","","","","","","","","","","","","","","","","","","","","","","","","","","","","",""
