"rt","stimulus","response","trial_type","trial_index","time_elapsed","internal_node_id","ses_1","ses_2","ses_3","ses_4","ses_5","ses_6","ses_7","ses_8","ses_9","ses_10","coreself_1","coreself_2","coreself_3","coreself_4","coreself_5","coreself_6","coreself_7","coreself_8","coreself_9","coreself_10","SGPS_1","SGPS_2","SGPS_3","SGPS_4","SGPS_5","SGPS_6","SGPS_7","SGPS_8","SGPS_9","NPI1","NPI2","NPI3","NPI4","NPI5","NPI6","NPI7","NPI8","NPI9","NPI10","NPI11","NPI12","NPI13","NPI14","NPI15","hsns_1","hsns_2","hsns_3","hsns_4","hsns_5","hsns_6","hsns_7","hsns_8","hsns_9","hsns_10","subj_idx","friend_name","ParticipantID","value","success","user_agent","responses","item_order","radio_event_ids","radio_event_times","key_event_times","mouse_event_times","straightlining","zigzagging","honeypot","timeout","failed_images","failed_audio","failed_video","view_history","response_type","key_press","avg_frame_time","center_x","center_y","correct_response","correct","identity","Image","word","condition","task_id","screen_id","time_stamp","version_attrib2","version_target2","IAT","RT","varname","summary","version_attrib","version_target","question_order"
"2669","
   <p><div style = ""color: white;font-size:25px;"">您好，欢迎参加本次实验。</div> </p>
   <p><div style = ""color: white;font-size:25px;"">为充分保障您的权利，请确保您已经知晓并同意《参与实验同意书》以及《数据公开知情同意书》。</div></p>
   <p><div style = ""color: white;font-size:25px;"">如果您未见过上述内容，请咨询实验员。</div></p>
   <p><div style = ""color: white;font-size:25px;"">如果您选择继续实验，则表示您已经清楚两份知情同意书的内容并同意。</div></p>
   <p><div style = ""color: red;font-size:30px;"">请确保您记得day0的实验编号，您将在本次实验输入该编号，若您忘记，请咨询实验员后作答。</div></p>
   <p> <div style = ""color: green;font-size:25px;""><按空格键至下页></div> </p>
   "," ","html-keyboard-response","0","2671","0.0-0.0","3","3","4","3","4","3","3","4","4","4","4","5","4","3","4","4","4","4","4","5","1","1","1","1","2","1","4","4","1","1","0","1","1","0","0","0","1","0","1","1","0","1","0","1","4","4","4","4","4","3","4","4","2","2","574675236746690560","杨","21","","","","","","","","","","","","","","","","","","","","","","","","","","","","","","","","","","","","","","","",""
"","","","call-function","1","2672","0.0-1.0-0.0","3","3","4","3","4","3","3","4","4","4","4","5","4","3","4","4","4","4","4","5","1","1","1","1","2","1","4","4","1","1","0","1","1","0","0","0","1","0","1","1","0","1","0","1","4","4","4","4","4","3","4","4","2","2","574675236746690560","杨","21","","","","","","","","","","","","","","","","","","","","","","","","","","","","","","","","","","","","","","","",""
"13302","","{""friend_name"":""杨"",""ParticipantID"":""21""}","survey-html-form","2","15974","0.0-1.0-1.0","3","3","4","3","4","3","3","4","4","4","4","5","4","3","4","4","4","4","4","5","1","1","1","1","2","1","4","4","1","1","0","1","1","0","0","0","1","0","1","1","0","1","0","1","4","4","4","4","4","3","4","4","2","2","574675236746690560","杨","21","","","","","","","","","","","","","","","","","","","","","","","","","","","","","","","","","","","","","","","",""
"","","","fullscreen","3","18539","0.0-2.0","3","3","4","3","4","3","3","4","4","4","4","5","4","3","4","4","4","4","4","5","1","1","1","1","2","1","4","4","1","1","0","1","1","0","0","0","1","0","1","1","0","1","0","1","4","4","4","4","4","3","4","4","2","2","574675236746690560","杨","21","","true","{}","","","","","","","","","","","","","","","","","","","","","","","","","","","","","","","","","","","","",""
"14487.100000023842","","{""Q01"":""3"",""Q02"":""3"",""Q03"":""4"",""Q04"":""3"",""Q05"":""4"",""Q06"":""3"",""Q07"":""3"",""Q08"":""4"",""Q09"":""4"",""Q10"":""4""}","survey-template","4","33046","0.0-3.0","3","3","4","3","4","3","3","4","4","4","4","5","4","3","4","4","4","4","4","5","1","1","1","1","2","1","4","4","1","1","0","1","1","0","0","0","1","0","1","1","0","1","0","1","4","4","4","4","4","3","4","4","2","2","574675236746690560","杨","21","","","","{""Q01"":""3"",""Q02"":""3"",""Q03"":""4"",""Q04"":""3"",""Q05"":""4"",""Q06"":""3"",""Q07"":""3"",""Q08"":""4"",""Q09"":""4"",""Q10"":""4""}","[0,1,2,3,4,5,6,7,8,9]","[""Q01"",""Q02"",""Q03"",""Q04"",""Q05"",""Q06"",""Q07"",""Q08"",""Q09"",""Q10""]","[2365.5,3773.600000023842,5293,7005.400000035763,8309.5,9429.100000023842,10487.600000023842,11749,12917.199999988079,13637]","[]","[2365.5,3773.600000023842,5293,7005.400000035763,8309.5,9429.100000023842,10487.600000023842,11749,12917.199999988079,13637,14485.199999988079]","0.5","0","0","","","","","","","","","","","","","","","","","","","","","","","","","","","",""
"15681.600000023842","","{""Q01"":""4"",""Q02"":""5"",""Q03"":""4"",""Q04"":""3"",""Q05"":""4"",""Q06"":""4"",""Q07"":""4"",""Q08"":""4"",""Q09"":""4"",""Q10"":""5""}","survey-template","5","48734","0.0-4.0","3","3","4","3","4","3","3","4","4","4","4","5","4","3","4","4","4","4","4","5","1","1","1","1","2","1","4","4","1","1","0","1","1","0","0","0","1","0","1","1","0","1","0","1","4","4","4","4","4","3","4","4","2","2","574675236746690560","杨","21","","","","{""Q01"":""4"",""Q02"":""5"",""Q03"":""4"",""Q04"":""3"",""Q05"":""4"",""Q06"":""4"",""Q07"":""4"",""Q08"":""4"",""Q09"":""4"",""Q10"":""5""}","[0,1,2,3,4,5,6,7,8,9]","[""Q01"",""Q02"",""Q03"",""Q04"",""Q05"",""Q06"",""Q07"",""Q08"",""Q09"",""Q10""]","[1823.800000011921,2967.800000011921,4039.900000035763,5231.300000011921,7295.800000011921,8319.300000011921,9607.800000011921,10737,12103.700000047684,13431.400000035763]","[]","[1823.800000011921,2967.800000011921,4039.900000035763,5231.300000011921,7295.800000011921,8319.300000011921,9607.800000011921,10737,12103.700000047684,13431.400000035763,15679.600000023842]","0.4","0.3333333333333333","0","","","","","","","","","","","","","","","","","","","","","","","","","","","",""
"","","","preload","6","49384","0.0-5.0","3","3","4","3","4","3","3","4","4","4","4","5","4","3","4","4","4","4","4","5","1","1","1","1","2","1","4","4","1","1","0","1","1","0","0","0","1","0","1","1","0","1","0","1","4","4","4","4","4","3","4","4","2","2","574675236746690560","杨","21","","true","","","","","","","","","","","false","[]","[]","[]","","","","","","","","","","","","","","","","","","","","","","","",""
"7475","","","instructions","7","56860","0.0-6.0","3","3","4","3","4","3","3","4","4","4","4","5","4","3","4","4","4","4","4","5","1","1","1","1","2","1","4","4","1","1","0","1","1","0","0","0","1","0","1","1","0","1","0","1","4","4","4","4","4","3","4","4","2","2","574675236746690560","杨","21","","","","","","","","","","","","","","","","","[{""page_index"":0,""viewing_time"":7475}]","","","","","","","","","","","","","","","","","","","","","","",""
"17533","","","instructions","8","74395","0.0-7.0-1.0-0.0","3","3","4","3","4","3","3","4","4","4","4","5","4","3","4","4","4","4","4","5","1","1","1","1","2","1","4","4","1","1","0","1","1","0","0","0","1","0","1","1","0","1","0","1","4","4","4","4","4","3","4","4","2","2","574675236746690560","杨","21","","","","","","","","","","","","","","","","","[{""page_index"":0,""viewing_time"":10621},{""page_index"":1,""viewing_time"":4592},{""page_index"":2,""viewing_time"":2320}]","","","","","","","","","","","","","","","","","","","","","","",""
"649","","j","psychophysics","9","76051","0.0-7.0-1.0-1.0-0.0-0.0","3","3","4","3","4","3","3","4","4","4","4","5","4","3","4","4","4","4","4","5","1","1","1","1","2","1","4","4","1","1","0","1","1","0","0","0","1","0","1","1","0","1","0","1","4","4","4","4","4","3","4","4","2","2","574675236746690560","杨","21","","","","match","","","","","","","","","","","","","","key","j","16.67042857142862","640","356","j","true","match","img/hexagon.png","六边","六边","ALT1_2","prac_ALT1_2","","","","","","","","","",""
"null","<span style='color:GreenYellow; font-size: 70px;'>正确! </span>","null","html-keyboard-response","10","76554","0.0-7.0-1.0-1.0-0.0-1.0","3","3","4","3","4","3","3","4","4","4","4","5","4","3","4","4","4","4","4","5","1","1","1","1","2","1","4","4","1","1","0","1","1","0","0","0","1","0","1","1","0","1","0","1","4","4","4","4","4","3","4","4","2","2","574675236746690560","杨","21","","","","","","","","","","","","","","","","","","","","","","","","","","","","","","feedback_test","","","","","","","","","",""
"713","","f","psychophysics","11","78270","0.0-7.0-1.0-1.0-0.0-0.1","3","3","4","3","4","3","3","4","4","4","4","5","4","3","4","4","4","4","4","5","1","1","1","1","2","1","4","4","1","1","0","1","1","0","0","0","1","0","1","1","0","1","0","1","4","4","4","4","4","3","4","4","2","2","574675236746690560","杨","21","","","","nonmatch","","","","","","","","","","","","","","key","f","16.66676237623756","640","356","f","true","nonmatch","img/hexagon.png","椭圆","六边","ALT1_2","prac_ALT1_2","","","","","","","","","",""
"null","<span style='color:GreenYellow; font-size: 70px;'>正确! </span>","null","html-keyboard-response","12","78786","0.0-7.0-1.0-1.0-0.0-1.1","3","3","4","3","4","3","3","4","4","4","4","5","4","3","4","4","4","4","4","5","1","1","1","1","2","1","4","4","1","1","0","1","1","0","0","0","1","0","1","1","0","1","0","1","4","4","4","4","4","3","4","4","2","2","574675236746690560","杨","21","","","","","","","","","","","","","","","","","","","","","","","","","","","","","","feedback_test","","","","","","","","","",""
"592","","f","psychophysics","13","80381","0.0-7.0-1.0-1.0-0.0-0.2","3","3","4","3","4","3","3","4","4","4","4","5","4","3","4","4","4","4","4","5","1","1","1","1","2","1","4","4","1","1","0","1","1","0","0","0","1","0","1","1","0","1","0","1","4","4","4","4","4","3","4","4","2","2","574675236746690560","杨","21","","","","nonmatch","","","","","","","","","","","","","","key","f","16.66615957446815","640","356","f","true","nonmatch","img/ellipse.png","方形","椭圆","ALT1_2","prac_ALT1_2","","","","","","","","","",""
"null","<span style='color:GreenYellow; font-size: 70px;'>正确! </span>","null","html-keyboard-response","14","80883","0.0-7.0-1.0-1.0-0.0-1.2","3","3","4","3","4","3","3","4","4","4","4","5","4","3","4","4","4","4","4","5","1","1","1","1","2","1","4","4","1","1","0","1","1","0","0","0","1","0","1","1","0","1","0","1","4","4","4","4","4","3","4","4","2","2","574675236746690560","杨","21","","","","","","","","","","","","","","","","","","","","","","","","","","","","","","feedback_test","","","","","","","","","",""
"494","","j","psychophysics","15","82381","0.0-7.0-1.0-1.0-0.0-0.3","3","3","4","3","4","3","3","4","4","4","4","5","4","3","4","4","4","4","4","5","1","1","1","1","2","1","4","4","1","1","0","1","1","0","0","0","1","0","1","1","0","1","0","1","4","4","4","4","4","3","4","4","2","2","574675236746690560","杨","21","","","","match","","","","","","","","","","","","","","key","j","16.668539325842698","640","356","j","true","match","img/hexagon.png","六边","六边","ALT1_2","prac_ALT1_2","","","","","","","","","",""
"null","<span style='color:GreenYellow; font-size: 70px;'>正确! </span>","null","html-keyboard-response","16","82884","0.0-7.0-1.0-1.0-0.0-1.3","3","3","4","3","4","3","3","4","4","4","4","5","4","3","4","4","4","4","4","5","1","1","1","1","2","1","4","4","1","1","0","1","1","0","0","0","1","0","1","1","0","1","0","1","4","4","4","4","4","3","4","4","2","2","574675236746690560","杨","21","","","","","","","","","","","","","","","","","","","","","","","","","","","","","","feedback_test","","","","","","","","","",""
"621","","j","psychophysics","17","84507","0.0-7.0-1.0-1.0-0.0-0.4","3","3","4","3","4","3","3","4","4","4","4","5","4","3","4","4","4","4","4","5","1","1","1","1","2","1","4","4","1","1","0","1","1","0","0","0","1","0","1","1","0","1","0","1","4","4","4","4","4","3","4","4","2","2","574675236746690560","杨","21","","","","match","","","","","","","","","","","","","","key","j","16.66954639175269","640","356","j","true","match","img/hexagon.png","六边","六边","ALT1_2","prac_ALT1_2","","","","","","","","","",""
"null","<span style='color:GreenYellow; font-size: 70px;'>正确! </span>","null","html-keyboard-response","18","85010","0.0-7.0-1.0-1.0-0.0-1.4","3","3","4","3","4","3","3","4","4","4","4","5","4","3","4","4","4","4","4","5","1","1","1","1","2","1","4","4","1","1","0","1","1","0","0","0","1","0","1","1","0","1","0","1","4","4","4","4","4","3","4","4","2","2","574675236746690560","杨","21","","","","","","","","","","","","","","","","","","","","","","","","","","","","","","feedback_test","","","","","","","","","",""
"579","","f","psychophysics","19","86593","0.0-7.0-1.0-1.0-0.0-0.5","3","3","4","3","4","3","3","4","4","4","4","5","4","3","4","4","4","4","4","5","1","1","1","1","2","1","4","4","1","1","0","1","1","0","0","0","1","0","1","1","0","1","0","1","4","4","4","4","4","3","4","4","2","2","574675236746690560","杨","21","","","","nonmatch","","","","","","","","","","","","","","key","f","16.661446808510554","640","356","f","true","nonmatch","img/square.png","椭圆","方形","ALT1_2","prac_ALT1_2","","","","","","","","","",""
"null","<span style='color:GreenYellow; font-size: 70px;'>正确! </span>","null","html-keyboard-response","20","87095","0.0-7.0-1.0-1.0-0.0-1.5","3","3","4","3","4","3","3","4","4","4","4","5","4","3","4","4","4","4","4","5","1","1","1","1","2","1","4","4","1","1","0","1","1","0","0","0","1","0","1","1","0","1","0","1","4","4","4","4","4","3","4","4","2","2","574675236746690560","杨","21","","","","","","","","","","","","","","","","","","","","","","","","","","","","","","feedback_test","","","","","","","","","",""
"693","","f","psychophysics","21","88792","0.0-7.0-1.0-1.0-0.0-0.6","3","3","4","3","4","3","3","4","4","4","4","5","4","3","4","4","4","4","4","5","1","1","1","1","2","1","4","4","1","1","0","1","1","0","0","0","1","0","1","1","0","1","0","1","4","4","4","4","4","3","4","4","2","2","574675236746690560","杨","21","","","","nonmatch","","","","","","","","","","","","","","key","f","16.65143564356434","640","356","f","true","nonmatch","img/ellipse.png","梯形","椭圆","ALT1_2","prac_ALT1_2","","","","","","","","","",""
"null","<span style='color:GreenYellow; font-size: 70px;'>正确! </span>","null","html-keyboard-response","22","89294","0.0-7.0-1.0-1.0-0.0-1.6","3","3","4","3","4","3","3","4","4","4","4","5","4","3","4","4","4","4","4","5","1","1","1","1","2","1","4","4","1","1","0","1","1","0","0","0","1","0","1","1","0","1","0","1","4","4","4","4","4","3","4","4","2","2","574675236746690560","杨","21","","","","","","","","","","","","","","","","","","","","","","","","","","","","","","feedback_test","","","","","","","","","",""
"683","","j","psychophysics","23","90980","0.0-7.0-1.0-1.0-0.0-0.7","3","3","4","3","4","3","3","4","4","4","4","5","4","3","4","4","4","4","4","5","1","1","1","1","2","1","4","4","1","1","0","1","1","0","0","0","1","0","1","1","0","1","0","1","4","4","4","4","4","3","4","4","2","2","574675236746690560","杨","21","","","","match","","","","","","","","","","","","","","key","j","16.657629999999916","640","356","j","true","match","img/trapezoid.png","梯形","梯形","ALT1_2","prac_ALT1_2","","","","","","","","","",""
"null","<span style='color:GreenYellow; font-size: 70px;'>正确! </span>","null","html-keyboard-response","24","91483","0.0-7.0-1.0-1.0-0.0-1.7","3","3","4","3","4","3","3","4","4","4","4","5","4","3","4","4","4","4","4","5","1","1","1","1","2","1","4","4","1","1","0","1","1","0","0","0","1","0","1","1","0","1","0","1","4","4","4","4","4","3","4","4","2","2","574675236746690560","杨","21","","","","","","","","","","","","","","","","","","","","","","","","","","","","","","feedback_test","","","","","","","","","",""
"688","","f","psychophysics","25","93174","0.0-7.0-1.0-1.0-0.0-0.8","3","3","4","3","4","3","3","4","4","4","4","5","4","3","4","4","4","4","4","5","1","1","1","1","2","1","4","4","1","1","0","1","1","0","0","0","1","0","1","1","0","1","0","1","4","4","4","4","4","3","4","4","2","2","574675236746690560","杨","21","","","","nonmatch","","","","","","","","","","","","","","key","f","16.612009900990046","640","356","f","true","nonmatch","img/trapezoid.png","方形","梯形","ALT1_2","prac_ALT1_2","","","","","","","","","",""
"null","<span style='color:GreenYellow; font-size: 70px;'>正确! </span>","null","html-keyboard-response","26","93676","0.0-7.0-1.0-1.0-0.0-1.8","3","3","4","3","4","3","3","4","4","4","4","5","4","3","4","4","4","4","4","5","1","1","1","1","2","1","4","4","1","1","0","1","1","0","0","0","1","0","1","1","0","1","0","1","4","4","4","4","4","3","4","4","2","2","574675236746690560","杨","21","","","","","","","","","","","","","","","","","","","","","","","","","","","","","","feedback_test","","","","","","","","","",""
"664","","f","psychophysics","27","95343","0.0-7.0-1.0-1.0-0.0-0.9","3","3","4","3","4","3","3","4","4","4","4","5","4","3","4","4","4","4","4","5","1","1","1","1","2","1","4","4","1","1","0","1","1","0","0","0","1","0","1","1","0","1","0","1","4","4","4","4","4","3","4","4","2","2","574675236746690560","杨","21","","","","nonmatch","","","","","","","","","","","","","","key","f","16.669808080808096","640","356","f","true","nonmatch","img/hexagon.png","梯形","六边","ALT1_2","prac_ALT1_2","","","","","","","","","",""
"null","<span style='color:GreenYellow; font-size: 70px;'>正确! </span>","null","html-keyboard-response","28","95846","0.0-7.0-1.0-1.0-0.0-1.9","3","3","4","3","4","3","3","4","4","4","4","5","4","3","4","4","4","4","4","5","1","1","1","1","2","1","4","4","1","1","0","1","1","0","0","0","1","0","1","1","0","1","0","1","4","4","4","4","4","3","4","4","2","2","574675236746690560","杨","21","","","","","","","","","","","","","","","","","","","","","","","","","","","","","","feedback_test","","","","","","","","","",""
"668","","j","psychophysics","29","97517","0.0-7.0-1.0-1.0-0.0-0.10","3","3","4","3","4","3","3","4","4","4","4","5","4","3","4","4","4","4","4","5","1","1","1","1","2","1","4","4","1","1","0","1","1","0","0","0","1","0","1","1","0","1","0","1","4","4","4","4","4","3","4","4","2","2","574675236746690560","杨","21","","","","match","","","","","","","","","","","","","","key","j","16.65186868686872","640","356","j","true","match","img/ellipse.png","椭圆","椭圆","ALT1_2","prac_ALT1_2","","","","","","","","","",""
"null","<span style='color:GreenYellow; font-size: 70px;'>正确! </span>","null","html-keyboard-response","30","98019","0.0-7.0-1.0-1.0-0.0-1.10","3","3","4","3","4","3","3","4","4","4","4","5","4","3","4","4","4","4","4","5","1","1","1","1","2","1","4","4","1","1","0","1","1","0","0","0","1","0","1","1","0","1","0","1","4","4","4","4","4","3","4","4","2","2","574675236746690560","杨","21","","","","","","","","","","","","","","","","","","","","","","","","","","","","","","feedback_test","","","","","","","","","",""
"505","","j","psychophysics","31","99526","0.0-7.0-1.0-1.0-0.0-0.11","3","3","4","3","4","3","3","4","4","4","4","5","4","3","4","4","4","4","4","5","1","1","1","1","2","1","4","4","1","1","0","1","1","0","0","0","1","0","1","1","0","1","0","1","4","4","4","4","4","3","4","4","2","2","574675236746690560","杨","21","","","","match","","","","","","","","","","","","","","key","j","16.659235955056083","640","356","j","true","match","img/square.png","方形","方形","ALT1_2","prac_ALT1_2","","","","","","","","","",""
"null","<span style='color:GreenYellow; font-size: 70px;'>正确! </span>","null","html-keyboard-response","32","100028","0.0-7.0-1.0-1.0-0.0-1.11","3","3","4","3","4","3","3","4","4","4","4","5","4","3","4","4","4","4","4","5","1","1","1","1","2","1","4","4","1","1","0","1","1","0","0","0","1","0","1","1","0","1","0","1","4","4","4","4","4","3","4","4","2","2","574675236746690560","杨","21","","","","","","","","","","","","","","","","","","","","","","","","","","","","","","feedback_test","","","","","","","","","",""
"635","","f","psychophysics","33","101667","0.0-7.0-1.0-1.0-0.0-0.12","3","3","4","3","4","3","3","4","4","4","4","5","4","3","4","4","4","4","4","5","1","1","1","1","2","1","4","4","1","1","0","1","1","0","0","0","1","0","1","1","0","1","0","1","4","4","4","4","4","3","4","4","2","2","574675236746690560","杨","21","","","","nonmatch","","","","","","","","","","","","","","key","f","16.66449484536088","640","356","f","true","nonmatch","img/ellipse.png","六边","椭圆","ALT1_2","prac_ALT1_2","","","","","","","","","",""
"null","<span style='color:GreenYellow; font-size: 70px;'>正确! </span>","null","html-keyboard-response","34","102169","0.0-7.0-1.0-1.0-0.0-1.12","3","3","4","3","4","3","3","4","4","4","4","5","4","3","4","4","4","4","4","5","1","1","1","1","2","1","4","4","1","1","0","1","1","0","0","0","1","0","1","1","0","1","0","1","4","4","4","4","4","3","4","4","2","2","574675236746690560","杨","21","","","","","","","","","","","","","","","","","","","","","","","","","","","","","","feedback_test","","","","","","","","","",""
"540","","j","psychophysics","35","103712","0.0-7.0-1.0-1.0-0.0-0.13","3","3","4","3","4","3","3","4","4","4","4","5","4","3","4","4","4","4","4","5","1","1","1","1","2","1","4","4","1","1","0","1","1","0","0","0","1","0","1","1","0","1","0","1","4","4","4","4","4","3","4","4","2","2","574675236746690560","杨","21","","","","match","","","","","","","","","","","","","","key","j","16.668076923076903","640","356","j","true","match","img/square.png","方形","方形","ALT1_2","prac_ALT1_2","","","","","","","","","",""
"null","<span style='color:GreenYellow; font-size: 70px;'>正确! </span>","null","html-keyboard-response","36","104214","0.0-7.0-1.0-1.0-0.0-1.13","3","3","4","3","4","3","3","4","4","4","4","5","4","3","4","4","4","4","4","5","1","1","1","1","2","1","4","4","1","1","0","1","1","0","0","0","1","0","1","1","0","1","0","1","4","4","4","4","4","3","4","4","2","2","574675236746690560","杨","21","","","","","","","","","","","","","","","","","","","","","","","","","","","","","","feedback_test","","","","","","","","","",""
"810","","f","psychophysics","37","106027","0.0-7.0-1.0-1.0-0.0-0.14","3","3","4","3","4","3","3","4","4","4","4","5","4","3","4","4","4","4","4","5","1","1","1","1","2","1","4","4","1","1","0","1","1","0","0","0","1","0","1","1","0","1","0","1","4","4","4","4","4","3","4","4","2","2","574675236746690560","杨","21","","","","nonmatch","","","","","","","","","","","","","","key","f","16.6676111111111","640","356","f","true","nonmatch","img/hexagon.png","方形","六边","ALT1_2","prac_ALT1_2","","","","","","","","","",""
"null","<span style='color:GreenYellow; font-size: 70px;'>正确! </span>","null","html-keyboard-response","38","106528","0.0-7.0-1.0-1.0-0.0-1.14","3","3","4","3","4","3","3","4","4","4","4","5","4","3","4","4","4","4","4","5","1","1","1","1","2","1","4","4","1","1","0","1","1","0","0","0","1","0","1","1","0","1","0","1","4","4","4","4","4","3","4","4","2","2","574675236746690560","杨","21","","","","","","","","","","","","","","","","","","","","","","","","","","","","","","feedback_test","","","","","","","","","",""
"531","","j","psychophysics","39","108063","0.0-7.0-1.0-1.0-0.0-0.15","3","3","4","3","4","3","3","4","4","4","4","5","4","3","4","4","4","4","4","5","1","1","1","1","2","1","4","4","1","1","0","1","1","0","0","0","1","0","1","1","0","1","0","1","4","4","4","4","4","3","4","4","2","2","574675236746690560","杨","21","","","","match","","","","","","","","","","","","","","key","j","16.654175824175812","640","356","j","true","match","img/square.png","方形","方形","ALT1_2","prac_ALT1_2","","","","","","","","","",""
"null","<span style='color:GreenYellow; font-size: 70px;'>正确! </span>","null","html-keyboard-response","40","108566","0.0-7.0-1.0-1.0-0.0-1.15","3","3","4","3","4","3","3","4","4","4","4","5","4","3","4","4","4","4","4","5","1","1","1","1","2","1","4","4","1","1","0","1","1","0","0","0","1","0","1","1","0","1","0","1","4","4","4","4","4","3","4","4","2","2","574675236746690560","杨","21","","","","","","","","","","","","","","","","","","","","","","","","","","","","","","feedback_test","","","","","","","","","",""
"645","","f","psychophysics","41","110214","0.0-7.0-1.0-1.0-0.0-0.16","3","3","4","3","4","3","3","4","4","4","4","5","4","3","4","4","4","4","4","5","1","1","1","1","2","1","4","4","1","1","0","1","1","0","0","0","1","0","1","1","0","1","0","1","4","4","4","4","4","3","4","4","2","2","574675236746690560","杨","21","","","","nonmatch","","","","","","","","","","","","","","key","f","16.66355102040807","640","356","f","true","nonmatch","img/square.png","六边","方形","ALT1_2","prac_ALT1_2","","","","","","","","","",""
"null","<span style='color:GreenYellow; font-size: 70px;'>正确! </span>","null","html-keyboard-response","42","110716","0.0-7.0-1.0-1.0-0.0-1.16","3","3","4","3","4","3","3","4","4","4","4","5","4","3","4","4","4","4","4","5","1","1","1","1","2","1","4","4","1","1","0","1","1","0","0","0","1","0","1","1","0","1","0","1","4","4","4","4","4","3","4","4","2","2","574675236746690560","杨","21","","","","","","","","","","","","","","","","","","","","","","","","","","","","","","feedback_test","","","","","","","","","",""
"733","","j","psychophysics","43","112452","0.0-7.0-1.0-1.0-0.0-0.17","3","3","4","3","4","3","3","4","4","4","4","5","4","3","4","4","4","4","4","5","1","1","1","1","2","1","4","4","1","1","0","1","1","0","0","0","1","0","1","1","0","1","0","1","4","4","4","4","4","3","4","4","2","2","574675236746690560","杨","21","","","","match","","","","","","","","","","","","","","key","j","16.638223300970953","640","356","j","true","match","img/trapezoid.png","梯形","梯形","ALT1_2","prac_ALT1_2","","","","","","","","","",""
"null","<span style='color:GreenYellow; font-size: 70px;'>正确! </span>","null","html-keyboard-response","44","112954","0.0-7.0-1.0-1.0-0.0-1.17","3","3","4","3","4","3","3","4","4","4","4","5","4","3","4","4","4","4","4","5","1","1","1","1","2","1","4","4","1","1","0","1","1","0","0","0","1","0","1","1","0","1","0","1","4","4","4","4","4","3","4","4","2","2","574675236746690560","杨","21","","","","","","","","","","","","","","","","","","","","","","","","","","","","","","feedback_test","","","","","","","","","",""
"585","","f","psychophysics","45","114541","0.0-7.0-1.0-1.0-0.0-0.18","3","3","4","3","4","3","3","4","4","4","4","5","4","3","4","4","4","4","4","5","1","1","1","1","2","1","4","4","1","1","0","1","1","0","0","0","1","0","1","1","0","1","0","1","4","4","4","4","4","3","4","4","2","2","574675236746690560","杨","21","","","","nonmatch","","","","","","","","","","","","","","key","f","16.671606382978815","640","356","f","true","nonmatch","img/trapezoid.png","六边","梯形","ALT1_2","prac_ALT1_2","","","","","","","","","",""
"null","<span style='color:GreenYellow; font-size: 70px;'>正确! </span>","null","html-keyboard-response","46","115044","0.0-7.0-1.0-1.0-0.0-1.18","3","3","4","3","4","3","3","4","4","4","4","5","4","3","4","4","4","4","4","5","1","1","1","1","2","1","4","4","1","1","0","1","1","0","0","0","1","0","1","1","0","1","0","1","4","4","4","4","4","3","4","4","2","2","574675236746690560","杨","21","","","","","","","","","","","","","","","","","","","","","","","","","","","","","","feedback_test","","","","","","","","","",""
"581","","f","psychophysics","47","116628","0.0-7.0-1.0-1.0-0.0-0.19","3","3","4","3","4","3","3","4","4","4","4","5","4","3","4","4","4","4","4","5","1","1","1","1","2","1","4","4","1","1","0","1","1","0","0","0","1","0","1","1","0","1","0","1","4","4","4","4","4","3","4","4","2","2","574675236746690560","杨","21","","","","nonmatch","","","","","","","","","","","","","","key","f","16.671308510638326","640","356","f","true","nonmatch","img/square.png","梯形","方形","ALT1_2","prac_ALT1_2","","","","","","","","","",""
"null","<span style='color:GreenYellow; font-size: 70px;'>正确! </span>","null","html-keyboard-response","48","117130","0.0-7.0-1.0-1.0-0.0-1.19","3","3","4","3","4","3","3","4","4","4","4","5","4","3","4","4","4","4","4","5","1","1","1","1","2","1","4","4","1","1","0","1","1","0","0","0","1","0","1","1","0","1","0","1","4","4","4","4","4","3","4","4","2","2","574675236746690560","杨","21","","","","","","","","","","","","","","","","","","","","","","","","","","","","","","feedback_test","","","","","","","","","",""
"646","","j","psychophysics","49","118778","0.0-7.0-1.0-1.0-0.0-0.20","3","3","4","3","4","3","3","4","4","4","4","5","4","3","4","4","4","4","4","5","1","1","1","1","2","1","4","4","1","1","0","1","1","0","0","0","1","0","1","1","0","1","0","1","4","4","4","4","4","3","4","4","2","2","574675236746690560","杨","21","","","","match","","","","","","","","","","","","","","key","j","16.63275510204076","640","356","j","true","match","img/trapezoid.png","梯形","梯形","ALT1_2","prac_ALT1_2","","","","","","","","","",""
"null","<span style='color:GreenYellow; font-size: 70px;'>正确! </span>","null","html-keyboard-response","50","119280","0.0-7.0-1.0-1.0-0.0-1.20","3","3","4","3","4","3","3","4","4","4","4","5","4","3","4","4","4","4","4","5","1","1","1","1","2","1","4","4","1","1","0","1","1","0","0","0","1","0","1","1","0","1","0","1","4","4","4","4","4","3","4","4","2","2","574675236746690560","杨","21","","","","","","","","","","","","","","","","","","","","","","","","","","","","","","feedback_test","","","","","","","","","",""
"595","","f","psychophysics","51","120878","0.0-7.0-1.0-1.0-0.0-0.21","3","3","4","3","4","3","3","4","4","4","4","5","4","3","4","4","4","4","4","5","1","1","1","1","2","1","4","4","1","1","0","1","1","0","0","0","1","0","1","1","0","1","0","1","4","4","4","4","4","3","4","4","2","2","574675236746690560","杨","21","","","","nonmatch","","","","","","","","","","","","","","key","f","16.658599999999954","640","356","f","true","nonmatch","img/trapezoid.png","椭圆","梯形","ALT1_2","prac_ALT1_2","","","","","","","","","",""
"null","<span style='color:GreenYellow; font-size: 70px;'>正确! </span>","null","html-keyboard-response","52","121378","0.0-7.0-1.0-1.0-0.0-1.21","3","3","4","3","4","3","3","4","4","4","4","5","4","3","4","4","4","4","4","5","1","1","1","1","2","1","4","4","1","1","0","1","1","0","0","0","1","0","1","1","0","1","0","1","4","4","4","4","4","3","4","4","2","2","574675236746690560","杨","21","","","","","","","","","","","","","","","","","","","","","","","","","","","","","","feedback_test","","","","","","","","","",""
"572","","j","psychophysics","53","122952","0.0-7.0-1.0-1.0-0.0-0.22","3","3","4","3","4","3","3","4","4","4","4","5","4","3","4","4","4","4","4","5","1","1","1","1","2","1","4","4","1","1","0","1","1","0","0","0","1","0","1","1","0","1","0","1","4","4","4","4","4","3","4","4","2","2","574675236746690560","杨","21","","","","match","","","","","","","","","","","","","","key","j","16.66755913978493","640","356","j","true","match","img/ellipse.png","椭圆","椭圆","ALT1_2","prac_ALT1_2","","","","","","","","","",""
"null","<span style='color:GreenYellow; font-size: 70px;'>正确! </span>","null","html-keyboard-response","54","123454","0.0-7.0-1.0-1.0-0.0-1.22","3","3","4","3","4","3","3","4","4","4","4","5","4","3","4","4","4","4","4","5","1","1","1","1","2","1","4","4","1","1","0","1","1","0","0","0","1","0","1","1","0","1","0","1","4","4","4","4","4","3","4","4","2","2","574675236746690560","杨","21","","","","","","","","","","","","","","","","","","","","","","","","","","","","","","feedback_test","","","","","","","","","",""
"519","","j","psychophysics","55","124975","0.0-7.0-1.0-1.0-0.0-0.23","3","3","4","3","4","3","3","4","4","4","4","5","4","3","4","4","4","4","4","5","1","1","1","1","2","1","4","4","1","1","0","1","1","0","0","0","1","0","1","1","0","1","0","1","4","4","4","4","4","3","4","4","2","2","574675236746690560","杨","21","","","","match","","","","","","","","","","","","","","key","j","16.671855555555602","640","356","j","true","match","img/ellipse.png","椭圆","椭圆","ALT1_2","prac_ALT1_2","","","","","","","","","",""
"null","<span style='color:GreenYellow; font-size: 70px;'>正确! </span>","null","html-keyboard-response","56","125477","0.0-7.0-1.0-1.0-0.0-1.23","3","3","4","3","4","3","3","4","4","4","4","5","4","3","4","4","4","4","4","5","1","1","1","1","2","1","4","4","1","1","0","1","1","0","0","0","1","0","1","1","0","1","0","1","4","4","4","4","4","3","4","4","2","2","574675236746690560","杨","21","","","","","","","","","","","","","","","","","","","","","","","","","","","","","","feedback_test","","","","","","","","","",""
"539","","f","psychophysics","57","127021","0.0-7.0-1.0-1.0-0.0-0.24","3","3","4","3","4","3","3","4","4","4","4","5","4","3","4","4","4","4","4","5","1","1","1","1","2","1","4","4","1","1","0","1","1","0","0","0","1","0","1","1","0","1","0","1","4","4","4","4","4","3","4","4","2","2","574675236746690560","杨","21","","","","nonmatch","","","","","","","","","","","","","","key","f","16.664749999999913","640","356","f","true","nonmatch","img/square.png","椭圆","方形","ALT1_2","prac_ALT1_2","","","","","","","","","",""
"null","<span style='color:GreenYellow; font-size: 70px;'>正确! </span>","null","html-keyboard-response","58","127523","0.0-7.0-1.0-1.0-0.0-1.24","3","3","4","3","4","3","3","4","4","4","4","5","4","3","4","4","4","4","4","5","1","1","1","1","2","1","4","4","1","1","0","1","1","0","0","0","1","0","1","1","0","1","0","1","4","4","4","4","4","3","4","4","2","2","574675236746690560","杨","21","","","","","","","","","","","","","","","","","","","","","","","","","","","","","","feedback_test","","","","","","","","","",""
"497","","f","psychophysics","59","129022","0.0-7.0-1.0-1.0-0.0-0.25","3","3","4","3","4","3","3","4","4","4","4","5","4","3","4","4","4","4","4","5","1","1","1","1","2","1","4","4","1","1","0","1","1","0","0","0","1","0","1","1","0","1","0","1","4","4","4","4","4","3","4","4","2","2","574675236746690560","杨","21","","","","nonmatch","","","","","","","","","","","","","","key","f","16.670897727272777","640","356","f","true","nonmatch","img/hexagon.png","方形","六边","ALT1_2","prac_ALT1_2","","","","","","","","","",""
"null","<span style='color:GreenYellow; font-size: 70px;'>正确! </span>","null","html-keyboard-response","60","129524","0.0-7.0-1.0-1.0-0.0-1.25","3","3","4","3","4","3","3","4","4","4","4","5","4","3","4","4","4","4","4","5","1","1","1","1","2","1","4","4","1","1","0","1","1","0","0","0","1","0","1","1","0","1","0","1","4","4","4","4","4","3","4","4","2","2","574675236746690560","杨","21","","","","","","","","","","","","","","","","","","","","","","","","","","","","","","feedback_test","","","","","","","","","",""
"507","","j","psychophysics","61","131034","0.0-7.0-1.0-1.0-0.0-0.26","3","3","4","3","4","3","3","4","4","4","4","5","4","3","4","4","4","4","4","5","1","1","1","1","2","1","4","4","1","1","0","1","1","0","0","0","1","0","1","1","0","1","0","1","4","4","4","4","4","3","4","4","2","2","574675236746690560","杨","21","","","","match","","","","","","","","","","","","","","key","j","16.669146067415774","640","356","j","true","match","img/trapezoid.png","梯形","梯形","ALT1_2","prac_ALT1_2","","","","","","","","","",""
"null","<span style='color:GreenYellow; font-size: 70px;'>正确! </span>","null","html-keyboard-response","62","131536","0.0-7.0-1.0-1.0-0.0-1.26","3","3","4","3","4","3","3","4","4","4","4","5","4","3","4","4","4","4","4","5","1","1","1","1","2","1","4","4","1","1","0","1","1","0","0","0","1","0","1","1","0","1","0","1","4","4","4","4","4","3","4","4","2","2","574675236746690560","杨","21","","","","","","","","","","","","","","","","","","","","","","","","","","","","","","feedback_test","","","","","","","","","",""
"484","","j","psychophysics","63","133024","0.0-7.0-1.0-1.0-0.0-0.27","3","3","4","3","4","3","3","4","4","4","4","5","4","3","4","4","4","4","4","5","1","1","1","1","2","1","4","4","1","1","0","1","1","0","0","0","1","0","1","1","0","1","0","1","4","4","4","4","4","3","4","4","2","2","574675236746690560","杨","21","","","","match","","","","","","","","","","","","","","key","j","16.665886363636343","640","356","j","true","match","img/square.png","方形","方形","ALT1_2","prac_ALT1_2","","","","","","","","","",""
"null","<span style='color:GreenYellow; font-size: 70px;'>正确! </span>","null","html-keyboard-response","64","133526","0.0-7.0-1.0-1.0-0.0-1.27","3","3","4","3","4","3","3","4","4","4","4","5","4","3","4","4","4","4","4","5","1","1","1","1","2","1","4","4","1","1","0","1","1","0","0","0","1","0","1","1","0","1","0","1","4","4","4","4","4","3","4","4","2","2","574675236746690560","杨","21","","","","","","","","","","","","","","","","","","","","","","","","","","","","","","feedback_test","","","","","","","","","",""
"489","","j","psychophysics","65","135019","0.0-7.0-1.0-1.0-0.0-0.28","3","3","4","3","4","3","3","4","4","4","4","5","4","3","4","4","4","4","4","5","1","1","1","1","2","1","4","4","1","1","0","1","1","0","0","0","1","0","1","1","0","1","0","1","4","4","4","4","4","3","4","4","2","2","574675236746690560","杨","21","","","","match","","","","","","","","","","","","","","key","j","16.6708295454545","640","356","j","true","match","img/hexagon.png","六边","六边","ALT1_2","prac_ALT1_2","","","","","","","","","",""
"null","<span style='color:GreenYellow; font-size: 70px;'>正确! </span>","null","html-keyboard-response","66","135522","0.0-7.0-1.0-1.0-0.0-1.28","3","3","4","3","4","3","3","4","4","4","4","5","4","3","4","4","4","4","4","5","1","1","1","1","2","1","4","4","1","1","0","1","1","0","0","0","1","0","1","1","0","1","0","1","4","4","4","4","4","3","4","4","2","2","574675236746690560","杨","21","","","","","","","","","","","","","","","","","","","","","","","","","","","","","","feedback_test","","","","","","","","","",""
"583","","f","psychophysics","67","137107","0.0-7.0-1.0-1.0-0.0-0.29","3","3","4","3","4","3","3","4","4","4","4","5","4","3","4","4","4","4","4","5","1","1","1","1","2","1","4","4","1","1","0","1","1","0","0","0","1","0","1","1","0","1","0","1","4","4","4","4","4","3","4","4","2","2","574675236746690560","杨","21","","","","nonmatch","","","","","","","","","","","","","","key","f","16.667840425531935","640","356","f","true","nonmatch","img/hexagon.png","椭圆","六边","ALT1_2","prac_ALT1_2","","","","","","","","","",""
"null","<span style='color:GreenYellow; font-size: 70px;'>正确! </span>","null","html-keyboard-response","68","137610","0.0-7.0-1.0-1.0-0.0-1.29","3","3","4","3","4","3","3","4","4","4","4","5","4","3","4","4","4","4","4","5","1","1","1","1","2","1","4","4","1","1","0","1","1","0","0","0","1","0","1","1","0","1","0","1","4","4","4","4","4","3","4","4","2","2","574675236746690560","杨","21","","","","","","","","","","","","","","","","","","","","","","","","","","","","","","feedback_test","","","","","","","","","",""
"449","","j","psychophysics","69","139061","0.0-7.0-1.0-1.0-0.0-0.30","3","3","4","3","4","3","3","4","4","4","4","5","4","3","4","4","4","4","4","5","1","1","1","1","2","1","4","4","1","1","0","1","1","0","0","0","1","0","1","1","0","1","0","1","4","4","4","4","4","3","4","4","2","2","574675236746690560","杨","21","","","","match","","","","","","","","","","","","","","key","j","16.67238372093003","640","356","j","true","match","img/ellipse.png","椭圆","椭圆","ALT1_2","prac_ALT1_2","","","","","","","","","",""
"null","<span style='color:GreenYellow; font-size: 70px;'>正确! </span>","null","html-keyboard-response","70","139563","0.0-7.0-1.0-1.0-0.0-1.30","3","3","4","3","4","3","3","4","4","4","4","5","4","3","4","4","4","4","4","5","1","1","1","1","2","1","4","4","1","1","0","1","1","0","0","0","1","0","1","1","0","1","0","1","4","4","4","4","4","3","4","4","2","2","574675236746690560","杨","21","","","","","","","","","","","","","","","","","","","","","","","","","","","","","","feedback_test","","","","","","","","","",""
"620","","f","psychophysics","71","141185","0.0-7.0-1.0-1.0-0.0-0.31","3","3","4","3","4","3","3","4","4","4","4","5","4","3","4","4","4","4","4","5","1","1","1","1","2","1","4","4","1","1","0","1","1","0","0","0","1","0","1","1","0","1","0","1","4","4","4","4","4","3","4","4","2","2","574675236746690560","杨","21","","","","nonmatch","","","","","","","","","","","","","","key","f","16.669312499999858","640","356","f","true","nonmatch","img/ellipse.png","梯形","椭圆","ALT1_2","prac_ALT1_2","","","","","","","","","",""
"null","<span style='color:GreenYellow; font-size: 70px;'>正确! </span>","null","html-keyboard-response","72","141687","0.0-7.0-1.0-1.0-0.0-1.31","3","3","4","3","4","3","3","4","4","4","4","5","4","3","4","4","4","4","4","5","1","1","1","1","2","1","4","4","1","1","0","1","1","0","0","0","1","0","1","1","0","1","0","1","4","4","4","4","4","3","4","4","2","2","574675236746690560","杨","21","","","","","","","","","","","","","","","","","","","","","","","","","","","","","","feedback_test","","","","","","","","","",""
"530","","j","psychophysics","73","143219","0.0-7.0-1.0-1.0-0.0-0.32","3","3","4","3","4","3","3","4","4","4","4","5","4","3","4","4","4","4","4","5","1","1","1","1","2","1","4","4","1","1","0","1","1","0","0","0","1","0","1","1","0","1","0","1","4","4","4","4","4","3","4","4","2","2","574675236746690560","杨","21","","","","match","","","","","","","","","","","","","","key","j","16.667144444444503","640","356","f","false","nonmatch","img/trapezoid.png","六边","梯形","ALT1_2","prac_ALT1_2","","","","","","","","","",""
"null","<span style='color:red; font-size: 70px;'>错误! </span>","null","html-keyboard-response","74","143721","0.0-7.0-1.0-1.0-0.0-1.32","3","3","4","3","4","3","3","4","4","4","4","5","4","3","4","4","4","4","4","5","1","1","1","1","2","1","4","4","1","1","0","1","1","0","0","0","1","0","1","1","0","1","0","1","4","4","4","4","4","3","4","4","2","2","574675236746690560","杨","21","","","","","","","","","","","","","","","","","","","","","","","","","","","","","","feedback_test","","","","","","","","","",""
"508","","f","psychophysics","75","145231","0.0-7.0-1.0-1.0-0.0-0.33","3","3","4","3","4","3","3","4","4","4","4","5","4","3","4","4","4","4","4","5","1","1","1","1","2","1","4","4","1","1","0","1","1","0","0","0","1","0","1","1","0","1","0","1","4","4","4","4","4","3","4","4","2","2","574675236746690560","杨","21","","","","nonmatch","","","","","","","","","","","","","","key","f","16.66902247191017","640","356","f","true","nonmatch","img/ellipse.png","方形","椭圆","ALT1_2","prac_ALT1_2","","","","","","","","","",""
"null","<span style='color:GreenYellow; font-size: 70px;'>正确! </span>","null","html-keyboard-response","76","145735","0.0-7.0-1.0-1.0-0.0-1.33","3","3","4","3","4","3","3","4","4","4","4","5","4","3","4","4","4","4","4","5","1","1","1","1","2","1","4","4","1","1","0","1","1","0","0","0","1","0","1","1","0","1","0","1","4","4","4","4","4","3","4","4","2","2","574675236746690560","杨","21","","","","","","","","","","","","","","","","","","","","","","","","","","","","","","feedback_test","","","","","","","","","",""
"518","","j","psychophysics","77","147255","0.0-7.0-1.0-1.0-0.0-0.34","3","3","4","3","4","3","3","4","4","4","4","5","4","3","4","4","4","4","4","5","1","1","1","1","2","1","4","4","1","1","0","1","1","0","0","0","1","0","1","1","0","1","0","1","4","4","4","4","4","3","4","4","2","2","574675236746690560","杨","21","","","","match","","","","","","","","","","","","","","key","j","16.66794444444434","640","356","j","true","match","img/hexagon.png","六边","六边","ALT1_2","prac_ALT1_2","","","","","","","","","",""
"null","<span style='color:GreenYellow; font-size: 70px;'>正确! </span>","null","html-keyboard-response","78","147757","0.0-7.0-1.0-1.0-0.0-1.34","3","3","4","3","4","3","3","4","4","4","4","5","4","3","4","4","4","4","4","5","1","1","1","1","2","1","4","4","1","1","0","1","1","0","0","0","1","0","1","1","0","1","0","1","4","4","4","4","4","3","4","4","2","2","574675236746690560","杨","21","","","","","","","","","","","","","","","","","","","","","","","","","","","","","","feedback_test","","","","","","","","","",""
"499","","f","psychophysics","79","149258","0.0-7.0-1.0-1.0-0.0-0.35","3","3","4","3","4","3","3","4","4","4","4","5","4","3","4","4","4","4","4","5","1","1","1","1","2","1","4","4","1","1","0","1","1","0","0","0","1","0","1","1","0","1","0","1","4","4","4","4","4","3","4","4","2","2","574675236746690560","杨","21","","","","nonmatch","","","","","","","","","","","","","","key","f","16.670471910112262","640","356","j","false","match","img/trapezoid.png","梯形","梯形","ALT1_2","prac_ALT1_2","","","","","","","","","",""
"null","<span style='color:red; font-size: 70px;'>错误! </span>","null","html-keyboard-response","80","149760","0.0-7.0-1.0-1.0-0.0-1.35","3","3","4","3","4","3","3","4","4","4","4","5","4","3","4","4","4","4","4","5","1","1","1","1","2","1","4","4","1","1","0","1","1","0","0","0","1","0","1","1","0","1","0","1","4","4","4","4","4","3","4","4","2","2","574675236746690560","杨","21","","","","","","","","","","","","","","","","","","","","","","","","","","","","","","feedback_test","","","","","","","","","",""
"597","","f","psychophysics","81","151360","0.0-7.0-1.0-1.0-0.0-0.36","3","3","4","3","4","3","3","4","4","4","4","5","4","3","4","4","4","4","4","5","1","1","1","1","2","1","4","4","1","1","0","1","1","0","0","0","1","0","1","1","0","1","0","1","4","4","4","4","4","3","4","4","2","2","574675236746690560","杨","21","","","","nonmatch","","","","","","","","","","","","","","key","f","16.66842105263158","640","356","f","true","nonmatch","img/ellipse.png","六边","椭圆","ALT1_2","prac_ALT1_2","","","","","","","","","",""
"null","<span style='color:GreenYellow; font-size: 70px;'>正确! </span>","null","html-keyboard-response","82","151865","0.0-7.0-1.0-1.0-0.0-1.36","3","3","4","3","4","3","3","4","4","4","4","5","4","3","4","4","4","4","4","5","1","1","1","1","2","1","4","4","1","1","0","1","1","0","0","0","1","0","1","1","0","1","0","1","4","4","4","4","4","3","4","4","2","2","574675236746690560","杨","21","","","","","","","","","","","","","","","","","","","","","","","","","","","","","","feedback_test","","","","","","","","","",""
"708","","f","psychophysics","83","153576","0.0-7.0-1.0-1.0-0.0-0.37","3","3","4","3","4","3","3","4","4","4","4","5","4","3","4","4","4","4","4","5","1","1","1","1","2","1","4","4","1","1","0","1","1","0","0","0","1","0","1","1","0","1","0","1","4","4","4","4","4","3","4","4","2","2","574675236746690560","杨","21","","","","nonmatch","","","","","","","","","","","","","","key","f","16.6710490196077","640","356","f","true","nonmatch","img/square.png","梯形","方形","ALT1_2","prac_ALT1_2","","","","","","","","","",""
"null","<span style='color:GreenYellow; font-size: 70px;'>正确! </span>","null","html-keyboard-response","84","154078","0.0-7.0-1.0-1.0-0.0-1.37","3","3","4","3","4","3","3","4","4","4","4","5","4","3","4","4","4","4","4","5","1","1","1","1","2","1","4","4","1","1","0","1","1","0","0","0","1","0","1","1","0","1","0","1","4","4","4","4","4","3","4","4","2","2","574675236746690560","杨","21","","","","","","","","","","","","","","","","","","","","","","","","","","","","","","feedback_test","","","","","","","","","",""
"589","","j","psychophysics","85","155670","0.0-7.0-1.0-1.0-0.0-0.38","3","3","4","3","4","3","3","4","4","4","4","5","4","3","4","4","4","4","4","5","1","1","1","1","2","1","4","4","1","1","0","1","1","0","0","0","1","0","1","1","0","1","0","1","4","4","4","4","4","3","4","4","2","2","574675236746690560","杨","21","","","","match","","","","","","","","","","","","","","key","j","16.647265957446738","640","356","j","true","match","img/hexagon.png","六边","六边","ALT1_2","prac_ALT1_2","","","","","","","","","",""
"null","<span style='color:GreenYellow; font-size: 70px;'>正确! </span>","null","html-keyboard-response","86","156172","0.0-7.0-1.0-1.0-0.0-1.38","3","3","4","3","4","3","3","4","4","4","4","5","4","3","4","4","4","4","4","5","1","1","1","1","2","1","4","4","1","1","0","1","1","0","0","0","1","0","1","1","0","1","0","1","4","4","4","4","4","3","4","4","2","2","574675236746690560","杨","21","","","","","","","","","","","","","","","","","","","","","","","","","","","","","","feedback_test","","","","","","","","","",""
"713","","j","psychophysics","87","157886","0.0-7.0-1.0-1.0-0.0-0.39","3","3","4","3","4","3","3","4","4","4","4","5","4","3","4","4","4","4","4","5","1","1","1","1","2","1","4","4","1","1","0","1","1","0","0","0","1","0","1","1","0","1","0","1","4","4","4","4","4","3","4","4","2","2","574675236746690560","杨","21","","","","match","","","","","","","","","","","","","","key","j","16.669247524752592","640","356","j","true","match","img/square.png","方形","方形","ALT1_2","prac_ALT1_2","","","","","","","","","",""
"null","<span style='color:GreenYellow; font-size: 70px;'>正确! </span>","null","html-keyboard-response","88","158388","0.0-7.0-1.0-1.0-0.0-1.39","3","3","4","3","4","3","3","4","4","4","4","5","4","3","4","4","4","4","4","5","1","1","1","1","2","1","4","4","1","1","0","1","1","0","0","0","1","0","1","1","0","1","0","1","4","4","4","4","4","3","4","4","2","2","574675236746690560","杨","21","","","","","","","","","","","","","","","","","","","","","","","","","","","","","","feedback_test","","","","","","","","","",""
"553","","j","psychophysics","89","159943","0.0-7.0-1.0-1.0-0.0-0.40","3","3","4","3","4","3","3","4","4","4","4","5","4","3","4","4","4","4","4","5","1","1","1","1","2","1","4","4","1","1","0","1","1","0","0","0","1","0","1","1","0","1","0","1","4","4","4","4","4","3","4","4","2","2","574675236746690560","杨","21","","","","match","","","","","","","","","","","","","","key","j","16.667967391304124","640","356","f","false","nonmatch","img/hexagon.png","梯形","六边","ALT1_2","prac_ALT1_2","","","","","","","","","",""
"null","<span style='color:red; font-size: 70px;'>错误! </span>","null","html-keyboard-response","90","160446","0.0-7.0-1.0-1.0-0.0-1.40","3","3","4","3","4","3","3","4","4","4","4","5","4","3","4","4","4","4","4","5","1","1","1","1","2","1","4","4","1","1","0","1","1","0","0","0","1","0","1","1","0","1","0","1","4","4","4","4","4","3","4","4","2","2","574675236746690560","杨","21","","","","","","","","","","","","","","","","","","","","","","","","","","","","","","feedback_test","","","","","","","","","",""
"523","","j","psychophysics","91","161972","0.0-7.0-1.0-1.0-0.0-0.41","3","3","4","3","4","3","3","4","4","4","4","5","4","3","4","4","4","4","4","5","1","1","1","1","2","1","4","4","1","1","0","1","1","0","0","0","1","0","1","1","0","1","0","1","4","4","4","4","4","3","4","4","2","2","574675236746690560","杨","21","","","","match","","","","","","","","","","","","","","key","j","16.670155555555702","640","356","j","true","match","img/ellipse.png","椭圆","椭圆","ALT1_2","prac_ALT1_2","","","","","","","","","",""
"null","<span style='color:GreenYellow; font-size: 70px;'>正确! </span>","null","html-keyboard-response","92","162474","0.0-7.0-1.0-1.0-0.0-1.41","3","3","4","3","4","3","3","4","4","4","4","5","4","3","4","4","4","4","4","5","1","1","1","1","2","1","4","4","1","1","0","1","1","0","0","0","1","0","1","1","0","1","0","1","4","4","4","4","4","3","4","4","2","2","574675236746690560","杨","21","","","","","","","","","","","","","","","","","","","","","","","","","","","","","","feedback_test","","","","","","","","","",""
"621","","f","psychophysics","93","164098","0.0-7.0-1.0-1.0-0.0-0.42","3","3","4","3","4","3","3","4","4","4","4","5","4","3","4","4","4","4","4","5","1","1","1","1","2","1","4","4","1","1","0","1","1","0","0","0","1","0","1","1","0","1","0","1","4","4","4","4","4","3","4","4","2","2","574675236746690560","杨","21","","","","nonmatch","","","","","","","","","","","","","","key","f","16.671083333333325","640","356","f","true","nonmatch","img/square.png","六边","方形","ALT1_2","prac_ALT1_2","","","","","","","","","",""
"null","<span style='color:GreenYellow; font-size: 70px;'>正确! </span>","null","html-keyboard-response","94","164600","0.0-7.0-1.0-1.0-0.0-1.42","3","3","4","3","4","3","3","4","4","4","4","5","4","3","4","4","4","4","4","5","1","1","1","1","2","1","4","4","1","1","0","1","1","0","0","0","1","0","1","1","0","1","0","1","4","4","4","4","4","3","4","4","2","2","574675236746690560","杨","21","","","","","","","","","","","","","","","","","","","","","","","","","","","","","","feedback_test","","","","","","","","","",""
"546","","j","psychophysics","95","166148","0.0-7.0-1.0-1.0-0.0-0.43","3","3","4","3","4","3","3","4","4","4","4","5","4","3","4","4","4","4","4","5","1","1","1","1","2","1","4","4","1","1","0","1","1","0","0","0","1","0","1","1","0","1","0","1","4","4","4","4","4","3","4","4","2","2","574675236746690560","杨","21","","","","match","","","","","","","","","","","","","","key","j","16.670641304347754","640","356","f","false","nonmatch","img/trapezoid.png","方形","梯形","ALT1_2","prac_ALT1_2","","","","","","","","","",""
"null","<span style='color:red; font-size: 70px;'>错误! </span>","null","html-keyboard-response","96","166650","0.0-7.0-1.0-1.0-0.0-1.43","3","3","4","3","4","3","3","4","4","4","4","5","4","3","4","4","4","4","4","5","1","1","1","1","2","1","4","4","1","1","0","1","1","0","0","0","1","0","1","1","0","1","0","1","4","4","4","4","4","3","4","4","2","2","574675236746690560","杨","21","","","","","","","","","","","","","","","","","","","","","","","","","","","","","","feedback_test","","","","","","","","","",""
"577","","j","psychophysics","97","168230","0.0-7.0-1.0-1.0-0.0-0.44","3","3","4","3","4","3","3","4","4","4","4","5","4","3","4","4","4","4","4","5","1","1","1","1","2","1","4","4","1","1","0","1","1","0","0","0","1","0","1","1","0","1","0","1","4","4","4","4","4","3","4","4","2","2","574675236746690560","杨","21","","","","match","","","","","","","","","","","","","","key","j","16.67097872340441","640","356","j","true","match","img/square.png","方形","方形","ALT1_2","prac_ALT1_2","","","","","","","","","",""
"null","<span style='color:GreenYellow; font-size: 70px;'>正确! </span>","null","html-keyboard-response","98","168732","0.0-7.0-1.0-1.0-0.0-1.44","3","3","4","3","4","3","3","4","4","4","4","5","4","3","4","4","4","4","4","5","1","1","1","1","2","1","4","4","1","1","0","1","1","0","0","0","1","0","1","1","0","1","0","1","4","4","4","4","4","3","4","4","2","2","574675236746690560","杨","21","","","","","","","","","","","","","","","","","","","","","","","","","","","","","","feedback_test","","","","","","","","","",""
"590","","j","psychophysics","99","170325","0.0-7.0-1.0-1.0-0.0-0.45","3","3","4","3","4","3","3","4","4","4","4","5","4","3","4","4","4","4","4","5","1","1","1","1","2","1","4","4","1","1","0","1","1","0","0","0","1","0","1","1","0","1","0","1","4","4","4","4","4","3","4","4","2","2","574675236746690560","杨","21","","","","match","","","","","","","","","","","","","","key","j","16.621473684210304","640","356","j","true","match","img/ellipse.png","椭圆","椭圆","ALT1_2","prac_ALT1_2","","","","","","","","","",""
"null","<span style='color:GreenYellow; font-size: 70px;'>正确! </span>","null","html-keyboard-response","100","170827","0.0-7.0-1.0-1.0-0.0-1.45","3","3","4","3","4","3","3","4","4","4","4","5","4","3","4","4","4","4","4","5","1","1","1","1","2","1","4","4","1","1","0","1","1","0","0","0","1","0","1","1","0","1","0","1","4","4","4","4","4","3","4","4","2","2","574675236746690560","杨","21","","","","","","","","","","","","","","","","","","","","","","","","","","","","","","feedback_test","","","","","","","","","",""
"659","","j","psychophysics","101","172489","0.0-7.0-1.0-1.0-0.0-0.46","3","3","4","3","4","3","3","4","4","4","4","5","4","3","4","4","4","4","4","5","1","1","1","1","2","1","4","4","1","1","0","1","1","0","0","0","1","0","1","1","0","1","0","1","4","4","4","4","4","3","4","4","2","2","574675236746690560","杨","21","","","","match","","","","","","","","","","","","","","key","j","16.66793877551004","640","356","j","true","match","img/trapezoid.png","梯形","梯形","ALT1_2","prac_ALT1_2","","","","","","","","","",""
"null","<span style='color:GreenYellow; font-size: 70px;'>正确! </span>","null","html-keyboard-response","102","172992","0.0-7.0-1.0-1.0-0.0-1.46","3","3","4","3","4","3","3","4","4","4","4","5","4","3","4","4","4","4","4","5","1","1","1","1","2","1","4","4","1","1","0","1","1","0","0","0","1","0","1","1","0","1","0","1","4","4","4","4","4","3","4","4","2","2","574675236746690560","杨","21","","","","","","","","","","","","","","","","","","","","","","","","","","","","","","feedback_test","","","","","","","","","",""
"514","","f","psychophysics","103","174510","0.0-7.0-1.0-1.0-0.0-0.47","3","3","4","3","4","3","3","4","4","4","4","5","4","3","4","4","4","4","4","5","1","1","1","1","2","1","4","4","1","1","0","1","1","0","0","0","1","0","1","1","0","1","0","1","4","4","4","4","4","3","4","4","2","2","574675236746690560","杨","21","","","","nonmatch","","","","","","","","","","","","","","key","f","16.670444444444406","640","356","f","true","nonmatch","img/trapezoid.png","椭圆","梯形","ALT1_2","prac_ALT1_2","","","","","","","","","",""
"null","<span style='color:GreenYellow; font-size: 70px;'>正确! </span>","null","html-keyboard-response","104","175013","0.0-7.0-1.0-1.0-0.0-1.47","3","3","4","3","4","3","3","4","4","4","4","5","4","3","4","4","4","4","4","5","1","1","1","1","2","1","4","4","1","1","0","1","1","0","0","0","1","0","1","1","0","1","0","1","4","4","4","4","4","3","4","4","2","2","574675236746690560","杨","21","","","","","","","","","","","","","","","","","","","","","","","","","","","","","","feedback_test","","","","","","","","","",""
"3289","<style>.context{color:white; font-size: 35px; line-height:40px}</style>                          <div><p class='context'>您正确回答了92% 的试次。</p><p class='context'>您的平均反应时为596毫秒。</p><p class='context'>恭喜您完成练习。按空格键进入正式实验。</p><p class='footer' style='font-size: 35px; line-height:40px;'>请在进入正式实验实验之前将您的<span style='color: lightgreen;'>食指</span>放在电脑键盘的相应键位上进行按键。</p>"," ","html-keyboard-response","105","178307","0.0-7.0-1.0-2.0","3","3","4","3","4","3","3","4","4","4","4","5","4","3","4","4","4","4","4","5","1","1","1","1","2","1","4","4","1","1","0","1","1","0","0","0","1","0","1","1","0","1","0","1","4","4","4","4","4","3","4","4","2","2","574675236746690560","杨","21","","","","","","","","","","","","","","","","","","","","","","","","","","","","","","","","","","","","","","","",""
"2261","
  <p style='color: white; font-size: 22px'>请您将手指放在按键上，准备进入正式的匹配任务。</p>
  <p> <div style = ""color: green""><按空格键进入下一阶段的匹配任务></div></p>
  "," ","html-keyboard-response","106","180575","0.0-7.0-1.0-3.0","3","3","4","3","4","3","3","4","4","4","4","5","4","3","4","4","4","4","4","5","1","1","1","1","2","1","4","4","1","1","0","1","1","0","0","0","1","0","1","1","0","1","0","1","4","4","4","4","4","3","4","4","2","2","574675236746690560","杨","21","","","","","","","","","","","","","","","","","","","","","","","","","","","","","","","","","","","","","","","",""
"634","","f","psychophysics","107","182211","0.0-7.0-1.0-4.0-0.0-0.0","3","3","4","3","4","3","3","4","4","4","4","5","4","3","4","4","4","4","4","5","1","1","1","1","2","1","4","4","1","1","0","1","1","0","0","0","1","0","1","1","0","1","0","1","4","4","4","4","4","3","4","4","2","2","574675236746690560","杨","21","","","","nonmatch","","","","","","","","","","","","","","key","f","16.67047422680405","640","356","f","true","nonmatch","img/square.png","椭圆","方形","ALT1","formal_ALT1_2","","","","","","","","","",""
"null","<span style='color:GreenYellow; font-size: 70px;'>正确! </span>","null","html-keyboard-response","108","182713","0.0-7.0-1.0-4.0-0.0-1.0","3","3","4","3","4","3","3","4","4","4","4","5","4","3","4","4","4","4","4","5","1","1","1","1","2","1","4","4","1","1","0","1","1","0","0","0","1","0","1","1","0","1","0","1","4","4","4","4","4","3","4","4","2","2","574675236746690560","杨","21","","","","","","","","","","","","","","","","","","","","","","","","","","","","","","feedback_test","","","","","","","","","",""
"585","","f","psychophysics","109","184300","0.0-7.0-1.0-4.0-0.0-0.1","3","3","4","3","4","3","3","4","4","4","4","5","4","3","4","4","4","4","4","5","1","1","1","1","2","1","4","4","1","1","0","1","1","0","0","0","1","0","1","1","0","1","0","1","4","4","4","4","4","3","4","4","2","2","574675236746690560","杨","21","","","","nonmatch","","","","","","","","","","","","","","key","f","16.669202127659563","640","356","f","true","nonmatch","img/hexagon.png","椭圆","六边","ALT1","formal_ALT1_2","","","","","","","","","",""
"null","<span style='color:GreenYellow; font-size: 70px;'>正确! </span>","null","html-keyboard-response","110","184813","0.0-7.0-1.0-4.0-0.0-1.1","3","3","4","3","4","3","3","4","4","4","4","5","4","3","4","4","4","4","4","5","1","1","1","1","2","1","4","4","1","1","0","1","1","0","0","0","1","0","1","1","0","1","0","1","4","4","4","4","4","3","4","4","2","2","574675236746690560","杨","21","","","","","","","","","","","","","","","","","","","","","","","","","","","","","","feedback_test","","","","","","","","","",""
"511","","j","psychophysics","111","186325","0.0-7.0-1.0-4.0-0.0-0.2","3","3","4","3","4","3","3","4","4","4","4","5","4","3","4","4","4","4","4","5","1","1","1","1","2","1","4","4","1","1","0","1","1","0","0","0","1","0","1","1","0","1","0","1","4","4","4","4","4","3","4","4","2","2","574675236746690560","杨","21","","","","match","","","","","","","","","","","","","","key","j","16.667577777778043","640","356","j","true","match","img/hexagon.png","六边","六边","ALT1","formal_ALT1_2","","","","","","","","","",""
"null","<span style='color:GreenYellow; font-size: 70px;'>正确! </span>","null","html-keyboard-response","112","186827","0.0-7.0-1.0-4.0-0.0-1.2","3","3","4","3","4","3","3","4","4","4","4","5","4","3","4","4","4","4","4","5","1","1","1","1","2","1","4","4","1","1","0","1","1","0","0","0","1","0","1","1","0","1","0","1","4","4","4","4","4","3","4","4","2","2","574675236746690560","杨","21","","","","","","","","","","","","","","","","","","","","","","","","","","","","","","feedback_test","","","","","","","","","",""
"705","","f","psychophysics","113","188534","0.0-7.0-1.0-4.0-0.0-0.3","3","3","4","3","4","3","3","4","4","4","4","5","4","3","4","4","4","4","4","5","1","1","1","1","2","1","4","4","1","1","0","1","1","0","0","0","1","0","1","1","0","1","0","1","4","4","4","4","4","3","4","4","2","2","574675236746690560","杨","21","","","","nonmatch","","","","","","","","","","","","","","key","f","16.66883168316828","640","356","f","true","nonmatch","img/trapezoid.png","六边","梯形","ALT1","formal_ALT1_2","","","","","","","","","",""
"null","<span style='color:GreenYellow; font-size: 70px;'>正确! </span>","null","html-keyboard-response","114","189036","0.0-7.0-1.0-4.0-0.0-1.3","3","3","4","3","4","3","3","4","4","4","4","5","4","3","4","4","4","4","4","5","1","1","1","1","2","1","4","4","1","1","0","1","1","0","0","0","1","0","1","1","0","1","0","1","4","4","4","4","4","3","4","4","2","2","574675236746690560","杨","21","","","","","","","","","","","","","","","","","","","","","","","","","","","","","","feedback_test","","","","","","","","","",""
"804","","f","psychophysics","115","190842","0.0-7.0-1.0-4.0-0.0-0.4","3","3","4","3","4","3","3","4","4","4","4","5","4","3","4","4","4","4","4","5","1","1","1","1","2","1","4","4","1","1","0","1","1","0","0","0","1","0","1","1","0","1","0","1","4","4","4","4","4","3","4","4","2","2","574675236746690560","杨","21","","","","nonmatch","","","","","","","","","","","","","","key","f","16.665495327102928","640","356","f","true","nonmatch","img/hexagon.png","梯形","六边","ALT1","formal_ALT1_2","","","","","","","","","",""
"null","<span style='color:GreenYellow; font-size: 70px;'>正确! </span>","null","html-keyboard-response","116","191345","0.0-7.0-1.0-4.0-0.0-1.4","3","3","4","3","4","3","3","4","4","4","4","5","4","3","4","4","4","4","4","5","1","1","1","1","2","1","4","4","1","1","0","1","1","0","0","0","1","0","1","1","0","1","0","1","4","4","4","4","4","3","4","4","2","2","574675236746690560","杨","21","","","","","","","","","","","","","","","","","","","","","","","","","","","","","","feedback_test","","","","","","","","","",""
"511","","j","psychophysics","117","192858","0.0-7.0-1.0-4.0-0.0-0.5","3","3","4","3","4","3","3","4","4","4","4","5","4","3","4","4","4","4","4","5","1","1","1","1","2","1","4","4","1","1","0","1","1","0","0","0","1","0","1","1","0","1","0","1","4","4","4","4","4","3","4","4","2","2","574675236746690560","杨","21","","","","match","","","","","","","","","","","","","","key","j","16.665233333333163","640","356","j","true","match","img/ellipse.png","椭圆","椭圆","ALT1","formal_ALT1_2","","","","","","","","","",""
"null","<span style='color:GreenYellow; font-size: 70px;'>正确! </span>","null","html-keyboard-response","118","193359","0.0-7.0-1.0-4.0-0.0-1.5","3","3","4","3","4","3","3","4","4","4","4","5","4","3","4","4","4","4","4","5","1","1","1","1","2","1","4","4","1","1","0","1","1","0","0","0","1","0","1","1","0","1","0","1","4","4","4","4","4","3","4","4","2","2","574675236746690560","杨","21","","","","","","","","","","","","","","","","","","","","","","","","","","","","","","feedback_test","","","","","","","","","",""
"638","","f","psychophysics","119","194999","0.0-7.0-1.0-4.0-0.0-0.6","3","3","4","3","4","3","3","4","4","4","4","5","4","3","4","4","4","4","4","5","1","1","1","1","2","1","4","4","1","1","0","1","1","0","0","0","1","0","1","1","0","1","0","1","4","4","4","4","4","3","4","4","2","2","574675236746690560","杨","21","","","","nonmatch","","","","","","","","","","","","","","key","f","16.67051546391761","640","356","f","true","nonmatch","img/hexagon.png","方形","六边","ALT1","formal_ALT1_2","","","","","","","","","",""
"null","<span style='color:GreenYellow; font-size: 70px;'>正确! </span>","null","html-keyboard-response","120","195501","0.0-7.0-1.0-4.0-0.0-1.6","3","3","4","3","4","3","3","4","4","4","4","5","4","3","4","4","4","4","4","5","1","1","1","1","2","1","4","4","1","1","0","1","1","0","0","0","1","0","1","1","0","1","0","1","4","4","4","4","4","3","4","4","2","2","574675236746690560","杨","21","","","","","","","","","","","","","","","","","","","","","","","","","","","","","","feedback_test","","","","","","","","","",""
"608","","j","psychophysics","121","197113","0.0-7.0-1.0-4.0-0.0-0.7","3","3","4","3","4","3","3","4","4","4","4","5","4","3","4","4","4","4","4","5","1","1","1","1","2","1","4","4","1","1","0","1","1","0","0","0","1","0","1","1","0","1","0","1","4","4","4","4","4","3","4","4","2","2","574675236746690560","杨","21","","","","match","","","","","","","","","","","","","","key","j","16.60164583333335","640","356","j","true","match","img/trapezoid.png","梯形","梯形","ALT1","formal_ALT1_2","","","","","","","","","",""
"null","<span style='color:GreenYellow; font-size: 70px;'>正确! </span>","null","html-keyboard-response","122","197615","0.0-7.0-1.0-4.0-0.0-1.7","3","3","4","3","4","3","3","4","4","4","4","5","4","3","4","4","4","4","4","5","1","1","1","1","2","1","4","4","1","1","0","1","1","0","0","0","1","0","1","1","0","1","0","1","4","4","4","4","4","3","4","4","2","2","574675236746690560","杨","21","","","","","","","","","","","","","","","","","","","","","","","","","","","","","","feedback_test","","","","","","","","","",""
"580","","j","psychophysics","123","199198","0.0-7.0-1.0-4.0-0.0-0.8","3","3","4","3","4","3","3","4","4","4","4","5","4","3","4","4","4","4","4","5","1","1","1","1","2","1","4","4","1","1","0","1","1","0","0","0","1","0","1","1","0","1","0","1","4","4","4","4","4","3","4","4","2","2","574675236746690560","杨","21","","","","match","","","","","","","","","","","","","","key","j","16.668936170212817","640","356","j","true","match","img/ellipse.png","椭圆","椭圆","ALT1","formal_ALT1_2","","","","","","","","","",""
"null","<span style='color:GreenYellow; font-size: 70px;'>正确! </span>","null","html-keyboard-response","124","199699","0.0-7.0-1.0-4.0-0.0-1.8","3","3","4","3","4","3","3","4","4","4","4","5","4","3","4","4","4","4","4","5","1","1","1","1","2","1","4","4","1","1","0","1","1","0","0","0","1","0","1","1","0","1","0","1","4","4","4","4","4","3","4","4","2","2","574675236746690560","杨","21","","","","","","","","","","","","","","","","","","","","","","","","","","","","","","feedback_test","","","","","","","","","",""
"651","","f","psychophysics","125","201356","0.0-7.0-1.0-4.0-0.0-0.9","3","3","4","3","4","3","3","4","4","4","4","5","4","3","4","4","4","4","4","5","1","1","1","1","2","1","4","4","1","1","0","1","1","0","0","0","1","0","1","1","0","1","0","1","4","4","4","4","4","3","4","4","2","2","574675236746690560","杨","21","","","","nonmatch","","","","","","","","","","","","","","key","f","16.61870707070715","640","356","f","true","nonmatch","img/square.png","六边","方形","ALT1","formal_ALT1_2","","","","","","","","","",""
"null","<span style='color:GreenYellow; font-size: 70px;'>正确! </span>","null","html-keyboard-response","126","201858","0.0-7.0-1.0-4.0-0.0-1.9","3","3","4","3","4","3","3","4","4","4","4","5","4","3","4","4","4","4","4","5","1","1","1","1","2","1","4","4","1","1","0","1","1","0","0","0","1","0","1","1","0","1","0","1","4","4","4","4","4","3","4","4","2","2","574675236746690560","杨","21","","","","","","","","","","","","","","","","","","","","","","","","","","","","","","feedback_test","","","","","","","","","",""
"751","","j","psychophysics","127","203612","0.0-7.0-1.0-4.0-0.0-0.10","3","3","4","3","4","3","3","4","4","4","4","5","4","3","4","4","4","4","4","5","1","1","1","1","2","1","4","4","1","1","0","1","1","0","0","0","1","0","1","1","0","1","0","1","4","4","4","4","4","3","4","4","2","2","574675236746690560","杨","21","","","","match","","","","","","","","","","","","","","key","j","16.668451923076926","640","356","j","true","match","img/hexagon.png","六边","六边","ALT1","formal_ALT1_2","","","","","","","","","",""
"null","<span style='color:GreenYellow; font-size: 70px;'>正确! </span>","null","html-keyboard-response","128","204113","0.0-7.0-1.0-4.0-0.0-1.10","3","3","4","3","4","3","3","4","4","4","4","5","4","3","4","4","4","4","4","5","1","1","1","1","2","1","4","4","1","1","0","1","1","0","0","0","1","0","1","1","0","1","0","1","4","4","4","4","4","3","4","4","2","2","574675236746690560","杨","21","","","","","","","","","","","","","","","","","","","","","","","","","","","","","","feedback_test","","","","","","","","","",""
"634","","j","psychophysics","129","205749","0.0-7.0-1.0-4.0-0.0-0.11","3","3","4","3","4","3","3","4","4","4","4","5","4","3","4","4","4","4","4","5","1","1","1","1","2","1","4","4","1","1","0","1","1","0","0","0","1","0","1","1","0","1","0","1","4","4","4","4","4","3","4","4","2","2","574675236746690560","杨","21","","","","match","","","","","","","","","","","","","","key","j","16.659309278350303","640","356","j","true","match","img/hexagon.png","六边","六边","ALT1","formal_ALT1_2","","","","","","","","","",""
"null","<span style='color:GreenYellow; font-size: 70px;'>正确! </span>","null","html-keyboard-response","130","206251","0.0-7.0-1.0-4.0-0.0-1.11","3","3","4","3","4","3","3","4","4","4","4","5","4","3","4","4","4","4","4","5","1","1","1","1","2","1","4","4","1","1","0","1","1","0","0","0","1","0","1","1","0","1","0","1","4","4","4","4","4","3","4","4","2","2","574675236746690560","杨","21","","","","","","","","","","","","","","","","","","","","","","","","","","","","","","feedback_test","","","","","","","","","",""
"584","","f","psychophysics","131","207838","0.0-7.0-1.0-4.0-0.0-0.12","3","3","4","3","4","3","3","4","4","4","4","5","4","3","4","4","4","4","4","5","1","1","1","1","2","1","4","4","1","1","0","1","1","0","0","0","1","0","1","1","0","1","0","1","4","4","4","4","4","3","4","4","2","2","574675236746690560","杨","21","","","","nonmatch","","","","","","","","","","","","","","key","f","16.651223404255283","640","356","f","true","nonmatch","img/ellipse.png","梯形","椭圆","ALT1","formal_ALT1_2","","","","","","","","","",""
"null","<span style='color:GreenYellow; font-size: 70px;'>正确! </span>","null","html-keyboard-response","132","208340","0.0-7.0-1.0-4.0-0.0-1.12","3","3","4","3","4","3","3","4","4","4","4","5","4","3","4","4","4","4","4","5","1","1","1","1","2","1","4","4","1","1","0","1","1","0","0","0","1","0","1","1","0","1","0","1","4","4","4","4","4","3","4","4","2","2","574675236746690560","杨","21","","","","","","","","","","","","","","","","","","","","","","","","","","","","","","feedback_test","","","","","","","","","",""
"818","","f","psychophysics","133","210160","0.0-7.0-1.0-4.0-0.0-0.13","3","3","4","3","4","3","3","4","4","4","4","5","4","3","4","4","4","4","4","5","1","1","1","1","2","1","4","4","1","1","0","1","1","0","0","0","1","0","1","1","0","1","0","1","4","4","4","4","4","3","4","4","2","2","574675236746690560","杨","21","","","","nonmatch","","","","","","","","","","","","","","key","f","16.667787037037165","640","356","f","true","nonmatch","img/ellipse.png","方形","椭圆","ALT1","formal_ALT1_2","","","","","","","","","",""
"null","<span style='color:GreenYellow; font-size: 70px;'>正确! </span>","null","html-keyboard-response","134","210661","0.0-7.0-1.0-4.0-0.0-1.13","3","3","4","3","4","3","3","4","4","4","4","5","4","3","4","4","4","4","4","5","1","1","1","1","2","1","4","4","1","1","0","1","1","0","0","0","1","0","1","1","0","1","0","1","4","4","4","4","4","3","4","4","2","2","574675236746690560","杨","21","","","","","","","","","","","","","","","","","","","","","","","","","","","","","","feedback_test","","","","","","","","","",""
"601","","f","psychophysics","135","212265","0.0-7.0-1.0-4.0-0.0-0.14","3","3","4","3","4","3","3","4","4","4","4","5","4","3","4","4","4","4","4","5","1","1","1","1","2","1","4","4","1","1","0","1","1","0","0","0","1","0","1","1","0","1","0","1","4","4","4","4","4","3","4","4","2","2","574675236746690560","杨","21","","","","nonmatch","","","","","","","","","","","","","","key","f","16.669736842105262","640","356","f","true","nonmatch","img/ellipse.png","六边","椭圆","ALT1","formal_ALT1_2","","","","","","","","","",""
"null","<span style='color:GreenYellow; font-size: 70px;'>正确! </span>","null","html-keyboard-response","136","212766","0.0-7.0-1.0-4.0-0.0-1.14","3","3","4","3","4","3","3","4","4","4","4","5","4","3","4","4","4","4","4","5","1","1","1","1","2","1","4","4","1","1","0","1","1","0","0","0","1","0","1","1","0","1","0","1","4","4","4","4","4","3","4","4","2","2","574675236746690560","杨","21","","","","","","","","","","","","","","","","","","","","","","","","","","","","","","feedback_test","","","","","","","","","",""
"526","","j","psychophysics","137","214295","0.0-7.0-1.0-4.0-0.0-0.15","3","3","4","3","4","3","3","4","4","4","4","5","4","3","4","4","4","4","4","5","1","1","1","1","2","1","4","4","1","1","0","1","1","0","0","0","1","0","1","1","0","1","0","1","4","4","4","4","4","3","4","4","2","2","574675236746690560","杨","21","","","","match","","","","","","","","","","","","","","key","j","16.666868131868107","640","356","j","true","match","img/trapezoid.png","梯形","梯形","ALT1","formal_ALT1_2","","","","","","","","","",""
"null","<span style='color:GreenYellow; font-size: 70px;'>正确! </span>","null","html-keyboard-response","138","214796","0.0-7.0-1.0-4.0-0.0-1.15","3","3","4","3","4","3","3","4","4","4","4","5","4","3","4","4","4","4","4","5","1","1","1","1","2","1","4","4","1","1","0","1","1","0","0","0","1","0","1","1","0","1","0","1","4","4","4","4","4","3","4","4","2","2","574675236746690560","杨","21","","","","","","","","","","","","","","","","","","","","","","","","","","","","","","feedback_test","","","","","","","","","",""
"645","","f","psychophysics","139","216444","0.0-7.0-1.0-4.0-0.0-0.16","3","3","4","3","4","3","3","4","4","4","4","5","4","3","4","4","4","4","4","5","1","1","1","1","2","1","4","4","1","1","0","1","1","0","0","0","1","0","1","1","0","1","0","1","4","4","4","4","4","3","4","4","2","2","574675236746690560","杨","21","","","","nonmatch","","","","","","","","","","","","","","key","f","16.64714285714299","640","356","f","true","nonmatch","img/square.png","梯形","方形","ALT1","formal_ALT1_2","","","","","","","","","",""
"null","<span style='color:GreenYellow; font-size: 70px;'>正确! </span>","null","html-keyboard-response","140","216946","0.0-7.0-1.0-4.0-0.0-1.16","3","3","4","3","4","3","3","4","4","4","4","5","4","3","4","4","4","4","4","5","1","1","1","1","2","1","4","4","1","1","0","1","1","0","0","0","1","0","1","1","0","1","0","1","4","4","4","4","4","3","4","4","2","2","574675236746690560","杨","21","","","","","","","","","","","","","","","","","","","","","","","","","","","","","","feedback_test","","","","","","","","","",""
"556","","j","psychophysics","141","218505","0.0-7.0-1.0-4.0-0.0-0.17","3","3","4","3","4","3","3","4","4","4","4","5","4","3","4","4","4","4","4","5","1","1","1","1","2","1","4","4","1","1","0","1","1","0","0","0","1","0","1","1","0","1","0","1","4","4","4","4","4","3","4","4","2","2","574675236746690560","杨","21","","","","match","","","","","","","","","","","","","","key","j","16.67098913043478","640","356","j","true","match","img/ellipse.png","椭圆","椭圆","ALT1","formal_ALT1_2","","","","","","","","","",""
"null","<span style='color:GreenYellow; font-size: 70px;'>正确! </span>","null","html-keyboard-response","142","219007","0.0-7.0-1.0-4.0-0.0-1.17","3","3","4","3","4","3","3","4","4","4","4","5","4","3","4","4","4","4","4","5","1","1","1","1","2","1","4","4","1","1","0","1","1","0","0","0","1","0","1","1","0","1","0","1","4","4","4","4","4","3","4","4","2","2","574675236746690560","杨","21","","","","","","","","","","","","","","","","","","","","","","","","","","","","","","feedback_test","","","","","","","","","",""
"541","","j","psychophysics","143","220551","0.0-7.0-1.0-4.0-0.0-0.18","3","3","4","3","4","3","3","4","4","4","4","5","4","3","4","4","4","4","4","5","1","1","1","1","2","1","4","4","1","1","0","1","1","0","0","0","1","0","1","1","0","1","0","1","4","4","4","4","4","3","4","4","2","2","574675236746690560","杨","21","","","","match","","","","","","","","","","","","","","key","j","16.670197802197936","640","356","j","true","match","img/square.png","方形","方形","ALT1","formal_ALT1_2","","","","","","","","","",""
"null","<span style='color:GreenYellow; font-size: 70px;'>正确! </span>","null","html-keyboard-response","144","221052","0.0-7.0-1.0-4.0-0.0-1.18","3","3","4","3","4","3","3","4","4","4","4","5","4","3","4","4","4","4","4","5","1","1","1","1","2","1","4","4","1","1","0","1","1","0","0","0","1","0","1","1","0","1","0","1","4","4","4","4","4","3","4","4","2","2","574675236746690560","杨","21","","","","","","","","","","","","","","","","","","","","","","","","","","","","","","feedback_test","","","","","","","","","",""
"526","","f","psychophysics","145","222580","0.0-7.0-1.0-4.0-0.0-0.19","3","3","4","3","4","3","3","4","4","4","4","5","4","3","4","4","4","4","4","5","1","1","1","1","2","1","4","4","1","1","0","1","1","0","0","0","1","0","1","1","0","1","0","1","4","4","4","4","4","3","4","4","2","2","574675236746690560","杨","21","","","","nonmatch","","","","","","","","","","","","","","key","f","16.632252747252785","640","356","f","true","nonmatch","img/trapezoid.png","椭圆","梯形","ALT1","formal_ALT1_2","","","","","","","","","",""
"null","<span style='color:GreenYellow; font-size: 70px;'>正确! </span>","null","html-keyboard-response","146","223093","0.0-7.0-1.0-4.0-0.0-1.19","3","3","4","3","4","3","3","4","4","4","4","5","4","3","4","4","4","4","4","5","1","1","1","1","2","1","4","4","1","1","0","1","1","0","0","0","1","0","1","1","0","1","0","1","4","4","4","4","4","3","4","4","2","2","574675236746690560","杨","21","","","","","","","","","","","","","","","","","","","","","","","","","","","","","","feedback_test","","","","","","","","","",""
"454","","j","psychophysics","147","224549","0.0-7.0-1.0-4.0-0.0-0.20","3","3","4","3","4","3","3","4","4","4","4","5","4","3","4","4","4","4","4","5","1","1","1","1","2","1","4","4","1","1","0","1","1","0","0","0","1","0","1","1","0","1","0","1","4","4","4","4","4","3","4","4","2","2","574675236746690560","杨","21","","","","match","","","","","","","","","","","","","","key","j","16.672151162790616","640","356","j","true","match","img/square.png","方形","方形","ALT1","formal_ALT1_2","","","","","","","","","",""
"null","<span style='color:GreenYellow; font-size: 70px;'>正确! </span>","null","html-keyboard-response","148","225052","0.0-7.0-1.0-4.0-0.0-1.20","3","3","4","3","4","3","3","4","4","4","4","5","4","3","4","4","4","4","4","5","1","1","1","1","2","1","4","4","1","1","0","1","1","0","0","0","1","0","1","1","0","1","0","1","4","4","4","4","4","3","4","4","2","2","574675236746690560","杨","21","","","","","","","","","","","","","","","","","","","","","","","","","","","","","","feedback_test","","","","","","","","","",""
"445","","j","psychophysics","149","226499","0.0-7.0-1.0-4.0-0.0-0.21","3","3","4","3","4","3","3","4","4","4","4","5","4","3","4","4","4","4","4","5","1","1","1","1","2","1","4","4","1","1","0","1","1","0","0","0","1","0","1","1","0","1","0","1","4","4","4","4","4","3","4","4","2","2","574675236746690560","杨","21","","","","match","","","","","","","","","","","","","","key","j","16.66029069767446","640","356","j","true","match","img/square.png","方形","方形","ALT1","formal_ALT1_2","","","","","","","","","",""
"null","<span style='color:GreenYellow; font-size: 70px;'>正确! </span>","null","html-keyboard-response","150","227001","0.0-7.0-1.0-4.0-0.0-1.21","3","3","4","3","4","3","3","4","4","4","4","5","4","3","4","4","4","4","4","5","1","1","1","1","2","1","4","4","1","1","0","1","1","0","0","0","1","0","1","1","0","1","0","1","4","4","4","4","4","3","4","4","2","2","574675236746690560","杨","21","","","","","","","","","","","","","","","","","","","","","","","","","","","","","","feedback_test","","","","","","","","","",""
"530","","j","psychophysics","151","228534","0.0-7.0-1.0-4.0-0.0-0.22","3","3","4","3","4","3","3","4","4","4","4","5","4","3","4","4","4","4","4","5","1","1","1","1","2","1","4","4","1","1","0","1","1","0","0","0","1","0","1","1","0","1","0","1","4","4","4","4","4","3","4","4","2","2","574675236746690560","杨","21","","","","match","","","","","","","","","","","","","","key","j","16.634725274725056","640","356","j","true","match","img/trapezoid.png","梯形","梯形","ALT1","formal_ALT1_2","","","","","","","","","",""
"null","<span style='color:GreenYellow; font-size: 70px;'>正确! </span>","null","html-keyboard-response","152","229035","0.0-7.0-1.0-4.0-0.0-1.22","3","3","4","3","4","3","3","4","4","4","4","5","4","3","4","4","4","4","4","5","1","1","1","1","2","1","4","4","1","1","0","1","1","0","0","0","1","0","1","1","0","1","0","1","4","4","4","4","4","3","4","4","2","2","574675236746690560","杨","21","","","","","","","","","","","","","","","","","","","","","","","","","","","","","","feedback_test","","","","","","","","","",""
"501","","f","psychophysics","153","230539","0.0-7.0-1.0-4.0-0.0-0.23","3","3","4","3","4","3","3","4","4","4","4","5","4","3","4","4","4","4","4","5","1","1","1","1","2","1","4","4","1","1","0","1","1","0","0","0","1","0","1","1","0","1","0","1","4","4","4","4","4","3","4","4","2","2","574675236746690560","杨","21","","","","nonmatch","","","","","","","","","","","","","","key","f","16.669101123595702","640","356","f","true","nonmatch","img/trapezoid.png","方形","梯形","ALT1","formal_ALT1_2","","","","","","","","","",""
"null","<span style='color:GreenYellow; font-size: 70px;'>正确! </span>","null","html-keyboard-response","154","231042","0.0-7.0-1.0-4.0-0.0-1.23","3","3","4","3","4","3","3","4","4","4","4","5","4","3","4","4","4","4","4","5","1","1","1","1","2","1","4","4","1","1","0","1","1","0","0","0","1","0","1","1","0","1","0","1","4","4","4","4","4","3","4","4","2","2","574675236746690560","杨","21","","","","","","","","","","","","","","","","","","","","","","","","","","","","","","feedback_test","","","","","","","","","",""
"446","","j","psychophysics","155","232493","0.0-7.0-1.0-4.0-0.0-0.24","3","3","4","3","4","3","3","4","4","4","4","5","4","3","4","4","4","4","4","5","1","1","1","1","2","1","4","4","1","1","0","1","1","0","0","0","1","0","1","1","0","1","0","1","4","4","4","4","4","3","4","4","2","2","574675236746690560","杨","21","","","","match","","","","","","","","","","","","","","key","j","16.668581395349086","640","356","j","true","match","img/hexagon.png","六边","六边","ALT1","formal_ALT1_2","","","","","","","","","",""
"null","<span style='color:GreenYellow; font-size: 70px;'>正确! </span>","null","html-keyboard-response","156","232995","0.0-7.0-1.0-4.0-0.0-1.24","3","3","4","3","4","3","3","4","4","4","4","5","4","3","4","4","4","4","4","5","1","1","1","1","2","1","4","4","1","1","0","1","1","0","0","0","1","0","1","1","0","1","0","1","4","4","4","4","4","3","4","4","2","2","574675236746690560","杨","21","","","","","","","","","","","","","","","","","","","","","","","","","","","","","","feedback_test","","","","","","","","","",""
"555","","j","psychophysics","157","234552","0.0-7.0-1.0-4.0-0.0-0.25","3","3","4","3","4","3","3","4","4","4","4","5","4","3","4","4","4","4","4","5","1","1","1","1","2","1","4","4","1","1","0","1","1","0","0","0","1","0","1","1","0","1","0","1","4","4","4","4","4","3","4","4","2","2","574675236746690560","杨","21","","","","match","","","","","","","","","","","","","","key","j","16.653304347826","640","356","j","true","match","img/ellipse.png","椭圆","椭圆","ALT1","formal_ALT1_2","","","","","","","","","",""
"null","<span style='color:GreenYellow; font-size: 70px;'>正确! </span>","null","html-keyboard-response","158","235054","0.0-7.0-1.0-4.0-0.0-1.25","3","3","4","3","4","3","3","4","4","4","4","5","4","3","4","4","4","4","4","5","1","1","1","1","2","1","4","4","1","1","0","1","1","0","0","0","1","0","1","1","0","1","0","1","4","4","4","4","4","3","4","4","2","2","574675236746690560","杨","21","","","","","","","","","","","","","","","","","","","","","","","","","","","","","","feedback_test","","","","","","","","","",""
"585","","f","psychophysics","159","236641","0.0-7.0-1.0-4.0-0.0-0.26","3","3","4","3","4","3","3","4","4","4","4","5","4","3","4","4","4","4","4","5","1","1","1","1","2","1","4","4","1","1","0","1","1","0","0","0","1","0","1","1","0","1","0","1","4","4","4","4","4","3","4","4","2","2","574675236746690560","杨","21","","","","nonmatch","","","","","","","","","","","","","","key","f","16.66095744680856","640","356","f","true","nonmatch","img/ellipse.png","方形","椭圆","ALT1","formal_ALT1_2","","","","","","","","","",""
"null","<span style='color:GreenYellow; font-size: 70px;'>正确! </span>","null","html-keyboard-response","160","237142","0.0-7.0-1.0-4.0-0.0-1.26","3","3","4","3","4","3","3","4","4","4","4","5","4","3","4","4","4","4","4","5","1","1","1","1","2","1","4","4","1","1","0","1","1","0","0","0","1","0","1","1","0","1","0","1","4","4","4","4","4","3","4","4","2","2","574675236746690560","杨","21","","","","","","","","","","","","","","","","","","","","","","","","","","","","","","feedback_test","","","","","","","","","",""
"611","","f","psychophysics","161","238756","0.0-7.0-1.0-4.0-0.0-0.27","3","3","4","3","4","3","3","4","4","4","4","5","4","3","4","4","4","4","4","5","1","1","1","1","2","1","4","4","1","1","0","1","1","0","0","0","1","0","1","1","0","1","0","1","4","4","4","4","4","3","4","4","2","2","574675236746690560","杨","21","","","","nonmatch","","","","","","","","","","","","","","key","f","16.585020833333147","640","356","f","true","nonmatch","img/square.png","六边","方形","ALT1","formal_ALT1_2","","","","","","","","","",""
"null","<span style='color:GreenYellow; font-size: 70px;'>正确! </span>","null","html-keyboard-response","162","239257","0.0-7.0-1.0-4.0-0.0-1.27","3","3","4","3","4","3","3","4","4","4","4","5","4","3","4","4","4","4","4","5","1","1","1","1","2","1","4","4","1","1","0","1","1","0","0","0","1","0","1","1","0","1","0","1","4","4","4","4","4","3","4","4","2","2","574675236746690560","杨","21","","","","","","","","","","","","","","","","","","","","","","","","","","","","","","feedback_test","","","","","","","","","",""
"585","","f","psychophysics","163","240845","0.0-7.0-1.0-4.0-0.0-0.28","3","3","4","3","4","3","3","4","4","4","4","5","4","3","4","4","4","4","4","5","1","1","1","1","2","1","4","4","1","1","0","1","1","0","0","0","1","0","1","1","0","1","0","1","4","4","4","4","4","3","4","4","2","2","574675236746690560","杨","21","","","","nonmatch","","","","","","","","","","","","","","key","f","16.667031914893627","640","356","f","true","nonmatch","img/ellipse.png","梯形","椭圆","ALT1","formal_ALT1_2","","","","","","","","","",""
"null","<span style='color:GreenYellow; font-size: 70px;'>正确! </span>","null","html-keyboard-response","164","241347","0.0-7.0-1.0-4.0-0.0-1.28","3","3","4","3","4","3","3","4","4","4","4","5","4","3","4","4","4","4","4","5","1","1","1","1","2","1","4","4","1","1","0","1","1","0","0","0","1","0","1","1","0","1","0","1","4","4","4","4","4","3","4","4","2","2","574675236746690560","杨","21","","","","","","","","","","","","","","","","","","","","","","","","","","","","","","feedback_test","","","","","","","","","",""
"523","","j","psychophysics","165","242872","0.0-7.0-1.0-4.0-0.0-0.29","3","3","4","3","4","3","3","4","4","4","4","5","4","3","4","4","4","4","4","5","1","1","1","1","2","1","4","4","1","1","0","1","1","0","0","0","1","0","1","1","0","1","0","1","4","4","4","4","4","3","4","4","2","2","574675236746690560","杨","21","","","","match","","","","","","","","","","","","","","key","j","16.639788888888628","640","356","j","true","match","img/trapezoid.png","梯形","梯形","ALT1","formal_ALT1_2","","","","","","","","","",""
"null","<span style='color:GreenYellow; font-size: 70px;'>正确! </span>","null","html-keyboard-response","166","243375","0.0-7.0-1.0-4.0-0.0-1.29","3","3","4","3","4","3","3","4","4","4","4","5","4","3","4","4","4","4","4","5","1","1","1","1","2","1","4","4","1","1","0","1","1","0","0","0","1","0","1","1","0","1","0","1","4","4","4","4","4","3","4","4","2","2","574675236746690560","杨","21","","","","","","","","","","","","","","","","","","","","","","","","","","","","","","feedback_test","","","","","","","","","",""
"499","","j","psychophysics","167","244876","0.0-7.0-1.0-4.0-0.0-0.30","3","3","4","3","4","3","3","4","4","4","4","5","4","3","4","4","4","4","4","5","1","1","1","1","2","1","4","4","1","1","0","1","1","0","0","0","1","0","1","1","0","1","0","1","4","4","4","4","4","3","4","4","2","2","574675236746690560","杨","21","","","","match","","","","","","","","","","","","","","key","j","16.665674157303318","640","356","j","true","match","img/square.png","方形","方形","ALT1","formal_ALT1_2","","","","","","","","","",""
"null","<span style='color:GreenYellow; font-size: 70px;'>正确! </span>","null","html-keyboard-response","168","245378","0.0-7.0-1.0-4.0-0.0-1.30","3","3","4","3","4","3","3","4","4","4","4","5","4","3","4","4","4","4","4","5","1","1","1","1","2","1","4","4","1","1","0","1","1","0","0","0","1","0","1","1","0","1","0","1","4","4","4","4","4","3","4","4","2","2","574675236746690560","杨","21","","","","","","","","","","","","","","","","","","","","","","","","","","","","","","feedback_test","","","","","","","","","",""
"593","","f","psychophysics","169","246974","0.0-7.0-1.0-4.0-0.0-0.31","3","3","4","3","4","3","3","4","4","4","4","5","4","3","4","4","4","4","4","5","1","1","1","1","2","1","4","4","1","1","0","1","1","0","0","0","1","0","1","1","0","1","0","1","4","4","4","4","4","3","4","4","2","2","574675236746690560","杨","21","","","","nonmatch","","","","","","","","","","","","","","key","f","16.665178947368528","640","356","f","true","nonmatch","img/square.png","梯形","方形","ALT1","formal_ALT1_2","","","","","","","","","",""
"null","<span style='color:GreenYellow; font-size: 70px;'>正确! </span>","null","html-keyboard-response","170","247476","0.0-7.0-1.0-4.0-0.0-1.31","3","3","4","3","4","3","3","4","4","4","4","5","4","3","4","4","4","4","4","5","1","1","1","1","2","1","4","4","1","1","0","1","1","0","0","0","1","0","1","1","0","1","0","1","4","4","4","4","4","3","4","4","2","2","574675236746690560","杨","21","","","","","","","","","","","","","","","","","","","","","","","","","","","","","","feedback_test","","","","","","","","","",""
"494","","j","psychophysics","171","248972","0.0-7.0-1.0-4.0-0.0-0.32","3","3","4","3","4","3","3","4","4","4","4","5","4","3","4","4","4","4","4","5","1","1","1","1","2","1","4","4","1","1","0","1","1","0","0","0","1","0","1","1","0","1","0","1","4","4","4","4","4","3","4","4","2","2","574675236746690560","杨","21","","","","match","","","","","","","","","","","","","","key","j","16.671386363636305","640","356","j","true","match","img/trapezoid.png","梯形","梯形","ALT1","formal_ALT1_2","","","","","","","","","",""
"null","<span style='color:GreenYellow; font-size: 70px;'>正确! </span>","null","html-keyboard-response","172","249474","0.0-7.0-1.0-4.0-0.0-1.32","3","3","4","3","4","3","3","4","4","4","4","5","4","3","4","4","4","4","4","5","1","1","1","1","2","1","4","4","1","1","0","1","1","0","0","0","1","0","1","1","0","1","0","1","4","4","4","4","4","3","4","4","2","2","574675236746690560","杨","21","","","","","","","","","","","","","","","","","","","","","","","","","","","","","","feedback_test","","","","","","","","","",""
"467","","f","psychophysics","173","250945","0.0-7.0-1.0-4.0-0.0-0.33","3","3","4","3","4","3","3","4","4","4","4","5","4","3","4","4","4","4","4","5","1","1","1","1","2","1","4","4","1","1","0","1","1","0","0","0","1","0","1","1","0","1","0","1","4","4","4","4","4","3","4","4","2","2","574675236746690560","杨","21","","","","nonmatch","","","","","","","","","","","","","","key","f","16.66772413793108","640","356","f","true","nonmatch","img/square.png","椭圆","方形","ALT1","formal_ALT1_2","","","","","","","","","",""
"null","<span style='color:GreenYellow; font-size: 70px;'>正确! </span>","null","html-keyboard-response","174","251446","0.0-7.0-1.0-4.0-0.0-1.33","3","3","4","3","4","3","3","4","4","4","4","5","4","3","4","4","4","4","4","5","1","1","1","1","2","1","4","4","1","1","0","1","1","0","0","0","1","0","1","1","0","1","0","1","4","4","4","4","4","3","4","4","2","2","574675236746690560","杨","21","","","","","","","","","","","","","","","","","","","","","","","","","","","","","","feedback_test","","","","","","","","","",""
"523","","j","psychophysics","175","252972","0.0-7.0-1.0-4.0-0.0-0.34","3","3","4","3","4","3","3","4","4","4","4","5","4","3","4","4","4","4","4","5","1","1","1","1","2","1","4","4","1","1","0","1","1","0","0","0","1","0","1","1","0","1","0","1","4","4","4","4","4","3","4","4","2","2","574675236746690560","杨","21","","","","match","","","","","","","","","","","","","","key","j","16.65562222222248","640","356","j","true","match","img/square.png","方形","方形","ALT1","formal_ALT1_2","","","","","","","","","",""
"null","<span style='color:GreenYellow; font-size: 70px;'>正确! </span>","null","html-keyboard-response","176","253474","0.0-7.0-1.0-4.0-0.0-1.34","3","3","4","3","4","3","3","4","4","4","4","5","4","3","4","4","4","4","4","5","1","1","1","1","2","1","4","4","1","1","0","1","1","0","0","0","1","0","1","1","0","1","0","1","4","4","4","4","4","3","4","4","2","2","574675236746690560","杨","21","","","","","","","","","","","","","","","","","","","","","","","","","","","","","","feedback_test","","","","","","","","","",""
"516","","j","psychophysics","177","254992","0.0-7.0-1.0-4.0-0.0-0.35","3","3","4","3","4","3","3","4","4","4","4","5","4","3","4","4","4","4","4","5","1","1","1","1","2","1","4","4","1","1","0","1","1","0","0","0","1","0","1","1","0","1","0","1","4","4","4","4","4","3","4","4","2","2","574675236746690560","杨","21","","","","match","","","","","","","","","","","","","","key","j","16.670688888889142","640","356","j","true","match","img/ellipse.png","椭圆","椭圆","ALT1","formal_ALT1_2","","","","","","","","","",""
"null","<span style='color:GreenYellow; font-size: 70px;'>正确! </span>","null","html-keyboard-response","178","255494","0.0-7.0-1.0-4.0-0.0-1.35","3","3","4","3","4","3","3","4","4","4","4","5","4","3","4","4","4","4","4","5","1","1","1","1","2","1","4","4","1","1","0","1","1","0","0","0","1","0","1","1","0","1","0","1","4","4","4","4","4","3","4","4","2","2","574675236746690560","杨","21","","","","","","","","","","","","","","","","","","","","","","","","","","","","","","feedback_test","","","","","","","","","",""
"629","","j","psychophysics","179","257126","0.0-7.0-1.0-4.0-0.0-0.36","3","3","4","3","4","3","3","4","4","4","4","5","4","3","4","4","4","4","4","5","1","1","1","1","2","1","4","4","1","1","0","1","1","0","0","0","1","0","1","1","0","1","0","1","4","4","4","4","4","3","4","4","2","2","574675236746690560","杨","21","","","","match","","","","","","","","","","","","","","key","j","16.665268041236992","640","356","j","true","match","img/hexagon.png","六边","六边","ALT1","formal_ALT1_2","","","","","","","","","",""
"null","<span style='color:GreenYellow; font-size: 70px;'>正确! </span>","null","html-keyboard-response","180","257628","0.0-7.0-1.0-4.0-0.0-1.36","3","3","4","3","4","3","3","4","4","4","4","5","4","3","4","4","4","4","4","5","1","1","1","1","2","1","4","4","1","1","0","1","1","0","0","0","1","0","1","1","0","1","0","1","4","4","4","4","4","3","4","4","2","2","574675236746690560","杨","21","","","","","","","","","","","","","","","","","","","","","","","","","","","","","","feedback_test","","","","","","","","","",""
"513","","j","psychophysics","181","259144","0.0-7.0-1.0-4.0-0.0-0.37","3","3","4","3","4","3","3","4","4","4","4","5","4","3","4","4","4","4","4","5","1","1","1","1","2","1","4","4","1","1","0","1","1","0","0","0","1","0","1","1","0","1","0","1","4","4","4","4","4","3","4","4","2","2","574675236746690560","杨","21","","","","match","","","","","","","","","","","","","","key","j","16.6655444444445","640","356","j","true","match","img/ellipse.png","椭圆","椭圆","ALT1","formal_ALT1_2","","","","","","","","","",""
"null","<span style='color:GreenYellow; font-size: 70px;'>正确! </span>","null","html-keyboard-response","182","259645","0.0-7.0-1.0-4.0-0.0-1.37","3","3","4","3","4","3","3","4","4","4","4","5","4","3","4","4","4","4","4","5","1","1","1","1","2","1","4","4","1","1","0","1","1","0","0","0","1","0","1","1","0","1","0","1","4","4","4","4","4","3","4","4","2","2","574675236746690560","杨","21","","","","","","","","","","","","","","","","","","","","","","","","","","","","","","feedback_test","","","","","","","","","",""
"457","","j","psychophysics","183","261104","0.0-7.0-1.0-4.0-0.0-0.38","3","3","4","3","4","3","3","4","4","4","4","5","4","3","4","4","4","4","4","5","1","1","1","1","2","1","4","4","1","1","0","1","1","0","0","0","1","0","1","1","0","1","0","1","4","4","4","4","4","3","4","4","2","2","574675236746690560","杨","21","","","","match","","","","","","","","","","","","","","key","j","16.668034883720942","640","356","j","true","match","img/square.png","方形","方形","ALT1","formal_ALT1_2","","","","","","","","","",""
"null","<span style='color:GreenYellow; font-size: 70px;'>正确! </span>","null","html-keyboard-response","184","261605","0.0-7.0-1.0-4.0-0.0-1.38","3","3","4","3","4","3","3","4","4","4","4","5","4","3","4","4","4","4","4","5","1","1","1","1","2","1","4","4","1","1","0","1","1","0","0","0","1","0","1","1","0","1","0","1","4","4","4","4","4","3","4","4","2","2","574675236746690560","杨","21","","","","","","","","","","","","","","","","","","","","","","","","","","","","","","feedback_test","","","","","","","","","",""
"552","","f","psychophysics","185","263160","0.0-7.0-1.0-4.0-0.0-0.39","3","3","4","3","4","3","3","4","4","4","4","5","4","3","4","4","4","4","4","5","1","1","1","1","2","1","4","4","1","1","0","1","1","0","0","0","1","0","1","1","0","1","0","1","4","4","4","4","4","3","4","4","2","2","574675236746690560","杨","21","","","","nonmatch","","","","","","","","","","","","","","key","f","16.668826086956592","640","356","f","true","nonmatch","img/trapezoid.png","椭圆","梯形","ALT1","formal_ALT1_2","","","","","","","","","",""
