"rt","stimulus","response","trial_type","trial_index","time_elapsed","internal_node_id","ses_1","ses_2","ses_3","ses_4","ses_5","ses_6","ses_7","ses_8","ses_9","ses_10","coreself_1","coreself_2","coreself_3","coreself_4","coreself_5","coreself_6","coreself_7","coreself_8","coreself_9","coreself_10","SGPS_1","SGPS_2","SGPS_3","SGPS_4","SGPS_5","SGPS_6","SGPS_7","SGPS_8","SGPS_9","NPI1","NPI2","NPI3","NPI4","NPI5","NPI6","NPI7","NPI8","NPI9","NPI10","NPI11","NPI12","NPI13","NPI14","NPI15","hsns_1","hsns_2","hsns_3","hsns_4","hsns_5","hsns_6","hsns_7","hsns_8","hsns_9","hsns_10","subj_idx","friend_name","ParticipantID","value","success","user_agent","responses","item_order","radio_event_ids","radio_event_times","key_event_times","mouse_event_times","straightlining","zigzagging","honeypot","timeout","failed_images","failed_audio","failed_video","view_history","response_type","key_press","avg_frame_time","center_x","center_y","correct_response","correct","identity","Image","word","condition","task_id","screen_id","time_stamp","version_attrib2","version_target2","IAT","RT","varname","summary","version_attrib","version_target","question_order"
"2522","
   <p><div style = ""color: white;font-size:25px;"">您好，欢迎参加本次实验。</div> </p>
   <p><div style = ""color: white;font-size:25px;"">为充分保障您的权利，请确保您已经知晓并同意《参与实验同意书》以及《数据公开知情同意书》。</div></p>
   <p><div style = ""color: white;font-size:25px;"">如果您未见过上述内容，请咨询实验员。</div></p>
   <p><div style = ""color: white;font-size:25px;"">如果您选择继续实验，则表示您已经清楚两份知情同意书的内容并同意。</div></p>
   <p><div style = ""color: red;font-size:30px;"">请确保您记得day0的实验编号，您将在本次实验输入该编号，若您忘记，请咨询实验员后作答。</div></p>
   <p> <div style = ""color: green;font-size:25px;""><按空格键至下页></div> </p>
   "," ","html-keyboard-response","0","2524","0.0-0.0","3","3","3","3","3","3","4","2","2","3","4","3","2","4","3","4","3","3","4","4","3","3","4","4","3","3","4","4","4","1","0","1","1","0","0","1","1","0","1","1","0","1","0","1","4","4","5","3","4","3","4","3","2","3","767710612724912129","任","666","","","","","","","","","","","","","","","","","","","","","","","","","","","","","","","","","","","","","","","",""
"","","","call-function","1","2525","0.0-1.0-0.0","3","3","3","3","3","3","4","2","2","3","4","3","2","4","3","4","3","3","4","4","3","3","4","4","3","3","4","4","4","1","0","1","1","0","0","1","1","0","1","1","0","1","0","1","4","4","5","3","4","3","4","3","2","3","767710612724912129","任","666","","","","","","","","","","","","","","","","","","","","","","","","","","","","","","","","","","","","","","","",""
"8438","","{""friend_name"":""任"",""ParticipantID"":""666""}","survey-html-form","2","10965","0.0-1.0-1.0","3","3","3","3","3","3","4","2","2","3","4","3","2","4","3","4","3","3","4","4","3","3","4","4","3","3","4","4","4","1","0","1","1","0","0","1","1","0","1","1","0","1","0","1","4","4","5","3","4","3","4","3","2","3","767710612724912129","任","666","","","","","","","","","","","","","","","","","","","","","","","","","","","","","","","","","","","","","","","",""
"","","","fullscreen","3","32363","0.0-2.0","3","3","3","3","3","3","4","2","2","3","4","3","2","4","3","4","3","3","4","4","3","3","4","4","3","3","4","4","4","1","0","1","1","0","0","1","1","0","1","1","0","1","0","1","4","4","5","3","4","3","4","3","2","3","767710612724912129","任","666","","true","","","","","","","","","","","","","","","","","","","","","","","","","","","","","","","","","","","","","",""
"28143","","{""Q01"":""3"",""Q02"":""3"",""Q03"":""3"",""Q04"":""3"",""Q05"":""3"",""Q06"":""3"",""Q07"":""4"",""Q08"":""2"",""Q09"":""2"",""Q10"":""3""}","survey-template","4","60508","0.0-3.0","3","3","3","3","3","3","4","2","2","3","4","3","2","4","3","4","3","3","4","4","3","3","4","4","3","3","4","4","4","1","0","1","1","0","0","1","1","0","1","1","0","1","0","1","4","4","5","3","4","3","4","3","2","3","767710612724912129","任","666","","","","{""Q01"":""3"",""Q02"":""3"",""Q03"":""3"",""Q04"":""3"",""Q05"":""3"",""Q06"":""3"",""Q07"":""4"",""Q08"":""2"",""Q09"":""2"",""Q10"":""3""}","[0,1,2,3,4,5,6,7,8,9]","[""Q01"",""Q02"",""Q03"",""Q04"",""Q05"",""Q06"",""Q07"",""Q08"",""Q09"",""Q10""]","[6299,8174,10222,11646,13461,15832,17706,20639,24434,25108.000000000007]","[]","[6299,8174,10222,11646,13461,15832,17706,20639,23405,24434,25108.000000000007,28131]","0.6","0.7777777777777778","0","","","","","","","","","","","","","","","","","","","","","","","","","","","",""
"25383.999999999993","","{""Q01"":""4"",""Q02"":""3"",""Q03"":""2"",""Q04"":""4"",""Q05"":""3"",""Q06"":""4"",""Q07"":""3"",""Q08"":""3"",""Q09"":""4"",""Q10"":""4""}","survey-template","5","85896","0.0-4.0","3","3","3","3","3","3","4","2","2","3","4","3","2","4","3","4","3","3","4","4","3","3","4","4","3","3","4","4","4","1","0","1","1","0","0","1","1","0","1","1","0","1","0","1","4","4","5","3","4","3","4","3","2","3","767710612724912129","任","666","","","","{""Q01"":""4"",""Q02"":""3"",""Q03"":""2"",""Q04"":""4"",""Q05"":""3"",""Q06"":""4"",""Q07"":""3"",""Q08"":""3"",""Q09"":""4"",""Q10"":""4""}","[0,1,2,3,4,5,6,7,8,9]","[""Q01"",""Q02"",""Q03"",""Q04"",""Q05"",""Q06"",""Q07"",""Q08"",""Q09"",""Q10""]","[4812.999999999993,7130.999999999993,9403.999999999993,10941.999999999993,12837.999999999993,15944.999999999993,18343.999999999993,19963.999999999993,21402.999999999993,24331.999999999993]","[]","[4812.999999999993,7130.999999999993,9403.999999999993,10941.999999999993,12837.999999999993,15944.999999999993,18343.999999999993,19963.999999999993,21402.999999999993,22550.999999999993,24331.999999999993,25376.999999999993]","0.5","0.6666666666666666","0","","","","","","","","","","","","","","","","","","","","","","","","","","","",""
"","","","preload","6","87194","0.0-5.0","3","3","3","3","3","3","4","2","2","3","4","3","2","4","3","4","3","3","4","4","3","3","4","4","3","3","4","4","4","1","0","1","1","0","0","1","1","0","1","1","0","1","0","1","4","4","5","3","4","3","4","3","2","3","767710612724912129","任","666","","true","","","","","","","","","","","false","[]","[]","[]","","","","","","","","","","","","","","","","","","","","","","","",""
"22995","","","instructions","7","110191","0.0-6.0","3","3","3","3","3","3","4","2","2","3","4","3","2","4","3","4","3","3","4","4","3","3","4","4","3","3","4","4","4","1","0","1","1","0","0","1","1","0","1","1","0","1","0","1","4","4","5","3","4","3","4","3","2","3","767710612724912129","任","666","","","","","","","","","","","","","","","","","[{""page_index"":0,""viewing_time"":22994}]","","","","","","","","","","","","","","","","","","","","","","",""
"28146","","","instructions","8","138338","0.0-7.0-1.0-0.0","3","3","3","3","3","3","4","2","2","3","4","3","2","4","3","4","3","3","4","4","3","3","4","4","3","3","4","4","4","1","0","1","1","0","0","1","1","0","1","1","0","1","0","1","4","4","5","3","4","3","4","3","2","3","767710612724912129","任","666","","","","","","","","","","","","","","","","","[{""page_index"":0,""viewing_time"":19212},{""page_index"":1,""viewing_time"":5752},{""page_index"":2,""viewing_time"":3181}]","","","","","","","","","","","","","","","","","","","","","","",""
"null","","null","psychophysics","9","140549","0.0-7.0-1.0-1.0-0.0-0.0","3","3","3","3","3","3","4","2","2","3","4","3","2","4","3","4","3","3","4","4","3","3","4","4","3","3","4","4","4","1","0","1","1","0","0","1","1","0","1","1","0","1","0","1","4","4","5","3","4","3","4","3","2","3","767710612724912129","任","666","","","","null","","","","","","","","","","","","","","key","null","16.575757575757574","840","521","j","false","nonmatch","img/hexagon.png","圆形","六边","ALT1_2","prac_ALT1_2","","","","","","","","","",""
"null","<span class='add_' style='color:yellow; font-size: 70px;'> 太慢! </span>","null","html-keyboard-response","10","141054","0.0-7.0-1.0-1.0-0.0-1.0","3","3","3","3","3","3","4","2","2","3","4","3","2","4","3","4","3","3","4","4","3","3","4","4","3","3","4","4","4","1","0","1","1","0","0","1","1","0","1","1","0","1","0","1","4","4","5","3","4","3","4","3","2","3","767710612724912129","任","666","","","","","","","","","","","","","","","","","","","","","","","","","","","","","","feedback_test","","","","","","","","","",""
"null","","null","psychophysics","11","143260","0.0-7.0-1.0-1.0-0.0-0.1","3","3","3","3","3","3","4","2","2","3","4","3","2","4","3","4","3","3","4","4","3","3","4","4","3","3","4","4","4","1","0","1","1","0","0","1","1","0","1","1","0","1","0","1","4","4","5","3","4","3","4","3","2","3","767710612724912129","任","666","","","","null","","","","","","","","","","","","","","key","null","16.65648854961832","840","521","j","false","nonmatch","img/triangle.png","圆形","三角","ALT1_2","prac_ALT1_2","","","","","","","","","",""
"null","<span class='add_' style='color:yellow; font-size: 70px;'> 太慢! </span>","null","html-keyboard-response","12","143763","0.0-7.0-1.0-1.0-0.0-1.1","3","3","3","3","3","3","4","2","2","3","4","3","2","4","3","4","3","3","4","4","3","3","4","4","3","3","4","4","4","1","0","1","1","0","0","1","1","0","1","1","0","1","0","1","4","4","5","3","4","3","4","3","2","3","767710612724912129","任","666","","","","","","","","","","","","","","","","","","","","","","","","","","","","","","feedback_test","","","","","","","","","",""
"630","","j","psychophysics","13","145406","0.0-7.0-1.0-1.0-0.0-0.2","3","3","3","3","3","3","4","2","2","3","4","3","2","4","3","4","3","3","4","4","3","3","4","4","3","3","4","4","4","1","0","1","1","0","0","1","1","0","1","1","0","1","0","1","4","4","5","3","4","3","4","3","2","3","767710612724912129","任","666","","","","nonmatch","","","","","","","","","","","","","","key","j","16.670103092783506","840","521","j","true","nonmatch","img/trapezoid.png","六边","梯形","ALT1_2","prac_ALT1_2","","","","","","","","","",""
"null","<span style='color:GreenYellow; font-size: 70px;'>正确! </span>","null","html-keyboard-response","14","145908","0.0-7.0-1.0-1.0-0.0-1.2","3","3","3","3","3","3","4","2","2","3","4","3","2","4","3","4","3","3","4","4","3","3","4","4","3","3","4","4","4","1","0","1","1","0","0","1","1","0","1","1","0","1","0","1","4","4","5","3","4","3","4","3","2","3","767710612724912129","任","666","","","","","","","","","","","","","","","","","","","","","","","","","","","","","","feedback_test","","","","","","","","","",""
"435","","f","psychophysics","15","147347","0.0-7.0-1.0-1.0-0.0-0.3","3","3","3","3","3","3","4","2","2","3","4","3","2","4","3","4","3","3","4","4","3","3","4","4","3","3","4","4","4","1","0","1","1","0","0","1","1","0","1","1","0","1","0","1","4","4","5","3","4","3","4","3","2","3","767710612724912129","任","666","","","","match","","","","","","","","","","","","","","key","f","16.658823529411766","840","521","j","false","nonmatch","img/hexagon.png","三角","六边","ALT1_2","prac_ALT1_2","","","","","","","","","",""
"null","<span style='color:red; font-size: 70px;'>错误! </span>","null","html-keyboard-response","16","147850","0.0-7.0-1.0-1.0-0.0-1.3","3","3","3","3","3","3","4","2","2","3","4","3","2","4","3","4","3","3","4","4","3","3","4","4","3","3","4","4","4","1","0","1","1","0","0","1","1","0","1","1","0","1","0","1","4","4","5","3","4","3","4","3","2","3","767710612724912129","任","666","","","","","","","","","","","","","","","","","","","","","","","","","","","","","","feedback_test","","","","","","","","","",""
"577","","f","psychophysics","17","149431","0.0-7.0-1.0-1.0-0.0-0.4","3","3","3","3","3","3","4","2","2","3","4","3","2","4","3","4","3","3","4","4","3","3","4","4","3","3","4","4","4","1","0","1","1","0","0","1","1","0","1","1","0","1","0","1","4","4","5","3","4","3","4","3","2","3","767710612724912129","任","666","","","","match","","","","","","","","","","","","","","key","f","16.666666666666668","840","521","f","true","match","img/circle.png","圆形","圆形","ALT1_2","prac_ALT1_2","","","","","","","","","",""
"null","<span style='color:GreenYellow; font-size: 70px;'>正确! </span>","null","html-keyboard-response","18","149935","0.0-7.0-1.0-1.0-0.0-1.4","3","3","3","3","3","3","4","2","2","3","4","3","2","4","3","4","3","3","4","4","3","3","4","4","3","3","4","4","4","1","0","1","1","0","0","1","1","0","1","1","0","1","0","1","4","4","5","3","4","3","4","3","2","3","767710612724912129","任","666","","","","","","","","","","","","","","","","","","","","","","","","","","","","","","feedback_test","","","","","","","","","",""
"406","","f","psychophysics","19","151344","0.0-7.0-1.0-1.0-0.0-0.5","3","3","3","3","3","3","4","2","2","3","4","3","2","4","3","4","3","3","4","4","3","3","4","4","3","3","4","4","4","1","0","1","1","0","0","1","1","0","1","1","0","1","0","1","4","4","5","3","4","3","4","3","2","3","767710612724912129","任","666","","","","match","","","","","","","","","","","","","","key","f","16.674698795180724","840","521","f","true","match","img/circle.png","圆形","圆形","ALT1_2","prac_ALT1_2","","","","","","","","","",""
"null","<span style='color:GreenYellow; font-size: 70px;'>正确! </span>","null","html-keyboard-response","20","151848","0.0-7.0-1.0-1.0-0.0-1.5","3","3","3","3","3","3","4","2","2","3","4","3","2","4","3","4","3","3","4","4","3","3","4","4","3","3","4","4","4","1","0","1","1","0","0","1","1","0","1","1","0","1","0","1","4","4","5","3","4","3","4","3","2","3","767710612724912129","任","666","","","","","","","","","","","","","","","","","","","","","","","","","","","","","","feedback_test","","","","","","","","","",""
"449","","j","psychophysics","21","153301","0.0-7.0-1.0-1.0-0.0-0.6","3","3","3","3","3","3","4","2","2","3","4","3","2","4","3","4","3","3","4","4","3","3","4","4","3","3","4","4","4","1","0","1","1","0","0","1","1","0","1","1","0","1","0","1","4","4","5","3","4","3","4","3","2","3","767710612724912129","任","666","","","","nonmatch","","","","","","","","","","","","","","key","j","16.67058823529412","840","521","j","true","nonmatch","img/triangle.png","六边","三角","ALT1_2","prac_ALT1_2","","","","","","","","","",""
"null","<span style='color:GreenYellow; font-size: 70px;'>正确! </span>","null","html-keyboard-response","22","153804","0.0-7.0-1.0-1.0-0.0-1.6","3","3","3","3","3","3","4","2","2","3","4","3","2","4","3","4","3","3","4","4","3","3","4","4","3","3","4","4","4","1","0","1","1","0","0","1","1","0","1","1","0","1","0","1","4","4","5","3","4","3","4","3","2","3","767710612724912129","任","666","","","","","","","","","","","","","","","","","","","","","","","","","","","","","","feedback_test","","","","","","","","","",""
"400","","j","psychophysics","23","155207","0.0-7.0-1.0-1.0-0.0-0.7","3","3","3","3","3","3","4","2","2","3","4","3","2","4","3","4","3","3","4","4","3","3","4","4","3","3","4","4","4","1","0","1","1","0","0","1","1","0","1","1","0","1","0","1","4","4","5","3","4","3","4","3","2","3","767710612724912129","任","666","","","","nonmatch","","","","","","","","","","","","","","key","j","16.662650602409638","840","521","f","false","match","img/triangle.png","三角","三角","ALT1_2","prac_ALT1_2","","","","","","","","","",""
"null","<span style='color:red; font-size: 70px;'>错误! </span>","null","html-keyboard-response","24","155710","0.0-7.0-1.0-1.0-0.0-1.7","3","3","3","3","3","3","4","2","2","3","4","3","2","4","3","4","3","3","4","4","3","3","4","4","3","3","4","4","4","1","0","1","1","0","0","1","1","0","1","1","0","1","0","1","4","4","5","3","4","3","4","3","2","3","767710612724912129","任","666","","","","","","","","","","","","","","","","","","","","","","","","","","","","","","feedback_test","","","","","","","","","",""
"442","","j","psychophysics","25","157156","0.0-7.0-1.0-1.0-0.0-0.8","3","3","3","3","3","3","4","2","2","3","4","3","2","4","3","4","3","3","4","4","3","3","4","4","3","3","4","4","4","1","0","1","1","0","0","1","1","0","1","1","0","1","0","1","4","4","5","3","4","3","4","3","2","3","767710612724912129","任","666","","","","nonmatch","","","","","","","","","","","","","","key","j","16.647058823529413","840","521","f","false","match","img/hexagon.png","六边","六边","ALT1_2","prac_ALT1_2","","","","","","","","","",""
"null","<span style='color:red; font-size: 70px;'>错误! </span>","null","html-keyboard-response","26","157658","0.0-7.0-1.0-1.0-0.0-1.8","3","3","3","3","3","3","4","2","2","3","4","3","2","4","3","4","3","3","4","4","3","3","4","4","3","3","4","4","4","1","0","1","1","0","0","1","1","0","1","1","0","1","0","1","4","4","5","3","4","3","4","3","2","3","767710612724912129","任","666","","","","","","","","","","","","","","","","","","","","","","","","","","","","","","feedback_test","","","","","","","","","",""
"374","","f","psychophysics","27","159035","0.0-7.0-1.0-1.0-0.0-0.9","3","3","3","3","3","3","4","2","2","3","4","3","2","4","3","4","3","3","4","4","3","3","4","4","3","3","4","4","4","1","0","1","1","0","0","1","1","0","1","1","0","1","0","1","4","4","5","3","4","3","4","3","2","3","767710612724912129","任","666","","","","match","","","","","","","","","","","","","","key","f","16.666666666666668","840","521","j","false","nonmatch","img/hexagon.png","梯形","六边","ALT1_2","prac_ALT1_2","","","","","","","","","",""
"null","<span style='color:red; font-size: 70px;'>错误! </span>","null","html-keyboard-response","28","159538","0.0-7.0-1.0-1.0-0.0-1.9","3","3","3","3","3","3","4","2","2","3","4","3","2","4","3","4","3","3","4","4","3","3","4","4","3","3","4","4","4","1","0","1","1","0","0","1","1","0","1","1","0","1","0","1","4","4","5","3","4","3","4","3","2","3","767710612724912129","任","666","","","","","","","","","","","","","","","","","","","","","","","","","","","","","","feedback_test","","","","","","","","","",""
"320","","j","psychophysics","29","160861","0.0-7.0-1.0-1.0-0.0-0.10","3","3","3","3","3","3","4","2","2","3","4","3","2","4","3","4","3","3","4","4","3","3","4","4","3","3","4","4","4","1","0","1","1","0","0","1","1","0","1","1","0","1","0","1","4","4","5","3","4","3","4","3","2","3","767710612724912129","任","666","","","","nonmatch","","","","","","","","","","","","","","key","j","16.666666666666668","840","521","f","false","match","img/hexagon.png","六边","六边","ALT1_2","prac_ALT1_2","","","","","","","","","",""
"null","<span style='color:red; font-size: 70px;'>错误! </span>","null","html-keyboard-response","30","161364","0.0-7.0-1.0-1.0-0.0-1.10","3","3","3","3","3","3","4","2","2","3","4","3","2","4","3","4","3","3","4","4","3","3","4","4","3","3","4","4","4","1","0","1","1","0","0","1","1","0","1","1","0","1","0","1","4","4","5","3","4","3","4","3","2","3","767710612724912129","任","666","","","","","","","","","","","","","","","","","","","","","","","","","","","","","","feedback_test","","","","","","","","","",""
"351","","f","psychophysics","31","162720","0.0-7.0-1.0-1.0-0.0-0.11","3","3","3","3","3","3","4","2","2","3","4","3","2","4","3","4","3","3","4","4","3","3","4","4","3","3","4","4","4","1","0","1","1","0","0","1","1","0","1","1","0","1","0","1","4","4","5","3","4","3","4","3","2","3","767710612724912129","任","666","","","","match","","","","","","","","","","","","","","key","f","16.670886075949365","840","521","j","false","nonmatch","img/trapezoid.png","三角","梯形","ALT1_2","prac_ALT1_2","","","","","","","","","",""
"null","<span style='color:red; font-size: 70px;'>错误! </span>","null","html-keyboard-response","32","163224","0.0-7.0-1.0-1.0-0.0-1.11","3","3","3","3","3","3","4","2","2","3","4","3","2","4","3","4","3","3","4","4","3","3","4","4","3","3","4","4","4","1","0","1","1","0","0","1","1","0","1","1","0","1","0","1","4","4","5","3","4","3","4","3","2","3","767710612724912129","任","666","","","","","","","","","","","","","","","","","","","","","","","","","","","","","","feedback_test","","","","","","","","","",""
"521","","f","psychophysics","33","164748","0.0-7.0-1.0-1.0-0.0-0.12","3","3","3","3","3","3","4","2","2","3","4","3","2","4","3","4","3","3","4","4","3","3","4","4","3","3","4","4","4","1","0","1","1","0","0","1","1","0","1","1","0","1","0","1","4","4","5","3","4","3","4","3","2","3","767710612724912129","任","666","","","","match","","","","","","","","","","","","","","key","f","16.655555555555555","840","521","f","true","match","img/triangle.png","三角","三角","ALT1_2","prac_ALT1_2","","","","","","","","","",""
"null","<span style='color:GreenYellow; font-size: 70px;'>正确! </span>","null","html-keyboard-response","34","165251","0.0-7.0-1.0-1.0-0.0-1.12","3","3","3","3","3","3","4","2","2","3","4","3","2","4","3","4","3","3","4","4","3","3","4","4","3","3","4","4","4","1","0","1","1","0","0","1","1","0","1","1","0","1","0","1","4","4","5","3","4","3","4","3","2","3","767710612724912129","任","666","","","","","","","","","","","","","","","","","","","","","","","","","","","","","","feedback_test","","","","","","","","","",""
"783","","f","psychophysics","35","167037","0.0-7.0-1.0-1.0-0.0-0.13","3","3","3","3","3","3","4","2","2","3","4","3","2","4","3","4","3","3","4","4","3","3","4","4","3","3","4","4","4","1","0","1","1","0","0","1","1","0","1","1","0","1","0","1","4","4","5","3","4","3","4","3","2","3","767710612724912129","任","666","","","","match","","","","","","","","","","","","","","key","f","16.660377358490567","840","521","f","true","match","img/hexagon.png","六边","六边","ALT1_2","prac_ALT1_2","","","","","","","","","",""
"null","<span style='color:GreenYellow; font-size: 70px;'>正确! </span>","null","html-keyboard-response","36","167540","0.0-7.0-1.0-1.0-0.0-1.13","3","3","3","3","3","3","4","2","2","3","4","3","2","4","3","4","3","3","4","4","3","3","4","4","3","3","4","4","4","1","0","1","1","0","0","1","1","0","1","1","0","1","0","1","4","4","5","3","4","3","4","3","2","3","767710612724912129","任","666","","","","","","","","","","","","","","","","","","","","","","","","","","","","","","feedback_test","","","","","","","","","",""
"497","","f","psychophysics","37","169040","0.0-7.0-1.0-1.0-0.0-0.14","3","3","3","3","3","3","4","2","2","3","4","3","2","4","3","4","3","3","4","4","3","3","4","4","3","3","4","4","4","1","0","1","1","0","0","1","1","0","1","1","0","1","0","1","4","4","5","3","4","3","4","3","2","3","767710612724912129","任","666","","","","match","","","","","","","","","","","","","","key","f","16.651685393258425","840","521","j","false","nonmatch","img/circle.png","三角","圆形","ALT1_2","prac_ALT1_2","","","","","","","","","",""
"null","<span style='color:red; font-size: 70px;'>错误! </span>","null","html-keyboard-response","38","169543","0.0-7.0-1.0-1.0-0.0-1.14","3","3","3","3","3","3","4","2","2","3","4","3","2","4","3","4","3","3","4","4","3","3","4","4","3","3","4","4","4","1","0","1","1","0","0","1","1","0","1","1","0","1","0","1","4","4","5","3","4","3","4","3","2","3","767710612724912129","任","666","","","","","","","","","","","","","","","","","","","","","","","","","","","","","","feedback_test","","","","","","","","","",""
"475","","j","psychophysics","39","171021","0.0-7.0-1.0-1.0-0.0-0.15","3","3","3","3","3","3","4","2","2","3","4","3","2","4","3","4","3","3","4","4","3","3","4","4","3","3","4","4","4","1","0","1","1","0","0","1","1","0","1","1","0","1","0","1","4","4","5","3","4","3","4","3","2","3","767710612724912129","任","666","","","","nonmatch","","","","","","","","","","","","","","key","j","16.666666666666668","840","521","j","true","nonmatch","img/circle.png","梯形","圆形","ALT1_2","prac_ALT1_2","","","","","","","","","",""
"null","<span style='color:GreenYellow; font-size: 70px;'>正确! </span>","null","html-keyboard-response","40","171524","0.0-7.0-1.0-1.0-0.0-1.15","3","3","3","3","3","3","4","2","2","3","4","3","2","4","3","4","3","3","4","4","3","3","4","4","3","3","4","4","4","1","0","1","1","0","0","1","1","0","1","1","0","1","0","1","4","4","5","3","4","3","4","3","2","3","767710612724912129","任","666","","","","","","","","","","","","","","","","","","","","","","","","","","","","","","feedback_test","","","","","","","","","",""
"363","","j","psychophysics","41","172894","0.0-7.0-1.0-1.0-0.0-0.16","3","3","3","3","3","3","4","2","2","3","4","3","2","4","3","4","3","3","4","4","3","3","4","4","3","3","4","4","4","1","0","1","1","0","0","1","1","0","1","1","0","1","0","1","4","4","5","3","4","3","4","3","2","3","767710612724912129","任","666","","","","nonmatch","","","","","","","","","","","","","","key","j","16.666666666666668","840","521","f","false","match","img/triangle.png","三角","三角","ALT1_2","prac_ALT1_2","","","","","","","","","",""
"null","<span style='color:red; font-size: 70px;'>错误! </span>","null","html-keyboard-response","42","173398","0.0-7.0-1.0-1.0-0.0-1.16","3","3","3","3","3","3","4","2","2","3","4","3","2","4","3","4","3","3","4","4","3","3","4","4","3","3","4","4","4","1","0","1","1","0","0","1","1","0","1","1","0","1","0","1","4","4","5","3","4","3","4","3","2","3","767710612724912129","任","666","","","","","","","","","","","","","","","","","","","","","","","","","","","","","","feedback_test","","","","","","","","","",""
"369","","f","psychophysics","43","174771","0.0-7.0-1.0-1.0-0.0-0.17","3","3","3","3","3","3","4","2","2","3","4","3","2","4","3","4","3","3","4","4","3","3","4","4","3","3","4","4","4","1","0","1","1","0","0","1","1","0","1","1","0","1","0","1","4","4","5","3","4","3","4","3","2","3","767710612724912129","任","666","","","","match","","","","","","","","","","","","","","key","f","16.65432098765432","840","521","f","true","match","img/circle.png","圆形","圆形","ALT1_2","prac_ALT1_2","","","","","","","","","",""
"null","<span style='color:GreenYellow; font-size: 70px;'>正确! </span>","null","html-keyboard-response","44","175273","0.0-7.0-1.0-1.0-0.0-1.17","3","3","3","3","3","3","4","2","2","3","4","3","2","4","3","4","3","3","4","4","3","3","4","4","3","3","4","4","4","1","0","1","1","0","0","1","1","0","1","1","0","1","0","1","4","4","5","3","4","3","4","3","2","3","767710612724912129","任","666","","","","","","","","","","","","","","","","","","","","","","","","","","","","","","feedback_test","","","","","","","","","",""
"388","","f","psychophysics","45","176664","0.0-7.0-1.0-1.0-0.0-0.18","3","3","3","3","3","3","4","2","2","3","4","3","2","4","3","4","3","3","4","4","3","3","4","4","3","3","4","4","4","1","0","1","1","0","0","1","1","0","1","1","0","1","0","1","4","4","5","3","4","3","4","3","2","3","767710612724912129","任","666","","","","match","","","","","","","","","","","","","","key","f","16.670731707317074","840","521","j","false","nonmatch","img/circle.png","六边","圆形","ALT1_2","prac_ALT1_2","","","","","","","","","",""
"null","<span style='color:red; font-size: 70px;'>错误! </span>","null","html-keyboard-response","46","177167","0.0-7.0-1.0-1.0-0.0-1.18","3","3","3","3","3","3","4","2","2","3","4","3","2","4","3","4","3","3","4","4","3","3","4","4","3","3","4","4","4","1","0","1","1","0","0","1","1","0","1","1","0","1","0","1","4","4","5","3","4","3","4","3","2","3","767710612724912129","任","666","","","","","","","","","","","","","","","","","","","","","","","","","","","","","","feedback_test","","","","","","","","","",""
"616","","f","psychophysics","47","178787","0.0-7.0-1.0-1.0-0.0-0.19","3","3","3","3","3","3","4","2","2","3","4","3","2","4","3","4","3","3","4","4","3","3","4","4","3","3","4","4","4","1","0","1","1","0","0","1","1","0","1","1","0","1","0","1","4","4","5","3","4","3","4","3","2","3","767710612724912129","任","666","","","","match","","","","","","","","","","","","","","key","f","16.666666666666668","840","521","f","true","match","img/trapezoid.png","梯形","梯形","ALT1_2","prac_ALT1_2","","","","","","","","","",""
"null","<span style='color:GreenYellow; font-size: 70px;'>正确! </span>","null","html-keyboard-response","48","179290","0.0-7.0-1.0-1.0-0.0-1.19","3","3","3","3","3","3","4","2","2","3","4","3","2","4","3","4","3","3","4","4","3","3","4","4","3","3","4","4","4","1","0","1","1","0","0","1","1","0","1","1","0","1","0","1","4","4","5","3","4","3","4","3","2","3","767710612724912129","任","666","","","","","","","","","","","","","","","","","","","","","","","","","","","","","","feedback_test","","","","","","","","","",""
"297","","f","psychophysics","49","180589","0.0-7.0-1.0-1.0-0.0-0.20","3","3","3","3","3","3","4","2","2","3","4","3","2","4","3","4","3","3","4","4","3","3","4","4","3","3","4","4","4","1","0","1","1","0","0","1","1","0","1","1","0","1","0","1","4","4","5","3","4","3","4","3","2","3","767710612724912129","任","666","","","","match","","","","","","","","","","","","","","key","f","16.662337662337663","840","521","j","false","nonmatch","img/trapezoid.png","圆形","梯形","ALT1_2","prac_ALT1_2","","","","","","","","","",""
"null","<span style='color:red; font-size: 70px;'>错误! </span>","null","html-keyboard-response","50","181091","0.0-7.0-1.0-1.0-0.0-1.20","3","3","3","3","3","3","4","2","2","3","4","3","2","4","3","4","3","3","4","4","3","3","4","4","3","3","4","4","4","1","0","1","1","0","0","1","1","0","1","1","0","1","0","1","4","4","5","3","4","3","4","3","2","3","767710612724912129","任","666","","","","","","","","","","","","","","","","","","","","","","","","","","","","","","feedback_test","","","","","","","","","",""
"356","","j","psychophysics","51","182451","0.0-7.0-1.0-1.0-0.0-0.21","3","3","3","3","3","3","4","2","2","3","4","3","2","4","3","4","3","3","4","4","3","3","4","4","3","3","4","4","4","1","0","1","1","0","0","1","1","0","1","1","0","1","0","1","4","4","5","3","4","3","4","3","2","3","767710612724912129","任","666","","","","nonmatch","","","","","","","","","","","","","","key","j","16.675","840","521","f","false","match","img/trapezoid.png","梯形","梯形","ALT1_2","prac_ALT1_2","","","","","","","","","",""
"null","<span style='color:red; font-size: 70px;'>错误! </span>","null","html-keyboard-response","52","182954","0.0-7.0-1.0-1.0-0.0-1.21","3","3","3","3","3","3","4","2","2","3","4","3","2","4","3","4","3","3","4","4","3","3","4","4","3","3","4","4","4","1","0","1","1","0","0","1","1","0","1","1","0","1","0","1","4","4","5","3","4","3","4","3","2","3","767710612724912129","任","666","","","","","","","","","","","","","","","","","","","","","","","","","","","","","","feedback_test","","","","","","","","","",""
"438","","f","psychophysics","53","184395","0.0-7.0-1.0-1.0-0.0-0.22","3","3","3","3","3","3","4","2","2","3","4","3","2","4","3","4","3","3","4","4","3","3","4","4","3","3","4","4","4","1","0","1","1","0","0","1","1","0","1","1","0","1","0","1","4","4","5","3","4","3","4","3","2","3","767710612724912129","任","666","","","","match","","","","","","","","","","","","","","key","f","16.67058823529412","840","521","f","true","match","img/trapezoid.png","梯形","梯形","ALT1_2","prac_ALT1_2","","","","","","","","","",""
"null","<span style='color:GreenYellow; font-size: 70px;'>正确! </span>","null","html-keyboard-response","54","184899","0.0-7.0-1.0-1.0-0.0-1.22","3","3","3","3","3","3","4","2","2","3","4","3","2","4","3","4","3","3","4","4","3","3","4","4","3","3","4","4","4","1","0","1","1","0","0","1","1","0","1","1","0","1","0","1","4","4","5","3","4","3","4","3","2","3","767710612724912129","任","666","","","","","","","","","","","","","","","","","","","","","","","","","","","","","","feedback_test","","","","","","","","","",""
"537","","j","psychophysics","55","186439","0.0-7.0-1.0-1.0-0.0-0.23","3","3","3","3","3","3","4","2","2","3","4","3","2","4","3","4","3","3","4","4","3","3","4","4","3","3","4","4","4","1","0","1","1","0","0","1","1","0","1","1","0","1","0","1","4","4","5","3","4","3","4","3","2","3","767710612724912129","任","666","","","","nonmatch","","","","","","","","","","","","","","key","j","16.67032967032967","840","521","j","true","nonmatch","img/triangle.png","梯形","三角","ALT1_2","prac_ALT1_2","","","","","","","","","",""
"null","<span style='color:GreenYellow; font-size: 70px;'>正确! </span>","null","html-keyboard-response","56","186941","0.0-7.0-1.0-1.0-0.0-1.23","3","3","3","3","3","3","4","2","2","3","4","3","2","4","3","4","3","3","4","4","3","3","4","4","3","3","4","4","4","1","0","1","1","0","0","1","1","0","1","1","0","1","0","1","4","4","5","3","4","3","4","3","2","3","767710612724912129","任","666","","","","","","","","","","","","","","","","","","","","","","","","","","","","","","feedback_test","","","","","","","","","",""
"375","","f","psychophysics","57","188320","0.0-7.0-1.0-1.0-0.0-0.24","3","3","3","3","3","3","4","2","2","3","4","3","2","4","3","4","3","3","4","4","3","3","4","4","3","3","4","4","4","1","0","1","1","0","0","1","1","0","1","1","0","1","0","1","4","4","5","3","4","3","4","3","2","3","767710612724912129","任","666","","","","match","","","","","","","","","","","","","","key","f","16.658536585365855","840","521","f","true","match","img/hexagon.png","六边","六边","ALT1_2","prac_ALT1_2","","","","","","","","","",""
"null","<span style='color:GreenYellow; font-size: 70px;'>正确! </span>","null","html-keyboard-response","58","188822","0.0-7.0-1.0-1.0-0.0-1.24","3","3","3","3","3","3","4","2","2","3","4","3","2","4","3","4","3","3","4","4","3","3","4","4","3","3","4","4","4","1","0","1","1","0","0","1","1","0","1","1","0","1","0","1","4","4","5","3","4","3","4","3","2","3","767710612724912129","任","666","","","","","","","","","","","","","","","","","","","","","","","","","","","","","","feedback_test","","","","","","","","","",""
"396","","f","psychophysics","59","190221","0.0-7.0-1.0-1.0-0.0-0.25","3","3","3","3","3","3","4","2","2","3","4","3","2","4","3","4","3","3","4","4","3","3","4","4","3","3","4","4","4","1","0","1","1","0","0","1","1","0","1","1","0","1","0","1","4","4","5","3","4","3","4","3","2","3","767710612724912129","任","666","","","","match","","","","","","","","","","","","","","key","f","16.662650602409638","840","521","j","false","nonmatch","img/triangle.png","圆形","三角","ALT1_2","prac_ALT1_2","","","","","","","","","",""
"null","<span style='color:red; font-size: 70px;'>错误! </span>","null","html-keyboard-response","60","190724","0.0-7.0-1.0-1.0-0.0-1.25","3","3","3","3","3","3","4","2","2","3","4","3","2","4","3","4","3","3","4","4","3","3","4","4","3","3","4","4","4","1","0","1","1","0","0","1","1","0","1","1","0","1","0","1","4","4","5","3","4","3","4","3","2","3","767710612724912129","任","666","","","","","","","","","","","","","","","","","","","","","","","","","","","","","","feedback_test","","","","","","","","","",""
"378","","f","psychophysics","61","192105","0.0-7.0-1.0-1.0-0.0-0.26","3","3","3","3","3","3","4","2","2","3","4","3","2","4","3","4","3","3","4","4","3","3","4","4","3","3","4","4","4","1","0","1","1","0","0","1","1","0","1","1","0","1","0","1","4","4","5","3","4","3","4","3","2","3","767710612724912129","任","666","","","","match","","","","","","","","","","","","","","key","f","16.658536585365855","840","521","j","false","nonmatch","img/hexagon.png","圆形","六边","ALT1_2","prac_ALT1_2","","","","","","","","","",""
"null","<span style='color:red; font-size: 70px;'>错误! </span>","null","html-keyboard-response","62","192608","0.0-7.0-1.0-1.0-0.0-1.26","3","3","3","3","3","3","4","2","2","3","4","3","2","4","3","4","3","3","4","4","3","3","4","4","3","3","4","4","4","1","0","1","1","0","0","1","1","0","1","1","0","1","0","1","4","4","5","3","4","3","4","3","2","3","767710612724912129","任","666","","","","","","","","","","","","","","","","","","","","","","","","","","","","","","feedback_test","","","","","","","","","",""
"446","","f","psychophysics","63","194059","0.0-7.0-1.0-1.0-0.0-0.27","3","3","3","3","3","3","4","2","2","3","4","3","2","4","3","4","3","3","4","4","3","3","4","4","3","3","4","4","4","1","0","1","1","0","0","1","1","0","1","1","0","1","0","1","4","4","5","3","4","3","4","3","2","3","767710612724912129","任","666","","","","match","","","","","","","","","","","","","","key","f","16.662790697674417","840","521","j","false","nonmatch","img/hexagon.png","梯形","六边","ALT1_2","prac_ALT1_2","","","","","","","","","",""
"null","<span style='color:red; font-size: 70px;'>错误! </span>","null","html-keyboard-response","64","194562","0.0-7.0-1.0-1.0-0.0-1.27","3","3","3","3","3","3","4","2","2","3","4","3","2","4","3","4","3","3","4","4","3","3","4","4","3","3","4","4","4","1","0","1","1","0","0","1","1","0","1","1","0","1","0","1","4","4","5","3","4","3","4","3","2","3","767710612724912129","任","666","","","","","","","","","","","","","","","","","","","","","","","","","","","","","","feedback_test","","","","","","","","","",""
"481","","f","psychophysics","65","196047","0.0-7.0-1.0-1.0-0.0-0.28","3","3","3","3","3","3","4","2","2","3","4","3","2","4","3","4","3","3","4","4","3","3","4","4","3","3","4","4","4","1","0","1","1","0","0","1","1","0","1","1","0","1","0","1","4","4","5","3","4","3","4","3","2","3","767710612724912129","任","666","","","","match","","","","","","","","","","","","","","key","f","16.666666666666668","840","521","f","true","match","img/circle.png","圆形","圆形","ALT1_2","prac_ALT1_2","","","","","","","","","",""
"null","<span style='color:GreenYellow; font-size: 70px;'>正确! </span>","null","html-keyboard-response","66","196549","0.0-7.0-1.0-1.0-0.0-1.28","3","3","3","3","3","3","4","2","2","3","4","3","2","4","3","4","3","3","4","4","3","3","4","4","3","3","4","4","4","1","0","1","1","0","0","1","1","0","1","1","0","1","0","1","4","4","5","3","4","3","4","3","2","3","767710612724912129","任","666","","","","","","","","","","","","","","","","","","","","","","","","","","","","","","feedback_test","","","","","","","","","",""
"352","","j","psychophysics","67","197905","0.0-7.0-1.0-1.0-0.0-0.29","3","3","3","3","3","3","4","2","2","3","4","3","2","4","3","4","3","3","4","4","3","3","4","4","3","3","4","4","4","1","0","1","1","0","0","1","1","0","1","1","0","1","0","1","4","4","5","3","4","3","4","3","2","3","767710612724912129","任","666","","","","nonmatch","","","","","","","","","","","","","","key","j","16.675","840","521","f","false","match","img/trapezoid.png","梯形","梯形","ALT1_2","prac_ALT1_2","","","","","","","","","",""
"null","<span style='color:red; font-size: 70px;'>错误! </span>","null","html-keyboard-response","68","198407","0.0-7.0-1.0-1.0-0.0-1.29","3","3","3","3","3","3","4","2","2","3","4","3","2","4","3","4","3","3","4","4","3","3","4","4","3","3","4","4","4","1","0","1","1","0","0","1","1","0","1","1","0","1","0","1","4","4","5","3","4","3","4","3","2","3","767710612724912129","任","666","","","","","","","","","","","","","","","","","","","","","","","","","","","","","","feedback_test","","","","","","","","","",""
"358","","f","psychophysics","69","199769","0.0-7.0-1.0-1.0-0.0-0.30","3","3","3","3","3","3","4","2","2","3","4","3","2","4","3","4","3","3","4","4","3","3","4","4","3","3","4","4","4","1","0","1","1","0","0","1","1","0","1","1","0","1","0","1","4","4","5","3","4","3","4","3","2","3","767710612724912129","任","666","","","","match","","","","","","","","","","","","","","key","f","16.675","840","521","j","false","nonmatch","img/trapezoid.png","圆形","梯形","ALT1_2","prac_ALT1_2","","","","","","","","","",""
"null","<span style='color:red; font-size: 70px;'>错误! </span>","null","html-keyboard-response","70","200273","0.0-7.0-1.0-1.0-0.0-1.30","3","3","3","3","3","3","4","2","2","3","4","3","2","4","3","4","3","3","4","4","3","3","4","4","3","3","4","4","4","1","0","1","1","0","0","1","1","0","1","1","0","1","0","1","4","4","5","3","4","3","4","3","2","3","767710612724912129","任","666","","","","","","","","","","","","","","","","","","","","","","","","","","","","","","feedback_test","","","","","","","","","",""
"741","","j","psychophysics","71","202020","0.0-7.0-1.0-1.0-0.0-0.31","3","3","3","3","3","3","4","2","2","3","4","3","2","4","3","4","3","3","4","4","3","3","4","4","3","3","4","4","4","1","0","1","1","0","0","1","1","0","1","1","0","1","0","1","4","4","5","3","4","3","4","3","2","3","767710612724912129","任","666","","","","nonmatch","","","","","","","","","","","","","","key","j","16.66990291262136","840","521","f","false","match","img/triangle.png","三角","三角","ALT1_2","prac_ALT1_2","","","","","","","","","",""
"null","<span style='color:red; font-size: 70px;'>错误! </span>","null","html-keyboard-response","72","202524","0.0-7.0-1.0-1.0-0.0-1.31","3","3","3","3","3","3","4","2","2","3","4","3","2","4","3","4","3","3","4","4","3","3","4","4","3","3","4","4","4","1","0","1","1","0","0","1","1","0","1","1","0","1","0","1","4","4","5","3","4","3","4","3","2","3","767710612724912129","任","666","","","","","","","","","","","","","","","","","","","","","","","","","","","","","","feedback_test","","","","","","","","","",""
"324","","f","psychophysics","73","203851","0.0-7.0-1.0-1.0-0.0-0.32","3","3","3","3","3","3","4","2","2","3","4","3","2","4","3","4","3","3","4","4","3","3","4","4","3","3","4","4","4","1","0","1","1","0","0","1","1","0","1","1","0","1","0","1","4","4","5","3","4","3","4","3","2","3","767710612724912129","任","666","","","","match","","","","","","","","","","","","","","key","f","16.666666666666668","840","521","j","false","nonmatch","img/triangle.png","梯形","三角","ALT1_2","prac_ALT1_2","","","","","","","","","",""
"null","<span style='color:red; font-size: 70px;'>错误! </span>","null","html-keyboard-response","74","204354","0.0-7.0-1.0-1.0-0.0-1.32","3","3","3","3","3","3","4","2","2","3","4","3","2","4","3","4","3","3","4","4","3","3","4","4","3","3","4","4","4","1","0","1","1","0","0","1","1","0","1","1","0","1","0","1","4","4","5","3","4","3","4","3","2","3","767710612724912129","任","666","","","","","","","","","","","","","","","","","","","","","","","","","","","","","","feedback_test","","","","","","","","","",""
"652","","j","psychophysics","75","206010","0.0-7.0-1.0-1.0-0.0-0.33","3","3","3","3","3","3","4","2","2","3","4","3","2","4","3","4","3","3","4","4","3","3","4","4","3","3","4","4","4","1","0","1","1","0","0","1","1","0","1","1","0","1","0","1","4","4","5","3","4","3","4","3","2","3","767710612724912129","任","666","","","","nonmatch","","","","","","","","","","","","","","key","j","16.663265306122447","840","521","j","true","nonmatch","img/circle.png","六边","圆形","ALT1_2","prac_ALT1_2","","","","","","","","","",""
"null","<span style='color:GreenYellow; font-size: 70px;'>正确! </span>","null","html-keyboard-response","76","206512","0.0-7.0-1.0-1.0-0.0-1.33","3","3","3","3","3","3","4","2","2","3","4","3","2","4","3","4","3","3","4","4","3","3","4","4","3","3","4","4","4","1","0","1","1","0","0","1","1","0","1","1","0","1","0","1","4","4","5","3","4","3","4","3","2","3","767710612724912129","任","666","","","","","","","","","","","","","","","","","","","","","","","","","","","","","","feedback_test","","","","","","","","","",""
"373","","j","psychophysics","77","207888","0.0-7.0-1.0-1.0-0.0-0.34","3","3","3","3","3","3","4","2","2","3","4","3","2","4","3","4","3","3","4","4","3","3","4","4","3","3","4","4","4","1","0","1","1","0","0","1","1","0","1","1","0","1","0","1","4","4","5","3","4","3","4","3","2","3","767710612724912129","任","666","","","","nonmatch","","","","","","","","","","","","","","key","j","16.666666666666668","840","521","f","false","match","img/trapezoid.png","梯形","梯形","ALT1_2","prac_ALT1_2","","","","","","","","","",""
"null","<span style='color:red; font-size: 70px;'>错误! </span>","null","html-keyboard-response","78","208391","0.0-7.0-1.0-1.0-0.0-1.34","3","3","3","3","3","3","4","2","2","3","4","3","2","4","3","4","3","3","4","4","3","3","4","4","3","3","4","4","4","1","0","1","1","0","0","1","1","0","1","1","0","1","0","1","4","4","5","3","4","3","4","3","2","3","767710612724912129","任","666","","","","","","","","","","","","","","","","","","","","","","","","","","","","","","feedback_test","","","","","","","","","",""
"292","","f","psychophysics","79","209686","0.0-7.0-1.0-1.0-0.0-0.35","3","3","3","3","3","3","4","2","2","3","4","3","2","4","3","4","3","3","4","4","3","3","4","4","3","3","4","4","4","1","0","1","1","0","0","1","1","0","1","1","0","1","0","1","4","4","5","3","4","3","4","3","2","3","767710612724912129","任","666","","","","match","","","","","","","","","","","","","","key","f","16.67105263157895","840","521","f","true","match","img/circle.png","圆形","圆形","ALT1_2","prac_ALT1_2","","","","","","","","","",""
"null","<span style='color:GreenYellow; font-size: 70px;'>正确! </span>","null","html-keyboard-response","80","210189","0.0-7.0-1.0-1.0-0.0-1.35","3","3","3","3","3","3","4","2","2","3","4","3","2","4","3","4","3","3","4","4","3","3","4","4","3","3","4","4","4","1","0","1","1","0","0","1","1","0","1","1","0","1","0","1","4","4","5","3","4","3","4","3","2","3","767710612724912129","任","666","","","","","","","","","","","","","","","","","","","","","","","","","","","","","","feedback_test","","","","","","","","","",""
"425","","f","psychophysics","81","211616","0.0-7.0-1.0-1.0-0.0-0.36","3","3","3","3","3","3","4","2","2","3","4","3","2","4","3","4","3","3","4","4","3","3","4","4","3","3","4","4","4","1","0","1","1","0","0","1","1","0","1","1","0","1","0","1","4","4","5","3","4","3","4","3","2","3","767710612724912129","任","666","","","","match","","","","","","","","","","","","","","key","f","16.666666666666668","840","521","j","false","nonmatch","img/circle.png","三角","圆形","ALT1_2","prac_ALT1_2","","","","","","","","","",""
"null","<span style='color:red; font-size: 70px;'>错误! </span>","null","html-keyboard-response","82","212119","0.0-7.0-1.0-1.0-0.0-1.36","3","3","3","3","3","3","4","2","2","3","4","3","2","4","3","4","3","3","4","4","3","3","4","4","3","3","4","4","4","1","0","1","1","0","0","1","1","0","1","1","0","1","0","1","4","4","5","3","4","3","4","3","2","3","767710612724912129","任","666","","","","","","","","","","","","","","","","","","","","","","","","","","","","","","feedback_test","","","","","","","","","",""
"495","","f","psychophysics","83","213617","0.0-7.0-1.0-1.0-0.0-0.37","3","3","3","3","3","3","4","2","2","3","4","3","2","4","3","4","3","3","4","4","3","3","4","4","3","3","4","4","4","1","0","1","1","0","0","1","1","0","1","1","0","1","0","1","4","4","5","3","4","3","4","3","2","3","767710612724912129","任","666","","","","match","","","","","","","","","","","","","","key","f","16.670454545454547","840","521","j","false","nonmatch","img/circle.png","梯形","圆形","ALT1_2","prac_ALT1_2","","","","","","","","","",""
"null","<span style='color:red; font-size: 70px;'>错误! </span>","null","html-keyboard-response","84","214121","0.0-7.0-1.0-1.0-0.0-1.37","3","3","3","3","3","3","4","2","2","3","4","3","2","4","3","4","3","3","4","4","3","3","4","4","3","3","4","4","4","1","0","1","1","0","0","1","1","0","1","1","0","1","0","1","4","4","5","3","4","3","4","3","2","3","767710612724912129","任","666","","","","","","","","","","","","","","","","","","","","","","","","","","","","","","feedback_test","","","","","","","","","",""
"397","","j","psychophysics","85","215522","0.0-7.0-1.0-1.0-0.0-0.38","3","3","3","3","3","3","4","2","2","3","4","3","2","4","3","4","3","3","4","4","3","3","4","4","3","3","4","4","4","1","0","1","1","0","0","1","1","0","1","1","0","1","0","1","4","4","5","3","4","3","4","3","2","3","767710612724912129","任","666","","","","nonmatch","","","","","","","","","","","","","","key","j","16.674698795180724","840","521","f","false","match","img/hexagon.png","六边","六边","ALT1_2","prac_ALT1_2","","","","","","","","","",""
"null","<span style='color:red; font-size: 70px;'>错误! </span>","null","html-keyboard-response","86","216025","0.0-7.0-1.0-1.0-0.0-1.38","3","3","3","3","3","3","4","2","2","3","4","3","2","4","3","4","3","3","4","4","3","3","4","4","3","3","4","4","4","1","0","1","1","0","0","1","1","0","1","1","0","1","0","1","4","4","5","3","4","3","4","3","2","3","767710612724912129","任","666","","","","","","","","","","","","","","","","","","","","","","","","","","","","","","feedback_test","","","","","","","","","",""
"319","","f","psychophysics","87","217347","0.0-7.0-1.0-1.0-0.0-0.39","3","3","3","3","3","3","4","2","2","3","4","3","2","4","3","4","3","3","4","4","3","3","4","4","3","3","4","4","4","1","0","1","1","0","0","1","1","0","1","1","0","1","0","1","4","4","5","3","4","3","4","3","2","3","767710612724912129","任","666","","","","match","","","","","","","","","","","","","","key","f","16.67948717948718","840","521","j","false","nonmatch","img/trapezoid.png","六边","梯形","ALT1_2","prac_ALT1_2","","","","","","","","","",""
"null","<span style='color:red; font-size: 70px;'>错误! </span>","null","html-keyboard-response","88","217849","0.0-7.0-1.0-1.0-0.0-1.39","3","3","3","3","3","3","4","2","2","3","4","3","2","4","3","4","3","3","4","4","3","3","4","4","3","3","4","4","4","1","0","1","1","0","0","1","1","0","1","1","0","1","0","1","4","4","5","3","4","3","4","3","2","3","767710612724912129","任","666","","","","","","","","","","","","","","","","","","","","","","","","","","","","","","feedback_test","","","","","","","","","",""
"414","","f","psychophysics","89","219268","0.0-7.0-1.0-1.0-0.0-0.40","3","3","3","3","3","3","4","2","2","3","4","3","2","4","3","4","3","3","4","4","3","3","4","4","3","3","4","4","4","1","0","1","1","0","0","1","1","0","1","1","0","1","0","1","4","4","5","3","4","3","4","3","2","3","767710612724912129","任","666","","","","match","","","","","","","","","","","","","","key","f","16.662650602409638","840","521","j","false","nonmatch","img/trapezoid.png","三角","梯形","ALT1_2","prac_ALT1_2","","","","","","","","","",""
"null","<span style='color:red; font-size: 70px;'>错误! </span>","null","html-keyboard-response","90","219771","0.0-7.0-1.0-1.0-0.0-1.40","3","3","3","3","3","3","4","2","2","3","4","3","2","4","3","4","3","3","4","4","3","3","4","4","3","3","4","4","4","1","0","1","1","0","0","1","1","0","1","1","0","1","0","1","4","4","5","3","4","3","4","3","2","3","767710612724912129","任","666","","","","","","","","","","","","","","","","","","","","","","","","","","","","","","feedback_test","","","","","","","","","",""
"373","","f","psychophysics","91","221148","0.0-7.0-1.0-1.0-0.0-0.41","3","3","3","3","3","3","4","2","2","3","4","3","2","4","3","4","3","3","4","4","3","3","4","4","3","3","4","4","4","1","0","1","1","0","0","1","1","0","1","1","0","1","0","1","4","4","5","3","4","3","4","3","2","3","767710612724912129","任","666","","","","match","","","","","","","","","","","","","","key","f","16.666666666666668","840","521","f","true","match","img/trapezoid.png","梯形","梯形","ALT1_2","prac_ALT1_2","","","","","","","","","",""
"null","<span style='color:GreenYellow; font-size: 70px;'>正确! </span>","null","html-keyboard-response","92","221651","0.0-7.0-1.0-1.0-0.0-1.41","3","3","3","3","3","3","4","2","2","3","4","3","2","4","3","4","3","3","4","4","3","3","4","4","3","3","4","4","4","1","0","1","1","0","0","1","1","0","1","1","0","1","0","1","4","4","5","3","4","3","4","3","2","3","767710612724912129","任","666","","","","","","","","","","","","","","","","","","","","","","","","","","","","","","feedback_test","","","","","","","","","",""
"337","","f","psychophysics","93","222991","0.0-7.0-1.0-1.0-0.0-0.42","3","3","3","3","3","3","4","2","2","3","4","3","2","4","3","4","3","3","4","4","3","3","4","4","3","3","4","4","4","1","0","1","1","0","0","1","1","0","1","1","0","1","0","1","4","4","5","3","4","3","4","3","2","3","767710612724912129","任","666","","","","match","","","","","","","","","","","","","","key","f","16.670886075949365","840","521","j","false","nonmatch","img/hexagon.png","三角","六边","ALT1_2","prac_ALT1_2","","","","","","","","","",""
"null","<span style='color:red; font-size: 70px;'>错误! </span>","null","html-keyboard-response","94","223493","0.0-7.0-1.0-1.0-0.0-1.42","3","3","3","3","3","3","4","2","2","3","4","3","2","4","3","4","3","3","4","4","3","3","4","4","3","3","4","4","4","1","0","1","1","0","0","1","1","0","1","1","0","1","0","1","4","4","5","3","4","3","4","3","2","3","767710612724912129","任","666","","","","","","","","","","","","","","","","","","","","","","","","","","","","","","feedback_test","","","","","","","","","",""
"331","","j","psychophysics","95","224828","0.0-7.0-1.0-1.0-0.0-0.43","3","3","3","3","3","3","4","2","2","3","4","3","2","4","3","4","3","3","4","4","3","3","4","4","3","3","4","4","4","1","0","1","1","0","0","1","1","0","1","1","0","1","0","1","4","4","5","3","4","3","4","3","2","3","767710612724912129","任","666","","","","nonmatch","","","","","","","","","","","","","","key","j","16.653846153846153","840","521","f","false","match","img/hexagon.png","六边","六边","ALT1_2","prac_ALT1_2","","","","","","","","","",""
"null","<span style='color:red; font-size: 70px;'>错误! </span>","null","html-keyboard-response","96","225331","0.0-7.0-1.0-1.0-0.0-1.43","3","3","3","3","3","3","4","2","2","3","4","3","2","4","3","4","3","3","4","4","3","3","4","4","3","3","4","4","4","1","0","1","1","0","0","1","1","0","1","1","0","1","0","1","4","4","5","3","4","3","4","3","2","3","767710612724912129","任","666","","","","","","","","","","","","","","","","","","","","","","","","","","","","","","feedback_test","","","","","","","","","",""
"208","","j","psychophysics","97","226543","0.0-7.0-1.0-1.0-0.0-0.44","3","3","3","3","3","3","4","2","2","3","4","3","2","4","3","4","3","3","4","4","3","3","4","4","3","3","4","4","4","1","0","1","1","0","0","1","1","0","1","1","0","1","0","1","4","4","5","3","4","3","4","3","2","3","767710612724912129","任","666","","","","nonmatch","","","","","","","","","","","","","","key","j","16.661971830985916","840","521","f","false","match","img/triangle.png","三角","三角","ALT1_2","prac_ALT1_2","","","","","","","","","",""
"null","<span style='color:red; font-size: 70px;'>错误! </span>","null","html-keyboard-response","98","227045","0.0-7.0-1.0-1.0-0.0-1.44","3","3","3","3","3","3","4","2","2","3","4","3","2","4","3","4","3","3","4","4","3","3","4","4","3","3","4","4","4","1","0","1","1","0","0","1","1","0","1","1","0","1","0","1","4","4","5","3","4","3","4","3","2","3","767710612724912129","任","666","","","","","","","","","","","","","","","","","","","","","","","","","","","","","","feedback_test","","","","","","","","","",""
"235","","f","psychophysics","99","228284","0.0-7.0-1.0-1.0-0.0-0.45","3","3","3","3","3","3","4","2","2","3","4","3","2","4","3","4","3","3","4","4","3","3","4","4","3","3","4","4","4","1","0","1","1","0","0","1","1","0","1","1","0","1","0","1","4","4","5","3","4","3","4","3","2","3","767710612724912129","任","666","","","","match","","","","","","","","","","","","","","key","f","16.666666666666668","840","521","j","false","nonmatch","img/triangle.png","六边","三角","ALT1_2","prac_ALT1_2","","","","","","","","","",""
"null","<span style='color:red; font-size: 70px;'>错误! </span>","null","html-keyboard-response","100","228786","0.0-7.0-1.0-1.0-0.0-1.45","3","3","3","3","3","3","4","2","2","3","4","3","2","4","3","4","3","3","4","4","3","3","4","4","3","3","4","4","4","1","0","1","1","0","0","1","1","0","1","1","0","1","0","1","4","4","5","3","4","3","4","3","2","3","767710612724912129","任","666","","","","","","","","","","","","","","","","","","","","","","","","","","","","","","feedback_test","","","","","","","","","",""
"279","","f","psychophysics","101","230067","0.0-7.0-1.0-1.0-0.0-0.46","3","3","3","3","3","3","4","2","2","3","4","3","2","4","3","4","3","3","4","4","3","3","4","4","3","3","4","4","4","1","0","1","1","0","0","1","1","0","1","1","0","1","0","1","4","4","5","3","4","3","4","3","2","3","767710612724912129","任","666","","","","match","","","","","","","","","","","","","","key","f","16.666666666666668","840","521","f","true","match","img/triangle.png","三角","三角","ALT1_2","prac_ALT1_2","","","","","","","","","",""
"null","<span style='color:GreenYellow; font-size: 70px;'>正确! </span>","null","html-keyboard-response","102","230571","0.0-7.0-1.0-1.0-0.0-1.46","3","3","3","3","3","3","4","2","2","3","4","3","2","4","3","4","3","3","4","4","3","3","4","4","3","3","4","4","4","1","0","1","1","0","0","1","1","0","1","1","0","1","0","1","4","4","5","3","4","3","4","3","2","3","767710612724912129","任","666","","","","","","","","","","","","","","","","","","","","","","","","","","","","","","feedback_test","","","","","","","","","",""
"365","","j","psychophysics","103","231939","0.0-7.0-1.0-1.0-0.0-0.47","3","3","3","3","3","3","4","2","2","3","4","3","2","4","3","4","3","3","4","4","3","3","4","4","3","3","4","4","4","1","0","1","1","0","0","1","1","0","1","1","0","1","0","1","4","4","5","3","4","3","4","3","2","3","767710612724912129","任","666","","","","nonmatch","","","","","","","","","","","","","","key","j","16.65432098765432","840","521","f","false","match","img/circle.png","圆形","圆形","ALT1_2","prac_ALT1_2","","","","","","","","","",""
"null","<span style='color:red; font-size: 70px;'>错误! </span>","null","html-keyboard-response","104","232441","0.0-7.0-1.0-1.0-0.0-1.47","3","3","3","3","3","3","4","2","2","3","4","3","2","4","3","4","3","3","4","4","3","3","4","4","3","3","4","4","4","1","0","1","1","0","0","1","1","0","1","1","0","1","0","1","4","4","5","3","4","3","4","3","2","3","767710612724912129","任","666","","","","","","","","","","","","","","","","","","","","","","","","","","","","","","feedback_test","","","","","","","","","",""
"21110","<style>.context{color:white; font-size: 35px; line-height:40px}</style>                          <div><p class='context'>您正确回答了35% 的试次。</p><p class='context'>您的平均反应时为485毫秒。</p><p class='context'>恭喜您完成练习。按空格键继续。</p></div>"," ","html-keyboard-response","105","253556","0.0-7.0-1.0-1.0-1.0-0.0","3","3","3","3","3","3","4","2","2","3","4","3","2","4","3","4","3","3","4","4","3","3","4","4","3","3","4","4","4","1","0","1","1","0","0","1","1","0","1","1","0","1","0","1","4","4","5","3","4","3","4","3","2","3","767710612724912129","任","666","","","","","","","","","","","","","","","","","","","","","","","","","","","","","","","","","","","","","","","",""
"13251","","","instructions","106","266812","0.0-7.0-1.0-1.0-1.0-1.0","3","3","3","3","3","3","4","2","2","3","4","3","2","4","3","4","3","3","4","4","3","3","4","4","3","3","4","4","4","1","0","1","1","0","0","1","1","0","1","1","0","1","0","1","4","4","5","3","4","3","4","3","2","3","767710612724912129","任","666","","","","","","","","","","","","","","","","","[{""page_index"":0,""viewing_time"":5103},{""page_index"":1,""viewing_time"":5868},{""page_index"":2,""viewing_time"":2280}]","","","","","","","","","","","","","","","","","","","","","","",""
"474","","j","psychophysics","107","268292","0.0-7.0-1.0-1.1-0.1-0.48","3","3","3","3","3","3","4","2","2","3","4","3","2","4","3","4","3","3","4","4","3","3","4","4","3","3","4","4","4","1","0","1","1","0","0","1","1","0","1","1","0","1","0","1","4","4","5","3","4","3","4","3","2","3","767710612724912129","任","666","","","","nonmatch","","","","","","","","","","","","","","key","j","16.49438202247191","840","521","f","false","match","img/hexagon.png","六边","六边","ALT1_2","prac_ALT1_2","","","","","","","","","",""
"null","<span style='color:red; font-size: 70px;'>错误! </span>","null","html-keyboard-response","108","268794","0.0-7.0-1.0-1.1-0.1-1.48","3","3","3","3","3","3","4","2","2","3","4","3","2","4","3","4","3","3","4","4","3","3","4","4","3","3","4","4","4","1","0","1","1","0","0","1","1","0","1","1","0","1","0","1","4","4","5","3","4","3","4","3","2","3","767710612724912129","任","666","","","","","","","","","","","","","","","","","","","","","","","","","","","","","","feedback_test","","","","","","","","","",""
"382","","f","psychophysics","109","270180","0.0-7.0-1.0-1.1-0.1-0.49","3","3","3","3","3","3","4","2","2","3","4","3","2","4","3","4","3","3","4","4","3","3","4","4","3","3","4","4","4","1","0","1","1","0","0","1","1","0","1","1","0","1","0","1","4","4","5","3","4","3","4","3","2","3","767710612724912129","任","666","","","","match","","","","","","","","","","","","","","key","f","16.666666666666668","840","521","j","false","nonmatch","img/circle.png","梯形","圆形","ALT1_2","prac_ALT1_2","","","","","","","","","",""
"null","<span style='color:red; font-size: 70px;'>错误! </span>","null","html-keyboard-response","110","270683","0.0-7.0-1.0-1.1-0.1-1.49","3","3","3","3","3","3","4","2","2","3","4","3","2","4","3","4","3","3","4","4","3","3","4","4","3","3","4","4","4","1","0","1","1","0","0","1","1","0","1","1","0","1","0","1","4","4","5","3","4","3","4","3","2","3","767710612724912129","任","666","","","","","","","","","","","","","","","","","","","","","","","","","","","","","","feedback_test","","","","","","","","","",""
"296","","f","psychophysics","111","271983","0.0-7.0-1.0-1.1-0.1-0.50","3","3","3","3","3","3","4","2","2","3","4","3","2","4","3","4","3","3","4","4","3","3","4","4","3","3","4","4","4","1","0","1","1","0","0","1","1","0","1","1","0","1","0","1","4","4","5","3","4","3","4","3","2","3","767710612724912129","任","666","","","","match","","","","","","","","","","","","","","key","f","16.67105263157895","840","521","f","true","match","img/triangle.png","三角","三角","ALT1_2","prac_ALT1_2","","","","","","","","","",""
"null","<span style='color:GreenYellow; font-size: 70px;'>正确! </span>","null","html-keyboard-response","112","272487","0.0-7.0-1.0-1.1-0.1-1.50","3","3","3","3","3","3","4","2","2","3","4","3","2","4","3","4","3","3","4","4","3","3","4","4","3","3","4","4","4","1","0","1","1","0","0","1","1","0","1","1","0","1","0","1","4","4","5","3","4","3","4","3","2","3","767710612724912129","任","666","","","","","","","","","","","","","","","","","","","","","","","","","","","","","","feedback_test","","","","","","","","","",""
"414","","j","psychophysics","113","273904","0.0-7.0-1.0-1.1-0.1-0.51","3","3","3","3","3","3","4","2","2","3","4","3","2","4","3","4","3","3","4","4","3","3","4","4","3","3","4","4","4","1","0","1","1","0","0","1","1","0","1","1","0","1","0","1","4","4","5","3","4","3","4","3","2","3","767710612724912129","任","666","","","","nonmatch","","","","","","","","","","","","","","key","j","16.666666666666668","840","521","j","true","nonmatch","img/circle.png","三角","圆形","ALT1_2","prac_ALT1_2","","","","","","","","","",""
"null","<span style='color:GreenYellow; font-size: 70px;'>正确! </span>","null","html-keyboard-response","114","274406","0.0-7.0-1.0-1.1-0.1-1.51","3","3","3","3","3","3","4","2","2","3","4","3","2","4","3","4","3","3","4","4","3","3","4","4","3","3","4","4","4","1","0","1","1","0","0","1","1","0","1","1","0","1","0","1","4","4","5","3","4","3","4","3","2","3","767710612724912129","任","666","","","","","","","","","","","","","","","","","","","","","","","","","","","","","","feedback_test","","","","","","","","","",""
"349","","j","psychophysics","115","275758","0.0-7.0-1.0-1.1-0.1-0.52","3","3","3","3","3","3","4","2","2","3","4","3","2","4","3","4","3","3","4","4","3","3","4","4","3","3","4","4","4","1","0","1","1","0","0","1","1","0","1","1","0","1","0","1","4","4","5","3","4","3","4","3","2","3","767710612724912129","任","666","","","","nonmatch","","","","","","","","","","","","","","key","j","16.6625","840","521","j","true","nonmatch","img/hexagon.png","三角","六边","ALT1_2","prac_ALT1_2","","","","","","","","","",""
"null","<span style='color:GreenYellow; font-size: 70px;'>正确! </span>","null","html-keyboard-response","116","276261","0.0-7.0-1.0-1.1-0.1-1.52","3","3","3","3","3","3","4","2","2","3","4","3","2","4","3","4","3","3","4","4","3","3","4","4","3","3","4","4","4","1","0","1","1","0","0","1","1","0","1","1","0","1","0","1","4","4","5","3","4","3","4","3","2","3","767710612724912129","任","666","","","","","","","","","","","","","","","","","","","","","","","","","","","","","","feedback_test","","","","","","","","","",""
"353","","j","psychophysics","117","277618","0.0-7.0-1.0-1.1-0.1-0.53","3","3","3","3","3","3","4","2","2","3","4","3","2","4","3","4","3","3","4","4","3","3","4","4","3","3","4","4","4","1","0","1","1","0","0","1","1","0","1","1","0","1","0","1","4","4","5","3","4","3","4","3","2","3","767710612724912129","任","666","","","","nonmatch","","","","","","","","","","","","","","key","j","16.670886075949365","840","521","j","true","nonmatch","img/hexagon.png","圆形","六边","ALT1_2","prac_ALT1_2","","","","","","","","","",""
"null","<span style='color:GreenYellow; font-size: 70px;'>正确! </span>","null","html-keyboard-response","118","278121","0.0-7.0-1.0-1.1-0.1-1.53","3","3","3","3","3","3","4","2","2","3","4","3","2","4","3","4","3","3","4","4","3","3","4","4","3","3","4","4","4","1","0","1","1","0","0","1","1","0","1","1","0","1","0","1","4","4","5","3","4","3","4","3","2","3","767710612724912129","任","666","","","","","","","","","","","","","","","","","","","","","","","","","","","","","","feedback_test","","","","","","","","","",""
"380","","j","psychophysics","119","279504","0.0-7.0-1.0-1.1-0.1-0.54","3","3","3","3","3","3","4","2","2","3","4","3","2","4","3","4","3","3","4","4","3","3","4","4","3","3","4","4","4","1","0","1","1","0","0","1","1","0","1","1","0","1","0","1","4","4","5","3","4","3","4","3","2","3","767710612724912129","任","666","","","","nonmatch","","","","","","","","","","","","","","key","j","16.597560975609756","840","521","f","false","match","img/circle.png","圆形","圆形","ALT1_2","prac_ALT1_2","","","","","","","","","",""
"null","<span style='color:red; font-size: 70px;'>错误! </span>","null","html-keyboard-response","120","280007","0.0-7.0-1.0-1.1-0.1-1.54","3","3","3","3","3","3","4","2","2","3","4","3","2","4","3","4","3","3","4","4","3","3","4","4","3","3","4","4","4","1","0","1","1","0","0","1","1","0","1","1","0","1","0","1","4","4","5","3","4","3","4","3","2","3","767710612724912129","任","666","","","","","","","","","","","","","","","","","","","","","","","","","","","","","","feedback_test","","","","","","","","","",""
"303","","f","psychophysics","121","281313","0.0-7.0-1.0-1.1-0.1-0.55","3","3","3","3","3","3","4","2","2","3","4","3","2","4","3","4","3","3","4","4","3","3","4","4","3","3","4","4","4","1","0","1","1","0","0","1","1","0","1","1","0","1","0","1","4","4","5","3","4","3","4","3","2","3","767710612724912129","任","666","","","","match","","","","","","","","","","","","","","key","f","16.662337662337663","840","521","j","false","nonmatch","img/circle.png","六边","圆形","ALT1_2","prac_ALT1_2","","","","","","","","","",""
"null","<span style='color:red; font-size: 70px;'>错误! </span>","null","html-keyboard-response","122","281816","0.0-7.0-1.0-1.1-0.1-1.55","3","3","3","3","3","3","4","2","2","3","4","3","2","4","3","4","3","3","4","4","3","3","4","4","3","3","4","4","4","1","0","1","1","0","0","1","1","0","1","1","0","1","0","1","4","4","5","3","4","3","4","3","2","3","767710612724912129","任","666","","","","","","","","","","","","","","","","","","","","","","","","","","","","","","feedback_test","","","","","","","","","",""
"443","","f","psychophysics","123","283264","0.0-7.0-1.0-1.1-0.1-0.56","3","3","3","3","3","3","4","2","2","3","4","3","2","4","3","4","3","3","4","4","3","3","4","4","3","3","4","4","4","1","0","1","1","0","0","1","1","0","1","1","0","1","0","1","4","4","5","3","4","3","4","3","2","3","767710612724912129","任","666","","","","match","","","","","","","","","","","","","","key","f","16.647058823529413","840","521","f","true","match","img/triangle.png","三角","三角","ALT1_2","prac_ALT1_2","","","","","","","","","",""
"null","<span style='color:GreenYellow; font-size: 70px;'>正确! </span>","null","html-keyboard-response","124","283766","0.0-7.0-1.0-1.1-0.1-1.56","3","3","3","3","3","3","4","2","2","3","4","3","2","4","3","4","3","3","4","4","3","3","4","4","3","3","4","4","4","1","0","1","1","0","0","1","1","0","1","1","0","1","0","1","4","4","5","3","4","3","4","3","2","3","767710612724912129","任","666","","","","","","","","","","","","","","","","","","","","","","","","","","","","","","feedback_test","","","","","","","","","",""
"351","","f","psychophysics","125","285122","0.0-7.0-1.0-1.1-0.1-0.57","3","3","3","3","3","3","4","2","2","3","4","3","2","4","3","4","3","3","4","4","3","3","4","4","3","3","4","4","4","1","0","1","1","0","0","1","1","0","1","1","0","1","0","1","4","4","5","3","4","3","4","3","2","3","767710612724912129","任","666","","","","match","","","","","","","","","","","","","","key","f","16.6625","840","521","f","true","match","img/trapezoid.png","梯形","梯形","ALT1_2","prac_ALT1_2","","","","","","","","","",""
"null","<span style='color:GreenYellow; font-size: 70px;'>正确! </span>","null","html-keyboard-response","126","285623","0.0-7.0-1.0-1.1-0.1-1.57","3","3","3","3","3","3","4","2","2","3","4","3","2","4","3","4","3","3","4","4","3","3","4","4","3","3","4","4","4","1","0","1","1","0","0","1","1","0","1","1","0","1","0","1","4","4","5","3","4","3","4","3","2","3","767710612724912129","任","666","","","","","","","","","","","","","","","","","","","","","","","","","","","","","","feedback_test","","","","","","","","","",""
"632","","f","psychophysics","127","287258","0.0-7.0-1.0-1.1-0.1-0.58","3","3","3","3","3","3","4","2","2","3","4","3","2","4","3","4","3","3","4","4","3","3","4","4","3","3","4","4","4","1","0","1","1","0","0","1","1","0","1","1","0","1","0","1","4","4","5","3","4","3","4","3","2","3","767710612724912129","任","666","","","","match","","","","","","","","","","","","","","key","f","16.65979381443299","840","521","j","false","nonmatch","img/triangle.png","梯形","三角","ALT1_2","prac_ALT1_2","","","","","","","","","",""
"null","<span style='color:red; font-size: 70px;'>错误! </span>","null","html-keyboard-response","128","287761","0.0-7.0-1.0-1.1-0.1-1.58","3","3","3","3","3","3","4","2","2","3","4","3","2","4","3","4","3","3","4","4","3","3","4","4","3","3","4","4","4","1","0","1","1","0","0","1","1","0","1","1","0","1","0","1","4","4","5","3","4","3","4","3","2","3","767710612724912129","任","666","","","","","","","","","","","","","","","","","","","","","","","","","","","","","","feedback_test","","","","","","","","","",""
"348","","j","psychophysics","129","289114","0.0-7.0-1.0-1.1-0.1-0.59","3","3","3","3","3","3","4","2","2","3","4","3","2","4","3","4","3","3","4","4","3","3","4","4","3","3","4","4","4","1","0","1","1","0","0","1","1","0","1","1","0","1","0","1","4","4","5","3","4","3","4","3","2","3","767710612724912129","任","666","","","","nonmatch","","","","","","","","","","","","","","key","j","16.658227848101266","840","521","j","true","nonmatch","img/trapezoid.png","圆形","梯形","ALT1_2","prac_ALT1_2","","","","","","","","","",""
"null","<span style='color:GreenYellow; font-size: 70px;'>正确! </span>","null","html-keyboard-response","130","289616","0.0-7.0-1.0-1.1-0.1-1.59","3","3","3","3","3","3","4","2","2","3","4","3","2","4","3","4","3","3","4","4","3","3","4","4","3","3","4","4","4","1","0","1","1","0","0","1","1","0","1","1","0","1","0","1","4","4","5","3","4","3","4","3","2","3","767710612724912129","任","666","","","","","","","","","","","","","","","","","","","","","","","","","","","","","","feedback_test","","","","","","","","","",""
"402","","f","psychophysics","131","291023","0.0-7.0-1.0-1.1-0.1-0.60","3","3","3","3","3","3","4","2","2","3","4","3","2","4","3","4","3","3","4","4","3","3","4","4","3","3","4","4","4","1","0","1","1","0","0","1","1","0","1","1","0","1","0","1","4","4","5","3","4","3","4","3","2","3","767710612724912129","任","666","","","","match","","","","","","","","","","","","","","key","f","16.662650602409638","840","521","f","true","match","img/trapezoid.png","梯形","梯形","ALT1_2","prac_ALT1_2","","","","","","","","","",""
"null","<span style='color:GreenYellow; font-size: 70px;'>正确! </span>","null","html-keyboard-response","132","291525","0.0-7.0-1.0-1.1-0.1-1.60","3","3","3","3","3","3","4","2","2","3","4","3","2","4","3","4","3","3","4","4","3","3","4","4","3","3","4","4","4","1","0","1","1","0","0","1","1","0","1","1","0","1","0","1","4","4","5","3","4","3","4","3","2","3","767710612724912129","任","666","","","","","","","","","","","","","","","","","","","","","","","","","","","","","","feedback_test","","","","","","","","","",""
"245","","f","psychophysics","133","292773","0.0-7.0-1.0-1.1-0.1-0.61","3","3","3","3","3","3","4","2","2","3","4","3","2","4","3","4","3","3","4","4","3","3","4","4","3","3","4","4","4","1","0","1","1","0","0","1","1","0","1","1","0","1","0","1","4","4","5","3","4","3","4","3","2","3","767710612724912129","任","666","","","","match","","","","","","","","","","","","","","key","f","16.66216216216216","840","521","f","true","match","img/hexagon.png","六边","六边","ALT1_2","prac_ALT1_2","","","","","","","","","",""
"null","<span style='color:GreenYellow; font-size: 70px;'>正确! </span>","null","html-keyboard-response","134","293276","0.0-7.0-1.0-1.1-0.1-1.61","3","3","3","3","3","3","4","2","2","3","4","3","2","4","3","4","3","3","4","4","3","3","4","4","3","3","4","4","4","1","0","1","1","0","0","1","1","0","1","1","0","1","0","1","4","4","5","3","4","3","4","3","2","3","767710612724912129","任","666","","","","","","","","","","","","","","","","","","","","","","","","","","","","","","feedback_test","","","","","","","","","",""
"376","","f","psychophysics","135","294655","0.0-7.0-1.0-1.1-0.1-0.62","3","3","3","3","3","3","4","2","2","3","4","3","2","4","3","4","3","3","4","4","3","3","4","4","3","3","4","4","4","1","0","1","1","0","0","1","1","0","1","1","0","1","0","1","4","4","5","3","4","3","4","3","2","3","767710612724912129","任","666","","","","match","","","","","","","","","","","","","","key","f","16.666666666666668","840","521","j","false","nonmatch","img/trapezoid.png","三角","梯形","ALT1_2","prac_ALT1_2","","","","","","","","","",""
"null","<span style='color:red; font-size: 70px;'>错误! </span>","null","html-keyboard-response","136","295158","0.0-7.0-1.0-1.1-0.1-1.62","3","3","3","3","3","3","4","2","2","3","4","3","2","4","3","4","3","3","4","4","3","3","4","4","3","3","4","4","4","1","0","1","1","0","0","1","1","0","1","1","0","1","0","1","4","4","5","3","4","3","4","3","2","3","767710612724912129","任","666","","","","","","","","","","","","","","","","","","","","","","","","","","","","","","feedback_test","","","","","","","","","",""
"233","","j","psychophysics","137","296394","0.0-7.0-1.0-1.1-0.1-0.63","3","3","3","3","3","3","4","2","2","3","4","3","2","4","3","4","3","3","4","4","3","3","4","4","3","3","4","4","4","1","0","1","1","0","0","1","1","0","1","1","0","1","0","1","4","4","5","3","4","3","4","3","2","3","767710612724912129","任","666","","","","nonmatch","","","","","","","","","","","","","","key","j","16.671232876712327","840","521","f","false","match","img/circle.png","圆形","圆形","ALT1_2","prac_ALT1_2","","","","","","","","","",""
"null","<span style='color:red; font-size: 70px;'>错误! </span>","null","html-keyboard-response","138","296896","0.0-7.0-1.0-1.1-0.1-1.63","3","3","3","3","3","3","4","2","2","3","4","3","2","4","3","4","3","3","4","4","3","3","4","4","3","3","4","4","4","1","0","1","1","0","0","1","1","0","1","1","0","1","0","1","4","4","5","3","4","3","4","3","2","3","767710612724912129","任","666","","","","","","","","","","","","","","","","","","","","","","","","","","","","","","feedback_test","","","","","","","","","",""
"323","","f","psychophysics","139","298223","0.0-7.0-1.0-1.1-0.1-0.64","3","3","3","3","3","3","4","2","2","3","4","3","2","4","3","4","3","3","4","4","3","3","4","4","3","3","4","4","4","1","0","1","1","0","0","1","1","0","1","1","0","1","0","1","4","4","5","3","4","3","4","3","2","3","767710612724912129","任","666","","","","match","","","","","","","","","","","","","","key","f","16.653846153846153","840","521","f","true","match","img/trapezoid.png","梯形","梯形","ALT1_2","prac_ALT1_2","","","","","","","","","",""
"null","<span style='color:GreenYellow; font-size: 70px;'>正确! </span>","null","html-keyboard-response","140","298725","0.0-7.0-1.0-1.1-0.1-1.64","3","3","3","3","3","3","4","2","2","3","4","3","2","4","3","4","3","3","4","4","3","3","4","4","3","3","4","4","4","1","0","1","1","0","0","1","1","0","1","1","0","1","0","1","4","4","5","3","4","3","4","3","2","3","767710612724912129","任","666","","","","","","","","","","","","","","","","","","","","","","","","","","","","","","feedback_test","","","","","","","","","",""
"385","","f","psychophysics","141","300113","0.0-7.0-1.0-1.1-0.1-0.65","3","3","3","3","3","3","4","2","2","3","4","3","2","4","3","4","3","3","4","4","3","3","4","4","3","3","4","4","4","1","0","1","1","0","0","1","1","0","1","1","0","1","0","1","4","4","5","3","4","3","4","3","2","3","767710612724912129","任","666","","","","match","","","","","","","","","","","","","","key","f","16.666666666666668","840","521","f","true","match","img/triangle.png","三角","三角","ALT1_2","prac_ALT1_2","","","","","","","","","",""
"null","<span style='color:GreenYellow; font-size: 70px;'>正确! </span>","null","html-keyboard-response","142","300616","0.0-7.0-1.0-1.1-0.1-1.65","3","3","3","3","3","3","4","2","2","3","4","3","2","4","3","4","3","3","4","4","3","3","4","4","3","3","4","4","4","1","0","1","1","0","0","1","1","0","1","1","0","1","0","1","4","4","5","3","4","3","4","3","2","3","767710612724912129","任","666","","","","","","","","","","","","","","","","","","","","","","","","","","","","","","feedback_test","","","","","","","","","",""
"454","","j","psychophysics","143","302074","0.0-7.0-1.0-1.1-0.1-0.66","3","3","3","3","3","3","4","2","2","3","4","3","2","4","3","4","3","3","4","4","3","3","4","4","3","3","4","4","4","1","0","1","1","0","0","1","1","0","1","1","0","1","0","1","4","4","5","3","4","3","4","3","2","3","767710612724912129","任","666","","","","nonmatch","","","","","","","","","","","","","","key","j","16.662790697674417","840","521","j","true","nonmatch","img/trapezoid.png","六边","梯形","ALT1_2","prac_ALT1_2","","","","","","","","","",""
"null","<span style='color:GreenYellow; font-size: 70px;'>正确! </span>","null","html-keyboard-response","144","302577","0.0-7.0-1.0-1.1-0.1-1.66","3","3","3","3","3","3","4","2","2","3","4","3","2","4","3","4","3","3","4","4","3","3","4","4","3","3","4","4","4","1","0","1","1","0","0","1","1","0","1","1","0","1","0","1","4","4","5","3","4","3","4","3","2","3","767710612724912129","任","666","","","","","","","","","","","","","","","","","","","","","","","","","","","","","","feedback_test","","","","","","","","","",""
"453","","j","psychophysics","145","304033","0.0-7.0-1.0-1.1-0.1-0.67","3","3","3","3","3","3","4","2","2","3","4","3","2","4","3","4","3","3","4","4","3","3","4","4","3","3","4","4","4","1","0","1","1","0","0","1","1","0","1","1","0","1","0","1","4","4","5","3","4","3","4","3","2","3","767710612724912129","任","666","","","","nonmatch","","","","","","","","","","","","","","key","j","16.658823529411766","840","521","j","true","nonmatch","img/hexagon.png","梯形","六边","ALT1_2","prac_ALT1_2","","","","","","","","","",""
"null","<span style='color:GreenYellow; font-size: 70px;'>正确! </span>","null","html-keyboard-response","146","304536","0.0-7.0-1.0-1.1-0.1-1.67","3","3","3","3","3","3","4","2","2","3","4","3","2","4","3","4","3","3","4","4","3","3","4","4","3","3","4","4","4","1","0","1","1","0","0","1","1","0","1","1","0","1","0","1","4","4","5","3","4","3","4","3","2","3","767710612724912129","任","666","","","","","","","","","","","","","","","","","","","","","","","","","","","","","","feedback_test","","","","","","","","","",""
"416","","j","psychophysics","147","305959","0.0-7.0-1.0-1.1-0.1-0.68","3","3","3","3","3","3","4","2","2","3","4","3","2","4","3","4","3","3","4","4","3","3","4","4","3","3","4","4","4","1","0","1","1","0","0","1","1","0","1","1","0","1","0","1","4","4","5","3","4","3","4","3","2","3","767710612724912129","任","666","","","","nonmatch","","","","","","","","","","","","","","key","j","16.61904761904762","840","521","f","false","match","img/hexagon.png","六边","六边","ALT1_2","prac_ALT1_2","","","","","","","","","",""
"null","<span style='color:red; font-size: 70px;'>错误! </span>","null","html-keyboard-response","148","306461","0.0-7.0-1.0-1.1-0.1-1.68","3","3","3","3","3","3","4","2","2","3","4","3","2","4","3","4","3","3","4","4","3","3","4","4","3","3","4","4","4","1","0","1","1","0","0","1","1","0","1","1","0","1","0","1","4","4","5","3","4","3","4","3","2","3","767710612724912129","任","666","","","","","","","","","","","","","","","","","","","","","","","","","","","","","","feedback_test","","","","","","","","","",""
"374","","j","psychophysics","149","307839","0.0-7.0-1.0-1.1-0.1-0.69","3","3","3","3","3","3","4","2","2","3","4","3","2","4","3","4","3","3","4","4","3","3","4","4","3","3","4","4","4","1","0","1","1","0","0","1","1","0","1","1","0","1","0","1","4","4","5","3","4","3","4","3","2","3","767710612724912129","任","666","","","","nonmatch","","","","","","","","","","","","","","key","j","16.666666666666668","840","521","f","false","match","img/circle.png","圆形","圆形","ALT1_2","prac_ALT1_2","","","","","","","","","",""
"null","<span style='color:red; font-size: 70px;'>错误! </span>","null","html-keyboard-response","150","308341","0.0-7.0-1.0-1.1-0.1-1.69","3","3","3","3","3","3","4","2","2","3","4","3","2","4","3","4","3","3","4","4","3","3","4","4","3","3","4","4","4","1","0","1","1","0","0","1","1","0","1","1","0","1","0","1","4","4","5","3","4","3","4","3","2","3","767710612724912129","任","666","","","","","","","","","","","","","","","","","","","","","","","","","","","","","","feedback_test","","","","","","","","","",""
"304","","f","psychophysics","151","309649","0.0-7.0-1.0-1.1-0.1-0.70","3","3","3","3","3","3","4","2","2","3","4","3","2","4","3","4","3","3","4","4","3","3","4","4","3","3","4","4","4","1","0","1","1","0","0","1","1","0","1","1","0","1","0","1","4","4","5","3","4","3","4","3","2","3","767710612724912129","任","666","","","","match","","","","","","","","","","","","","","key","f","16.662337662337663","840","521","j","false","nonmatch","img/triangle.png","圆形","三角","ALT1_2","prac_ALT1_2","","","","","","","","","",""
"null","<span style='color:red; font-size: 70px;'>错误! </span>","null","html-keyboard-response","152","310152","0.0-7.0-1.0-1.1-0.1-1.70","3","3","3","3","3","3","4","2","2","3","4","3","2","4","3","4","3","3","4","4","3","3","4","4","3","3","4","4","4","1","0","1","1","0","0","1","1","0","1","1","0","1","0","1","4","4","5","3","4","3","4","3","2","3","767710612724912129","任","666","","","","","","","","","","","","","","","","","","","","","","","","","","","","","","feedback_test","","","","","","","","","",""
"225","","f","psychophysics","153","311379","0.0-7.0-1.0-1.1-0.1-0.71","3","3","3","3","3","3","4","2","2","3","4","3","2","4","3","4","3","3","4","4","3","3","4","4","3","3","4","4","4","1","0","1","1","0","0","1","1","0","1","1","0","1","0","1","4","4","5","3","4","3","4","3","2","3","767710612724912129","任","666","","","","match","","","","","","","","","","","","","","key","f","16.666666666666668","840","521","j","false","nonmatch","img/triangle.png","六边","三角","ALT1_2","prac_ALT1_2","","","","","","","","","",""
"null","<span style='color:red; font-size: 70px;'>错误! </span>","null","html-keyboard-response","154","311882","0.0-7.0-1.0-1.1-0.1-1.71","3","3","3","3","3","3","4","2","2","3","4","3","2","4","3","4","3","3","4","4","3","3","4","4","3","3","4","4","4","1","0","1","1","0","0","1","1","0","1","1","0","1","0","1","4","4","5","3","4","3","4","3","2","3","767710612724912129","任","666","","","","","","","","","","","","","","","","","","","","","","","","","","","","","","feedback_test","","","","","","","","","",""
"288","","f","psychophysics","155","313174","0.0-7.0-1.0-1.1-0.1-0.72","3","3","3","3","3","3","4","2","2","3","4","3","2","4","3","4","3","3","4","4","3","3","4","4","3","3","4","4","4","1","0","1","1","0","0","1","1","0","1","1","0","1","0","1","4","4","5","3","4","3","4","3","2","3","767710612724912129","任","666","","","","match","","","","","","","","","","","","","","key","f","16.67105263157895","840","521","f","true","match","img/hexagon.png","六边","六边","ALT1_2","prac_ALT1_2","","","","","","","","","",""
"null","<span style='color:GreenYellow; font-size: 70px;'>正确! </span>","null","html-keyboard-response","156","313677","0.0-7.0-1.0-1.1-0.1-1.72","3","3","3","3","3","3","4","2","2","3","4","3","2","4","3","4","3","3","4","4","3","3","4","4","3","3","4","4","4","1","0","1","1","0","0","1","1","0","1","1","0","1","0","1","4","4","5","3","4","3","4","3","2","3","767710612724912129","任","666","","","","","","","","","","","","","","","","","","","","","","","","","","","","","","feedback_test","","","","","","","","","",""
"375","","f","psychophysics","157","315056","0.0-7.0-1.0-1.1-0.1-0.73","3","3","3","3","3","3","4","2","2","3","4","3","2","4","3","4","3","3","4","4","3","3","4","4","3","3","4","4","4","1","0","1","1","0","0","1","1","0","1","1","0","1","0","1","4","4","5","3","4","3","4","3","2","3","767710612724912129","任","666","","","","match","","","","","","","","","","","","","","key","f","16.666666666666668","840","521","f","true","match","img/triangle.png","三角","三角","ALT1_2","prac_ALT1_2","","","","","","","","","",""
"null","<span style='color:GreenYellow; font-size: 70px;'>正确! </span>","null","html-keyboard-response","158","315558","0.0-7.0-1.0-1.1-0.1-1.73","3","3","3","3","3","3","4","2","2","3","4","3","2","4","3","4","3","3","4","4","3","3","4","4","3","3","4","4","4","1","0","1","1","0","0","1","1","0","1","1","0","1","0","1","4","4","5","3","4","3","4","3","2","3","767710612724912129","任","666","","","","","","","","","","","","","","","","","","","","","","","","","","","","","","feedback_test","","","","","","","","","",""
"358","","f","psychophysics","159","316920","0.0-7.0-1.0-1.1-0.1-0.74","3","3","3","3","3","3","4","2","2","3","4","3","2","4","3","4","3","3","4","4","3","3","4","4","3","3","4","4","4","1","0","1","1","0","0","1","1","0","1","1","0","1","0","1","4","4","5","3","4","3","4","3","2","3","767710612724912129","任","666","","","","match","","","","","","","","","","","","","","key","f","16.65432098765432","840","521","f","true","match","img/triangle.png","三角","三角","ALT1_2","prac_ALT1_2","","","","","","","","","",""
"null","<span style='color:GreenYellow; font-size: 70px;'>正确! </span>","null","html-keyboard-response","160","317422","0.0-7.0-1.0-1.1-0.1-1.74","3","3","3","3","3","3","4","2","2","3","4","3","2","4","3","4","3","3","4","4","3","3","4","4","3","3","4","4","4","1","0","1","1","0","0","1","1","0","1","1","0","1","0","1","4","4","5","3","4","3","4","3","2","3","767710612724912129","任","666","","","","","","","","","","","","","","","","","","","","","","","","","","","","","","feedback_test","","","","","","","","","",""
"307","","j","psychophysics","161","318733","0.0-7.0-1.0-1.1-0.1-0.75","3","3","3","3","3","3","4","2","2","3","4","3","2","4","3","4","3","3","4","4","3","3","4","4","3","3","4","4","4","1","0","1","1","0","0","1","1","0","1","1","0","1","0","1","4","4","5","3","4","3","4","3","2","3","767710612724912129","任","666","","","","nonmatch","","","","","","","","","","","","","","key","j","16.675324675324674","840","521","j","true","nonmatch","img/circle.png","六边","圆形","ALT1_2","prac_ALT1_2","","","","","","","","","",""
"null","<span style='color:GreenYellow; font-size: 70px;'>正确! </span>","null","html-keyboard-response","162","319237","0.0-7.0-1.0-1.1-0.1-1.75","3","3","3","3","3","3","4","2","2","3","4","3","2","4","3","4","3","3","4","4","3","3","4","4","3","3","4","4","4","1","0","1","1","0","0","1","1","0","1","1","0","1","0","1","4","4","5","3","4","3","4","3","2","3","767710612724912129","任","666","","","","","","","","","","","","","","","","","","","","","","","","","","","","","","feedback_test","","","","","","","","","",""
"381","","j","psychophysics","163","320621","0.0-7.0-1.0-1.1-0.1-0.76","3","3","3","3","3","3","4","2","2","3","4","3","2","4","3","4","3","3","4","4","3","3","4","4","3","3","4","4","4","1","0","1","1","0","0","1","1","0","1","1","0","1","0","1","4","4","5","3","4","3","4","3","2","3","767710612724912129","任","666","","","","nonmatch","","","","","","","","","","","","","","key","j","16.666666666666668","840","521","j","true","nonmatch","img/trapezoid.png","圆形","梯形","ALT1_2","prac_ALT1_2","","","","","","","","","",""
"null","<span style='color:GreenYellow; font-size: 70px;'>正确! </span>","null","html-keyboard-response","164","321123","0.0-7.0-1.0-1.1-0.1-1.76","3","3","3","3","3","3","4","2","2","3","4","3","2","4","3","4","3","3","4","4","3","3","4","4","3","3","4","4","4","1","0","1","1","0","0","1","1","0","1","1","0","1","0","1","4","4","5","3","4","3","4","3","2","3","767710612724912129","任","666","","","","","","","","","","","","","","","","","","","","","","","","","","","","","","feedback_test","","","","","","","","","",""
"416","","j","psychophysics","165","322542","0.0-7.0-1.0-1.1-0.1-0.77","3","3","3","3","3","3","4","2","2","3","4","3","2","4","3","4","3","3","4","4","3","3","4","4","3","3","4","4","4","1","0","1","1","0","0","1","1","0","1","1","0","1","0","1","4","4","5","3","4","3","4","3","2","3","767710612724912129","任","666","","","","nonmatch","","","","","","","","","","","","","","key","j","16.666666666666668","840","521","f","false","match","img/trapezoid.png","梯形","梯形","ALT1_2","prac_ALT1_2","","","","","","","","","",""
"null","<span style='color:red; font-size: 70px;'>错误! </span>","null","html-keyboard-response","166","323044","0.0-7.0-1.0-1.1-0.1-1.77","3","3","3","3","3","3","4","2","2","3","4","3","2","4","3","4","3","3","4","4","3","3","4","4","3","3","4","4","4","1","0","1","1","0","0","1","1","0","1","1","0","1","0","1","4","4","5","3","4","3","4","3","2","3","767710612724912129","任","666","","","","","","","","","","","","","","","","","","","","","","","","","","","","","","feedback_test","","","","","","","","","",""
"232","","f","psychophysics","167","324280","0.0-7.0-1.0-1.1-0.1-0.78","3","3","3","3","3","3","4","2","2","3","4","3","2","4","3","4","3","3","4","4","3","3","4","4","3","3","4","4","4","1","0","1","1","0","0","1","1","0","1","1","0","1","0","1","4","4","5","3","4","3","4","3","2","3","767710612724912129","任","666","","","","match","","","","","","","","","","","","","","key","f","16.666666666666668","840","521","f","true","match","img/circle.png","圆形","圆形","ALT1_2","prac_ALT1_2","","","","","","","","","",""
"null","<span style='color:GreenYellow; font-size: 70px;'>正确! </span>","null","html-keyboard-response","168","324782","0.0-7.0-1.0-1.1-0.1-1.78","3","3","3","3","3","3","4","2","2","3","4","3","2","4","3","4","3","3","4","4","3","3","4","4","3","3","4","4","4","1","0","1","1","0","0","1","1","0","1","1","0","1","0","1","4","4","5","3","4","3","4","3","2","3","767710612724912129","任","666","","","","","","","","","","","","","","","","","","","","","","","","","","","","","","feedback_test","","","","","","","","","",""
"330","","f","psychophysics","169","326117","0.0-7.0-1.0-1.1-0.1-0.79","3","3","3","3","3","3","4","2","2","3","4","3","2","4","3","4","3","3","4","4","3","3","4","4","3","3","4","4","4","1","0","1","1","0","0","1","1","0","1","1","0","1","0","1","4","4","5","3","4","3","4","3","2","3","767710612724912129","任","666","","","","match","","","","","","","","","","","","","","key","f","16.653846153846153","840","521","j","false","nonmatch","img/triangle.png","圆形","三角","ALT1_2","prac_ALT1_2","","","","","","","","","",""
"null","<span style='color:red; font-size: 70px;'>错误! </span>","null","html-keyboard-response","170","326620","0.0-7.0-1.0-1.1-0.1-1.79","3","3","3","3","3","3","4","2","2","3","4","3","2","4","3","4","3","3","4","4","3","3","4","4","3","3","4","4","4","1","0","1","1","0","0","1","1","0","1","1","0","1","0","1","4","4","5","3","4","3","4","3","2","3","767710612724912129","任","666","","","","","","","","","","","","","","","","","","","","","","","","","","","","","","feedback_test","","","","","","","","","",""
"236","","j","psychophysics","171","327860","0.0-7.0-1.0-1.1-0.1-0.80","3","3","3","3","3","3","4","2","2","3","4","3","2","4","3","4","3","3","4","4","3","3","4","4","3","3","4","4","4","1","0","1","1","0","0","1","1","0","1","1","0","1","0","1","4","4","5","3","4","3","4","3","2","3","767710612724912129","任","666","","","","nonmatch","","","","","","","","","","","","","","key","j","16.643835616438356","840","521","f","false","match","img/trapezoid.png","梯形","梯形","ALT1_2","prac_ALT1_2","","","","","","","","","",""
"null","<span style='color:red; font-size: 70px;'>错误! </span>","null","html-keyboard-response","172","328363","0.0-7.0-1.0-1.1-0.1-1.80","3","3","3","3","3","3","4","2","2","3","4","3","2","4","3","4","3","3","4","4","3","3","4","4","3","3","4","4","4","1","0","1","1","0","0","1","1","0","1","1","0","1","0","1","4","4","5","3","4","3","4","3","2","3","767710612724912129","任","666","","","","","","","","","","","","","","","","","","","","","","","","","","","","","","feedback_test","","","","","","","","","",""
"370","","f","psychophysics","173","329737","0.0-7.0-1.0-1.1-0.1-0.81","3","3","3","3","3","3","4","2","2","3","4","3","2","4","3","4","3","3","4","4","3","3","4","4","3","3","4","4","4","1","0","1","1","0","0","1","1","0","1","1","0","1","0","1","4","4","5","3","4","3","4","3","2","3","767710612724912129","任","666","","","","match","","","","","","","","","","","","","","key","f","16.65432098765432","840","521","f","true","match","img/circle.png","圆形","圆形","ALT1_2","prac_ALT1_2","","","","","","","","","",""
"null","<span style='color:GreenYellow; font-size: 70px;'>正确! </span>","null","html-keyboard-response","174","330239","0.0-7.0-1.0-1.1-0.1-1.81","3","3","3","3","3","3","4","2","2","3","4","3","2","4","3","4","3","3","4","4","3","3","4","4","3","3","4","4","4","1","0","1","1","0","0","1","1","0","1","1","0","1","0","1","4","4","5","3","4","3","4","3","2","3","767710612724912129","任","666","","","","","","","","","","","","","","","","","","","","","","","","","","","","","","feedback_test","","","","","","","","","",""
"309","","f","psychophysics","175","331551","0.0-7.0-1.0-1.1-0.1-0.82","3","3","3","3","3","3","4","2","2","3","4","3","2","4","3","4","3","3","4","4","3","3","4","4","3","3","4","4","4","1","0","1","1","0","0","1","1","0","1","1","0","1","0","1","4","4","5","3","4","3","4","3","2","3","767710612724912129","任","666","","","","match","","","","","","","","","","","","","","key","f","16.662337662337663","840","521","j","false","nonmatch","img/circle.png","梯形","圆形","ALT1_2","prac_ALT1_2","","","","","","","","","",""
"null","<span style='color:red; font-size: 70px;'>错误! </span>","null","html-keyboard-response","176","332054","0.0-7.0-1.0-1.1-0.1-1.82","3","3","3","3","3","3","4","2","2","3","4","3","2","4","3","4","3","3","4","4","3","3","4","4","3","3","4","4","4","1","0","1","1","0","0","1","1","0","1","1","0","1","0","1","4","4","5","3","4","3","4","3","2","3","767710612724912129","任","666","","","","","","","","","","","","","","","","","","","","","","","","","","","","","","feedback_test","","","","","","","","","",""
"496","","j","psychophysics","177","333553","0.0-7.0-1.0-1.1-0.1-0.83","3","3","3","3","3","3","4","2","2","3","4","3","2","4","3","4","3","3","4","4","3","3","4","4","3","3","4","4","4","1","0","1","1","0","0","1","1","0","1","1","0","1","0","1","4","4","5","3","4","3","4","3","2","3","767710612724912129","任","666","","","","nonmatch","","","","","","","","","","","","","","key","j","16.674157303370787","840","521","f","false","match","img/hexagon.png","六边","六边","ALT1_2","prac_ALT1_2","","","","","","","","","",""
"null","<span style='color:red; font-size: 70px;'>错误! </span>","null","html-keyboard-response","178","334056","0.0-7.0-1.0-1.1-0.1-1.83","3","3","3","3","3","3","4","2","2","3","4","3","2","4","3","4","3","3","4","4","3","3","4","4","3","3","4","4","4","1","0","1","1","0","0","1","1","0","1","1","0","1","0","1","4","4","5","3","4","3","4","3","2","3","767710612724912129","任","666","","","","","","","","","","","","","","","","","","","","","","","","","","","","","","feedback_test","","","","","","","","","",""
"196","","j","psychophysics","179","335255","0.0-7.0-1.0-1.1-0.1-0.84","3","3","3","3","3","3","4","2","2","3","4","3","2","4","3","4","3","3","4","4","3","3","4","4","3","3","4","4","4","1","0","1","1","0","0","1","1","0","1","1","0","1","0","1","4","4","5","3","4","3","4","3","2","3","767710612724912129","任","666","","","","nonmatch","","","","","","","","","","","","","","key","j","16.661971830985916","840","521","j","true","nonmatch","img/hexagon.png","梯形","六边","ALT1_2","prac_ALT1_2","","","","","","","","","",""
"null","<span style='color:yellow; font-size: 70px;'>过快! </span>","null","html-keyboard-response","180","335758","0.0-7.0-1.0-1.1-0.1-1.84","3","3","3","3","3","3","4","2","2","3","4","3","2","4","3","4","3","3","4","4","3","3","4","4","3","3","4","4","4","1","0","1","1","0","0","1","1","0","1","1","0","1","0","1","4","4","5","3","4","3","4","3","2","3","767710612724912129","任","666","","","","","","","","","","","","","","","","","","","","","","","","","","","","","","feedback_test","","","","","","","","","",""
"274","","f","psychophysics","181","337035","0.0-7.0-1.0-1.1-0.1-0.85","3","3","3","3","3","3","4","2","2","3","4","3","2","4","3","4","3","3","4","4","3","3","4","4","3","3","4","4","4","1","0","1","1","0","0","1","1","0","1","1","0","1","0","1","4","4","5","3","4","3","4","3","2","3","767710612724912129","任","666","","","","match","","","","","","","","","","","","","","key","f","16.666666666666668","840","521","f","true","match","img/trapezoid.png","梯形","梯形","ALT1_2","prac_ALT1_2","","","","","","","","","",""
"null","<span style='color:GreenYellow; font-size: 70px;'>正确! </span>","null","html-keyboard-response","182","337538","0.0-7.0-1.0-1.1-0.1-1.85","3","3","3","3","3","3","4","2","2","3","4","3","2","4","3","4","3","3","4","4","3","3","4","4","3","3","4","4","4","1","0","1","1","0","0","1","1","0","1","1","0","1","0","1","4","4","5","3","4","3","4","3","2","3","767710612724912129","任","666","","","","","","","","","","","","","","","","","","","","","","","","","","","","","","feedback_test","","","","","","","","","",""
"268","","f","psychophysics","183","338809","0.0-7.0-1.0-1.1-0.1-0.86","3","3","3","3","3","3","4","2","2","3","4","3","2","4","3","4","3","3","4","4","3","3","4","4","3","3","4","4","4","1","0","1","1","0","0","1","1","0","1","1","0","1","0","1","4","4","5","3","4","3","4","3","2","3","767710612724912129","任","666","","","","match","","","","","","","","","","","","","","key","f","16.666666666666668","840","521","j","false","nonmatch","img/triangle.png","六边","三角","ALT1_2","prac_ALT1_2","","","","","","","","","",""
"null","<span style='color:red; font-size: 70px;'>错误! </span>","null","html-keyboard-response","184","339313","0.0-7.0-1.0-1.1-0.1-1.86","3","3","3","3","3","3","4","2","2","3","4","3","2","4","3","4","3","3","4","4","3","3","4","4","3","3","4","4","4","1","0","1","1","0","0","1","1","0","1","1","0","1","0","1","4","4","5","3","4","3","4","3","2","3","767710612724912129","任","666","","","","","","","","","","","","","","","","","","","","","","","","","","","","","","feedback_test","","","","","","","","","",""
"339","","f","psychophysics","185","340657","0.0-7.0-1.0-1.1-0.1-0.87","3","3","3","3","3","3","4","2","2","3","4","3","2","4","3","4","3","3","4","4","3","3","4","4","3","3","4","4","4","1","0","1","1","0","0","1","1","0","1","1","0","1","0","1","4","4","5","3","4","3","4","3","2","3","767710612724912129","任","666","","","","match","","","","","","","","","","","","","","key","f","16.670886075949365","840","521","j","false","nonmatch","img/trapezoid.png","三角","梯形","ALT1_2","prac_ALT1_2","","","","","","","","","",""
"null","<span style='color:red; font-size: 70px;'>错误! </span>","null","html-keyboard-response","186","341159","0.0-7.0-1.0-1.1-0.1-1.87","3","3","3","3","3","3","4","2","2","3","4","3","2","4","3","4","3","3","4","4","3","3","4","4","3","3","4","4","4","1","0","1","1","0","0","1","1","0","1","1","0","1","0","1","4","4","5","3","4","3","4","3","2","3","767710612724912129","任","666","","","","","","","","","","","","","","","","","","","","","","","","","","","","","","feedback_test","","","","","","","","","",""
