"rt","stimulus","response","trial_type","trial_index","time_elapsed","internal_node_id","swb_1","swb_2","swb_3","swb_4","swb_5","LOT_1","LOT_2","LOT_3","LOT_4","LOT_5","LOT_6","IPC_1","IPC_2","IPC_3","IPC_4","IPC_5","IPC_6","IPC_7","IPC_8","MorIden_1","MorIden_2","MorIden_3","MorIden_4","MorIden_5","MorIden_6","MorIden_7","MorIden_8","MorIden_9","MorIden_10","moralSeImag_1","moralSeImag_2","moralSeImag_3","moralSeImag_4","moralSeImag_5","moralSeImag_6","moralSeImag_7","moralSeImag_8","moralSeImag_9","sde_1","sde_2","sde_3","sde_4","sde_5","sde_6","sde_7","sde_8","sde_9","sde_10","trap2","sde_11","sde_12","sde_13","sde_14","sde_15","sde_16","sde_17","sde_18","sde_19","sde_20","IM_1","IM_2","IM_3","IM_4","IM_5","IM_6","IM_7","IM_8","IM_9","IM_10","IM_11","IM_12","IM_13","IM_14","IM_15","IM_16","IM_17","IM_18","IM_19","IM_20","subj_idx","friend_name","ParticipantID","Sex","Word","Word2","value","success","timeout","failed_images","failed_audio","failed_video","user_agent","responses","item_order","radio_event_ids","radio_event_times","key_event_times","mouse_event_times","straightlining","zigzagging","honeypot","task_id","screen_id","time_stamp","response_type","key_press","avg_frame_time","center_x","center_y","person","word","valence","domain","math","correct_response","correct","status","view_history","identity","duration","Image","condition","question_order","trap2_item"
"7776","
   <p><div style='color:white; font-size: 25px'>您好，欢迎参加本次实验。</div></p>
   <p><div style='color:white; font-size: 25px'>为充分保障您的权利，请确保您已经知晓并同意《参与实验同意书》以及《数据公开知情同意书》。</div></p>
   <p><div style='color:white; font-size: 25px'>如果您未见过上述内容，请咨询实验员。</div></p>
   <p style='color:white; font-size: 25px'>如果您选择继续实验，则表示您已经清楚两份知情同意书的内容并同意。</p>
   <p><div style = ""color: pink;font-size:30px;"">请确保您记得day0的实验编号，您将在本次实验输入该编号，若您忘记，请咨询实验员后作答。</div></p>
   <p><div style = ""color:lightblue;font-size:25px;"">请您尽可能认真地作答，我们将依据您在各问卷和按键任务中的作答质量发放报酬。</div></p>
   <p> <div style = ""color: green""><按空格键至下页></div> </p>
   "," ","html-keyboard-response","0","7778","0.0-0.0","6","5","7","4","6","5","3","4","5","4","5","2","1","2","0","1","0","2","1","5","4","4","5","5","3","5","4","5","4","7","5","6","6","5","7","8","6","7","4","7","5","6","6","3","3","1","6","6","1","4","3","7","2","4","5","5","4","6","7","2","4","3","4","1","6","1","5","7","6","3","6","7","7","2","7","6","5","7","6","733820079237763073","潘","415","Female","[""坏我"",""好我"",""坏她"",""好她""]","[""弱我"",""强我"",""弱她"",""强她""]","","","","","","","","","","","","","","","","","","","","","","","","","","","","","","","","","","","","","","",""
"","","","call-function","1","7778","0.0-1.0-0.0","6","5","7","4","6","5","3","4","5","4","5","2","1","2","0","1","0","2","1","5","4","4","5","5","3","5","4","5","4","7","5","6","6","5","7","8","6","7","4","7","5","6","6","3","3","1","6","6","1","4","3","7","2","4","5","5","4","6","7","2","4","3","4","1","6","1","5","7","6","3","6","7","7","2","7","6","5","7","6","733820079237763073","潘","415","Female","[""坏我"",""好我"",""坏她"",""好她""]","[""弱我"",""强我"",""弱她"",""强她""]","","","","","","","","","","","","","","","","","","","","","","","","","","","","","","","","","","","","","","",""
"49627","","[{""name"":""Sex"",""value"":""1""},{""name"":""friend_name"",""value"":""潘""},{""name"":""ParticipantID"",""value"":""415""}]","survey-html-form","2","57406","0.0-1.0-1.0","6","5","7","4","6","5","3","4","5","4","5","2","1","2","0","1","0","2","1","5","4","4","5","5","3","5","4","5","4","7","5","6","6","5","7","8","6","7","4","7","5","6","6","3","3","1","6","6","1","4","3","7","2","4","5","5","4","6","7","2","4","3","4","1","6","1","5","7","6","3","6","7","7","2","7","6","5","7","6","733820079237763073","潘","415","Female","[""坏我"",""好我"",""坏她"",""好她""]","[""弱我"",""强我"",""弱她"",""强她""]","","","","","","","","","","","","","","","","","","","","","","","","","","","","","","","","","","","","","","",""
"","","","preload","3","58045","0.0-2.0","6","5","7","4","6","5","3","4","5","4","5","2","1","2","0","1","0","2","1","5","4","4","5","5","3","5","4","5","4","7","5","6","6","5","7","8","6","7","4","7","5","6","6","3","3","1","6","6","1","4","3","7","2","4","5","5","4","6","7","2","4","3","4","1","6","1","5","7","6","3","6","7","7","2","7","6","5","7","6","733820079237763073","潘","415","Female","[""坏我"",""好我"",""坏她"",""好她""]","[""弱我"",""强我"",""弱她"",""强她""]","","true","false","[]","[]","[]","","","","","","","","","","","","","","","","","","","","","","","","","","","","","","","","",""
"","","","fullscreen","4","62123","0.0-3.0","6","5","7","4","6","5","3","4","5","4","5","2","1","2","0","1","0","2","1","5","4","4","5","5","3","5","4","5","4","7","5","6","6","5","7","8","6","7","4","7","5","6","6","3","3","1","6","6","1","4","3","7","2","4","5","5","4","6","7","2","4","3","4","1","6","1","5","7","6","3","6","7","7","2","7","6","5","7","6","733820079237763073","潘","415","Female","[""坏我"",""好我"",""坏她"",""好她""]","[""弱我"",""强我"",""弱她"",""强她""]","","true","","","","","{}","","","","","","","","","","","","","","","","","","","","","","","","","","","","","","","",""
"18333.100000023842","","{""Q01"":""6"",""Q02"":""5"",""Q03"":""7"",""Q04"":""4"",""Q05"":""6""}","survey-template","5","80458","0.0-4.0","6","5","7","4","6","5","3","4","5","4","5","2","1","2","0","1","0","2","1","5","4","4","5","5","3","5","4","5","4","7","5","6","6","5","7","8","6","7","4","7","5","6","6","3","3","1","6","6","1","4","3","7","2","4","5","5","4","6","7","2","4","3","4","1","6","1","5","7","6","3","6","7","7","2","7","6","5","7","6","733820079237763073","潘","415","Female","[""坏我"",""好我"",""坏她"",""好她""]","[""弱我"",""强我"",""弱她"",""强她""]","","","","","","","","{""Q01"":""6"",""Q02"":""5"",""Q03"":""7"",""Q04"":""4"",""Q05"":""6""}","[0,1,2,3,4]","[""Q01"",""Q02"",""Q03"",""Q04"",""Q04"",""Q05""]","[1634,2434.100000023842,4066.2999999523163,5274.5,6146.600000023842,10243.100000023842]","[]","[1634,2434.100000023842,3450.2999999523163,4066.2999999523163,5274.5,6146.600000023842,10243.100000023842,18332.399999976158]","0.4","0.25","0","","","","","","","","","","","","","","","","","","","","","","",""
"23023.700000047684","","{""Q01"":""5"",""Q02"":""3"",""Q03"":""4"",""Q04"":""5"",""Q05"":""4"",""Q06"":""5""}","survey-template","6","103484","0.0-5.0","6","5","7","4","6","5","3","4","5","4","5","2","1","2","0","1","0","2","1","5","4","4","5","5","3","5","4","5","4","7","5","6","6","5","7","8","6","7","4","7","5","6","6","3","3","1","6","6","1","4","3","7","2","4","5","5","4","6","7","2","4","3","4","1","6","1","5","7","6","3","6","7","7","2","7","6","5","7","6","733820079237763073","潘","415","Female","[""坏我"",""好我"",""坏她"",""好她""]","[""弱我"",""强我"",""弱她"",""强她""]","","","","","","","","{""Q01"":""5"",""Q02"":""3"",""Q03"":""4"",""Q04"":""5"",""Q05"":""4"",""Q06"":""5""}","[0,1,2,3,4,5]","[""Q01"",""Q02"",""Q02"",""Q03"",""Q04"",""Q05"",""Q06""]","[2284.2999999523163,2964.2999999523163,7957.100000023842,9501.200000047684,12509.700000047684,14358,17742.399999976158]","[]","[2284.2999999523163,2964.2999999523163,7549,7957.100000023842,9501.200000047684,12509.700000047684,14358,17190.299999952316,17742.399999976158,23023.299999952316]","0.3333333333333333","0.4","0","","","","","","","","","","","","","","","","","","","","","","",""
"21376.100000023842","","{""Q01"":""2"",""Q02"":""1"",""Q03"":""2"",""Q04"":""0"",""Q05"":""1"",""Q06"":""0"",""Q07"":""2"",""Q08"":""1""}","survey-template","7","124864","0.0-6.0","6","5","7","4","6","5","3","4","5","4","5","2","1","2","0","1","0","2","1","5","4","4","5","5","3","5","4","5","4","7","5","6","6","5","7","8","6","7","4","7","5","6","6","3","3","1","6","6","1","4","3","7","2","4","5","5","4","6","7","2","4","3","4","1","6","1","5","7","6","3","6","7","7","2","7","6","5","7","6","733820079237763073","潘","415","Female","[""坏我"",""好我"",""坏她"",""好她""]","[""弱我"",""强我"",""弱她"",""强她""]","","","","","","","","{""Q01"":""2"",""Q02"":""1"",""Q03"":""2"",""Q04"":""0"",""Q05"":""1"",""Q06"":""0"",""Q07"":""2"",""Q08"":""1""}","[0,1,2,3,4,5,6,7]","[""Q01"",""Q01"",""Q02"",""Q03"",""Q04"",""Q05"",""Q06"",""Q07"",""Q08""]","[1884.6000000238419,2676.600000023842,3908.7999999523163,8645.5,10765.700000047684,12733.899999976158,14070.200000047684,17254.600000023842,17782.799999952316]","[]","[1884.6000000238419,2676.600000023842,3364.7999999523163,3908.7999999523163,8645.5,10765.700000047684,12733.899999976158,14070.200000047684,16334.799999952316,17254.600000023842,17782.799999952316,21375.299999952316]","0.375","0.7142857142857143","0","","","","","","","","","","","","","","","","","","","","","","",""
"29176","
    <p><div style='color:white;font-size:35px; line-height:20px;'>词汇评估任务</div></p><br>
    <p><div style='color:white;font-size:25px; line-height:20px;'>请再次回忆该亲密的朋友，你们至少2年前就认识了，并且最近2年经常见面。</div></p>
    <p><div style='color:white;font-size:25px; line-height:20px;'>在本实验中，您将会看到一些形容词。</div></p>
    <p><div style='color:yellow;font-size:25px; line-height:20px;'>您的任务是判断这些形容词是否符合对您自己或您的朋友的描述。</div></p><p style='font-size:35px'>符合按<span style=""color:lightgreen""> j 键</span>，不符合按<span style=""color:red""> f 键</span></p>","0","html-button-response","8","154043","0.0-7.0-0.0","6","5","7","4","6","5","3","4","5","4","5","2","1","2","0","1","0","2","1","5","4","4","5","5","3","5","4","5","4","7","5","6","6","5","7","8","6","7","4","7","5","6","6","3","3","1","6","6","1","4","3","7","2","4","5","5","4","6","7","2","4","3","4","1","6","1","5","7","6","3","6","7","7","2","7","6","5","7","6","733820079237763073","潘","415","Female","[""坏我"",""好我"",""坏她"",""好她""]","[""弱我"",""强我"",""弱她"",""强她""]","","","","","","","","","","","","","","","","","SRET_EW","EW_instructions","Sat Jan 20 2024 15:21:24 GMT+0800 (中国标准时间)","","","","","","","","","","","","","","","","","","","",""
"960","","f","psychophysics","9","156005","0.0-7.0-1.0-0.0","6","5","7","4","6","5","3","4","5","4","5","2","1","2","0","1","0","2","1","5","4","4","5","5","3","5","4","5","4","7","5","6","6","5","7","8","6","7","4","7","5","6","6","3","3","1","6","6","1","4","3","7","2","4","5","5","4","6","7","2","4","3","4","1","6","1","5","7","6","3","6","7","7","2","7","6","5","7","6","733820079237763073","潘","415","Female","[""坏我"",""好我"",""坏她"",""好她""]","[""弱我"",""强我"",""弱她"",""强她""]","","","","","","","","no","","","","","","","","","SRET_EW","EW_practice","","key","f","13.27074829931965","960","536","自己","刻板","Negative","ability","","","","","","","","","","",""
"null","","null","psychophysics","10","159007","0.0-7.0-1.0-0.1","6","5","7","4","6","5","3","4","5","4","5","2","1","2","0","1","0","2","1","5","4","4","5","5","3","5","4","5","4","7","5","6","6","5","7","8","6","7","4","7","5","6","6","3","3","1","6","6","1","4","3","7","2","4","5","5","4","6","7","2","4","3","4","1","6","1","5","7","6","3","6","7","7","2","7","6","5","7","6","733820079237763073","潘","415","Female","[""坏我"",""好我"",""坏她"",""好她""]","[""弱我"",""强我"",""弱她"",""强她""]","","","","","","","","","","","","","","","","","SRET_EW","EW_practice","","key","null","13.335714285714207","960","536","朋友","徇私","Negative","morality","","","","","","","","","","",""
"818","","j","psychophysics","11","160827","0.0-7.0-1.0-0.2","6","5","7","4","6","5","3","4","5","4","5","2","1","2","0","1","0","2","1","5","4","4","5","5","3","5","4","5","4","7","5","6","6","5","7","8","6","7","4","7","5","6","6","3","3","1","6","6","1","4","3","7","2","4","5","5","4","6","7","2","4","3","4","1","6","1","5","7","6","3","6","7","7","2","7","6","5","7","6","733820079237763073","潘","415","Female","[""坏我"",""好我"",""坏她"",""好她""]","[""弱我"",""强我"",""弱她"",""强她""]","","","","","","","","yes","","","","","","","","","SRET_EW","EW_practice","","key","j","13.335294117646887","960","536","自己","严谨","Positive","ability","","","","","","","","","","",""
"776","","j","psychophysics","12","162604","0.0-7.0-1.0-0.3","6","5","7","4","6","5","3","4","5","4","5","2","1","2","0","1","0","2","1","5","4","4","5","5","3","5","4","5","4","7","5","6","6","5","7","8","6","7","4","7","5","6","6","3","3","1","6","6","1","4","3","7","2","4","5","5","4","6","7","2","4","3","4","1","6","1","5","7","6","3","6","7","7","2","7","6","5","7","6","733820079237763073","潘","415","Female","[""坏我"",""好我"",""坏她"",""好她""]","[""弱我"",""强我"",""弱她"",""强她""]","","","","","","","","yes","","","","","","","","","SRET_EW","EW_practice","","key","j","13.335606060605972","960","536","朋友","忠实","Positive","morality","","","","","","","","","","",""
"7600","
    <p><div style='color:white;font-size:35px; line-height:20px;'>请您再次阅读实验要求</div></p><br>
    <p><div style='color:white;font-size:25px; line-height:20px;'>请回忆某一个亲密的朋友，你们至少2年前就认识了，并且最近2年经常见面。</div></p>
    <p><div style='color:white;font-size:25px; line-height:20px;'>在本实验中，您将会看到一些形容词。</div></p>
    <p><div style='color:yellow;font-size:25px; line-height:20px;'>您的任务是判断这些形容词是否符合对您自己或您的朋友的描述。</div></p>
    <p><div class='footer' style='font-size:25px; line-height:20px;'>如果对本实验还有不清楚之处，请立即向实验员咨询。</p><p style='font-size:25px; line-height:20px;'>如果您明白了规则：</p><p style='font-size:22px; line-height:20px;'>请按 继续 进入正式实验</p>
    </div>
    <p style='font-size:35px'>符合按<span style=""color:lightgreen""> j 键</span>，不符合按<span style=""color:red""> f 键</span></p>","0","html-button-response","13","170205","0.0-7.0-2.0","6","5","7","4","6","5","3","4","5","4","5","2","1","2","0","1","0","2","1","5","4","4","5","5","3","5","4","5","4","7","5","6","6","5","7","8","6","7","4","7","5","6","6","3","3","1","6","6","1","4","3","7","2","4","5","5","4","6","7","2","4","3","4","1","6","1","5","7","6","3","6","7","7","2","7","6","5","7","6","733820079237763073","潘","415","Female","[""坏我"",""好我"",""坏她"",""好她""]","[""弱我"",""强我"",""弱她"",""强她""]","","","","","","","","","","","","","","","","","SRET_EW","prac_instructions","Sat Jan 20 2024 15:21:24 GMT+0800 (中国标准时间)","","","","","","","","","","","","","","","","","","","",""
"694","","f","psychophysics","14","171901","0.0-7.0-3.0-0.0","6","5","7","4","6","5","3","4","5","4","5","2","1","2","0","1","0","2","1","5","4","4","5","5","3","5","4","5","4","7","5","6","6","5","7","8","6","7","4","7","5","6","6","3","3","1","6","6","1","4","3","7","2","4","5","5","4","6","7","2","4","3","4","1","6","1","5","7","6","3","6","7","7","2","7","6","5","7","6","733820079237763073","潘","415","Female","[""坏我"",""好我"",""坏她"",""好她""]","[""弱我"",""强我"",""弱她"",""强她""]","","","","","","","","no","","","","","","","","","SRET","EW_formal","","key","f","13.310236220472625","960","536","朋友","迷糊","Negative","ability","","","","","","","","","","",""
"655","","j","psychophysics","15","173556","0.0-7.0-3.0-0.1","6","5","7","4","6","5","3","4","5","4","5","2","1","2","0","1","0","2","1","5","4","4","5","5","3","5","4","5","4","7","5","6","6","5","7","8","6","7","4","7","5","6","6","3","3","1","6","6","1","4","3","7","2","4","5","5","4","6","7","2","4","3","4","1","6","1","5","7","6","3","6","7","7","2","7","6","5","7","6","733820079237763073","潘","415","Female","[""坏我"",""好我"",""坏她"",""好她""]","[""弱我"",""强我"",""弱她"",""强她""]","","","","","","","","yes","","","","","","","","","SRET","EW_formal","","key","j","13.335772357723483","960","536","自己","坚贞","Positive","morality","","","","","","","","","","",""
"864","","j","psychophysics","16","175422","0.0-7.0-3.0-0.2","6","5","7","4","6","5","3","4","5","4","5","2","1","2","0","1","0","2","1","5","4","4","5","5","3","5","4","5","4","7","5","6","6","5","7","8","6","7","4","7","5","6","6","3","3","1","6","6","1","4","3","7","2","4","5","5","4","6","7","2","4","3","4","1","6","1","5","7","6","3","6","7","7","2","7","6","5","7","6","733820079237763073","潘","415","Female","[""坏我"",""好我"",""坏她"",""好她""]","[""弱我"",""强我"",""弱她"",""强她""]","","","","","","","","yes","","","","","","","","","SRET","EW_formal","","key","j","13.335251798561194","960","536","朋友","务实","Positive","ability","","","","","","","","","","",""
"974","","j","psychophysics","17","177397","0.0-7.0-3.0-0.3","6","5","7","4","6","5","3","4","5","4","5","2","1","2","0","1","0","2","1","5","4","4","5","5","3","5","4","5","4","7","5","6","6","5","7","8","6","7","4","7","5","6","6","3","3","1","6","6","1","4","3","7","2","4","5","5","4","6","7","2","4","3","4","1","6","1","5","7","6","3","6","7","7","2","7","6","5","7","6","733820079237763073","潘","415","Female","[""坏我"",""好我"",""坏她"",""好她""]","[""弱我"",""强我"",""弱她"",""强她""]","","","","","","","","yes","","","","","","","","","SRET","EW_formal","","key","j","13.334693877550901","960","536","自己","说谎","Negative","morality","","","","","","","","","","",""
"781","","j","psychophysics","18","179180","0.0-7.0-3.0-0.4","6","5","7","4","6","5","3","4","5","4","5","2","1","2","0","1","0","2","1","5","4","4","5","5","3","5","4","5","4","7","5","6","6","5","7","8","6","7","4","7","5","6","6","3","3","1","6","6","1","4","3","7","2","4","5","5","4","6","7","2","4","3","4","1","6","1","5","7","6","3","6","7","7","2","7","6","5","7","6","733820079237763073","潘","415","Female","[""坏我"",""好我"",""坏她"",""好她""]","[""弱我"",""强我"",""弱她"",""强她""]","","","","","","","","yes","","","","","","","","","SRET","EW_formal","","key","j","13.334586466165414","960","536","朋友","果断","Positive","ability","","","","","","","","","","",""
"624","","j","psychophysics","19","180805","0.0-7.0-3.0-0.5","6","5","7","4","6","5","3","4","5","4","5","2","1","2","0","1","0","2","1","5","4","4","5","5","3","5","4","5","4","7","5","6","6","5","7","8","6","7","4","7","5","6","6","3","3","1","6","6","1","4","3","7","2","4","5","5","4","6","7","2","4","3","4","1","6","1","5","7","6","3","6","7","7","2","7","6","5","7","6","733820079237763073","潘","415","Female","[""坏我"",""好我"",""坏她"",""好她""]","[""弱我"",""强我"",""弱她"",""强她""]","","","","","","","","yes","","","","","","","","","SRET","EW_formal","","key","j","13.335537190082452","960","536","朋友","忠良","Positive","morality","","","","","","","","","","",""
"663","","j","psychophysics","20","182469","0.0-7.0-3.0-0.6","6","5","7","4","6","5","3","4","5","4","5","2","1","2","0","1","0","2","1","5","4","4","5","5","3","5","4","5","4","7","5","6","6","5","7","8","6","7","4","7","5","6","6","3","3","1","6","6","1","4","3","7","2","4","5","5","4","6","7","2","4","3","4","1","6","1","5","7","6","3","6","7","7","2","7","6","5","7","6","733820079237763073","潘","415","Female","[""坏我"",""好我"",""坏她"",""好她""]","[""弱我"",""强我"",""弱她"",""强她""]","","","","","","","","yes","","","","","","","","","SRET","EW_formal","","key","j","13.334677419354838","960","536","自己","仁爱","Positive","morality","","","","","","","","","","",""
"906","","j","psychophysics","21","184376","0.0-7.0-3.0-0.7","6","5","7","4","6","5","3","4","5","4","5","2","1","2","0","1","0","2","1","5","4","4","5","5","3","5","4","5","4","7","5","6","6","5","7","8","6","7","4","7","5","6","6","3","3","1","6","6","1","4","3","7","2","4","5","5","4","6","7","2","4","3","4","1","6","1","5","7","6","3","6","7","7","2","7","6","5","7","6","733820079237763073","潘","415","Female","[""坏我"",""好我"",""坏她"",""好她""]","[""弱我"",""强我"",""弱她"",""强她""]","","","","","","","","yes","","","","","","","","","SRET","EW_formal","","key","j","13.335211267605676","960","536","自己","拖延","Negative","ability","","","","","","","","","","",""
"690","","j","psychophysics","22","186067","0.0-7.0-3.0-0.8","6","5","7","4","6","5","3","4","5","4","5","2","1","2","0","1","0","2","1","5","4","4","5","5","3","5","4","5","4","7","5","6","6","5","7","8","6","7","4","7","5","6","6","3","3","1","6","6","1","4","3","7","2","4","5","5","4","6","7","2","4","3","4","1","6","1","5","7","6","3","6","7","7","2","7","6","5","7","6","733820079237763073","潘","415","Female","[""坏我"",""好我"",""坏她"",""好她""]","[""弱我"",""强我"",""弱她"",""强她""]","","","","","","","","yes","","","","","","","","","SRET","EW_formal","","key","j","13.33412698412703","960","536","自己","独立","Positive","ability","","","","","","","","","","",""
"1052","","j","psychophysics","23","188120","0.0-7.0-3.0-0.9","6","5","7","4","6","5","3","4","5","4","5","2","1","2","0","1","0","2","1","5","4","4","5","5","3","5","4","5","4","7","5","6","6","5","7","8","6","7","4","7","5","6","6","3","3","1","6","6","1","4","3","7","2","4","5","5","4","6","7","2","4","3","4","1","6","1","5","7","6","3","6","7","7","2","7","6","5","7","6","733820079237763073","潘","415","Female","[""坏我"",""好我"",""坏她"",""好她""]","[""弱我"",""强我"",""弱她"",""强她""]","","","","","","","","yes","","","","","","","","","SRET","EW_formal","","key","j","13.334640522875702","960","536","朋友","文明","Positive","morality","","","","","","","","","","",""
"1056","","f","psychophysics","24","190178","0.0-7.0-3.0-0.10","6","5","7","4","6","5","3","4","5","4","5","2","1","2","0","1","0","2","1","5","4","4","5","5","3","5","4","5","4","7","5","6","6","5","7","8","6","7","4","7","5","6","6","3","3","1","6","6","1","4","3","7","2","4","5","5","4","6","7","2","4","3","4","1","6","1","5","7","6","3","6","7","7","2","7","6","5","7","6","733820079237763073","潘","415","Female","[""坏我"",""好我"",""坏她"",""好她""]","[""弱我"",""强我"",""弱她"",""强她""]","","","","","","","","no","","","","","","","","","SRET","EW_formal","","key","f","13.335294117646983","960","536","朋友","狡诈","Negative","morality","","","","","","","","","","",""
"685","","j","psychophysics","25","191864","0.0-7.0-3.0-0.11","6","5","7","4","6","5","3","4","5","4","5","2","1","2","0","1","0","2","1","5","4","4","5","5","3","5","4","5","4","7","5","6","6","5","7","8","6","7","4","7","5","6","6","3","3","1","6","6","1","4","3","7","2","4","5","5","4","6","7","2","4","3","4","1","6","1","5","7","6","3","6","7","7","2","7","6","5","7","6","733820079237763073","潘","415","Female","[""坏我"",""好我"",""坏她"",""好她""]","[""弱我"",""强我"",""弱她"",""强她""]","","","","","","","","yes","","","","","","","","","SRET","EW_formal","","key","j","13.336","960","536","朋友","稳健","Positive","ability","","","","","","","","","","",""
"624","","j","psychophysics","26","193490","0.0-7.0-3.0-0.12","6","5","7","4","6","5","3","4","5","4","5","2","1","2","0","1","0","2","1","5","4","4","5","5","3","5","4","5","4","7","5","6","6","5","7","8","6","7","4","7","5","6","6","3","3","1","6","6","1","4","3","7","2","4","5","5","4","6","7","2","4","3","4","1","6","1","5","7","6","3","6","7","7","2","7","6","5","7","6","733820079237763073","潘","415","Female","[""坏我"",""好我"",""坏她"",""好她""]","[""弱我"",""强我"",""弱她"",""强她""]","","","","","","","","yes","","","","","","","","","SRET","EW_formal","","key","j","13.335537190082693","960","536","自己","忠诚","Positive","morality","","","","","","","","","","",""
"594","","j","psychophysics","27","195085","0.0-7.0-3.0-0.13","6","5","7","4","6","5","3","4","5","4","5","2","1","2","0","1","0","2","1","5","4","4","5","5","3","5","4","5","4","7","5","6","6","5","7","8","6","7","4","7","5","6","6","3","3","1","6","6","1","4","3","7","2","4","5","5","4","6","7","2","4","3","4","1","6","1","5","7","6","3","6","7","7","2","7","6","5","7","6","733820079237763073","潘","415","Female","[""坏我"",""好我"",""坏她"",""好她""]","[""弱我"",""强我"",""弱她"",""强她""]","","","","","","","","yes","","","","","","","","","SRET","EW_formal","","key","j","13.334453781512508","960","536","自己","扎实","Positive","ability","","","","","","","","","","",""
"745","","f","psychophysics","28","196831","0.0-7.0-3.0-0.14","6","5","7","4","6","5","3","4","5","4","5","2","1","2","0","1","0","2","1","5","4","4","5","5","3","5","4","5","4","7","5","6","6","5","7","8","6","7","4","7","5","6","6","3","3","1","6","6","1","4","3","7","2","4","5","5","4","6","7","2","4","3","4","1","6","1","5","7","6","3","6","7","7","2","7","6","5","7","6","733820079237763073","潘","415","Female","[""坏我"",""好我"",""坏她"",""好她""]","[""弱我"",""强我"",""弱她"",""强她""]","","","","","","","","no","","","","","","","","","SRET","EW_formal","","key","f","13.335384615384436","960","536","自己","缺德","Negative","morality","","","","","","","","","","",""
"884","","f","psychophysics","29","198724","0.0-7.0-3.0-0.15","6","5","7","4","6","5","3","4","5","4","5","2","1","2","0","1","0","2","1","5","4","4","5","5","3","5","4","5","4","7","5","6","6","5","7","8","6","7","4","7","5","6","6","3","3","1","6","6","1","4","3","7","2","4","5","5","4","6","7","2","4","3","4","1","6","1","5","7","6","3","6","7","7","2","7","6","5","7","6","733820079237763073","潘","415","Female","[""坏我"",""好我"",""坏她"",""好她""]","[""弱我"",""强我"",""弱她"",""强她""]","","","","","","","","no","","","","","","","","","SRET","EW_formal","","key","f","13.33404255319153","960","536","朋友","无知","Negative","ability","","","","","","","","","","",""
"1285","","f","psychophysics","30","201011","0.0-7.0-3.0-0.16","6","5","7","4","6","5","3","4","5","4","5","2","1","2","0","1","0","2","1","5","4","4","5","5","3","5","4","5","4","7","5","6","6","5","7","8","6","7","4","7","5","6","6","3","3","1","6","6","1","4","3","7","2","4","5","5","4","6","7","2","4","3","4","1","6","1","5","7","6","3","6","7","7","2","7","6","5","7","6","733820079237763073","潘","415","Female","[""坏我"",""好我"",""坏她"",""好她""]","[""弱我"",""强我"",""弱她"",""强她""]","","","","","","","","no","","","","","","","","","SRET","EW_formal","","key","f","13.33588235294104","960","536","自己","盲目","Negative","ability","","","","","","","","","","",""
"713","","f","psychophysics","31","202725","0.0-7.0-3.0-0.17","6","5","7","4","6","5","3","4","5","4","5","2","1","2","0","1","0","2","1","5","4","4","5","5","3","5","4","5","4","7","5","6","6","5","7","8","6","7","4","7","5","6","6","3","3","1","6","6","1","4","3","7","2","4","5","5","4","6","7","2","4","3","4","1","6","1","5","7","6","3","6","7","7","2","7","6","5","7","6","733820079237763073","潘","415","Female","[""坏我"",""好我"",""坏她"",""好她""]","[""弱我"",""强我"",""弱她"",""强她""]","","","","","","","","no","","","","","","","","","SRET","EW_formal","","key","f","13.335156249999955","960","536","自己","无耻","Negative","morality","","","","","","","","","","",""
"902","","j","psychophysics","32","204628","0.0-7.0-3.0-0.18","6","5","7","4","6","5","3","4","5","4","5","2","1","2","0","1","0","2","1","5","4","4","5","5","3","5","4","5","4","7","5","6","6","5","7","8","6","7","4","7","5","6","6","3","3","1","6","6","1","4","3","7","2","4","5","5","4","6","7","2","4","3","4","1","6","1","5","7","6","3","6","7","7","2","7","6","5","7","6","733820079237763073","潘","415","Female","[""坏我"",""好我"",""坏她"",""好她""]","[""弱我"",""强我"",""弱她"",""强她""]","","","","","","","","yes","","","","","","","","","SRET","EW_formal","","key","j","13.334507042253522","960","536","自己","清廉","Positive","morality","","","","","","","","","","",""
"880","","f","psychophysics","33","206510","0.0-7.0-3.0-0.19","6","5","7","4","6","5","3","4","5","4","5","2","1","2","0","1","0","2","1","5","4","4","5","5","3","5","4","5","4","7","5","6","6","5","7","8","6","7","4","7","5","6","6","3","3","1","6","6","1","4","3","7","2","4","5","5","4","6","7","2","4","3","4","1","6","1","5","7","6","3","6","7","7","2","7","6","5","7","6","733820079237763073","潘","415","Female","[""坏我"",""好我"",""坏她"",""好她""]","[""弱我"",""强我"",""弱她"",""强她""]","","","","","","","","no","","","","","","","","","SRET","EW_formal","","key","f","13.334999999999958","960","536","自己","屈才","Negative","ability","","","","","","","","","","",""
"712","","f","psychophysics","34","208223","0.0-7.0-3.0-0.20","6","5","7","4","6","5","3","4","5","4","5","2","1","2","0","1","0","2","1","5","4","4","5","5","3","5","4","5","4","7","5","6","6","5","7","8","6","7","4","7","5","6","6","3","3","1","6","6","1","4","3","7","2","4","5","5","4","6","7","2","4","3","4","1","6","1","5","7","6","3","6","7","7","2","7","6","5","7","6","733820079237763073","潘","415","Female","[""坏我"",""好我"",""坏她"",""好她""]","[""弱我"",""强我"",""弱她"",""强她""]","","","","","","","","no","","","","","","","","","SRET","EW_formal","","key","f","13.336220472440807","960","536","自己","奸诈","Negative","morality","","","","","","","","","","",""
"741","","f","psychophysics","35","209965","0.0-7.0-3.0-0.21","6","5","7","4","6","5","3","4","5","4","5","2","1","2","0","1","0","2","1","5","4","4","5","5","3","5","4","5","4","7","5","6","6","5","7","8","6","7","4","7","5","6","6","3","3","1","6","6","1","4","3","7","2","4","5","5","4","6","7","2","4","3","4","1","6","1","5","7","6","3","6","7","7","2","7","6","5","7","6","733820079237763073","潘","415","Female","[""坏我"",""好我"",""坏她"",""好她""]","[""弱我"",""强我"",""弱她"",""强她""]","","","","","","","","no","","","","","","","","","SRET","EW_formal","","key","f","13.334615384615384","960","536","自己","无能","Negative","ability","","","","","","","","","","",""
"806","","f","psychophysics","36","211772","0.0-7.0-3.0-0.22","6","5","7","4","6","5","3","4","5","4","5","2","1","2","0","1","0","2","1","5","4","4","5","5","3","5","4","5","4","7","5","6","6","5","7","8","6","7","4","7","5","6","6","3","3","1","6","6","1","4","3","7","2","4","5","5","4","6","7","2","4","3","4","1","6","1","5","7","6","3","6","7","7","2","7","6","5","7","6","733820079237763073","潘","415","Female","[""坏我"",""好我"",""坏她"",""好她""]","[""弱我"",""强我"",""弱她"",""强她""]","","","","","","","","no","","","","","","","","","SRET","EW_formal","","key","f","13.335820895522389","960","536","朋友","废物","Negative","ability","","","","","","","","","","",""
"958","","j","psychophysics","37","213731","0.0-7.0-3.0-0.23","6","5","7","4","6","5","3","4","5","4","5","2","1","2","0","1","0","2","1","5","4","4","5","5","3","5","4","5","4","7","5","6","6","5","7","8","6","7","4","7","5","6","6","3","3","1","6","6","1","4","3","7","2","4","5","5","4","6","7","2","4","3","4","1","6","1","5","7","6","3","6","7","7","2","7","6","5","7","6","733820079237763073","潘","415","Female","[""坏我"",""好我"",""坏她"",""好她""]","[""弱我"",""强我"",""弱她"",""强她""]","","","","","","","","yes","","","","","","","","","SRET","EW_formal","","key","j","13.334931506849475","960","536","自己","毛糙","Negative","ability","","","","","","","","","","",""
"861","","j","psychophysics","38","215593","0.0-7.0-3.0-0.24","6","5","7","4","6","5","3","4","5","4","5","2","1","2","0","1","0","2","1","5","4","4","5","5","3","5","4","5","4","7","5","6","6","5","7","8","6","7","4","7","5","6","6","3","3","1","6","6","1","4","3","7","2","4","5","5","4","6","7","2","4","3","4","1","6","1","5","7","6","3","6","7","7","2","7","6","5","7","6","733820079237763073","潘","415","Female","[""坏我"",""好我"",""坏她"",""好她""]","[""弱我"",""强我"",""弱她"",""强她""]","","","","","","","","yes","","","","","","","","","SRET","EW_formal","","key","j","13.335251798561194","960","536","朋友","利落","Positive","ability","","","","","","","","","","",""
"1035","","j","psychophysics","39","217629","0.0-7.0-3.0-0.25","6","5","7","4","6","5","3","4","5","4","5","2","1","2","0","1","0","2","1","5","4","4","5","5","3","5","4","5","4","7","5","6","6","5","7","8","6","7","4","7","5","6","6","3","3","1","6","6","1","4","3","7","2","4","5","5","4","6","7","2","4","3","4","1","6","1","5","7","6","3","6","7","7","2","7","6","5","7","6","733820079237763073","潘","415","Female","[""坏我"",""好我"",""坏她"",""好她""]","[""弱我"",""强我"",""弱她"",""强她""]","","","","","","","","yes","","","","","","","","","SRET","EW_formal","","key","j","13.335099337748384","960","536","朋友","忠义","Positive","morality","","","","","","","","","","",""
"738","","j","psychophysics","40","219368","0.0-7.0-3.0-0.26","6","5","7","4","6","5","3","4","5","4","5","2","1","2","0","1","0","2","1","5","4","4","5","5","3","5","4","5","4","7","5","6","6","5","7","8","6","7","4","7","5","6","6","3","3","1","6","6","1","4","3","7","2","4","5","5","4","6","7","2","4","3","4","1","6","1","5","7","6","3","6","7","7","2","7","6","5","7","6","733820079237763073","潘","415","Female","[""坏我"",""好我"",""坏她"",""好她""]","[""弱我"",""强我"",""弱她"",""强她""]","","","","","","","","yes","","","","","","","","","SRET","EW_formal","","key","j","13.33538461538466","960","536","自己","守信","Positive","morality","","","","","","","","","","",""
"870","","f","psychophysics","41","221239","0.0-7.0-3.0-0.27","6","5","7","4","6","5","3","4","5","4","5","2","1","2","0","1","0","2","1","5","4","4","5","5","3","5","4","5","4","7","5","6","6","5","7","8","6","7","4","7","5","6","6","3","3","1","6","6","1","4","3","7","2","4","5","5","4","6","7","2","4","3","4","1","6","1","5","7","6","3","6","7","7","2","7","6","5","7","6","733820079237763073","潘","415","Female","[""坏我"",""好我"",""坏她"",""好她""]","[""弱我"",""强我"",""弱她"",""强她""]","","","","","","","","no","","","","","","","","","SRET","EW_formal","","key","f","13.335971223021666","960","536","朋友","狡狯","Negative","morality","","","","","","","","","","",""
"756","","j","psychophysics","42","222997","0.0-7.0-3.0-0.28","6","5","7","4","6","5","3","4","5","4","5","2","1","2","0","1","0","2","1","5","4","4","5","5","3","5","4","5","4","7","5","6","6","5","7","8","6","7","4","7","5","6","6","3","3","1","6","6","1","4","3","7","2","4","5","5","4","6","7","2","4","3","4","1","6","1","5","7","6","3","6","7","7","2","7","6","5","7","6","733820079237763073","潘","415","Female","[""坏我"",""好我"",""坏她"",""好她""]","[""弱我"",""强我"",""弱她"",""强她""]","","","","","","","","yes","","","","","","","","","SRET","EW_formal","","key","j","13.33435114503808","960","536","自己","义气","Positive","morality","","","","","","","","","","",""
"699","","f","psychophysics","43","224697","0.0-7.0-3.0-0.29","6","5","7","4","6","5","3","4","5","4","5","2","1","2","0","1","0","2","1","5","4","4","5","5","3","5","4","5","4","7","5","6","6","5","7","8","6","7","4","7","5","6","6","3","3","1","6","6","1","4","3","7","2","4","5","5","4","6","7","2","4","3","4","1","6","1","5","7","6","3","6","7","7","2","7","6","5","7","6","733820079237763073","潘","415","Female","[""坏我"",""好我"",""坏她"",""好她""]","[""弱我"",""强我"",""弱她"",""强她""]","","","","","","","","no","","","","","","","","","SRET","EW_formal","","key","f","13.334920634920497","960","536","朋友","愚蠢","Negative","ability","","","","","","","","","","",""
"897","","f","psychophysics","44","226595","0.0-7.0-3.0-0.30","6","5","7","4","6","5","3","4","5","4","5","2","1","2","0","1","0","2","1","5","4","4","5","5","3","5","4","5","4","7","5","6","6","5","7","8","6","7","4","7","5","6","6","3","3","1","6","6","1","4","3","7","2","4","5","5","4","6","7","2","4","3","4","1","6","1","5","7","6","3","6","7","7","2","7","6","5","7","6","733820079237763073","潘","415","Female","[""坏我"",""好我"",""坏她"",""好她""]","[""弱我"",""强我"",""弱她"",""强她""]","","","","","","","","no","","","","","","","","","SRET","EW_formal","","key","f","13.334507042253522","960","536","自己","罪恶","Negative","morality","","","","","","","","","","",""
"955","","f","psychophysics","45","228551","0.0-7.0-3.0-0.31","6","5","7","4","6","5","3","4","5","4","5","2","1","2","0","1","0","2","1","5","4","4","5","5","3","5","4","5","4","7","5","6","6","5","7","8","6","7","4","7","5","6","6","3","3","1","6","6","1","4","3","7","2","4","5","5","4","6","7","2","4","3","4","1","6","1","5","7","6","3","6","7","7","2","7","6","5","7","6","733820079237763073","潘","415","Female","[""坏我"",""好我"",""坏她"",""好她""]","[""弱我"",""强我"",""弱她"",""强她""]","","","","","","","","no","","","","","","","","","SRET","EW_formal","","key","f","13.33448275862069","960","536","自己","驽钝","Negative","ability","","","","","","","","","","",""
"1382","","f","psychophysics","46","230934","0.0-7.0-3.0-0.32","6","5","7","4","6","5","3","4","5","4","5","2","1","2","0","1","0","2","1","5","4","4","5","5","3","5","4","5","4","7","5","6","6","5","7","8","6","7","4","7","5","6","6","3","3","1","6","6","1","4","3","7","2","4","5","5","4","6","7","2","4","3","4","1","6","1","5","7","6","3","6","7","7","2","7","6","5","7","6","733820079237763073","潘","415","Female","[""坏我"",""好我"",""坏她"",""好她""]","[""弱我"",""强我"",""弱她"",""强她""]","","","","","","","","no","","","","","","","","","SRET","EW_formal","","key","f","13.33595505617971","960","536","朋友","浅薄","Negative","ability","","","","","","","","","","",""
"1085","","f","psychophysics","47","233020","0.0-7.0-3.0-0.33","6","5","7","4","6","5","3","4","5","4","5","2","1","2","0","1","0","2","1","5","4","4","5","5","3","5","4","5","4","7","5","6","6","5","7","8","6","7","4","7","5","6","6","3","3","1","6","6","1","4","3","7","2","4","5","5","4","6","7","2","4","3","4","1","6","1","5","7","6","3","6","7","7","2","7","6","5","7","6","733820079237763073","潘","415","Female","[""坏我"",""好我"",""坏她"",""好她""]","[""弱我"",""强我"",""弱她"",""强她""]","","","","","","","","no","","","","","","","","","SRET","EW_formal","","key","f","13.335256410256335","960","536","自己","奸险","Negative","morality","","","","","","","","","","",""
"779","","f","psychophysics","48","234800","0.0-7.0-3.0-0.34","6","5","7","4","6","5","3","4","5","4","5","2","1","2","0","1","0","2","1","5","4","4","5","5","3","5","4","5","4","7","5","6","6","5","7","8","6","7","4","7","5","6","6","3","3","1","6","6","1","4","3","7","2","4","5","5","4","6","7","2","4","3","4","1","6","1","5","7","6","3","6","7","7","2","7","6","5","7","6","733820079237763073","潘","415","Female","[""坏我"",""好我"",""坏她"",""好她""]","[""弱我"",""强我"",""弱她"",""强她""]","","","","","","","","no","","","","","","","","","SRET","EW_formal","","key","f","13.334848484848573","960","536","朋友","小人","Negative","morality","","","","","","","","","","",""
"793","","f","psychophysics","49","236593","0.0-7.0-3.0-0.35","6","5","7","4","6","5","3","4","5","4","5","2","1","2","0","1","0","2","1","5","4","4","5","5","3","5","4","5","4","7","5","6","6","5","7","8","6","7","4","7","5","6","6","3","3","1","6","6","1","4","3","7","2","4","5","5","4","6","7","2","4","3","4","1","6","1","5","7","6","3","6","7","7","2","7","6","5","7","6","733820079237763073","潘","415","Female","[""坏我"",""好我"",""坏她"",""好她""]","[""弱我"",""强我"",""弱她"",""强她""]","","","","","","","","no","","","","","","","","","SRET","EW_formal","","key","f","13.335074626865628","960","536","朋友","短视","Negative","ability","","","","","","","","","","",""
"842","","j","psychophysics","50","238437","0.0-7.0-3.0-0.36","6","5","7","4","6","5","3","4","5","4","5","2","1","2","0","1","0","2","1","5","4","4","5","5","3","5","4","5","4","7","5","6","6","5","7","8","6","7","4","7","5","6","6","3","3","1","6","6","1","4","3","7","2","4","5","5","4","6","7","2","4","3","4","1","6","1","5","7","6","3","6","7","7","2","7","6","5","7","6","733820079237763073","潘","415","Female","[""坏我"",""好我"",""坏她"",""好她""]","[""弱我"",""强我"",""弱她"",""强她""]","","","","","","","","yes","","","","","","","","","SRET","EW_formal","","key","j","13.335036496350535","960","536","自己","敬业","Positive","morality","","","","","","","","","","",""
"767","","j","psychophysics","51","240205","0.0-7.0-3.0-0.37","6","5","7","4","6","5","3","4","5","4","5","2","1","2","0","1","0","2","1","5","4","4","5","5","3","5","4","5","4","7","5","6","6","5","7","8","6","7","4","7","5","6","6","3","3","1","6","6","1","4","3","7","2","4","5","5","4","6","7","2","4","3","4","1","6","1","5","7","6","3","6","7","7","2","7","6","5","7","6","733820079237763073","潘","415","Female","[""坏我"",""好我"",""坏她"",""好她""]","[""弱我"",""强我"",""弱她"",""强她""]","","","","","","","","yes","","","","","","","","","SRET","EW_formal","","key","j","13.33511450381675","960","536","自己","勤奋","Positive","ability","","","","","","","","","","",""
"690","","j","psychophysics","52","241897","0.0-7.0-3.0-0.38","6","5","7","4","6","5","3","4","5","4","5","2","1","2","0","1","0","2","1","5","4","4","5","5","3","5","4","5","4","7","5","6","6","5","7","8","6","7","4","7","5","6","6","3","3","1","6","6","1","4","3","7","2","4","5","5","4","6","7","2","4","3","4","1","6","1","5","7","6","3","6","7","7","2","7","6","5","7","6","733820079237763073","潘","415","Female","[""坏我"",""好我"",""坏她"",""好她""]","[""弱我"",""强我"",""弱她"",""强她""]","","","","","","","","yes","","","","","","","","","SRET","EW_formal","","key","j","13.33412698412703","960","536","朋友","宽容","Positive","morality","","","","","","","","","","",""
"647","","j","psychophysics","53","243545","0.0-7.0-3.0-0.39","6","5","7","4","6","5","3","4","5","4","5","2","1","2","0","1","0","2","1","5","4","4","5","5","3","5","4","5","4","7","5","6","6","5","7","8","6","7","4","7","5","6","6","3","3","1","6","6","1","4","3","7","2","4","5","5","4","6","7","2","4","3","4","1","6","1","5","7","6","3","6","7","7","2","7","6","5","7","6","733820079237763073","潘","415","Female","[""坏我"",""好我"",""坏她"",""好她""]","[""弱我"",""强我"",""弱她"",""强她""]","","","","","","","","yes","","","","","","","","","SRET","EW_formal","","key","j","13.334146341463462","960","536","自己","坚持","Positive","ability","","","","","","","","","","",""
"934","","j","psychophysics","54","245479","0.0-7.0-3.0-0.40","6","5","7","4","6","5","3","4","5","4","5","2","1","2","0","1","0","2","1","5","4","4","5","5","3","5","4","5","4","7","5","6","6","5","7","8","6","7","4","7","5","6","6","3","3","1","6","6","1","4","3","7","2","4","5","5","4","6","7","2","4","3","4","1","6","1","5","7","6","3","6","7","7","2","7","6","5","7","6","733820079237763073","潘","415","Female","[""坏我"",""好我"",""坏她"",""好她""]","[""弱我"",""强我"",""弱她"",""强她""]","","","","","","","","yes","","","","","","","","","SRET","EW_formal","","key","j","13.334722222222304","960","536","自己","远见","Positive","ability","","","","","","","","","","",""
"897","","j","psychophysics","55","247377","0.0-7.0-3.0-0.41","6","5","7","4","6","5","3","4","5","4","5","2","1","2","0","1","0","2","1","5","4","4","5","5","3","5","4","5","4","7","5","6","6","5","7","8","6","7","4","7","5","6","6","3","3","1","6","6","1","4","3","7","2","4","5","5","4","6","7","2","4","3","4","1","6","1","5","7","6","3","6","7","7","2","7","6","5","7","6","733820079237763073","潘","415","Female","[""坏我"",""好我"",""坏她"",""好她""]","[""弱我"",""强我"",""弱她"",""强她""]","","","","","","","","yes","","","","","","","","","SRET","EW_formal","","key","j","13.335460992907718","960","536","自己","淡泊","Positive","morality","","","","","","","","","","",""
"655","","j","psychophysics","56","249033","0.0-7.0-3.0-0.42","6","5","7","4","6","5","3","4","5","4","5","2","1","2","0","1","0","2","1","5","4","4","5","5","3","5","4","5","4","7","5","6","6","5","7","8","6","7","4","7","5","6","6","3","3","1","6","6","1","4","3","7","2","4","5","5","4","6","7","2","4","3","4","1","6","1","5","7","6","3","6","7","7","2","7","6","5","7","6","733820079237763073","潘","415","Female","[""坏我"",""好我"",""坏她"",""好她""]","[""弱我"",""强我"",""弱她"",""强她""]","","","","","","","","yes","","","","","","","","","SRET","EW_formal","","key","j","13.334959349593591","960","536","朋友","利己","Negative","morality","","","","","","","","","","",""
"641","","j","psychophysics","57","250676","0.0-7.0-3.0-0.43","6","5","7","4","6","5","3","4","5","4","5","2","1","2","0","1","0","2","1","5","4","4","5","5","3","5","4","5","4","7","5","6","6","5","7","8","6","7","4","7","5","6","6","3","3","1","6","6","1","4","3","7","2","4","5","5","4","6","7","2","4","3","4","1","6","1","5","7","6","3","6","7","7","2","7","6","5","7","6","733820079237763073","潘","415","Female","[""坏我"",""好我"",""坏她"",""好她""]","[""弱我"",""强我"",""弱她"",""强她""]","","","","","","","","yes","","","","","","","","","SRET","EW_formal","","key","j","13.33577235772372","960","536","自己","努力","Positive","ability","","","","","","","","","","",""
"698","","j","psychophysics","58","252375","0.0-7.0-3.0-0.44","6","5","7","4","6","5","3","4","5","4","5","2","1","2","0","1","0","2","1","5","4","4","5","5","3","5","4","5","4","7","5","6","6","5","7","8","6","7","4","7","5","6","6","3","3","1","6","6","1","4","3","7","2","4","5","5","4","6","7","2","4","3","4","1","6","1","5","7","6","3","6","7","7","2","7","6","5","7","6","733820079237763073","潘","415","Female","[""坏我"",""好我"",""坏她"",""好她""]","[""弱我"",""强我"",""弱她"",""强她""]","","","","","","","","yes","","","","","","","","","SRET","EW_formal","","key","j","13.335714285714424","960","536","朋友","热心","Positive","morality","","","","","","","","","","",""
"922","","j","psychophysics","59","254298","0.0-7.0-3.0-0.45","6","5","7","4","6","5","3","4","5","4","5","2","1","2","0","1","0","2","1","5","4","4","5","5","3","5","4","5","4","7","5","6","6","5","7","8","6","7","4","7","5","6","6","3","3","1","6","6","1","4","3","7","2","4","5","5","4","6","7","2","4","3","4","1","6","1","5","7","6","3","6","7","7","2","7","6","5","7","6","733820079237763073","潘","415","Female","[""坏我"",""好我"",""坏她"",""好她""]","[""弱我"",""强我"",""弱她"",""强她""]","","","","","","","","yes","","","","","","","","","SRET","EW_formal","","key","j","13.334965034964995","960","536","朋友","博识","Positive","ability","","","","","","","","","","",""
"848","","f","psychophysics","60","256147","0.0-7.0-3.0-0.46","6","5","7","4","6","5","3","4","5","4","5","2","1","2","0","1","0","2","1","5","4","4","5","5","3","5","4","5","4","7","5","6","6","5","7","8","6","7","4","7","5","6","6","3","3","1","6","6","1","4","3","7","2","4","5","5","4","6","7","2","4","3","4","1","6","1","5","7","6","3","6","7","7","2","7","6","5","7","6","733820079237763073","潘","415","Female","[""坏我"",""好我"",""坏她"",""好她""]","[""弱我"",""强我"",""弱她"",""强她""]","","","","","","","","no","","","","","","","","","SRET","EW_formal","","key","f","13.334782608695736","960","536","自己","无助","Negative","ability","","","","","","","","","","",""
"719","","j","psychophysics","61","257867","0.0-7.0-3.0-0.47","6","5","7","4","6","5","3","4","5","4","5","2","1","2","0","1","0","2","1","5","4","4","5","5","3","5","4","5","4","7","5","6","6","5","7","8","6","7","4","7","5","6","6","3","3","1","6","6","1","4","3","7","2","4","5","5","4","6","7","2","4","3","4","1","6","1","5","7","6","3","6","7","7","2","7","6","5","7","6","733820079237763073","潘","415","Female","[""坏我"",""好我"",""坏她"",""好她""]","[""弱我"",""强我"",""弱她"",""强她""]","","","","","","","","yes","","","","","","","","","SRET","EW_formal","","key","j","13.335156249999955","960","536","自己","学霸","Positive","ability","","","","","","","","","","",""
"859","","f","psychophysics","62","259726","0.0-7.0-3.0-0.48","6","5","7","4","6","5","3","4","5","4","5","2","1","2","0","1","0","2","1","5","4","4","5","5","3","5","4","5","4","7","5","6","6","5","7","8","6","7","4","7","5","6","6","3","3","1","6","6","1","4","3","7","2","4","5","5","4","6","7","2","4","3","4","1","6","1","5","7","6","3","6","7","7","2","7","6","5","7","6","733820079237763073","潘","415","Female","[""坏我"",""好我"",""坏她"",""好她""]","[""弱我"",""强我"",""弱她"",""强她""]","","","","","","","","no","","","","","","","","","SRET","EW_formal","","key","f","13.334782608695525","960","536","朋友","自私","Negative","morality","","","","","","","","","","",""
"732","","j","psychophysics","63","261460","0.0-7.0-3.0-0.49","6","5","7","4","6","5","3","4","5","4","5","2","1","2","0","1","0","2","1","5","4","4","5","5","3","5","4","5","4","7","5","6","6","5","7","8","6","7","4","7","5","6","6","3","3","1","6","6","1","4","3","7","2","4","5","5","4","6","7","2","4","3","4","1","6","1","5","7","6","3","6","7","7","2","7","6","5","7","6","733820079237763073","潘","415","Female","[""坏我"",""好我"",""坏她"",""好她""]","[""弱我"",""强我"",""弱她"",""强她""]","","","","","","","","yes","","","","","","","","","SRET","EW_formal","","key","j","13.334108527131828","960","536","朋友","顶事","Positive","ability","","","","","","","","","","",""
"680","","j","psychophysics","64","263140","0.0-7.0-3.0-0.50","6","5","7","4","6","5","3","4","5","4","5","2","1","2","0","1","0","2","1","5","4","4","5","5","3","5","4","5","4","7","5","6","6","5","7","8","6","7","4","7","5","6","6","3","3","1","6","6","1","4","3","7","2","4","5","5","4","6","7","2","4","3","4","1","6","1","5","7","6","3","6","7","7","2","7","6","5","7","6","733820079237763073","潘","415","Female","[""坏我"",""好我"",""坏她"",""好她""]","[""弱我"",""强我"",""弱她"",""强她""]","","","","","","","","yes","","","","","","","","","SRET","EW_formal","","key","j","13.335199999999954","960","536","朋友","高效","Positive","ability","","","","","","","","","","",""
"666","","f","psychophysics","65","264810","0.0-7.0-3.0-0.51","6","5","7","4","6","5","3","4","5","4","5","2","1","2","0","1","0","2","1","5","4","4","5","5","3","5","4","5","4","7","5","6","6","5","7","8","6","7","4","7","5","6","6","3","3","1","6","6","1","4","3","7","2","4","5","5","4","6","7","2","4","3","4","1","6","1","5","7","6","3","6","7","7","2","7","6","5","7","6","733820079237763073","潘","415","Female","[""坏我"",""好我"",""坏她"",""好她""]","[""弱我"",""强我"",""弱她"",""强她""]","","","","","","","","no","","","","","","","","","SRET","EW_formal","","key","f","13.334677419354838","960","536","朋友","笨蛋","Negative","ability","","","","","","","","","","",""
"733","","f","psychophysics","66","266543","0.0-7.0-3.0-0.52","6","5","7","4","6","5","3","4","5","4","5","2","1","2","0","1","0","2","1","5","4","4","5","5","3","5","4","5","4","7","5","6","6","5","7","8","6","7","4","7","5","6","6","3","3","1","6","6","1","4","3","7","2","4","5","5","4","6","7","2","4","3","4","1","6","1","5","7","6","3","6","7","7","2","7","6","5","7","6","733820079237763073","潘","415","Female","[""坏我"",""好我"",""坏她"",""好她""]","[""弱我"",""强我"",""弱她"",""强她""]","","","","","","","","no","","","","","","","","","SRET","EW_formal","","key","f","13.335658914728592","960","536","朋友","背叛","Negative","morality","","","","","","","","","","",""
"947","","f","psychophysics","67","268491","0.0-7.0-3.0-0.53","6","5","7","4","6","5","3","4","5","4","5","2","1","2","0","1","0","2","1","5","4","4","5","5","3","5","4","5","4","7","5","6","6","5","7","8","6","7","4","7","5","6","6","3","3","1","6","6","1","4","3","7","2","4","5","5","4","6","7","2","4","3","4","1","6","1","5","7","6","3","6","7","7","2","7","6","5","7","6","733820079237763073","潘","415","Female","[""坏我"",""好我"",""坏她"",""好她""]","[""弱我"",""强我"",""弱她"",""强她""]","","","","","","","","no","","","","","","","","","SRET","EW_formal","","key","f","13.335172413792943","960","536","朋友","腐败","Negative","morality","","","","","","","","","","",""
"729","","j","psychophysics","68","270221","0.0-7.0-3.0-0.54","6","5","7","4","6","5","3","4","5","4","5","2","1","2","0","1","0","2","1","5","4","4","5","5","3","5","4","5","4","7","5","6","6","5","7","8","6","7","4","7","5","6","6","3","3","1","6","6","1","4","3","7","2","4","5","5","4","6","7","2","4","3","4","1","6","1","5","7","6","3","6","7","7","2","7","6","5","7","6","733820079237763073","潘","415","Female","[""坏我"",""好我"",""坏她"",""好她""]","[""弱我"",""强我"",""弱她"",""强她""]","","","","","","","","yes","","","","","","","","","SRET","EW_formal","","key","j","13.335658914729043","960","536","自己","善良","Positive","morality","","","","","","","","","","",""
"717","","f","psychophysics","69","271940","0.0-7.0-3.0-0.55","6","5","7","4","6","5","3","4","5","4","5","2","1","2","0","1","0","2","1","5","4","4","5","5","3","5","4","5","4","7","5","6","6","5","7","8","6","7","4","7","5","6","6","3","3","1","6","6","1","4","3","7","2","4","5","5","4","6","7","2","4","3","4","1","6","1","5","7","6","3","6","7","7","2","7","6","5","7","6","733820079237763073","潘","415","Female","[""坏我"",""好我"",""坏她"",""好她""]","[""弱我"",""强我"",""弱她"",""强她""]","","","","","","","","no","","","","","","","","","SRET","EW_formal","","key","f","13.335156249999727","960","536","自己","虚伪","Negative","morality","","","","","","","","","","",""
"666","","j","psychophysics","70","273607","0.0-7.0-3.0-0.56","6","5","7","4","6","5","3","4","5","4","5","2","1","2","0","1","0","2","1","5","4","4","5","5","3","5","4","5","4","7","5","6","6","5","7","8","6","7","4","7","5","6","6","3","3","1","6","6","1","4","3","7","2","4","5","5","4","6","7","2","4","3","4","1","6","1","5","7","6","3","6","7","7","2","7","6","5","7","6","733820079237763073","潘","415","Female","[""坏我"",""好我"",""坏她"",""好她""]","[""弱我"",""强我"",""弱她"",""强她""]","","","","","","","","yes","","","","","","","","","SRET","EW_formal","","key","j","13.335483870967554","960","536","自己","慷慨","Positive","morality","","","","","","","","","","",""
"699","","f","psychophysics","71","275307","0.0-7.0-3.0-0.57","6","5","7","4","6","5","3","4","5","4","5","2","1","2","0","1","0","2","1","5","4","4","5","5","3","5","4","5","4","7","5","6","6","5","7","8","6","7","4","7","5","6","6","3","3","1","6","6","1","4","3","7","2","4","5","5","4","6","7","2","4","3","4","1","6","1","5","7","6","3","6","7","7","2","7","6","5","7","6","733820079237763073","潘","415","Female","[""坏我"",""好我"",""坏她"",""好她""]","[""弱我"",""强我"",""弱她"",""强她""]","","","","","","","","no","","","","","","","","","SRET","EW_formal","","key","f","13.334645669291339","960","536","自己","卑鄙","Negative","morality","","","","","","","","","","",""
"740","","j","psychophysics","72","277048","0.0-7.0-3.0-0.58","6","5","7","4","6","5","3","4","5","4","5","2","1","2","0","1","0","2","1","5","4","4","5","5","3","5","4","5","4","7","5","6","6","5","7","8","6","7","4","7","5","6","6","3","3","1","6","6","1","4","3","7","2","4","5","5","4","6","7","2","4","3","4","1","6","1","5","7","6","3","6","7","7","2","7","6","5","7","6","733820079237763073","潘","415","Female","[""坏我"",""好我"",""坏她"",""好她""]","[""弱我"",""强我"",""弱她"",""强她""]","","","","","","","","yes","","","","","","","","","SRET","EW_formal","","key","j","13.335658914728592","960","536","朋友","仗义","Positive","morality","","","","","","","","","","",""
"916","","f","psychophysics","73","278965","0.0-7.0-3.0-0.59","6","5","7","4","6","5","3","4","5","4","5","2","1","2","0","1","0","2","1","5","4","4","5","5","3","5","4","5","4","7","5","6","6","5","7","8","6","7","4","7","5","6","6","3","3","1","6","6","1","4","3","7","2","4","5","5","4","6","7","2","4","3","4","1","6","1","5","7","6","3","6","7","7","2","7","6","5","7","6","733820079237763073","潘","415","Female","[""坏我"",""好我"",""坏她"",""好她""]","[""弱我"",""强我"",""弱她"",""强她""]","","","","","","","","no","","","","","","","","","SRET","EW_formal","","key","f","13.335664335664335","960","536","朋友","愚痴","Negative","ability","","","","","","","","","","",""
"755","","j","psychophysics","74","280720","0.0-7.0-3.0-0.60","6","5","7","4","6","5","3","4","5","4","5","2","1","2","0","1","0","2","1","5","4","4","5","5","3","5","4","5","4","7","5","6","6","5","7","8","6","7","4","7","5","6","6","3","3","1","6","6","1","4","3","7","2","4","5","5","4","6","7","2","4","3","4","1","6","1","5","7","6","3","6","7","7","2","7","6","5","7","6","733820079237763073","潘","415","Female","[""坏我"",""好我"",""坏她"",""好她""]","[""弱我"",""强我"",""弱她"",""强她""]","","","","","","","","yes","","","","","","","","","SRET","EW_formal","","key","j","13.335114503816527","960","536","朋友","能干","Positive","ability","","","","","","","","","","",""
"754","","f","psychophysics","75","282475","0.0-7.0-3.0-0.61","6","5","7","4","6","5","3","4","5","4","5","2","1","2","0","1","0","2","1","5","4","4","5","5","3","5","4","5","4","7","5","6","6","5","7","8","6","7","4","7","5","6","6","3","3","1","6","6","1","4","3","7","2","4","5","5","4","6","7","2","4","3","4","1","6","1","5","7","6","3","6","7","7","2","7","6","5","7","6","733820079237763073","潘","415","Female","[""坏我"",""好我"",""坏她"",""好她""]","[""弱我"",""强我"",""弱她"",""强她""]","","","","","","","","no","","","","","","","","","SRET","EW_formal","","key","f","13.334615384615384","960","536","自己","差生","Negative","ability","","","","","","","","","","",""
"688","","j","psychophysics","76","284164","0.0-7.0-3.0-0.62","6","5","7","4","6","5","3","4","5","4","5","2","1","2","0","1","0","2","1","5","4","4","5","5","3","5","4","5","4","7","5","6","6","5","7","8","6","7","4","7","5","6","6","3","3","1","6","6","1","4","3","7","2","4","5","5","4","6","7","2","4","3","4","1","6","1","5","7","6","3","6","7","7","2","7","6","5","7","6","733820079237763073","潘","415","Female","[""坏我"",""好我"",""坏她"",""好她""]","[""弱我"",""强我"",""弱她"",""强她""]","","","","","","","","yes","","","","","","","","","SRET","EW_formal","","key","j","13.335714285714193","960","536","朋友","诚信","Positive","morality","","","","","","","","","","",""
"746","","f","psychophysics","77","285911","0.0-7.0-3.0-0.63","6","5","7","4","6","5","3","4","5","4","5","2","1","2","0","1","0","2","1","5","4","4","5","5","3","5","4","5","4","7","5","6","6","5","7","8","6","7","4","7","5","6","6","3","3","1","6","6","1","4","3","7","2","4","5","5","4","6","7","2","4","3","4","1","6","1","5","7","6","3","6","7","7","2","7","6","5","7","6","733820079237763073","潘","415","Female","[""坏我"",""好我"",""坏她"",""好她""]","[""弱我"",""强我"",""弱她"",""强她""]","","","","","","","","no","","","","","","","","","SRET","EW_formal","","key","f","13.335384615384436","960","536","自己","窝囊","Negative","ability","","","","","","","","","","",""
"859","","f","psychophysics","78","287771","0.0-7.0-3.0-0.64","6","5","7","4","6","5","3","4","5","4","5","2","1","2","0","1","0","2","1","5","4","4","5","5","3","5","4","5","4","7","5","6","6","5","7","8","6","7","4","7","5","6","6","3","3","1","6","6","1","4","3","7","2","4","5","5","4","6","7","2","4","3","4","1","6","1","5","7","6","3","6","7","7","2","7","6","5","7","6","733820079237763073","潘","415","Female","[""坏我"",""好我"",""坏她"",""好她""]","[""弱我"",""强我"",""弱她"",""强她""]","","","","","","","","no","","","","","","","","","SRET","EW_formal","","key","f","13.335507246376727","960","536","自己","歹毒","Negative","morality","","","","","","","","","","",""
"749","","f","psychophysics","79","289520","0.0-7.0-3.0-0.65","6","5","7","4","6","5","3","4","5","4","5","2","1","2","0","1","0","2","1","5","4","4","5","5","3","5","4","5","4","7","5","6","6","5","7","8","6","7","4","7","5","6","6","3","3","1","6","6","1","4","3","7","2","4","5","5","4","6","7","2","4","3","4","1","6","1","5","7","6","3","6","7","7","2","7","6","5","7","6","733820079237763073","潘","415","Female","[""坏我"",""好我"",""坏她"",""好她""]","[""弱我"",""强我"",""弱她"",""强她""]","","","","","","","","no","","","","","","","","","SRET","EW_formal","","key","f","13.334615384615384","960","536","朋友","阴毒","Negative","morality","","","","","","","","","","",""
"677","","j","psychophysics","80","291198","0.0-7.0-3.0-0.66","6","5","7","4","6","5","3","4","5","4","5","2","1","2","0","1","0","2","1","5","4","4","5","5","3","5","4","5","4","7","5","6","6","5","7","8","6","7","4","7","5","6","6","3","3","1","6","6","1","4","3","7","2","4","5","5","4","6","7","2","4","3","4","1","6","1","5","7","6","3","6","7","7","2","7","6","5","7","6","733820079237763073","潘","415","Female","[""坏我"",""好我"",""坏她"",""好她""]","[""弱我"",""强我"",""弱她"",""强她""]","","","","","","","","yes","","","","","","","","","SRET","EW_formal","","key","j","13.335200000000187","960","536","自己","敏捷","Positive","ability","","","","","","","","","","",""
"729","","f","psychophysics","81","292929","0.0-7.0-3.0-0.67","6","5","7","4","6","5","3","4","5","4","5","2","1","2","0","1","0","2","1","5","4","4","5","5","3","5","4","5","4","7","5","6","6","5","7","8","6","7","4","7","5","6","6","3","3","1","6","6","1","4","3","7","2","4","5","5","4","6","7","2","4","3","4","1","6","1","5","7","6","3","6","7","7","2","7","6","5","7","6","733820079237763073","潘","415","Female","[""坏我"",""好我"",""坏她"",""好她""]","[""弱我"",""强我"",""弱她"",""强她""]","","","","","","","","no","","","","","","","","","SRET","EW_formal","","key","f","13.334883720930323","960","536","自己","邪恶","Negative","morality","","","","","","","","","","",""
"710","","j","psychophysics","82","294640","0.0-7.0-3.0-0.68","6","5","7","4","6","5","3","4","5","4","5","2","1","2","0","1","0","2","1","5","4","4","5","5","3","5","4","5","4","7","5","6","6","5","7","8","6","7","4","7","5","6","6","3","3","1","6","6","1","4","3","7","2","4","5","5","4","6","7","2","4","3","4","1","6","1","5","7","6","3","6","7","7","2","7","6","5","7","6","733820079237763073","潘","415","Female","[""坏我"",""好我"",""坏她"",""好她""]","[""弱我"",""强我"",""弱她"",""强她""]","","","","","","","","yes","","","","","","","","","SRET","EW_formal","","key","j","13.335433070865959","960","536","朋友","骁勇","Positive","ability","","","","","","","","","","",""
"793","","f","psychophysics","83","296433","0.0-7.0-3.0-0.69","6","5","7","4","6","5","3","4","5","4","5","2","1","2","0","1","0","2","1","5","4","4","5","5","3","5","4","5","4","7","5","6","6","5","7","8","6","7","4","7","5","6","6","3","3","1","6","6","1","4","3","7","2","4","5","5","4","6","7","2","4","3","4","1","6","1","5","7","6","3","6","7","7","2","7","6","5","7","6","733820079237763073","潘","415","Female","[""坏我"",""好我"",""坏她"",""好她""]","[""弱我"",""强我"",""弱她"",""强她""]","","","","","","","","no","","","","","","","","","SRET","EW_formal","","key","f","13.335074626865845","960","536","朋友","不端","Negative","morality","","","","","","","","","","",""
"716","","j","psychophysics","84","298150","0.0-7.0-3.0-0.70","6","5","7","4","6","5","3","4","5","4","5","2","1","2","0","1","0","2","1","5","4","4","5","5","3","5","4","5","4","7","5","6","6","5","7","8","6","7","4","7","5","6","6","3","3","1","6","6","1","4","3","7","2","4","5","5","4","6","7","2","4","3","4","1","6","1","5","7","6","3","6","7","7","2","7","6","5","7","6","733820079237763073","潘","415","Female","[""坏我"",""好我"",""坏她"",""好她""]","[""弱我"",""强我"",""弱她"",""强她""]","","","","","","","","yes","","","","","","","","","SRET","EW_formal","","key","j","13.334375000000364","960","536","朋友","肯干","Positive","ability","","","","","","","","","","",""
"680","","j","psychophysics","85","299831","0.0-7.0-3.0-0.71","6","5","7","4","6","5","3","4","5","4","5","2","1","2","0","1","0","2","1","5","4","4","5","5","3","5","4","5","4","7","5","6","6","5","7","8","6","7","4","7","5","6","6","3","3","1","6","6","1","4","3","7","2","4","5","5","4","6","7","2","4","3","4","1","6","1","5","7","6","3","6","7","7","2","7","6","5","7","6","733820079237763073","潘","415","Female","[""坏我"",""好我"",""坏她"",""好她""]","[""弱我"",""强我"",""弱她"",""强她""]","","","","","","","","yes","","","","","","","","","SRET","EW_formal","","key","j","13.335200000000187","960","536","自己","周到","Positive","ability","","","","","","","","","","",""
"735","","f","psychophysics","86","301566","0.0-7.0-3.0-0.72","6","5","7","4","6","5","3","4","5","4","5","2","1","2","0","1","0","2","1","5","4","4","5","5","3","5","4","5","4","7","5","6","6","5","7","8","6","7","4","7","5","6","6","3","3","1","6","6","1","4","3","7","2","4","5","5","4","6","7","2","4","3","4","1","6","1","5","7","6","3","6","7","7","2","7","6","5","7","6","733820079237763073","潘","415","Female","[""坏我"",""好我"",""坏她"",""好她""]","[""弱我"",""强我"",""弱她"",""强她""]","","","","","","","","no","","","","","","","","","SRET","EW_formal","","key","f","13.334883720930323","960","536","自己","愚钝","Negative","ability","","","","","","","","","","",""
"840","","f","psychophysics","87","303407","0.0-7.0-3.0-0.73","6","5","7","4","6","5","3","4","5","4","5","2","1","2","0","1","0","2","1","5","4","4","5","5","3","5","4","5","4","7","5","6","6","5","7","8","6","7","4","7","5","6","6","3","3","1","6","6","1","4","3","7","2","4","5","5","4","6","7","2","4","3","4","1","6","1","5","7","6","3","6","7","7","2","7","6","5","7","6","733820079237763073","潘","415","Female","[""坏我"",""好我"",""坏她"",""好她""]","[""弱我"",""强我"",""弱她"",""强她""]","","","","","","","","no","","","","","","","","","SRET","EW_formal","","key","f","13.335766423357665","960","536","朋友","迂拙","Negative","ability","","","","","","","","","","",""
"1340","","f","psychophysics","88","305748","0.0-7.0-3.0-0.74","6","5","7","4","6","5","3","4","5","4","5","2","1","2","0","1","0","2","1","5","4","4","5","5","3","5","4","5","4","7","5","6","6","5","7","8","6","7","4","7","5","6","6","3","3","1","6","6","1","4","3","7","2","4","5","5","4","6","7","2","4","3","4","1","6","1","5","7","6","3","6","7","7","2","7","6","5","7","6","733820079237763073","潘","415","Female","[""坏我"",""好我"",""坏她"",""好她""]","[""弱我"",""强我"",""弱她"",""强她""]","","","","","","","","no","","","","","","","","","SRET","EW_formal","","key","f","13.335632183907846","960","536","朋友","无赖","Negative","morality","","","","","","","","","","",""
"737","","j","psychophysics","89","307487","0.0-7.0-3.0-0.75","6","5","7","4","6","5","3","4","5","4","5","2","1","2","0","1","0","2","1","5","4","4","5","5","3","5","4","5","4","7","5","6","6","5","7","8","6","7","4","7","5","6","6","3","3","1","6","6","1","4","3","7","2","4","5","5","4","6","7","2","4","3","4","1","6","1","5","7","6","3","6","7","7","2","7","6","5","7","6","733820079237763073","潘","415","Female","[""坏我"",""好我"",""坏她"",""好她""]","[""弱我"",""强我"",""弱她"",""强她""]","","","","","","","","yes","","","","","","","","","SRET","EW_formal","","key","j","13.334615384615384","960","536","朋友","厚道","Positive","morality","","","","","","","","","","",""
"765","","j","psychophysics","90","309253","0.0-7.0-3.0-0.76","6","5","7","4","6","5","3","4","5","4","5","2","1","2","0","1","0","2","1","5","4","4","5","5","3","5","4","5","4","7","5","6","6","5","7","8","6","7","4","7","5","6","6","3","3","1","6","6","1","4","3","7","2","4","5","5","4","6","7","2","4","3","4","1","6","1","5","7","6","3","6","7","7","2","7","6","5","7","6","733820079237763073","潘","415","Female","[""坏我"",""好我"",""坏她"",""好她""]","[""弱我"",""强我"",""弱她"",""强她""]","","","","","","","","yes","","","","","","","","","SRET","EW_formal","","key","j","13.335114503816971","960","536","朋友","专注","Positive","ability","","","","","","","","","","",""
"1241","","j","psychophysics","91","311496","0.0-7.0-3.0-0.77","6","5","7","4","6","5","3","4","5","4","5","2","1","2","0","1","0","2","1","5","4","4","5","5","3","5","4","5","4","7","5","6","6","5","7","8","6","7","4","7","5","6","6","3","3","1","6","6","1","4","3","7","2","4","5","5","4","6","7","2","4","3","4","1","6","1","5","7","6","3","6","7","7","2","7","6","5","7","6","733820079237763073","潘","415","Female","[""坏我"",""好我"",""坏她"",""好她""]","[""弱我"",""强我"",""弱她"",""强她""]","","","","","","","","yes","","","","","","","","","SRET","EW_formal","","key","j","13.335329341317365","960","536","朋友","爱国","Positive","morality","","","","","","","","","","",""
"743","","f","psychophysics","92","313240","0.0-7.0-3.0-0.78","6","5","7","4","6","5","3","4","5","4","5","2","1","2","0","1","0","2","1","5","4","4","5","5","3","5","4","5","4","7","5","6","6","5","7","8","6","7","4","7","5","6","6","3","3","1","6","6","1","4","3","7","2","4","5","5","4","6","7","2","4","3","4","1","6","1","5","7","6","3","6","7","7","2","7","6","5","7","6","733820079237763073","潘","415","Female","[""坏我"",""好我"",""坏她"",""好她""]","[""弱我"",""强我"",""弱她"",""强她""]","","","","","","","","no","","","","","","","","","SRET","EW_formal","","key","f","13.335384615384436","960","536","朋友","短浅","Negative","ability","","","","","","","","","","",""
"707","","j","psychophysics","93","314948","0.0-7.0-3.0-0.79","6","5","7","4","6","5","3","4","5","4","5","2","1","2","0","1","0","2","1","5","4","4","5","5","3","5","4","5","4","7","5","6","6","5","7","8","6","7","4","7","5","6","6","3","3","1","6","6","1","4","3","7","2","4","5","5","4","6","7","2","4","3","4","1","6","1","5","7","6","3","6","7","7","2","7","6","5","7","6","733820079237763073","潘","415","Female","[""坏我"",""好我"",""坏她"",""好她""]","[""弱我"",""强我"",""弱她"",""强她""]","","","","","","","","yes","","","","","","","","","SRET","EW_formal","","key","j","13.336220472441036","960","536","自己","孝顺","Positive","morality","","","","","","","","","","",""
"638","","f","psychophysics","94","316588","0.0-7.0-3.0-0.80","6","5","7","4","6","5","3","4","5","4","5","2","1","2","0","1","0","2","1","5","4","4","5","5","3","5","4","5","4","7","5","6","6","5","7","8","6","7","4","7","5","6","6","3","3","1","6","6","1","4","3","7","2","4","5","5","4","6","7","2","4","3","4","1","6","1","5","7","6","3","6","7","7","2","7","6","5","7","6","733820079237763073","潘","415","Female","[""坏我"",""好我"",""坏她"",""好她""]","[""弱我"",""强我"",""弱她"",""强她""]","","","","","","","","no","","","","","","","","","SRET","EW_formal","","key","f","13.335245901639535","960","536","朋友","弱智","Negative","ability","","","","","","","","","","",""
"617","","j","psychophysics","95","318205","0.0-7.0-3.0-0.81","6","5","7","4","6","5","3","4","5","4","5","2","1","2","0","1","0","2","1","5","4","4","5","5","3","5","4","5","4","7","5","6","6","5","7","8","6","7","4","7","5","6","6","3","3","1","6","6","1","4","3","7","2","4","5","5","4","6","7","2","4","3","4","1","6","1","5","7","6","3","6","7","7","2","7","6","5","7","6","733820079237763073","潘","415","Female","[""坏我"",""好我"",""坏她"",""好她""]","[""弱我"",""强我"",""弱她"",""强她""]","","","","","","","","yes","","","","","","","","","SRET","EW_formal","","key","j","13.334710743801653","960","536","朋友","慈悲","Positive","morality","","","","","","","","","","",""
"676","","j","psychophysics","96","319883","0.0-7.0-3.0-0.82","6","5","7","4","6","5","3","4","5","4","5","2","1","2","0","1","0","2","1","5","4","4","5","5","3","5","4","5","4","7","5","6","6","5","7","8","6","7","4","7","5","6","6","3","3","1","6","6","1","4","3","7","2","4","5","5","4","6","7","2","4","3","4","1","6","1","5","7","6","3","6","7","7","2","7","6","5","7","6","733820079237763073","潘","415","Female","[""坏我"",""好我"",""坏她"",""好她""]","[""弱我"",""强我"",""弱她"",""强她""]","","","","","","","","yes","","","","","","","","","SRET","EW_formal","","key","j","13.335483870967554","960","536","自己","娴熟","Positive","ability","","","","","","","","","","",""
"608","","f","psychophysics","97","321492","0.0-7.0-3.0-0.83","6","5","7","4","6","5","3","4","5","4","5","2","1","2","0","1","0","2","1","5","4","4","5","5","3","5","4","5","4","7","5","6","6","5","7","8","6","7","4","7","5","6","6","3","3","1","6","6","1","4","3","7","2","4","5","5","4","6","7","2","4","3","4","1","6","1","5","7","6","3","6","7","7","2","7","6","5","7","6","733820079237763073","潘","415","Female","[""坏我"",""好我"",""坏她"",""好她""]","[""弱我"",""强我"",""弱她"",""强她""]","","","","","","","","no","","","","","","","","","SRET","EW_formal","","key","f","13.335000000000097","960","536","自己","下流","Negative","morality","","","","","","","","","","",""
"607","","j","psychophysics","98","323101","0.0-7.0-3.0-0.84","6","5","7","4","6","5","3","4","5","4","5","2","1","2","0","1","0","2","1","5","4","4","5","5","3","5","4","5","4","7","5","6","6","5","7","8","6","7","4","7","5","6","6","3","3","1","6","6","1","4","3","7","2","4","5","5","4","6","7","2","4","3","4","1","6","1","5","7","6","3","6","7","7","2","7","6","5","7","6","733820079237763073","潘","415","Female","[""坏我"",""好我"",""坏她"",""好她""]","[""弱我"",""强我"",""弱她"",""强她""]","","","","","","","","yes","","","","","","","","","SRET","EW_formal","","key","j","13.335833333333236","960","536","朋友","低俗","Negative","morality","","","","","","","","","","",""
"884","","j","psychophysics","99","324986","0.0-7.0-3.0-0.85","6","5","7","4","6","5","3","4","5","4","5","2","1","2","0","1","0","2","1","5","4","4","5","5","3","5","4","5","4","7","5","6","6","5","7","8","6","7","4","7","5","6","6","3","3","1","6","6","1","4","3","7","2","4","5","5","4","6","7","2","4","3","4","1","6","1","5","7","6","3","6","7","7","2","7","6","5","7","6","733820079237763073","潘","415","Female","[""坏我"",""好我"",""坏她"",""好她""]","[""弱我"",""强我"",""弱她"",""强她""]","","","","","","","","yes","","","","","","","","","SRET","EW_formal","","key","j","13.335714285714285","960","536","自己","主见","Positive","ability","","","","","","","","","","",""
"798","","j","psychophysics","100","326785","0.0-7.0-3.0-0.86","6","5","7","4","6","5","3","4","5","4","5","2","1","2","0","1","0","2","1","5","4","4","5","5","3","5","4","5","4","7","5","6","6","5","7","8","6","7","4","7","5","6","6","3","3","1","6","6","1","4","3","7","2","4","5","5","4","6","7","2","4","3","4","1","6","1","5","7","6","3","6","7","7","2","7","6","5","7","6","733820079237763073","潘","415","Female","[""坏我"",""好我"",""坏她"",""好她""]","[""弱我"",""强我"",""弱她"",""强她""]","","","","","","","","yes","","","","","","","","","SRET","EW_formal","","key","j","13.335820895522389","960","536","自己","缓慢","Negative","ability","","","","","","","","","","",""
"721","","j","psychophysics","101","328507","0.0-7.0-3.0-0.87","6","5","7","4","6","5","3","4","5","4","5","2","1","2","0","1","0","2","1","5","4","4","5","5","3","5","4","5","4","7","5","6","6","5","7","8","6","7","4","7","5","6","6","3","3","1","6","6","1","4","3","7","2","4","5","5","4","6","7","2","4","3","4","1","6","1","5","7","6","3","6","7","7","2","7","6","5","7","6","733820079237763073","潘","415","Female","[""坏我"",""好我"",""坏她"",""好她""]","[""弱我"",""强我"",""弱她"",""强她""]","","","","","","","","yes","","","","","","","","","SRET","EW_formal","","key","j","13.3359375","960","536","朋友","素养","Positive","morality","","","","","","","","","","",""
"9825","
    <p><div style='color:white;font-size:35px; line-height:20px;'>计算任务</div></p><br>
    <p><div style='color:red;font-size:25px; line-height:20px;'>接下来，您将看到一些四则运算题，<b>请从键盘选择 0-9 进行反应。</b></div></p>
    <p><div style='color:red;font-size:25px; line-height:20px;'>请尽可能快地进行计算，计算的速度和正确率将影响报酬的发放。</div></p>
    <p><div class='footer' style='color:white;font-size:25px; line-height:20px;'>如果对本实验还有不清楚之处，请立即向实验员咨询。</p><p style='color:white;font-size:25px; line-height:20px;'>如果您明白了规则：</p><p style='color:white;font-size:22px; line-height:20px;'>请按 继续 进入练习</p>
    </div>
    ","0","html-button-response","102","338333","0.0-7.0-4.0","6","5","7","4","6","5","3","4","5","4","5","2","1","2","0","1","0","2","1","5","4","4","5","5","3","5","4","5","4","7","5","6","6","5","7","8","6","7","4","7","5","6","6","3","3","1","6","6","1","4","3","7","2","4","5","5","4","6","7","2","4","3","4","1","6","1","5","7","6","3","6","7","7","2","7","6","5","7","6","733820079237763073","潘","415","Female","[""坏我"",""好我"",""坏她"",""好她""]","[""弱我"",""强我"",""弱她"",""强她""]","","","","","","","","","","","","","","","","","SRET_math","math_instructions","Sat Jan 20 2024 15:21:24 GMT+0800 (中国标准时间)","","","","","","","","","","","","","","","","","","","",""
"2239","","8","psychophysics","103","340574","0.0-7.0-5.0-0.0","6","5","7","4","6","5","3","4","5","4","5","2","1","2","0","1","0","2","1","5","4","4","5","5","3","5","4","5","4","7","5","6","6","5","7","8","6","7","4","7","5","6","6","3","3","1","6","6","1","4","3","7","2","4","5","5","4","6","7","2","4","3","4","1","6","1","5","7","6","3","6","7","7","2","7","6","5","7","6","733820079237763073","潘","415","Female","[""坏我"",""好我"",""坏她"",""好她""]","[""弱我"",""强我"",""弱她"",""强她""]","","","","","","","","8","","","","","","","","","SRET","SRET_math_calculate","","key","8","13.335714285714078","960","536","","","","","2+6= ?","8","1","","","","","","","",""
"2597","","9","psychophysics","104","343172","0.0-7.0-5.0-0.1","6","5","7","4","6","5","3","4","5","4","5","2","1","2","0","1","0","2","1","5","4","4","5","5","3","5","4","5","4","7","5","6","6","5","7","8","6","7","4","7","5","6","6","3","3","1","6","6","1","4","3","7","2","4","5","5","4","6","7","2","4","3","4","1","6","1","5","7","6","3","6","7","7","2","7","6","5","7","6","733820079237763073","潘","415","Female","[""坏我"",""好我"",""坏她"",""好她""]","[""弱我"",""强我"",""弱她"",""强她""]","","","","","","","","9","","","","","","","","","SRET","SRET_math_calculate","","key","9","13.335051546391753","960","536","","","","","7*0= ?","0","0","","","","","","","",""
"2076","","3","psychophysics","105","345249","0.0-7.0-5.0-0.2","6","5","7","4","6","5","3","4","5","4","5","2","1","2","0","1","0","2","1","5","4","4","5","5","3","5","4","5","4","7","5","6","6","5","7","8","6","7","4","7","5","6","6","3","3","1","6","6","1","4","3","7","2","4","5","5","4","6","7","2","4","3","4","1","6","1","5","7","6","3","6","7","7","2","7","6","5","7","6","733820079237763073","潘","415","Female","[""坏我"",""好我"",""坏她"",""好她""]","[""弱我"",""强我"",""弱她"",""强她""]","","","","","","","","3","","","","","","","","","SRET","SRET_math_calculate","","key","3","13.335064935065162","960","536","","","","","3*1= ?","3","1","","","","","","","",""
"2203","","6","psychophysics","106","347454","0.0-7.0-5.0-0.3","6","5","7","4","6","5","3","4","5","4","5","2","1","2","0","1","0","2","1","5","4","4","5","5","3","5","4","5","4","7","5","6","6","5","7","8","6","7","4","7","5","6","6","3","3","1","6","6","1","4","3","7","2","4","5","5","4","6","7","2","4","3","4","1","6","1","5","7","6","3","6","7","7","2","7","6","5","7","6","733820079237763073","潘","415","Female","[""坏我"",""好我"",""坏她"",""好她""]","[""弱我"",""强我"",""弱她"",""强她""]","","","","","","","","6","","","","","","","","","SRET","SRET_math_calculate","","key","6","13.335151515151445","960","536","","","","","9-3= ?","6","1","","","","","","","",""
"1966","","7","psychophysics","107","349421","0.0-7.0-5.0-0.4","6","5","7","4","6","5","3","4","5","4","5","2","1","2","0","1","0","2","1","5","4","4","5","5","3","5","4","5","4","7","5","6","6","5","7","8","6","7","4","7","5","6","6","3","3","1","6","6","1","4","3","7","2","4","5","5","4","6","7","2","4","3","4","1","6","1","5","7","6","3","6","7","7","2","7","6","5","7","6","733820079237763073","潘","415","Female","[""坏我"",""好我"",""坏她"",""好她""]","[""弱我"",""强我"",""弱她"",""强她""]","","","","","","","","7","","","","","","","","","SRET","SRET_math_calculate","","key","7","13.335616438356164","960","536","","","","","13-6= ?","7","1","","","","","","","",""
"4066","","9","psychophysics","108","353488","0.0-7.0-5.0-0.5","6","5","7","4","6","5","3","4","5","4","5","2","1","2","0","1","0","2","1","5","4","4","5","5","3","5","4","5","4","7","5","6","6","5","7","8","6","7","4","7","5","6","6","3","3","1","6","6","1","4","3","7","2","4","5","5","4","6","7","2","4","3","4","1","6","1","5","7","6","3","6","7","7","2","7","6","5","7","6","733820079237763073","潘","415","Female","[""坏我"",""好我"",""坏她"",""好她""]","[""弱我"",""强我"",""弱她"",""强她""]","","","","","","","","9","","","","","","","","","SRET","SRET_math_calculate","","key","9","13.33519736842113","960","536","","","","","32-23= ?","9","1","","","","","","","",""
"2220","","8","psychophysics","109","355708","0.0-7.0-5.0-0.6","6","5","7","4","6","5","3","4","5","4","5","2","1","2","0","1","0","2","1","5","4","4","5","5","3","5","4","5","4","7","5","6","6","5","7","8","6","7","4","7","5","6","6","3","3","1","6","6","1","4","3","7","2","4","5","5","4","6","7","2","4","3","4","1","6","1","5","7","6","3","6","7","7","2","7","6","5","7","6","733820079237763073","潘","415","Female","[""坏我"",""好我"",""坏她"",""好她""]","[""弱我"",""强我"",""弱她"",""强她""]","","","","","","","","8","","","","","","","","","SRET","SRET_math_calculate","","key","8","13.335542168674769","960","536","","","","","3+5= ?","8","1","","","","","","","",""
"2195","","2","psychophysics","110","357905","0.0-7.0-5.0-0.7","6","5","7","4","6","5","3","4","5","4","5","2","1","2","0","1","0","2","1","5","4","4","5","5","3","5","4","5","4","7","5","6","6","5","7","8","6","7","4","7","5","6","6","3","3","1","6","6","1","4","3","7","2","4","5","5","4","6","7","2","4","3","4","1","6","1","5","7","6","3","6","7","7","2","7","6","5","7","6","733820079237763073","潘","415","Female","[""坏我"",""好我"",""坏她"",""好她""]","[""弱我"",""强我"",""弱她"",""强她""]","","","","","","","","2","","","","","","","","","SRET","SRET_math_calculate","","key","2","13.334969325153232","960","536","","","","","12/6= ?","2","1","","","","","","","",""
"2114","","7","psychophysics","111","360021","0.0-7.0-5.0-0.8","6","5","7","4","6","5","3","4","5","4","5","2","1","2","0","1","0","2","1","5","4","4","5","5","3","5","4","5","4","7","5","6","6","5","7","8","6","7","4","7","5","6","6","3","3","1","6","6","1","4","3","7","2","4","5","5","4","6","7","2","4","3","4","1","6","1","5","7","6","3","6","7","7","2","7","6","5","7","6","733820079237763073","潘","415","Female","[""坏我"",""好我"",""坏她"",""好她""]","[""弱我"",""强我"",""弱她"",""强她""]","","","","","","","","7","","","","","","","","","SRET","SRET_math_calculate","","key","7","13.334810126582058","960","536","","","","","4+3= ?","7","1","","","","","","","",""
"2120","","0","psychophysics","112","362142","0.0-7.0-5.0-0.9","6","5","7","4","6","5","3","4","5","4","5","2","1","2","0","1","0","2","1","5","4","4","5","5","3","5","4","5","4","7","5","6","6","5","7","8","6","7","4","7","5","6","6","3","3","1","6","6","1","4","3","7","2","4","5","5","4","6","7","2","4","3","4","1","6","1","5","7","6","3","6","7","7","2","7","6","5","7","6","733820079237763073","潘","415","Female","[""坏我"",""好我"",""坏她"",""好她""]","[""弱我"",""强我"",""弱她"",""强她""]","","","","","","","","0","","","","","","","","","SRET","SRET_math_calculate","","key","0","13.334810126582058","960","536","","","","","12-12= ?","0","1","","","","","","","",""
"2250","","8","psychophysics","113","364393","0.0-7.0-5.0-0.10","6","5","7","4","6","5","3","4","5","4","5","2","1","2","0","1","0","2","1","5","4","4","5","5","3","5","4","5","4","7","5","6","6","5","7","8","6","7","4","7","5","6","6","3","3","1","6","6","1","4","3","7","2","4","5","5","4","6","7","2","4","3","4","1","6","1","5","7","6","3","6","7","7","2","7","6","5","7","6","733820079237763073","潘","415","Female","[""坏我"",""好我"",""坏她"",""好她""]","[""弱我"",""强我"",""弱她"",""强她""]","","","","","","","","8","","","","","","","","","SRET","SRET_math_calculate","","key","8","13.334523809523878","960","536","","","","","13-5= ?","8","1","","","","","","","",""
"1798","","1","psychophysics","114","366192","0.0-7.0-5.0-0.11","6","5","7","4","6","5","3","4","5","4","5","2","1","2","0","1","0","2","1","5","4","4","5","5","3","5","4","5","4","7","5","6","6","5","7","8","6","7","4","7","5","6","6","3","3","1","6","6","1","4","3","7","2","4","5","5","4","6","7","2","4","3","4","1","6","1","5","7","6","3","6","7","7","2","7","6","5","7","6","733820079237763073","潘","415","Female","[""坏我"",""好我"",""坏她"",""好她""]","[""弱我"",""强我"",""弱她"",""强她""]","","","","","","","","1","","","","","","","","","SRET","SRET_math_calculate","","key","1","13.335820895522389","960","536","","","","","10-9= ?","1","1","","","","","","","",""
"1936","","7","psychophysics","115","368130","0.0-7.0-5.0-0.12","6","5","7","4","6","5","3","4","5","4","5","2","1","2","0","1","0","2","1","5","4","4","5","5","3","5","4","5","4","7","5","6","6","5","7","8","6","7","4","7","5","6","6","3","3","1","6","6","1","4","3","7","2","4","5","5","4","6","7","2","4","3","4","1","6","1","5","7","6","3","6","7","7","2","7","6","5","7","6","733820079237763073","潘","415","Female","[""坏我"",""好我"",""坏她"",""好她""]","[""弱我"",""强我"",""弱她"",""强她""]","","","","","","","","7","","","","","","","","","SRET","SRET_math_calculate","","key","7","13.335416666666585","960","536","","","","","12-5= ?","7","1","","","","","","","",""
"2253","","4","psychophysics","116","370383","0.0-7.0-5.0-0.13","6","5","7","4","6","5","3","4","5","4","5","2","1","2","0","1","0","2","1","5","4","4","5","5","3","5","4","5","4","7","5","6","6","5","7","8","6","7","4","7","5","6","6","3","3","1","6","6","1","4","3","7","2","4","5","5","4","6","7","2","4","3","4","1","6","1","5","7","6","3","6","7","7","2","7","6","5","7","6","733820079237763073","潘","415","Female","[""坏我"",""好我"",""坏她"",""好她""]","[""弱我"",""强我"",""弱她"",""强她""]","","","","","","","","4","","","","","","","","","SRET","SRET_math_calculate","","key","4","13.335119047618978","960","536","","","","","8-4= ?","4","1","","","","","","","",""
"1997","","5","psychophysics","117","372381","0.0-7.0-5.0-0.14","6","5","7","4","6","5","3","4","5","4","5","2","1","2","0","1","0","2","1","5","4","4","5","5","3","5","4","5","4","7","5","6","6","5","7","8","6","7","4","7","5","6","6","3","3","1","6","6","1","4","3","7","2","4","5","5","4","6","7","2","4","3","4","1","6","1","5","7","6","3","6","7","7","2","7","6","5","7","6","733820079237763073","潘","415","Female","[""坏我"",""好我"",""坏她"",""好她""]","[""弱我"",""强我"",""弱她"",""强她""]","","","","","","","","5","","","","","","","","","SRET","SRET_math_calculate","","key","5","13.335570469798657","960","536","","","","","8-3= ? ","5","1","","","","","","","",""
"2280","","2","psychophysics","118","374662","0.0-7.0-5.0-0.15","6","5","7","4","6","5","3","4","5","4","5","2","1","2","0","1","0","2","1","5","4","4","5","5","3","5","4","5","4","7","5","6","6","5","7","8","6","7","4","7","5","6","6","3","3","1","6","6","1","4","3","7","2","4","5","5","4","6","7","2","4","3","4","1","6","1","5","7","6","3","6","7","7","2","7","6","5","7","6","733820079237763073","潘","415","Female","[""坏我"",""好我"",""坏她"",""好她""]","[""弱我"",""强我"",""弱她"",""强她""]","","","","","","","","2","","","","","","","","","SRET","SRET_math_calculate","","key","2","13.33529411764706","960","536","","","","","18/9= ?","2","1","","","","","","","",""
"2725","","0","psychophysics","119","377387","0.0-7.0-5.0-0.16","6","5","7","4","6","5","3","4","5","4","5","2","1","2","0","1","0","2","1","5","4","4","5","5","3","5","4","5","4","7","5","6","6","5","7","8","6","7","4","7","5","6","6","3","3","1","6","6","1","4","3","7","2","4","5","5","4","6","7","2","4","3","4","1","6","1","5","7","6","3","6","7","7","2","7","6","5","7","6","733820079237763073","潘","415","Female","[""坏我"",""好我"",""坏她"",""好她""]","[""弱我"",""强我"",""弱她"",""强她""]","","","","","","","","0","","","","","","","","","SRET","SRET_math_calculate","","key","0","13.334975369458128","960","536","","","","","9-9= ?","0","1","","","","","","","",""
"2031","","4","psychophysics","120","379421","0.0-7.0-5.0-0.17","6","5","7","4","6","5","3","4","5","4","5","2","1","2","0","1","0","2","1","5","4","4","5","5","3","5","4","5","4","7","5","6","6","5","7","8","6","7","4","7","5","6","6","3","3","1","6","6","1","4","3","7","2","4","5","5","4","6","7","2","4","3","4","1","6","1","5","7","6","3","6","7","7","2","7","6","5","7","6","733820079237763073","潘","415","Female","[""坏我"",""好我"",""坏她"",""好她""]","[""弱我"",""强我"",""弱她"",""强她""]","","","","","","","","4","","","","","","","","","SRET","SRET_math_calculate","","key","4","13.336184210526163","960","536","","","","","2+2= ?","4","1","","","","","","","",""
"1768","","1","psychophysics","121","381190","0.0-7.0-5.0-0.18","6","5","7","4","6","5","3","4","5","4","5","2","1","2","0","1","0","2","1","5","4","4","5","5","3","5","4","5","4","7","5","6","6","5","7","8","6","7","4","7","5","6","6","3","3","1","6","6","1","4","3","7","2","4","5","5","4","6","7","2","4","3","4","1","6","1","5","7","6","3","6","7","7","2","7","6","5","7","6","733820079237763073","潘","415","Female","[""坏我"",""好我"",""坏她"",""好她""]","[""弱我"",""强我"",""弱她"",""强她""]","","","","","","","","1","","","","","","","","","SRET","SRET_math_calculate","","key","1","13.335606060606413","960","536","","","","","30-29= ?","1","1","","","","","","","",""
"1862","","2","psychophysics","122","383053","0.0-7.0-5.0-0.19","6","5","7","4","6","5","3","4","5","4","5","2","1","2","0","1","0","2","1","5","4","4","5","5","3","5","4","5","4","7","5","6","6","5","7","8","6","7","4","7","5","6","6","3","3","1","6","6","1","4","3","7","2","4","5","5","4","6","7","2","4","3","4","1","6","1","5","7","6","3","6","7","7","2","7","6","5","7","6","733820079237763073","潘","415","Female","[""坏我"",""好我"",""坏她"",""好她""]","[""弱我"",""强我"",""弱她"",""强她""]","","","","","","","","2","","","","","","","","","SRET","SRET_math_calculate","","key","2","13.335507246376727","960","536","","","","","1+1= ?","2","1","","","","","","","",""
"2016","","7","psychophysics","123","385070","0.0-7.0-5.0-0.20","6","5","7","4","6","5","3","4","5","4","5","2","1","2","0","1","0","2","1","5","4","4","5","5","3","5","4","5","4","7","5","6","6","5","7","8","6","7","4","7","5","6","6","3","3","1","6","6","1","4","3","7","2","4","5","5","4","6","7","2","4","3","4","1","6","1","5","7","6","3","6","7","7","2","7","6","5","7","6","733820079237763073","潘","415","Female","[""坏我"",""好我"",""坏她"",""好她""]","[""弱我"",""强我"",""弱她"",""强她""]","","","","","","","","7","","","","","","","","","SRET","SRET_math_calculate","","key","7","13.336423841059526","960","536","","","","","9-2= ?","7","1","","","","","","","",""
"2209","","6","psychophysics","124","387279","0.0-7.0-5.0-0.21","6","5","7","4","6","5","3","4","5","4","5","2","1","2","0","1","0","2","1","5","4","4","5","5","3","5","4","5","4","7","5","6","6","5","7","8","6","7","4","7","5","6","6","3","3","1","6","6","1","4","3","7","2","4","5","5","4","6","7","2","4","3","4","1","6","1","5","7","6","3","6","7","7","2","7","6","5","7","6","733820079237763073","潘","415","Female","[""坏我"",""好我"",""坏她"",""好她""]","[""弱我"",""强我"",""弱她"",""强她""]","","","","","","","","6","","","","","","","","","SRET","SRET_math_calculate","","key","6","13.335365853658537","960","536","","","","","11-5= ?","6","1","","","","","","","",""
"2157","","9","psychophysics","125","389436","0.0-7.0-5.0-0.22","6","5","7","4","6","5","3","4","5","4","5","2","1","2","0","1","0","2","1","5","4","4","5","5","3","5","4","5","4","7","5","6","6","5","7","8","6","7","4","7","5","6","6","3","3","1","6","6","1","4","3","7","2","4","5","5","4","6","7","2","4","3","4","1","6","1","5","7","6","3","6","7","7","2","7","6","5","7","6","733820079237763073","潘","415","Female","[""坏我"",""好我"",""坏她"",""好她""]","[""弱我"",""强我"",""弱她"",""强她""]","","","","","","","","9","","","","","","","","","SRET","SRET_math_calculate","","key","9","13.335403726708075","960","536","","","","","4+5= ?","9","1","","","","","","","",""
"1867","","2","psychophysics","126","391304","0.0-7.0-5.0-0.23","6","5","7","4","6","5","3","4","5","4","5","2","1","2","0","1","0","2","1","5","4","4","5","5","3","5","4","5","4","7","5","6","6","5","7","8","6","7","4","7","5","6","6","3","3","1","6","6","1","4","3","7","2","4","5","5","4","6","7","2","4","3","4","1","6","1","5","7","6","3","6","7","7","2","7","6","5","7","6","733820079237763073","潘","415","Female","[""坏我"",""好我"",""坏她"",""好她""]","[""弱我"",""强我"",""弱她"",""强她""]","","","","","","","","2","","","","","","","","","SRET","SRET_math_calculate","","key","2","13.335971223021248","960","536","","","","","19-17= ?","2","1","","","","","","","",""
"1821","","3","psychophysics","127","393126","0.0-7.0-5.0-0.24","6","5","7","4","6","5","3","4","5","4","5","2","1","2","0","1","0","2","1","5","4","4","5","5","3","5","4","5","4","7","5","6","6","5","7","8","6","7","4","7","5","6","6","3","3","1","6","6","1","4","3","7","2","4","5","5","4","6","7","2","4","3","4","1","6","1","5","7","6","3","6","7","7","2","7","6","5","7","6","733820079237763073","潘","415","Female","[""坏我"",""好我"",""坏她"",""好她""]","[""弱我"",""强我"",""弱她"",""强她""]","","","","","","","","3","","","","","","","","","SRET","SRET_math_calculate","","key","3","13.335294117646887","960","536","","","","","1+2= ?","3","1","","","","","","","",""
"2129","","3","psychophysics","128","395255","0.0-7.0-5.0-0.25","6","5","7","4","6","5","3","4","5","4","5","2","1","2","0","1","0","2","1","5","4","4","5","5","3","5","4","5","4","7","5","6","6","5","7","8","6","7","4","7","5","6","6","3","3","1","6","6","1","4","3","7","2","4","5","5","4","6","7","2","4","3","4","1","6","1","5","7","6","3","6","7","7","2","7","6","5","7","6","733820079237763073","潘","415","Female","[""坏我"",""好我"",""坏她"",""好她""]","[""弱我"",""强我"",""弱她"",""强她""]","","","","","","","","3","","","","","","","","","SRET","SRET_math_calculate","","key","3","13.335443037974683","960","536","","","","","8-5= ?","3","1","","","","","","","",""
"2046","","0","psychophysics","129","397303","0.0-7.0-5.0-0.26","6","5","7","4","6","5","3","4","5","4","5","2","1","2","0","1","0","2","1","5","4","4","5","5","3","5","4","5","4","7","5","6","6","5","7","8","6","7","4","7","5","6","6","3","3","1","6","6","1","4","3","7","2","4","5","5","4","6","7","2","4","3","4","1","6","1","5","7","6","3","6","7","7","2","7","6","5","7","6","733820079237763073","潘","415","Female","[""坏我"",""好我"",""坏她"",""好她""]","[""弱我"",""强我"",""弱她"",""强她""]","","","","","","","","0","","","","","","","","","SRET","SRET_math_calculate","","key","0","13.335294117646983","960","536","","","","","22-22= ?","0","1","","","","","","","",""
"2733","","3","psychophysics","130","400036","0.0-7.0-5.0-0.27","6","5","7","4","6","5","3","4","5","4","5","2","1","2","0","1","0","2","1","5","4","4","5","5","3","5","4","5","4","7","5","6","6","5","7","8","6","7","4","7","5","6","6","3","3","1","6","6","1","4","3","7","2","4","5","5","4","6","7","2","4","3","4","1","6","1","5","7","6","3","6","7","7","2","7","6","5","7","6","733820079237763073","潘","415","Female","[""坏我"",""好我"",""坏她"",""好她""]","[""弱我"",""强我"",""弱她"",""强她""]","","","","","","","","3","","","","","","","","","SRET","SRET_math_calculate","","key","3","13.335294117647173","960","536","","","","","9/3= ?","3","1","","","","","","","",""
"2865","","2","psychophysics","131","402902","0.0-7.0-5.0-0.28","6","5","7","4","6","5","3","4","5","4","5","2","1","2","0","1","0","2","1","5","4","4","5","5","3","5","4","5","4","7","5","6","6","5","7","8","6","7","4","7","5","6","6","3","3","1","6","6","1","4","3","7","2","4","5","5","4","6","7","2","4","3","4","1","6","1","5","7","6","3","6","7","7","2","7","6","5","7","6","733820079237763073","潘","415","Female","[""坏我"",""好我"",""坏她"",""好她""]","[""弱我"",""强我"",""弱她"",""强她""]","","","","","","","","2","","","","","","","","","SRET","SRET_math_calculate","","key","2","13.335046728972017","960","536","","","","","22/11= ?","2","1","","","","","","","",""
"1807","","2","psychophysics","132","404709","0.0-7.0-5.0-0.29","6","5","7","4","6","5","3","4","5","4","5","2","1","2","0","1","0","2","1","5","4","4","5","5","3","5","4","5","4","7","5","6","6","5","7","8","6","7","4","7","5","6","6","3","3","1","6","6","1","4","3","7","2","4","5","5","4","6","7","2","4","3","4","1","6","1","5","7","6","3","6","7","7","2","7","6","5","7","6","733820079237763073","潘","415","Female","[""坏我"",""好我"",""坏她"",""好她""]","[""弱我"",""强我"",""弱她"",""强她""]","","","","","","","","2","","","","","","","","","SRET","SRET_math_calculate","","key","2","13.335074626865412","960","536","","","","","29-27= ?","2","1","","","","","","","",""
"2270","","5","psychophysics","133","406980","0.0-7.0-5.0-0.30","6","5","7","4","6","5","3","4","5","4","5","2","1","2","0","1","0","2","1","5","4","4","5","5","3","5","4","5","4","7","5","6","6","5","7","8","6","7","4","7","5","6","6","3","3","1","6","6","1","4","3","7","2","4","5","5","4","6","7","2","4","3","4","1","6","1","5","7","6","3","6","7","7","2","7","6","5","7","6","733820079237763073","潘","415","Female","[""坏我"",""好我"",""坏她"",""好她""]","[""弱我"",""强我"",""弱她"",""强她""]","","","","","","","","5","","","","","","","","","SRET","SRET_math_calculate","","key","5","13.33529411764706","960","536","","","","","17-12= ? ","5","1","","","","","","","",""
"2691","","7","psychophysics","134","409672","0.0-7.0-5.0-0.31","6","5","7","4","6","5","3","4","5","4","5","2","1","2","0","1","0","2","1","5","4","4","5","5","3","5","4","5","4","7","5","6","6","5","7","8","6","7","4","7","5","6","6","3","3","1","6","6","1","4","3","7","2","4","5","5","4","6","7","2","4","3","4","1","6","1","5","7","6","3","6","7","7","2","7","6","5","7","6","733820079237763073","潘","415","Female","[""坏我"",""好我"",""坏她"",""好她""]","[""弱我"",""强我"",""弱她"",""强她""]","","","","","","","","7","","","","","","","","","SRET","SRET_math_calculate","","key","7","13.335500000000174","960","536","","","","","7*1=  ?","7","1","","","","","","","",""
"1990","","4","psychophysics","135","411664","0.0-7.0-5.0-0.32","6","5","7","4","6","5","3","4","5","4","5","2","1","2","0","1","0","2","1","5","4","4","5","5","3","5","4","5","4","7","5","6","6","5","7","8","6","7","4","7","5","6","6","3","3","1","6","6","1","4","3","7","2","4","5","5","4","6","7","2","4","3","4","1","6","1","5","7","6","3","6","7","7","2","7","6","5","7","6","733820079237763073","潘","415","Female","[""坏我"",""好我"",""坏她"",""好她""]","[""弱我"",""强我"",""弱她"",""强她""]","","","","","","","","4","","","","","","","","","SRET","SRET_math_calculate","","key","4","13.335570469798657","960","536","","","","","4*1= ?","4","1","","","","","","","",""
"2011","","5","psychophysics","136","413675","0.0-7.0-5.0-0.33","6","5","7","4","6","5","3","4","5","4","5","2","1","2","0","1","0","2","1","5","4","4","5","5","3","5","4","5","4","7","5","6","6","5","7","8","6","7","4","7","5","6","6","3","3","1","6","6","1","4","3","7","2","4","5","5","4","6","7","2","4","3","4","1","6","1","5","7","6","3","6","7","7","2","7","6","5","7","6","733820079237763073","潘","415","Female","[""坏我"",""好我"",""坏她"",""好她""]","[""弱我"",""强我"",""弱她"",""强她""]","","","","","","","","5","","","","","","","","","SRET","SRET_math_calculate","","key","5","13.336000000000155","960","536","","","","","9-4= ?","5","1","","","","","","","",""
"2206","","9","psychophysics","137","415882","0.0-7.0-5.0-0.34","6","5","7","4","6","5","3","4","5","4","5","2","1","2","0","1","0","2","1","5","4","4","5","5","3","5","4","5","4","7","5","6","6","5","7","8","6","7","4","7","5","6","6","3","3","1","6","6","1","4","3","7","2","4","5","5","4","6","7","2","4","3","4","1","6","1","5","7","6","3","6","7","7","2","7","6","5","7","6","733820079237763073","潘","415","Female","[""坏我"",""好我"",""坏她"",""好她""]","[""弱我"",""强我"",""弱她"",""强她""]","","","","","","","","9","","","","","","","","","SRET","SRET_math_calculate","","key","9","13.335365853658537","960","536","","","","","8+1= ?","9","1","","","","","","","",""
"2947","","3","psychophysics","138","418830","0.0-7.0-5.0-0.35","6","5","7","4","6","5","3","4","5","4","5","2","1","2","0","1","0","2","1","5","4","4","5","5","3","5","4","5","4","7","5","6","6","5","7","8","6","7","4","7","5","6","6","3","3","1","6","6","1","4","3","7","2","4","5","5","4","6","7","2","4","3","4","1","6","1","5","7","6","3","6","7","7","2","7","6","5","7","6","733820079237763073","潘","415","Female","[""坏我"",""好我"",""坏她"",""好她""]","[""弱我"",""强我"",""弱她"",""强她""]","","","","","","","","3","","","","","","","","","SRET","SRET_math_calculate","","key","3","13.335000000000052","960","536","","","","","21/7=  ?","3","1","","","","","","","",""
"2484","","1","psychophysics","139","421315","0.0-7.0-5.0-0.36","6","5","7","4","6","5","3","4","5","4","5","2","1","2","0","1","0","2","1","5","4","4","5","5","3","5","4","5","4","7","5","6","6","5","7","8","6","7","4","7","5","6","6","3","3","1","6","6","1","4","3","7","2","4","5","5","4","6","7","2","4","3","4","1","6","1","5","7","6","3","6","7","7","2","7","6","5","7","6","733820079237763073","潘","415","Female","[""坏我"",""好我"",""坏她"",""好她""]","[""弱我"",""强我"",""弱她"",""强她""]","","","","","","","","1","","","","","","","","","SRET","SRET_math_calculate","","key","1","13.334946236559077","960","536","","","","","4/4= ?","1","1","","","","","","","",""
"2334","","4","psychophysics","140","423650","0.0-7.0-5.0-0.37","6","5","7","4","6","5","3","4","5","4","5","2","1","2","0","1","0","2","1","5","4","4","5","5","3","5","4","5","4","7","5","6","6","5","7","8","6","7","4","7","5","6","6","3","3","1","6","6","1","4","3","7","2","4","5","5","4","6","7","2","4","3","4","1","6","1","5","7","6","3","6","7","7","2","7","6","5","7","6","733820079237763073","潘","415","Female","[""坏我"",""好我"",""坏她"",""好她""]","[""弱我"",""强我"",""弱她"",""强她""]","","","","","","","","4","","","","","","","","","SRET","SRET_math_calculate","","key","4","13.335057471264301","960","536","","","","","13-9= ?","4","1","","","","","","","",""
"2170","","8","psychophysics","141","425821","0.0-7.0-5.0-0.38","6","5","7","4","6","5","3","4","5","4","5","2","1","2","0","1","0","2","1","5","4","4","5","5","3","5","4","5","4","7","5","6","6","5","7","8","6","7","4","7","5","6","6","3","3","1","6","6","1","4","3","7","2","4","5","5","4","6","7","2","4","3","4","1","6","1","5","7","6","3","6","7","7","2","7","6","5","7","6","733820079237763073","潘","415","Female","[""坏我"",""好我"",""坏她"",""好她""]","[""弱我"",""强我"",""弱她"",""强她""]","","","","","","","","8","","","","","","","","","SRET","SRET_math_calculate","","key","8","13.334782608695797","960","536","","","","","7+1= ?","8","1","","","","","","","",""
"2085","","9","psychophysics","142","427906","0.0-7.0-5.0-0.39","6","5","7","4","6","5","3","4","5","4","5","2","1","2","0","1","0","2","1","5","4","4","5","5","3","5","4","5","4","7","5","6","6","5","7","8","6","7","4","7","5","6","6","3","3","1","6","6","1","4","3","7","2","4","5","5","4","6","7","2","4","3","4","1","6","1","5","7","6","3","6","7","7","2","7","6","5","7","6","733820079237763073","潘","415","Female","[""坏我"",""好我"",""坏她"",""好她""]","[""弱我"",""强我"",""弱她"",""强她""]","","","","","","","","9","","","","","","","","","SRET","SRET_math_calculate","","key","9","13.335256410256335","960","536","","","","","6+3= ?","9","1","","","","","","","",""
