"rt","stimulus","response","trial_type","trial_index","time_elapsed","internal_node_id","swb_1","swb_2","swb_3","swb_4","swb_5","LOT_1","LOT_2","LOT_3","LOT_4","LOT_5","LOT_6","IPC_1","IPC_2","IPC_3","IPC_4","IPC_5","IPC_6","IPC_7","IPC_8","MorIden_1","MorIden_2","MorIden_3","MorIden_4","MorIden_5","MorIden_6","MorIden_7","MorIden_8","MorIden_9","MorIden_10","moralSeImag_1","moralSeImag_2","moralSeImag_3","moralSeImag_4","moralSeImag_5","moralSeImag_6","moralSeImag_7","moralSeImag_8","moralSeImag_9","sde_1","sde_2","sde_3","sde_4","sde_5","sde_6","sde_7","sde_8","sde_9","sde_10","trap2","sde_11","sde_12","sde_13","sde_14","sde_15","sde_16","sde_17","sde_18","sde_19","sde_20","IM_1","IM_2","IM_3","IM_4","IM_5","IM_6","IM_7","IM_8","IM_9","IM_10","IM_11","IM_12","IM_13","IM_14","IM_15","IM_16","IM_17","IM_18","IM_19","IM_20","subj_idx","friend_name","ParticipantID","Sex","Word","Word2","value","success","timeout","failed_images","failed_audio","failed_video","user_agent","responses","item_order","radio_event_ids","radio_event_times","key_event_times","mouse_event_times","straightlining","zigzagging","honeypot","task_id","screen_id","time_stamp","response_type","key_press","avg_frame_time","center_x","center_y","person","word","valence","domain","math","correct_response","correct","status","view_history","identity","duration","Image","condition","question_order","trap2_item"
"5149","
   <p><div style='color:white; font-size: 25px'>您好，欢迎参加本次实验。</div></p>
   <p><div style='color:white; font-size: 25px'>为充分保障您的权利，请确保您已经知晓并同意《参与实验同意书》以及《数据公开知情同意书》。</div></p>
   <p><div style='color:white; font-size: 25px'>如果您未见过上述内容，请咨询实验员。</div></p>
   <p style='color:white; font-size: 25px'>如果您选择继续实验，则表示您已经清楚两份知情同意书的内容并同意。</p>
   <p><div style = ""color: pink;font-size:30px;"">请确保您记得day0的实验编号，您将在本次实验输入该编号，若您忘记，请咨询实验员后作答。</div></p>
   <p><div style = ""color:lightblue;font-size:25px;"">请您尽可能认真地作答，我们将依据您在各问卷和按键任务中的作答质量发放报酬。</div></p>
   <p> <div style = ""color: green""><按空格键至下页></div> </p>
   "," ","html-keyboard-response","0","5150","0.0-0.0","5","4","4","3","3","3","2","4","4","4","4","0","-2","0","-2","1","0","1","1","4","5","5","5","3","4","3","4","4","4","4","4","5","6","7","7","5","7","8","6","4","1","5","5","2","3","6","4","3","1","5","2","3","3","4","5","2","4","3","6","3","6","3","2","3","5","6","3","5","7","7","2","7","7","6","4","3","5","6","5","729238735765639170","张","565","Female","[""好她"",""好我"",""坏她"",""坏我""]","[""强她"",""强我"",""弱她"",""弱我""]","","","","","","","","","","","","","","","","","","","","","","","","","","","","","","","","","","","","","","",""
"","","","call-function","1","5151","0.0-1.0-0.0","5","4","4","3","3","3","2","4","4","4","4","0","-2","0","-2","1","0","1","1","4","5","5","5","3","4","3","4","4","4","4","4","5","6","7","7","5","7","8","6","4","1","5","5","2","3","6","4","3","1","5","2","3","3","4","5","2","4","3","6","3","6","3","2","3","5","6","3","5","7","7","2","7","7","6","4","3","5","6","5","729238735765639170","张","565","Female","[""好她"",""好我"",""坏她"",""坏我""]","[""强她"",""强我"",""弱她"",""弱我""]","","","","","","","","","","","","","","","","","","","","","","","","","","","","","","","","","","","","","","",""
"21627","","[{""name"":""Sex"",""value"":""1""},{""name"":""friend_name"",""value"":""张""},{""name"":""ParticipantID"",""value"":""565""}]","survey-html-form","2","26779","0.0-1.0-1.0","5","4","4","3","3","3","2","4","4","4","4","0","-2","0","-2","1","0","1","1","4","5","5","5","3","4","3","4","4","4","4","4","5","6","7","7","5","7","8","6","4","1","5","5","2","3","6","4","3","1","5","2","3","3","4","5","2","4","3","6","3","6","3","2","3","5","6","3","5","7","7","2","7","7","6","4","3","5","6","5","729238735765639170","张","565","Female","[""好她"",""好我"",""坏她"",""坏我""]","[""强她"",""强我"",""弱她"",""弱我""]","","","","","","","","","","","","","","","","","","","","","","","","","","","","","","","","","","","","","","",""
"","","","preload","3","27320","0.0-2.0","5","4","4","3","3","3","2","4","4","4","4","0","-2","0","-2","1","0","1","1","4","5","5","5","3","4","3","4","4","4","4","4","5","6","7","7","5","7","8","6","4","1","5","5","2","3","6","4","3","1","5","2","3","3","4","5","2","4","3","6","3","6","3","2","3","5","6","3","5","7","7","2","7","7","6","4","3","5","6","5","729238735765639170","张","565","Female","[""好她"",""好我"",""坏她"",""坏我""]","[""强她"",""强我"",""弱她"",""弱我""]","","true","false","[]","[]","[]","","","","","","","","","","","","","","","","","","","","","","","","","","","","","","","","",""
"","","","fullscreen","4","36536","0.0-3.0","5","4","4","3","3","3","2","4","4","4","4","0","-2","0","-2","1","0","1","1","4","5","5","5","3","4","3","4","4","4","4","4","5","6","7","7","5","7","8","6","4","1","5","5","2","3","6","4","3","1","5","2","3","3","4","5","2","4","3","6","3","6","3","2","3","5","6","3","5","7","7","2","7","7","6","4","3","5","6","5","729238735765639170","张","565","Female","[""好她"",""好我"",""坏她"",""坏我""]","[""强她"",""强我"",""弱她"",""弱我""]","","true","","","","","{}","","","","","","","","","","","","","","","","","","","","","","","","","","","","","","","",""
"11717.400000095367","","{""Q01"":""5"",""Q02"":""4"",""Q03"":""4"",""Q04"":""3"",""Q05"":""3""}","survey-template","5","48258","0.0-4.0","5","4","4","3","3","3","2","4","4","4","4","0","-2","0","-2","1","0","1","1","4","5","5","5","3","4","3","4","4","4","4","4","5","6","7","7","5","7","8","6","4","1","5","5","2","3","6","4","3","1","5","2","3","3","4","5","2","4","3","6","3","6","3","2","3","5","6","3","5","7","7","2","7","7","6","4","3","5","6","5","729238735765639170","张","565","Female","[""好她"",""好我"",""坏她"",""坏我""]","[""强她"",""强我"",""弱她"",""弱我""]","","","","","","","","{""Q01"":""5"",""Q02"":""4"",""Q03"":""4"",""Q04"":""3"",""Q05"":""3""}","[0,1,2,3,4]","[""Q01"",""Q02"",""Q03"",""Q04"",""Q05""]","[3039.300000190735,4428.5,7988.5,8780.400000095367,11052.300000190735]","[]","[2316.5999999046326,3039.300000190735,4428.5,5766,7988.5,8780.400000095367,11052.300000190735,11716.400000095367]","0.4","0.5","0","","","","","","","","","","","","","","","","","","","","","","",""
"13685","","{""Q01"":""3"",""Q02"":""2"",""Q03"":""4"",""Q04"":""4"",""Q05"":""4"",""Q06"":""4""}","survey-template","6","61946","0.0-5.0","5","4","4","3","3","3","2","4","4","4","4","0","-2","0","-2","1","0","1","1","4","5","5","5","3","4","3","4","4","4","4","4","5","6","7","7","5","7","8","6","4","1","5","5","2","3","6","4","3","1","5","2","3","3","4","5","2","4","3","6","3","6","3","2","3","5","6","3","5","7","7","2","7","7","6","4","3","5","6","5","729238735765639170","张","565","Female","[""好她"",""好我"",""坏她"",""坏我""]","[""强她"",""强我"",""弱她"",""弱我""]","","","","","","","","{""Q01"":""3"",""Q02"":""2"",""Q03"":""4"",""Q04"":""4"",""Q05"":""4"",""Q06"":""4""}","[0,1,2,3,4,5]","[""Q01"",""Q02"",""Q03"",""Q04"",""Q05"",""Q06""]","[2156.2999997138977,3132,4139.799999713898,7148.400000095367,9091.900000095367,12619.900000095367]","[]","[2156.2999997138977,3132,4139.799999713898,7148.400000095367,9091.900000095367,12619.900000095367,13684.400000095367]","0.5","0.2","0","","","","","","","","","","","","","","","","","","","","","","",""
"22109.799999713898","","{""Q01"":""0"",""Q02"":""-2"",""Q03"":""0"",""Q04"":""-2"",""Q05"":""1"",""Q06"":""0"",""Q07"":""1"",""Q08"":""1""}","survey-template","7","84058","0.0-6.0","5","4","4","3","3","3","2","4","4","4","4","0","-2","0","-2","1","0","1","1","4","5","5","5","3","4","3","4","4","4","4","4","5","6","7","7","5","7","8","6","4","1","5","5","2","3","6","4","3","1","5","2","3","3","4","5","2","4","3","6","3","6","3","2","3","5","6","3","5","7","7","2","7","7","6","4","3","5","6","5","729238735765639170","张","565","Female","[""好她"",""好我"",""坏她"",""坏我""]","[""强她"",""强我"",""弱她"",""弱我""]","","","","","","","","{""Q01"":""0"",""Q02"":""-2"",""Q03"":""0"",""Q04"":""-2"",""Q05"":""1"",""Q06"":""0"",""Q07"":""1"",""Q08"":""1""}","[0,1,2,3,4,5,6,7]","[""Q01"",""Q02"",""Q03"",""Q04"",""Q05"",""Q06"",""Q07"",""Q08""]","[3172.2999997138977,6420.699999809265,10452.400000095367,14052.400000095367,15780.699999809265,17212.299999713898,19348.799999713898,21444.599999904633]","[]","[3172.2999997138977,6420.699999809265,10452.400000095367,12645.599999904633,14052.400000095367,15780.699999809265,17212.299999713898,19348.799999713898,21444.599999904633,22108.699999809265]","0.375","0.2857142857142857","0","","","","","","","","","","","","","","","","","","","","","","",""
"17167","
    <p><div style='color:white;font-size:35px; line-height:20px;'>词汇评估任务</div></p><br>
    <p><div style='color:white;font-size:25px; line-height:20px;'>请再次回忆该亲密的朋友，你们至少2年前就认识了，并且最近2年经常见面。</div></p>
    <p><div style='color:white;font-size:25px; line-height:20px;'>在本实验中，您将会看到一些形容词。</div></p>
    <p><div style='color:yellow;font-size:25px; line-height:20px;'>您的任务是判断这些形容词是否符合对您自己或您的朋友的描述。</div></p><p style='font-size:35px'>符合按<span style=""color:lightgreen""> j 键</span>，不符合按<span style=""color:red""> f 键</span></p>","0","html-button-response","8","101227","0.0-7.0-0.0","5","4","4","3","3","3","2","4","4","4","4","0","-2","0","-2","1","0","1","1","4","5","5","5","3","4","3","4","4","4","4","4","5","6","7","7","5","7","8","6","4","1","5","5","2","3","6","4","3","1","5","2","3","3","4","5","2","4","3","6","3","6","3","2","3","5","6","3","5","7","7","2","7","7","6","4","3","5","6","5","729238735765639170","张","565","Female","[""好她"",""好我"",""坏她"",""坏我""]","[""强她"",""强我"",""弱她"",""弱我""]","","","","","","","","","","","","","","","","","SRET_EW","EW_instructions","Sat Jan 20 2024 19:17:37 GMT+0800 (中国标准时间)","","","","","","","","","","","","","","","","","","","",""
"1913","","f","psychophysics","9","104147","0.0-7.0-1.0-0.0","5","4","4","3","3","3","2","4","4","4","4","0","-2","0","-2","1","0","1","1","4","5","5","5","3","4","3","4","4","4","4","4","5","6","7","7","5","7","8","6","4","1","5","5","2","3","6","4","3","1","5","2","3","3","4","5","2","4","3","6","3","6","3","2","3","5","6","3","5","7","7","2","7","7","6","4","3","5","6","5","729238735765639170","张","565","Female","[""好她"",""好我"",""坏她"",""坏我""]","[""强她"",""强我"",""弱她"",""弱我""]","","","","","","","","no","","","","","","","","","SRET_EW","EW_practice","","key","f","16.7252228571428","640","396","自己","刻板","Negative","ability","","","","","","","","","","",""
"1360","","f","psychophysics","10","106510","0.0-7.0-1.0-0.1","5","4","4","3","3","3","2","4","4","4","4","0","-2","0","-2","1","0","1","1","4","5","5","5","3","4","3","4","4","4","4","4","5","6","7","7","5","7","8","6","4","1","5","5","2","3","6","4","3","1","5","2","3","3","4","5","2","4","3","6","3","6","3","2","3","5","6","3","5","7","7","2","7","7","6","4","3","5","6","5","729238735765639170","张","565","Female","[""好她"",""好我"",""坏她"",""坏我""]","[""强她"",""强我"",""弱她"",""弱我""]","","","","","","","","no","","","","","","","","","SRET_EW","EW_practice","","key","f","16.66672142857143","640","396","自己","严谨","Positive","ability","","","","","","","","","","",""
"1907","","j","psychophysics","11","109418","0.0-7.0-1.0-0.2","5","4","4","3","3","3","2","4","4","4","4","0","-2","0","-2","1","0","1","1","4","5","5","5","3","4","3","4","4","4","4","4","5","6","7","7","5","7","8","6","4","1","5","5","2","3","6","4","3","1","5","2","3","3","4","5","2","4","3","6","3","6","3","2","3","5","6","3","5","7","7","2","7","7","6","4","3","5","6","5","729238735765639170","张","565","Female","[""好她"",""好我"",""坏她"",""坏我""]","[""强她"",""强我"",""弱她"",""弱我""]","","","","","","","","yes","","","","","","","","","SRET_EW","EW_practice","","key","j","16.666942528735603","640","396","朋友","忠实","Positive","morality","","","","","","","","","","",""
"962","","f","psychophysics","12","111381","0.0-7.0-1.0-0.3","5","4","4","3","3","3","2","4","4","4","4","0","-2","0","-2","1","0","1","1","4","5","5","5","3","4","3","4","4","4","4","4","5","6","7","7","5","7","8","6","4","1","5","5","2","3","6","4","3","1","5","2","3","3","4","5","2","4","3","6","3","6","3","2","3","5","6","3","5","7","7","2","7","7","6","4","3","5","6","5","729238735765639170","张","565","Female","[""好她"",""好我"",""坏她"",""坏我""]","[""强她"",""强我"",""弱她"",""弱我""]","","","","","","","","no","","","","","","","","","SRET_EW","EW_practice","","key","f","16.669410256410348","640","396","朋友","徇私","Negative","morality","","","","","","","","","","",""
"18446","
    <p><div style='color:white;font-size:35px; line-height:20px;'>请您再次阅读实验要求</div></p><br>
    <p><div style='color:white;font-size:25px; line-height:20px;'>请回忆某一个亲密的朋友，你们至少2年前就认识了，并且最近2年经常见面。</div></p>
    <p><div style='color:white;font-size:25px; line-height:20px;'>在本实验中，您将会看到一些形容词。</div></p>
    <p><div style='color:yellow;font-size:25px; line-height:20px;'>您的任务是判断这些形容词是否符合对您自己或您的朋友的描述。</div></p>
    <p><div class='footer' style='font-size:25px; line-height:20px;'>如果对本实验还有不清楚之处，请立即向实验员咨询。</p><p style='font-size:25px; line-height:20px;'>如果您明白了规则：</p><p style='font-size:22px; line-height:20px;'>请按 继续 进入正式实验</p>
    </div>
    <p style='font-size:35px'>符合按<span style=""color:lightgreen""> j 键</span>，不符合按<span style=""color:red""> f 键</span></p>","0","html-button-response","13","129828","0.0-7.0-2.0","5","4","4","3","3","3","2","4","4","4","4","0","-2","0","-2","1","0","1","1","4","5","5","5","3","4","3","4","4","4","4","4","5","6","7","7","5","7","8","6","4","1","5","5","2","3","6","4","3","1","5","2","3","3","4","5","2","4","3","6","3","6","3","2","3","5","6","3","5","7","7","2","7","7","6","4","3","5","6","5","729238735765639170","张","565","Female","[""好她"",""好我"",""坏她"",""坏我""]","[""强她"",""强我"",""弱她"",""弱我""]","","","","","","","","","","","","","","","","","SRET_EW","prac_instructions","Sat Jan 20 2024 19:17:37 GMT+0800 (中国标准时间)","","","","","","","","","","","","","","","","","","","",""
"700","","j","psychophysics","14","131530","0.0-7.0-3.0-0.0","5","4","4","3","3","3","2","4","4","4","4","0","-2","0","-2","1","0","1","1","4","5","5","5","3","4","3","4","4","4","4","4","5","6","7","7","5","7","8","6","4","1","5","5","2","3","6","4","3","1","5","2","3","3","4","5","2","4","3","6","3","6","3","2","3","5","6","3","5","7","7","2","7","7","6","4","3","5","6","5","729238735765639170","张","565","Female","[""好她"",""好我"",""坏她"",""坏我""]","[""强她"",""强我"",""弱她"",""弱我""]","","","","","","","","yes","","","","","","","","","SRET","EW_formal","","key","j","16.675509803921585","640","396","朋友","务实","Positive","ability","","","","","","","","","","",""
"952","","j","psychophysics","15","133483","0.0-7.0-3.0-0.1","5","4","4","3","3","3","2","4","4","4","4","0","-2","0","-2","1","0","1","1","4","5","5","5","3","4","3","4","4","4","4","4","5","6","7","7","5","7","8","6","4","1","5","5","2","3","6","4","3","1","5","2","3","3","4","5","2","4","3","6","3","6","3","2","3","5","6","3","5","7","7","2","7","7","6","4","3","5","6","5","729238735765639170","张","565","Female","[""好她"",""好我"",""坏她"",""坏我""]","[""强她"",""强我"",""弱她"",""弱我""]","","","","","","","","yes","","","","","","","","","SRET","EW_formal","","key","j","16.666405172413917","640","396","自己","说谎","Negative","morality","","","","","","","","","","",""
"1040","","f","psychophysics","16","135525","0.0-7.0-3.0-0.2","5","4","4","3","3","3","2","4","4","4","4","0","-2","0","-2","1","0","1","1","4","5","5","5","3","4","3","4","4","4","4","4","5","6","7","7","5","7","8","6","4","1","5","5","2","3","6","4","3","1","5","2","3","3","4","5","2","4","3","6","3","6","3","2","3","5","6","3","5","7","7","2","7","7","6","4","3","5","6","5","729238735765639170","张","565","Female","[""好她"",""好我"",""坏她"",""坏我""]","[""强她"",""强我"",""弱她"",""弱我""]","","","","","","","","no","","","","","","","","","SRET","EW_formal","","key","f","16.667190082644716","640","396","朋友","迷糊","Negative","ability","","","","","","","","","","",""
"1367","","f","psychophysics","17","137893","0.0-7.0-3.0-0.3","5","4","4","3","3","3","2","4","4","4","4","0","-2","0","-2","1","0","1","1","4","5","5","5","3","4","3","4","4","4","4","4","5","6","7","7","5","7","8","6","4","1","5","5","2","3","6","4","3","1","5","2","3","3","4","5","2","4","3","6","3","6","3","2","3","5","6","3","5","7","7","2","7","7","6","4","3","5","6","5","729238735765639170","张","565","Female","[""好她"",""好我"",""坏她"",""坏我""]","[""强她"",""强我"",""弱她"",""弱我""]","","","","","","","","no","","","","","","","","","SRET","EW_formal","","key","f","16.66916312056747","640","396","自己","坚贞","Positive","morality","","","","","","","","","","",""
"null","","null","psychophysics","18","140895","0.0-7.0-3.0-0.4","5","4","4","3","3","3","2","4","4","4","4","0","-2","0","-2","1","0","1","1","4","5","5","5","3","4","3","4","4","4","4","4","5","6","7","7","5","7","8","6","4","1","5","5","2","3","6","4","3","1","5","2","3","3","4","5","2","4","3","6","3","6","3","2","3","5","6","3","5","7","7","2","7","7","6","4","3","5","6","5","729238735765639170","张","565","Female","[""好她"",""好我"",""坏她"",""坏我""]","[""强她"",""强我"",""弱她"",""弱我""]","","","","","","","","","","","","","","","","","SRET","EW_formal","","key","null","16.668111111111163","640","396","朋友","偏私","Negative","morality","","","","","","","","","","",""
"822","","j","psychophysics","19","142719","0.0-7.0-3.0-0.5","5","4","4","3","3","3","2","4","4","4","4","0","-2","0","-2","1","0","1","1","4","5","5","5","3","4","3","4","4","4","4","4","5","6","7","7","5","7","8","6","4","1","5","5","2","3","6","4","3","1","5","2","3","3","4","5","2","4","3","6","3","6","3","2","3","5","6","3","5","7","7","2","7","7","6","4","3","5","6","5","729238735765639170","张","565","Female","[""好她"",""好我"",""坏她"",""坏我""]","[""强她"",""强我"",""弱她"",""弱我""]","","","","","","","","yes","","","","","","","","","SRET","EW_formal","","key","j","16.66726851851854","640","396","朋友","奉献","Positive","morality","","","","","","","","","","",""
"780","","f","psychophysics","20","144500","0.0-7.0-3.0-0.6","5","4","4","3","3","3","2","4","4","4","4","0","-2","0","-2","1","0","1","1","4","5","5","5","3","4","3","4","4","4","4","4","5","6","7","7","5","7","8","6","4","1","5","5","2","3","6","4","3","1","5","2","3","3","4","5","2","4","3","6","3","6","3","2","3","5","6","3","5","7","7","2","7","7","6","4","3","5","6","5","729238735765639170","张","565","Female","[""好她"",""好我"",""坏她"",""坏我""]","[""强她"",""强我"",""弱她"",""弱我""]","","","","","","","","no","","","","","","","","","SRET","EW_formal","","key","f","16.66883962264148","640","396","朋友","拖延","Negative","ability","","","","","","","","","","",""
"810","","f","psychophysics","21","146312","0.0-7.0-3.0-0.7","5","4","4","3","3","3","2","4","4","4","4","0","-2","0","-2","1","0","1","1","4","5","5","5","3","4","3","4","4","4","4","4","5","6","7","7","5","7","8","6","4","1","5","5","2","3","6","4","3","1","5","2","3","3","4","5","2","4","3","6","3","6","3","2","3","5","6","3","5","7","7","2","7","7","6","4","3","5","6","5","729238735765639170","张","565","Female","[""好她"",""好我"",""坏她"",""坏我""]","[""强她"",""强我"",""弱她"",""弱我""]","","","","","","","","no","","","","","","","","","SRET","EW_formal","","key","f","16.667074074074023","640","396","朋友","邪恶","Negative","morality","","","","","","","","","","",""
"1082","","f","psychophysics","22","148395","0.0-7.0-3.0-0.8","5","4","4","3","3","3","2","4","4","4","4","0","-2","0","-2","1","0","1","1","4","5","5","5","3","4","3","4","4","4","4","4","5","6","7","7","5","7","8","6","4","1","5","5","2","3","6","4","3","1","5","2","3","3","4","5","2","4","3","6","3","6","3","2","3","5","6","3","5","7","7","2","7","7","6","4","3","5","6","5","729238735765639170","张","565","Female","[""好她"",""好我"",""坏她"",""坏我""]","[""强她"",""强我"",""弱她"",""弱我""]","","","","","","","","no","","","","","","","","","SRET","EW_formal","","key","f","16.66351612903236","640","396","自己","低劣","Negative","morality","","","","","","","","","","",""
"670","","f","psychophysics","23","150066","0.0-7.0-3.0-0.9","5","4","4","3","3","3","2","4","4","4","4","0","-2","0","-2","1","0","1","1","4","5","5","5","3","4","3","4","4","4","4","4","5","6","7","7","5","7","8","6","4","1","5","5","2","3","6","4","3","1","5","2","3","3","4","5","2","4","3","6","3","6","3","2","3","5","6","3","5","7","7","2","7","7","6","4","3","5","6","5","729238735765639170","张","565","Female","[""好她"",""好我"",""坏她"",""坏我""]","[""强她"",""强我"",""弱她"",""弱我""]","","","","","","","","no","","","","","","","","","SRET","EW_formal","","key","f","16.66638383838393","640","396","自己","奸诈","Negative","morality","","","","","","","","","","",""
"960","","j","psychophysics","24","152027","0.0-7.0-3.0-0.10","5","4","4","3","3","3","2","4","4","4","4","0","-2","0","-2","1","0","1","1","4","5","5","5","3","4","3","4","4","4","4","4","5","6","7","7","5","7","8","6","4","1","5","5","2","3","6","4","3","1","5","2","3","3","4","5","2","4","3","6","3","6","3","2","3","5","6","3","5","7","7","2","7","7","6","4","3","5","6","5","729238735765639170","张","565","Female","[""好她"",""好我"",""坏她"",""坏我""]","[""强她"",""强我"",""弱她"",""弱我""]","","","","","","","","yes","","","","","","","","","SRET","EW_formal","","key","j","16.666844827586388","640","396","朋友","独立","Positive","ability","","","","","","","","","","",""
"886","","f","psychophysics","25","153915","0.0-7.0-3.0-0.11","5","4","4","3","3","3","2","4","4","4","4","0","-2","0","-2","1","0","1","1","4","5","5","5","3","4","3","4","4","4","4","4","5","6","7","7","5","7","8","6","4","1","5","5","2","3","6","4","3","1","5","2","3","3","4","5","2","4","3","6","3","6","3","2","3","5","6","3","5","7","7","2","7","7","6","4","3","5","6","5","729238735765639170","张","565","Female","[""好她"",""好我"",""坏她"",""坏我""]","[""强她"",""强我"",""弱她"",""弱我""]","","","","","","","","no","","","","","","","","","SRET","EW_formal","","key","f","16.666530973451323","640","396","朋友","刻苦","Positive","ability","","","","","","","","","","",""
"1347","","j","psychophysics","26","156262","0.0-7.0-3.0-0.12","5","4","4","3","3","3","2","4","4","4","4","0","-2","0","-2","1","0","1","1","4","5","5","5","3","4","3","4","4","4","4","4","5","6","7","7","5","7","8","6","4","1","5","5","2","3","6","4","3","1","5","2","3","3","4","5","2","4","3","6","3","6","3","2","3","5","6","3","5","7","7","2","7","7","6","4","3","5","6","5","729238735765639170","张","565","Female","[""好她"",""好我"",""坏她"",""坏我""]","[""强她"",""强我"",""弱她"",""弱我""]","","","","","","","","yes","","","","","","","","","SRET","EW_formal","","key","j","16.66563571428581","640","396","自己","独断","Negative","ability","","","","","","","","","","",""
"1292","","j","psychophysics","27","158555","0.0-7.0-3.0-0.13","5","4","4","3","3","3","2","4","4","4","4","0","-2","0","-2","1","0","1","1","4","5","5","5","3","4","3","4","4","4","4","4","5","6","7","7","5","7","8","6","4","1","5","5","2","3","6","4","3","1","5","2","3","3","4","5","2","4","3","6","3","6","3","2","3","5","6","3","5","7","7","2","7","7","6","4","3","5","6","5","729238735765639170","张","565","Female","[""好她"",""好我"",""坏她"",""坏我""]","[""强她"",""强我"",""弱她"",""弱我""]","","","","","","","","yes","","","","","","","","","SRET","EW_formal","","key","j","16.665897058823568","640","396","朋友","善良","Positive","morality","","","","","","","","","","",""
"1190","","f","psychophysics","28","160746","0.0-7.0-3.0-0.14","5","4","4","3","3","3","2","4","4","4","4","0","-2","0","-2","1","0","1","1","4","5","5","5","3","4","3","4","4","4","4","4","5","6","7","7","5","7","8","6","4","1","5","5","2","3","6","4","3","1","5","2","3","3","4","5","2","4","3","6","3","6","3","2","3","5","6","3","5","7","7","2","7","7","6","4","3","5","6","5","729238735765639170","张","565","Female","[""好她"",""好我"",""坏她"",""坏我""]","[""强她"",""强我"",""弱她"",""弱我""]","","","","","","","","no","","","","","","","","","SRET","EW_formal","","key","f","16.667480916030552","640","396","朋友","才尽","Negative","ability","","","","","","","","","","",""
"888","","f","psychophysics","29","162637","0.0-7.0-3.0-0.15","5","4","4","3","3","3","2","4","4","4","4","0","-2","0","-2","1","0","1","1","4","5","5","5","3","4","3","4","4","4","4","4","5","6","7","7","5","7","8","6","4","1","5","5","2","3","6","4","3","1","5","2","3","3","4","5","2","4","3","6","3","6","3","2","3","5","6","3","5","7","7","2","7","7","6","4","3","5","6","5","729238735765639170","张","565","Female","[""好她"",""好我"",""坏她"",""坏我""]","[""强她"",""强我"",""弱她"",""弱我""]","","","","","","","","no","","","","","","","","","SRET","EW_formal","","key","f","16.66681250000017","640","396","朋友","虚假","Negative","morality","","","","","","","","","","",""
"1127","","f","psychophysics","30","164765","0.0-7.0-3.0-0.16","5","4","4","3","3","3","2","4","4","4","4","0","-2","0","-2","1","0","1","1","4","5","5","5","3","4","3","4","4","4","4","4","5","6","7","7","5","7","8","6","4","1","5","5","2","3","6","4","3","1","5","2","3","3","4","5","2","4","3","6","3","6","3","2","3","5","6","3","5","7","7","2","7","7","6","4","3","5","6","5","729238735765639170","张","565","Female","[""好她"",""好我"",""坏她"",""坏我""]","[""强她"",""强我"",""弱她"",""弱我""]","","","","","","","","no","","","","","","","","","SRET","EW_formal","","key","f","16.666992125984358","640","396","自己","昏庸","Negative","ability","","","","","","","","","","",""
"1176","","f","psychophysics","31","166942","0.0-7.0-3.0-0.17","5","4","4","3","3","3","2","4","4","4","4","0","-2","0","-2","1","0","1","1","4","5","5","5","3","4","3","4","4","4","4","4","5","6","7","7","5","7","8","6","4","1","5","5","2","3","6","4","3","1","5","2","3","3","4","5","2","4","3","6","3","6","3","2","3","5","6","3","5","7","7","2","7","7","6","4","3","5","6","5","729238735765639170","张","565","Female","[""好她"",""好我"",""坏她"",""坏我""]","[""强她"",""强我"",""弱她"",""弱我""]","","","","","","","","no","","","","","","","","","SRET","EW_formal","","key","f","16.66650387596893","640","396","朋友","勤奋","Positive","ability","","","","","","","","","","",""
"1269","","j","psychophysics","32","169213","0.0-7.0-3.0-0.18","5","4","4","3","3","3","2","4","4","4","4","0","-2","0","-2","1","0","1","1","4","5","5","5","3","4","3","4","4","4","4","4","5","6","7","7","5","7","8","6","4","1","5","5","2","3","6","4","3","1","5","2","3","3","4","5","2","4","3","6","3","6","3","2","3","5","6","3","5","7","7","2","7","7","6","4","3","5","6","5","729238735765639170","张","565","Female","[""好她"",""好我"",""坏她"",""坏我""]","[""强她"",""强我"",""弱她"",""弱我""]","","","","","","","","yes","","","","","","","","","SRET","EW_formal","","key","j","16.66705882352942","640","396","自己","畏难","Negative","ability","","","","","","","","","","",""
"872","","j","psychophysics","33","171086","0.0-7.0-3.0-0.19","5","4","4","3","3","3","2","4","4","4","4","0","-2","0","-2","1","0","1","1","4","5","5","5","3","4","3","4","4","4","4","4","5","6","7","7","5","7","8","6","4","1","5","5","2","3","6","4","3","1","5","2","3","3","4","5","2","4","3","6","3","6","3","2","3","5","6","3","5","7","7","2","7","7","6","4","3","5","6","5","729238735765639170","张","565","Female","[""好她"",""好我"",""坏她"",""坏我""]","[""强她"",""强我"",""弱她"",""弱我""]","","","","","","","","yes","","","","","","","","","SRET","EW_formal","","key","j","16.66631531531541","640","396","朋友","敬业","Positive","morality","","","","","","","","","","",""
"842","","f","psychophysics","34","172929","0.0-7.0-3.0-0.20","5","4","4","3","3","3","2","4","4","4","4","0","-2","0","-2","1","0","1","1","4","5","5","5","3","4","3","4","4","4","4","4","5","6","7","7","5","7","8","6","4","1","5","5","2","3","6","4","3","1","5","2","3","3","4","5","2","4","3","6","3","6","3","2","3","5","6","3","5","7","7","2","7","7","6","4","3","5","6","5","729238735765639170","张","565","Female","[""好她"",""好我"",""坏她"",""坏我""]","[""强她"",""强我"",""弱她"",""弱我""]","","","","","","","","no","","","","","","","","","SRET","EW_formal","","key","f","16.66632727272729","640","396","自己","淫乱","Negative","morality","","","","","","","","","","",""
"1242","","j","psychophysics","35","175172","0.0-7.0-3.0-0.21","5","4","4","3","3","3","2","4","4","4","4","0","-2","0","-2","1","0","1","1","4","5","5","5","3","4","3","4","4","4","4","4","5","6","7","7","5","7","8","6","4","1","5","5","2","3","6","4","3","1","5","2","3","3","4","5","2","4","3","6","3","6","3","2","3","5","6","3","5","7","7","2","7","7","6","4","3","5","6","5","729238735765639170","张","565","Female","[""好她"",""好我"",""坏她"",""坏我""]","[""强她"",""强我"",""弱她"",""弱我""]","","","","","","","","yes","","","","","","","","","SRET","EW_formal","","key","j","16.665308270676725","640","396","朋友","娴熟","Positive","ability","","","","","","","","","","",""
"944","","f","psychophysics","36","177117","0.0-7.0-3.0-0.22","5","4","4","3","3","3","2","4","4","4","4","0","-2","0","-2","1","0","1","1","4","5","5","5","3","4","3","4","4","4","4","4","5","6","7","7","5","7","8","6","4","1","5","5","2","3","6","4","3","1","5","2","3","3","4","5","2","4","3","6","3","6","3","2","3","5","6","3","5","7","7","2","7","7","6","4","3","5","6","5","729238735765639170","张","565","Female","[""好她"",""好我"",""坏她"",""坏我""]","[""强她"",""强我"",""弱她"",""弱我""]","","","","","","","","no","","","","","","","","","SRET","EW_formal","","key","f","16.66756034482763","640","396","自己","逞强","Negative","ability","","","","","","","","","","",""
"1281","","f","psychophysics","37","179399","0.0-7.0-3.0-0.23","5","4","4","3","3","3","2","4","4","4","4","0","-2","0","-2","1","0","1","1","4","5","5","5","3","4","3","4","4","4","4","4","5","6","7","7","5","7","8","6","4","1","5","5","2","3","6","4","3","1","5","2","3","3","4","5","2","4","3","6","3","6","3","2","3","5","6","3","5","7","7","2","7","7","6","4","3","5","6","5","729238735765639170","张","565","Female","[""好她"",""好我"",""坏她"",""坏我""]","[""强她"",""强我"",""弱她"",""弱我""]","","","","","","","","no","","","","","","","","","SRET","EW_formal","","key","f","16.66820588235286","640","396","朋友","短浅","Negative","ability","","","","","","","","","","",""
"1145","","j","psychophysics","38","181547","0.0-7.0-3.0-0.24","5","4","4","3","3","3","2","4","4","4","4","0","-2","0","-2","1","0","1","1","4","5","5","5","3","4","3","4","4","4","4","4","5","6","7","7","5","7","8","6","4","1","5","5","2","3","6","4","3","1","5","2","3","3","4","5","2","4","3","6","3","6","3","2","3","5","6","3","5","7","7","2","7","7","6","4","3","5","6","5","729238735765639170","张","565","Female","[""好她"",""好我"",""坏她"",""坏我""]","[""强她"",""强我"",""弱她"",""弱我""]","","","","","","","","yes","","","","","","","","","SRET","EW_formal","","key","j","16.669570312500127","640","396","自己","精干","Positive","ability","","","","","","","","","","",""
"790","","f","psychophysics","39","183339","0.0-7.0-3.0-0.25","5","4","4","3","3","3","2","4","4","4","4","0","-2","0","-2","1","0","1","1","4","5","5","5","3","4","3","4","4","4","4","4","5","6","7","7","5","7","8","6","4","1","5","5","2","3","6","4","3","1","5","2","3","3","4","5","2","4","3","6","3","6","3","2","3","5","6","3","5","7","7","2","7","7","6","4","3","5","6","5","729238735765639170","张","565","Female","[""好她"",""好我"",""坏她"",""坏我""]","[""强她"",""强我"",""弱她"",""弱我""]","","","","","","","","no","","","","","","","","","SRET","EW_formal","","key","f","16.666811320754725","640","396","自己","愚痴","Negative","ability","","","","","","","","","","",""
"1296","","f","psychophysics","40","185636","0.0-7.0-3.0-0.26","5","4","4","3","3","3","2","4","4","4","4","0","-2","0","-2","1","0","1","1","4","5","5","5","3","4","3","4","4","4","4","4","5","6","7","7","5","7","8","6","4","1","5","5","2","3","6","4","3","1","5","2","3","3","4","5","2","4","3","6","3","6","3","2","3","5","6","3","5","7","7","2","7","7","6","4","3","5","6","5","729238735765639170","张","565","Female","[""好她"",""好我"",""坏她"",""坏我""]","[""强她"",""强我"",""弱她"",""弱我""]","","","","","","","","no","","","","","","","","","SRET","EW_formal","","key","f","16.668540145985375","640","396","自己","无为","Negative","ability","","","","","","","","","","",""
"861","","j","psychophysics","41","187498","0.0-7.0-3.0-0.27","5","4","4","3","3","3","2","4","4","4","4","0","-2","0","-2","1","0","1","1","4","5","5","5","3","4","3","4","4","4","4","4","5","6","7","7","5","7","8","6","4","1","5","5","2","3","6","4","3","1","5","2","3","3","4","5","2","4","3","6","3","6","3","2","3","5","6","3","5","7","7","2","7","7","6","4","3","5","6","5","729238735765639170","张","565","Female","[""好她"",""好我"",""坏她"",""坏我""]","[""强她"",""强我"",""弱她"",""弱我""]","","","","","","","","yes","","","","","","","","","SRET","EW_formal","","key","j","16.66656756756758","640","396","朋友","罪恶","Negative","morality","","","","","","","","","","",""
"1017","","f","psychophysics","42","189515","0.0-7.0-3.0-0.28","5","4","4","3","3","3","2","4","4","4","4","0","-2","0","-2","1","0","1","1","4","5","5","5","3","4","3","4","4","4","4","4","5","6","7","7","5","7","8","6","4","1","5","5","2","3","6","4","3","1","5","2","3","3","4","5","2","4","3","6","3","6","3","2","3","5","6","3","5","7","7","2","7","7","6","4","3","5","6","5","729238735765639170","张","565","Female","[""好她"",""好我"",""坏她"",""坏我""]","[""强她"",""强我"",""弱她"",""弱我""]","","","","","","","","no","","","","","","","","","SRET","EW_formal","","key","f","16.6669249999999","640","396","朋友","无知","Negative","ability","","","","","","","","","","",""
"865","","f","psychophysics","43","191382","0.0-7.0-3.0-0.29","5","4","4","3","3","3","2","4","4","4","4","0","-2","0","-2","1","0","1","1","4","5","5","5","3","4","3","4","4","4","4","4","5","6","7","7","5","7","8","6","4","1","5","5","2","3","6","4","3","1","5","2","3","3","4","5","2","4","3","6","3","6","3","2","3","5","6","3","5","7","7","2","7","7","6","4","3","5","6","5","729238735765639170","张","565","Female","[""好她"",""好我"",""坏她"",""坏我""]","[""强她"",""强我"",""弱她"",""弱我""]","","","","","","","","no","","","","","","","","","SRET","EW_formal","","key","f","16.66806306306305","640","396","自己","歹毒","Negative","morality","","","","","","","","","","",""
"969","","j","psychophysics","44","193352","0.0-7.0-3.0-0.30","5","4","4","3","3","3","2","4","4","4","4","0","-2","0","-2","1","0","1","1","4","5","5","5","3","4","3","4","4","4","4","4","5","6","7","7","5","7","8","6","4","1","5","5","2","3","6","4","3","1","5","2","3","3","4","5","2","4","3","6","3","6","3","2","3","5","6","3","5","7","7","2","7","7","6","4","3","5","6","5","729238735765639170","张","565","Female","[""好她"",""好我"",""坏她"",""坏我""]","[""强她"",""强我"",""弱她"",""弱我""]","","","","","","","","yes","","","","","","","","","SRET","EW_formal","","key","j","16.66624786324787","640","396","朋友","忠勇","Positive","morality","","","","","","","","","","",""
"1118","","j","psychophysics","45","195472","0.0-7.0-3.0-0.31","5","4","4","3","3","3","2","4","4","4","4","0","-2","0","-2","1","0","1","1","4","5","5","5","3","4","3","4","4","4","4","4","5","6","7","7","5","7","8","6","4","1","5","5","2","3","6","4","3","1","5","2","3","3","4","5","2","4","3","6","3","6","3","2","3","5","6","3","5","7","7","2","7","7","6","4","3","5","6","5","729238735765639170","张","565","Female","[""好她"",""好我"",""坏她"",""坏我""]","[""强她"",""强我"",""弱她"",""弱我""]","","","","","","","","yes","","","","","","","","","SRET","EW_formal","","key","j","16.667595238095455","640","396","朋友","干练","Positive","ability","","","","","","","","","","",""
"1136","","f","psychophysics","46","197609","0.0-7.0-3.0-0.32","5","4","4","3","3","3","2","4","4","4","4","0","-2","0","-2","1","0","1","1","4","5","5","5","3","4","3","4","4","4","4","4","5","6","7","7","5","7","8","6","4","1","5","5","2","3","6","4","3","1","5","2","3","3","4","5","2","4","3","6","3","6","3","2","3","5","6","3","5","7","7","2","7","7","6","4","3","5","6","5","729238735765639170","张","565","Female","[""好她"",""好我"",""坏她"",""坏我""]","[""强她"",""强我"",""弱她"",""弱我""]","","","","","","","","no","","","","","","","","","SRET","EW_formal","","key","f","16.66903937007869","640","396","朋友","马虎","Negative","ability","","","","","","","","","","",""
"1647","","j","psychophysics","47","200256","0.0-7.0-3.0-0.33","5","4","4","3","3","3","2","4","4","4","4","0","-2","0","-2","1","0","1","1","4","5","5","5","3","4","3","4","4","4","4","4","5","6","7","7","5","7","8","6","4","1","5","5","2","3","6","4","3","1","5","2","3","3","4","5","2","4","3","6","3","6","3","2","3","5","6","3","5","7","7","2","7","7","6","4","3","5","6","5","729238735765639170","张","565","Female","[""好她"",""好我"",""坏她"",""坏我""]","[""强她"",""强我"",""弱她"",""弱我""]","","","","","","","","yes","","","","","","","","","SRET","EW_formal","","key","j","16.668765822784863","640","396","朋友","好心","Positive","morality","","","","","","","","","","",""
"749","","f","psychophysics","48","202007","0.0-7.0-3.0-0.34","5","4","4","3","3","3","2","4","4","4","4","0","-2","0","-2","1","0","1","1","4","5","5","5","3","4","3","4","4","4","4","4","5","6","7","7","5","7","8","6","4","1","5","5","2","3","6","4","3","1","5","2","3","3","4","5","2","4","3","6","3","6","3","2","3","5","6","3","5","7","7","2","7","7","6","4","3","5","6","5","729238735765639170","张","565","Female","[""好她"",""好我"",""坏她"",""坏我""]","[""强她"",""强我"",""弱她"",""弱我""]","","","","","","","","no","","","","","","","","","SRET","EW_formal","","key","f","16.670288461538664","640","396","自己","恶劣","Negative","morality","","","","","","","","","","",""
"1446","","j","psychophysics","49","204455","0.0-7.0-3.0-0.35","5","4","4","3","3","3","2","4","4","4","4","0","-2","0","-2","1","0","1","1","4","5","5","5","3","4","3","4","4","4","4","4","5","6","7","7","5","7","8","6","4","1","5","5","2","3","6","4","3","1","5","2","3","3","4","5","2","4","3","6","3","6","3","2","3","5","6","3","5","7","7","2","7","7","6","4","3","5","6","5","729238735765639170","张","565","Female","[""好她"",""好我"",""坏她"",""坏我""]","[""强她"",""强我"",""弱她"",""弱我""]","","","","","","","","yes","","","","","","","","","SRET","EW_formal","","key","j","16.667602739725837","640","396","朋友","守法","Positive","morality","","","","","","","","","","",""
"1204","","f","psychophysics","50","206660","0.0-7.0-3.0-0.36","5","4","4","3","3","3","2","4","4","4","4","0","-2","0","-2","1","0","1","1","4","5","5","5","3","4","3","4","4","4","4","4","5","6","7","7","5","7","8","6","4","1","5","5","2","3","6","4","3","1","5","2","3","3","4","5","2","4","3","6","3","6","3","2","3","5","6","3","5","7","7","2","7","7","6","4","3","5","6","5","729238735765639170","张","565","Female","[""好她"",""好我"",""坏她"",""坏我""]","[""强她"",""强我"",""弱她"",""弱我""]","","","","","","","","no","","","","","","","","","SRET","EW_formal","","key","f","16.669068702290197","640","396","朋友","狡诈","Negative","morality","","","","","","","","","","",""
"1635","","j","psychophysics","51","209296","0.0-7.0-3.0-0.37","5","4","4","3","3","3","2","4","4","4","4","0","-2","0","-2","1","0","1","1","4","5","5","5","3","4","3","4","4","4","4","4","5","6","7","7","5","7","8","6","4","1","5","5","2","3","6","4","3","1","5","2","3","3","4","5","2","4","3","6","3","6","3","2","3","5","6","3","5","7","7","2","7","7","6","4","3","5","6","5","729238735765639170","张","565","Female","[""好她"",""好我"",""坏她"",""坏我""]","[""强她"",""强我"",""弱她"",""弱我""]","","","","","","","","yes","","","","","","","","","SRET","EW_formal","","key","j","16.66911392405064","640","396","朋友","孝顺","Positive","morality","","","","","","","","","","",""
"1061","","j","psychophysics","52","211359","0.0-7.0-3.0-0.38","5","4","4","3","3","3","2","4","4","4","4","0","-2","0","-2","1","0","1","1","4","5","5","5","3","4","3","4","4","4","4","4","5","6","7","7","5","7","8","6","4","1","5","5","2","3","6","4","3","1","5","2","3","3","4","5","2","4","3","6","3","6","3","2","3","5","6","3","5","7","7","2","7","7","6","4","3","5","6","5","729238735765639170","张","565","Female","[""好她"",""好我"",""坏她"",""坏我""]","[""强她"",""强我"",""弱她"",""弱我""]","","","","","","","","yes","","","","","","","","","SRET","EW_formal","","key","j","16.668631147541017","640","396","自己","高尚","Positive","morality","","","","","","","","","","",""
"1065","","j","psychophysics","53","213425","0.0-7.0-3.0-0.39","5","4","4","3","3","3","2","4","4","4","4","0","-2","0","-2","1","0","1","1","4","5","5","5","3","4","3","4","4","4","4","4","5","6","7","7","5","7","8","6","4","1","5","5","2","3","6","4","3","1","5","2","3","3","4","5","2","4","3","6","3","6","3","2","3","5","6","3","5","7","7","2","7","7","6","4","3","5","6","5","729238735765639170","张","565","Female","[""好她"",""好我"",""坏她"",""坏我""]","[""强她"",""强我"",""弱她"",""弱我""]","","","","","","","","yes","","","","","","","","","SRET","EW_formal","","key","j","16.66635772357723","640","396","朋友","懂行","Positive","ability","","","","","","","","","","",""
"951","","f","psychophysics","54","215377","0.0-7.0-3.0-0.40","5","4","4","3","3","3","2","4","4","4","4","0","-2","0","-2","1","0","1","1","4","5","5","5","3","4","3","4","4","4","4","4","5","6","7","7","5","7","8","6","4","1","5","5","2","3","6","4","3","1","5","2","3","3","4","5","2","4","3","6","3","6","3","2","3","5","6","3","5","7","7","2","7","7","6","4","3","5","6","5","729238735765639170","张","565","Female","[""好她"",""好我"",""坏她"",""坏我""]","[""强她"",""强我"",""弱她"",""弱我""]","","","","","","","","no","","","","","","","","","SRET","EW_formal","","key","f","16.66786206896534","640","396","朋友","业余","Negative","ability","","","","","","","","","","",""
"1064","","j","psychophysics","55","217444","0.0-7.0-3.0-0.41","5","4","4","3","3","3","2","4","4","4","4","0","-2","0","-2","1","0","1","1","4","5","5","5","3","4","3","4","4","4","4","4","5","6","7","7","5","7","8","6","4","1","5","5","2","3","6","4","3","1","5","2","3","3","4","5","2","4","3","6","3","6","3","2","3","5","6","3","5","7","7","2","7","7","6","4","3","5","6","5","729238735765639170","张","565","Female","[""好她"",""好我"",""坏她"",""坏我""]","[""强她"",""强我"",""弱她"",""弱我""]","","","","","","","","yes","","","","","","","","","SRET","EW_formal","","key","j","16.66837398373977","640","396","自己","淡泊","Positive","morality","","","","","","","","","","",""
"740","","j","psychophysics","56","219186","0.0-7.0-3.0-0.42","5","4","4","3","3","3","2","4","4","4","4","0","-2","0","-2","1","0","1","1","4","5","5","5","3","4","3","4","4","4","4","4","5","6","7","7","5","7","8","6","4","1","5","5","2","3","6","4","3","1","5","2","3","3","4","5","2","4","3","6","3","6","3","2","3","5","6","3","5","7","7","2","7","7","6","4","3","5","6","5","729238735765639170","张","565","Female","[""好她"",""好我"",""坏她"",""坏我""]","[""强她"",""强我"",""弱她"",""弱我""]","","","","","","","","yes","","","","","","","","","SRET","EW_formal","","key","j","16.668403846153804","640","396","朋友","沉着","Positive","ability","","","","","","","","","","",""
"961","","j","psychophysics","57","221149","0.0-7.0-3.0-0.43","5","4","4","3","3","3","2","4","4","4","4","0","-2","0","-2","1","0","1","1","4","5","5","5","3","4","3","4","4","4","4","4","5","6","7","7","5","7","8","6","4","1","5","5","2","3","6","4","3","1","5","2","3","3","4","5","2","4","3","6","3","6","3","2","3","5","6","3","5","7","7","2","7","7","6","4","3","5","6","5","729238735765639170","张","565","Female","[""好她"",""好我"",""坏她"",""坏我""]","[""强她"",""强我"",""弱她"",""弱我""]","","","","","","","","yes","","","","","","","","","SRET","EW_formal","","key","j","16.669888888888956","640","396","自己","顶事","Positive","ability","","","","","","","","","","",""
"784","","j","psychophysics","58","222934","0.0-7.0-3.0-0.44","5","4","4","3","3","3","2","4","4","4","4","0","-2","0","-2","1","0","1","1","4","5","5","5","3","4","3","4","4","4","4","4","5","6","7","7","5","7","8","6","4","1","5","5","2","3","6","4","3","1","5","2","3","3","4","5","2","4","3","6","3","6","3","2","3","5","6","3","5","7","7","2","7","7","6","4","3","5","6","5","729238735765639170","张","565","Female","[""好她"",""好我"",""坏她"",""坏我""]","[""强她"",""强我"",""弱她"",""弱我""]","","","","","","","","yes","","","","","","","","","SRET","EW_formal","","key","j","16.669999999999902","640","396","自己","热心","Positive","morality","","","","","","","","","","",""
"860","","j","psychophysics","59","224794","0.0-7.0-3.0-0.45","5","4","4","3","3","3","2","4","4","4","4","0","-2","0","-2","1","0","1","1","4","5","5","5","3","4","3","4","4","4","4","4","5","6","7","7","5","7","8","6","4","1","5","5","2","3","6","4","3","1","5","2","3","3","4","5","2","4","3","6","3","6","3","2","3","5","6","3","5","7","7","2","7","7","6","4","3","5","6","5","729238735765639170","张","565","Female","[""好她"",""好我"",""坏她"",""坏我""]","[""强她"",""强我"",""弱她"",""弱我""]","","","","","","","","yes","","","","","","","","","SRET","EW_formal","","key","j","16.67013513513522","640","396","自己","聪明","Positive","ability","","","","","","","","","","",""
"975","","f","psychophysics","60","226772","0.0-7.0-3.0-0.46","5","4","4","3","3","3","2","4","4","4","4","0","-2","0","-2","1","0","1","1","4","5","5","5","3","4","3","4","4","4","4","4","5","6","7","7","5","7","8","6","4","1","5","5","2","3","6","4","3","1","5","2","3","3","4","5","2","4","3","6","3","6","3","2","3","5","6","3","5","7","7","2","7","7","6","4","3","5","6","5","729238735765639170","张","565","Female","[""好她"",""好我"",""坏她"",""坏我""]","[""强她"",""强我"",""弱她"",""弱我""]","","","","","","","","no","","","","","","","","","SRET","EW_formal","","key","f","16.669205128205054","640","396","朋友","不良","Negative","morality","","","","","","","","","","",""
"1073","","f","psychophysics","61","228846","0.0-7.0-3.0-0.47","5","4","4","3","3","3","2","4","4","4","4","0","-2","0","-2","1","0","1","1","4","5","5","5","3","4","3","4","4","4","4","4","5","6","7","7","5","7","8","6","4","1","5","5","2","3","6","4","3","1","5","2","3","3","4","5","2","4","3","6","3","6","3","2","3","5","6","3","5","7","7","2","7","7","6","4","3","5","6","5","729238735765639170","张","565","Female","[""好她"",""好我"",""坏她"",""坏我""]","[""强她"",""强我"",""弱她"",""弱我""]","","","","","","","","no","","","","","","","","","SRET","EW_formal","","key","f","16.668725806451544","640","396","自己","黑心","Negative","morality","","","","","","","","","","",""
"764","","j","psychophysics","62","230611","0.0-7.0-3.0-0.48","5","4","4","3","3","3","2","4","4","4","4","0","-2","0","-2","1","0","1","1","4","5","5","5","3","4","3","4","4","4","4","4","5","6","7","7","5","7","8","6","4","1","5","5","2","3","6","4","3","1","5","2","3","3","4","5","2","4","3","6","3","6","3","2","3","5","6","3","5","7","7","2","7","7","6","4","3","5","6","5","729238735765639170","张","565","Female","[""好她"",""好我"",""坏她"",""坏我""]","[""强她"",""强我"",""弱她"",""弱我""]","","","","","","","","yes","","","","","","","","","SRET","EW_formal","","key","j","16.667685714285888","640","396","朋友","远见","Positive","ability","","","","","","","","","","",""
"696","","j","psychophysics","63","232309","0.0-7.0-3.0-0.49","5","4","4","3","3","3","2","4","4","4","4","0","-2","0","-2","1","0","1","1","4","5","5","5","3","4","3","4","4","4","4","4","5","6","7","7","5","7","8","6","4","1","5","5","2","3","6","4","3","1","5","2","3","3","4","5","2","4","3","6","3","6","3","2","3","5","6","3","5","7","7","2","7","7","6","4","3","5","6","5","729238735765639170","张","565","Female","[""好她"",""好我"",""坏她"",""坏我""]","[""强她"",""强我"",""弱她"",""弱我""]","","","","","","","","yes","","","","","","","","","SRET","EW_formal","","key","j","16.665740000000223","640","396","朋友","守信","Positive","morality","","","","","","","","","","",""
"974","","f","psychophysics","64","234284","0.0-7.0-3.0-0.50","5","4","4","3","3","3","2","4","4","4","4","0","-2","0","-2","1","0","1","1","4","5","5","5","3","4","3","4","4","4","4","4","5","6","7","7","5","7","8","6","4","1","5","5","2","3","6","4","3","1","5","2","3","3","4","5","2","4","3","6","3","6","3","2","3","5","6","3","5","7","7","2","7","7","6","4","3","5","6","5","729238735765639170","张","565","Female","[""好她"",""好我"",""坏她"",""坏我""]","[""强她"",""强我"",""弱她"",""弱我""]","","","","","","","","no","","","","","","","","","SRET","EW_formal","","key","f","16.66971186440664","640","396","自己","屈才","Negative","ability","","","","","","","","","","",""
"919","","j","psychophysics","65","236204","0.0-7.0-3.0-0.51","5","4","4","3","3","3","2","4","4","4","4","0","-2","0","-2","1","0","1","1","4","5","5","5","3","4","3","4","4","4","4","4","5","6","7","7","5","7","8","6","4","1","5","5","2","3","6","4","3","1","5","2","3","3","4","5","2","4","3","6","3","6","3","2","3","5","6","3","5","7","7","2","7","7","6","4","3","5","6","5","729238735765639170","张","565","Female","[""好她"",""好我"",""坏她"",""坏我""]","[""强她"",""强我"",""弱她"",""弱我""]","","","","","","","","yes","","","","","","","","","SRET","EW_formal","","key","j","16.667456140350847","640","396","自己","清廉","Positive","morality","","","","","","","","","","",""
"799","","f","psychophysics","66","238003","0.0-7.0-3.0-0.52","5","4","4","3","3","3","2","4","4","4","4","0","-2","0","-2","1","0","1","1","4","5","5","5","3","4","3","4","4","4","4","4","5","6","7","7","5","7","8","6","4","1","5","5","2","3","6","4","3","1","5","2","3","3","4","5","2","4","3","6","3","6","3","2","3","5","6","3","5","7","7","2","7","7","6","4","3","5","6","5","729238735765639170","张","565","Female","[""好她"",""好我"",""坏她"",""坏我""]","[""强她"",""强我"",""弱她"",""弱我""]","","","","","","","","no","","","","","","","","","SRET","EW_formal","","key","f","16.668616822429783","640","396","自己","不孝","Negative","morality","","","","","","","","","","",""
"695","","j","psychophysics","67","239700","0.0-7.0-3.0-0.53","5","4","4","3","3","3","2","4","4","4","4","0","-2","0","-2","1","0","1","1","4","5","5","5","3","4","3","4","4","4","4","4","5","6","7","7","5","7","8","6","4","1","5","5","2","3","6","4","3","1","5","2","3","3","4","5","2","4","3","6","3","6","3","2","3","5","6","3","5","7","7","2","7","7","6","4","3","5","6","5","729238735765639170","张","565","Female","[""好她"",""好我"",""坏她"",""坏我""]","[""强她"",""强我"",""弱她"",""弱我""]","","","","","","","","yes","","","","","","","","","SRET","EW_formal","","key","j","16.665801980198157","640","396","自己","文明","Positive","morality","","","","","","","","","","",""
"658","","f","psychophysics","68","241360","0.0-7.0-3.0-0.54","5","4","4","3","3","3","2","4","4","4","4","0","-2","0","-2","1","0","1","1","4","5","5","5","3","4","3","4","4","4","4","4","5","6","7","7","5","7","8","6","4","1","5","5","2","3","6","4","3","1","5","2","3","3","4","5","2","4","3","6","3","6","3","2","3","5","6","3","5","7","7","2","7","7","6","4","3","5","6","5","729238735765639170","张","565","Female","[""好她"",""好我"",""坏她"",""坏我""]","[""强她"",""强我"",""弱她"",""弱我""]","","","","","","","","no","","","","","","","","","SRET","EW_formal","","key","f","16.667959183673386","640","396","朋友","愚蠢","Negative","ability","","","","","","","","","","",""
"616","","j","psychophysics","69","242980","0.0-7.0-3.0-0.55","5","4","4","3","3","3","2","4","4","4","4","0","-2","0","-2","1","0","1","1","4","5","5","5","3","4","3","4","4","4","4","4","5","6","7","7","5","7","8","6","4","1","5","5","2","3","6","4","3","1","5","2","3","3","4","5","2","4","3","6","3","6","3","2","3","5","6","3","5","7","7","2","7","7","6","4","3","5","6","5","729238735765639170","张","565","Female","[""好她"",""好我"",""坏她"",""坏我""]","[""强她"",""强我"",""弱她"",""弱我""]","","","","","","","","yes","","","","","","","","","SRET","EW_formal","","key","j","16.678103092783633","640","396","自己","勤恳","Positive","morality","","","","","","","","","","",""
"626","","j","psychophysics","70","244608","0.0-7.0-3.0-0.56","5","4","4","3","3","3","2","4","4","4","4","0","-2","0","-2","1","0","1","1","4","5","5","5","3","4","3","4","4","4","4","4","5","6","7","7","5","7","8","6","4","1","5","5","2","3","6","4","3","1","5","2","3","3","4","5","2","4","3","6","3","6","3","2","3","5","6","3","5","7","7","2","7","7","6","4","3","5","6","5","729238735765639170","张","565","Female","[""好她"",""好我"",""坏她"",""坏我""]","[""强她"",""强我"",""弱她"",""弱我""]","","","","","","","","yes","","","","","","","","","SRET","EW_formal","","key","j","16.667708333333092","640","396","自己","忠义","Positive","morality","","","","","","","","","","",""
"678","","f","psychophysics","71","246287","0.0-7.0-3.0-0.57","5","4","4","3","3","3","2","4","4","4","4","0","-2","0","-2","1","0","1","1","4","5","5","5","3","4","3","4","4","4","4","4","5","6","7","7","5","7","8","6","4","1","5","5","2","3","6","4","3","1","5","2","3","3","4","5","2","4","3","6","3","6","3","2","3","5","6","3","5","7","7","2","7","7","6","4","3","5","6","5","729238735765639170","张","565","Female","[""好她"",""好我"",""坏她"",""坏我""]","[""强她"",""强我"",""弱她"",""弱我""]","","","","","","","","no","","","","","","","","","SRET","EW_formal","","key","f","16.670299999999987","640","396","朋友","失信","Negative","morality","","","","","","","","","","",""
"629","","j","psychophysics","72","247917","0.0-7.0-3.0-0.58","5","4","4","3","3","3","2","4","4","4","4","0","-2","0","-2","1","0","1","1","4","5","5","5","3","4","3","4","4","4","4","4","5","6","7","7","5","7","8","6","4","1","5","5","2","3","6","4","3","1","5","2","3","3","4","5","2","4","3","6","3","6","3","2","3","5","6","3","5","7","7","2","7","7","6","4","3","5","6","5","729238735765639170","张","565","Female","[""好她"",""好我"",""坏她"",""坏我""]","[""强她"",""强我"",""弱她"",""弱我""]","","","","","","","","yes","","","","","","","","","SRET","EW_formal","","key","j","16.670752577319533","640","396","自己","博学","Positive","ability","","","","","","","","","","",""
"668","","f","psychophysics","73","249586","0.0-7.0-3.0-0.59","5","4","4","3","3","3","2","4","4","4","4","0","-2","0","-2","1","0","1","1","4","5","5","5","3","4","3","4","4","4","4","4","5","6","7","7","5","7","8","6","4","1","5","5","2","3","6","4","3","1","5","2","3","3","4","5","2","4","3","6","3","6","3","2","3","5","6","3","5","7","7","2","7","7","6","4","3","5","6","5","729238735765639170","张","565","Female","[""好她"",""好我"",""坏她"",""坏我""]","[""强她"",""强我"",""弱她"",""弱我""]","","","","","","","","no","","","","","","","","","SRET","EW_formal","","key","f","16.66681818181803","640","396","自己","奸险","Negative","morality","","","","","","","","","","",""
"656","","f","psychophysics","74","251243","0.0-7.0-3.0-0.60","5","4","4","3","3","3","2","4","4","4","4","0","-2","0","-2","1","0","1","1","4","5","5","5","3","4","3","4","4","4","4","4","5","6","7","7","5","7","8","6","4","1","5","5","2","3","6","4","3","1","5","2","3","3","4","5","2","4","3","6","3","6","3","2","3","5","6","3","5","7","7","2","7","7","6","4","3","5","6","5","729238735765639170","张","565","Female","[""好她"",""好我"",""坏她"",""坏我""]","[""强她"",""强我"",""弱她"",""弱我""]","","","","","","","","no","","","","","","","","","SRET","EW_formal","","key","f","16.670173469387716","640","396","自己","拙笨","Negative","ability","","","","","","","","","","",""
"850","","f","psychophysics","75","253096","0.0-7.0-3.0-0.61","5","4","4","3","3","3","2","4","4","4","4","0","-2","0","-2","1","0","1","1","4","5","5","5","3","4","3","4","4","4","4","4","5","6","7","7","5","7","8","6","4","1","5","5","2","3","6","4","3","1","5","2","3","3","4","5","2","4","3","6","3","6","3","2","3","5","6","3","5","7","7","2","7","7","6","4","3","5","6","5","729238735765639170","张","565","Female","[""好她"",""好我"",""坏她"",""坏我""]","[""强她"",""强我"",""弱她"",""弱我""]","","","","","","","","no","","","","","","","","","SRET","EW_formal","","key","f","16.66778378378362","640","396","朋友","盲目","Negative","ability","","","","","","","","","","",""
"1162","","f","psychophysics","76","255259","0.0-7.0-3.0-0.62","5","4","4","3","3","3","2","4","4","4","4","0","-2","0","-2","1","0","1","1","4","5","5","5","3","4","3","4","4","4","4","4","5","6","7","7","5","7","8","6","4","1","5","5","2","3","6","4","3","1","5","2","3","3","4","5","2","4","3","6","3","6","3","2","3","5","6","3","5","7","7","2","7","7","6","4","3","5","6","5","729238735765639170","张","565","Female","[""好她"",""好我"",""坏她"",""坏我""]","[""强她"",""强我"",""弱她"",""弱我""]","","","","","","","","no","","","","","","","","","SRET","EW_formal","","key","f","16.66502343749994","640","396","朋友","阴毒","Negative","morality","","","","","","","","","","",""
"711","","j","psychophysics","77","256973","0.0-7.0-3.0-0.63","5","4","4","3","3","3","2","4","4","4","4","0","-2","0","-2","1","0","1","1","4","5","5","5","3","4","3","4","4","4","4","4","5","6","7","7","5","7","8","6","4","1","5","5","2","3","6","4","3","1","5","2","3","3","4","5","2","4","3","6","3","6","3","2","3","5","6","3","5","7","7","2","7","7","6","4","3","5","6","5","729238735765639170","张","565","Female","[""好她"",""好我"",""坏她"",""坏我""]","[""强她"",""强我"",""弱她"",""弱我""]","","","","","","","","yes","","","","","","","","","SRET","EW_formal","","key","j","16.66828431372557","640","396","自己","敏捷","Positive","ability","","","","","","","","","","",""
"820","","f","psychophysics","78","258793","0.0-7.0-3.0-0.64","5","4","4","3","3","3","2","4","4","4","4","0","-2","0","-2","1","0","1","1","4","5","5","5","3","4","3","4","4","4","4","4","5","6","7","7","5","7","8","6","4","1","5","5","2","3","6","4","3","1","5","2","3","3","4","5","2","4","3","6","3","6","3","2","3","5","6","3","5","7","7","2","7","7","6","4","3","5","6","5","729238735765639170","张","565","Female","[""好她"",""好我"",""坏她"",""坏我""]","[""强她"",""强我"",""弱她"",""弱我""]","","","","","","","","no","","","","","","","","","SRET","EW_formal","","key","f","16.666981651376155","640","396","朋友","差生","Negative","ability","","","","","","","","","","",""
"685","","j","psychophysics","79","260479","0.0-7.0-3.0-0.65","5","4","4","3","3","3","2","4","4","4","4","0","-2","0","-2","1","0","1","1","4","5","5","5","3","4","3","4","4","4","4","4","5","6","7","7","5","7","8","6","4","1","5","5","2","3","6","4","3","1","5","2","3","3","4","5","2","4","3","6","3","6","3","2","3","5","6","3","5","7","7","2","7","7","6","4","3","5","6","5","729238735765639170","张","565","Female","[""好她"",""好我"",""坏她"",""坏我""]","[""强她"",""强我"",""弱她"",""弱我""]","","","","","","","","yes","","","","","","","","","SRET","EW_formal","","key","j","16.665119999999877","640","396","朋友","上进","Positive","ability","","","","","","","","","","",""
"736","","f","psychophysics","80","262216","0.0-7.0-3.0-0.66","5","4","4","3","3","3","2","4","4","4","4","0","-2","0","-2","1","0","1","1","4","5","5","5","3","4","3","4","4","4","4","4","5","6","7","7","5","7","8","6","4","1","5","5","2","3","6","4","3","1","5","2","3","3","4","5","2","4","3","6","3","6","3","2","3","5","6","3","5","7","7","2","7","7","6","4","3","5","6","5","729238735765639170","张","565","Female","[""好她"",""好我"",""坏她"",""坏我""]","[""强她"",""强我"",""弱她"",""弱我""]","","","","","","","","no","","","","","","","","","SRET","EW_formal","","key","f","16.666213592233248","640","396","朋友","笨蛋","Negative","ability","","","","","","","","","","",""
"836","","j","psychophysics","81","264053","0.0-7.0-3.0-0.67","5","4","4","3","3","3","2","4","4","4","4","0","-2","0","-2","1","0","1","1","4","5","5","5","3","4","3","4","4","4","4","4","5","6","7","7","5","7","8","6","4","1","5","5","2","3","6","4","3","1","5","2","3","3","4","5","2","4","3","6","3","6","3","2","3","5","6","3","5","7","7","2","7","7","6","4","3","5","6","5","729238735765639170","张","565","Female","[""好她"",""好我"",""坏她"",""坏我""]","[""强她"",""强我"",""弱她"",""弱我""]","","","","","","","","yes","","","","","","","","","SRET","EW_formal","","key","j","16.669467889908336","640","396","朋友","变通","Positive","ability","","","","","","","","","","",""
"534","","j","psychophysics","82","265588","0.0-7.0-3.0-0.68","5","4","4","3","3","3","2","4","4","4","4","0","-2","0","-2","1","0","1","1","4","5","5","5","3","4","3","4","4","4","4","4","5","6","7","7","5","7","8","6","4","1","5","5","2","3","6","4","3","1","5","2","3","3","4","5","2","4","3","6","3","6","3","2","3","5","6","3","5","7","7","2","7","7","6","4","3","5","6","5","729238735765639170","张","565","Female","[""好她"",""好我"",""坏她"",""坏我""]","[""强她"",""强我"",""弱她"",""弱我""]","","","","","","","","yes","","","","","","","","","SRET","EW_formal","","key","j","16.669582417582106","640","396","朋友","义气","Positive","morality","","","","","","","","","","",""
"560","","j","psychophysics","83","267149","0.0-7.0-3.0-0.69","5","4","4","3","3","3","2","4","4","4","4","0","-2","0","-2","1","0","1","1","4","5","5","5","3","4","3","4","4","4","4","4","5","6","7","7","5","7","8","6","4","1","5","5","2","3","6","4","3","1","5","2","3","3","4","5","2","4","3","6","3","6","3","2","3","5","6","3","5","7","7","2","7","7","6","4","3","5","6","5","729238735765639170","张","565","Female","[""好她"",""好我"",""坏她"",""坏我""]","[""强她"",""强我"",""弱她"",""弱我""]","","","","","","","","yes","","","","","","","","","SRET","EW_formal","","key","j","16.665688172042852","640","396","自己","善心","Positive","morality","","","","","","","","","","",""
"535","","j","psychophysics","84","268685","0.0-7.0-3.0-0.70","5","4","4","3","3","3","2","4","4","4","4","0","-2","0","-2","1","0","1","1","4","5","5","5","3","4","3","4","4","4","4","4","5","6","7","7","5","7","8","6","4","1","5","5","2","3","6","4","3","1","5","2","3","3","4","5","2","4","3","6","3","6","3","2","3","5","6","3","5","7","7","2","7","7","6","4","3","5","6","5","729238735765639170","张","565","Female","[""好她"",""好我"",""坏她"",""坏我""]","[""强她"",""强我"",""弱她"",""弱我""]","","","","","","","","yes","","","","","","","","","SRET","EW_formal","","key","j","16.668175824175865","640","396","自己","全才","Positive","ability","","","","","","","","","","",""
"801","","f","psychophysics","85","270488","0.0-7.0-3.0-0.71","5","4","4","3","3","3","2","4","4","4","4","0","-2","0","-2","1","0","1","1","4","5","5","5","3","4","3","4","4","4","4","4","5","6","7","7","5","7","8","6","4","1","5","5","2","3","6","4","3","1","5","2","3","3","4","5","2","4","3","6","3","6","3","2","3","5","6","3","5","7","7","2","7","7","6","4","3","5","6","5","729238735765639170","张","565","Female","[""好她"",""好我"",""坏她"",""坏我""]","[""强她"",""强我"",""弱她"",""弱我""]","","","","","","","","no","","","","","","","","","SRET","EW_formal","","key","f","16.667186915887537","640","396","朋友","拜金","Negative","morality","","","","","","","","","","",""
"925","","f","psychophysics","86","272414","0.0-7.0-3.0-0.72","5","4","4","3","3","3","2","4","4","4","4","0","-2","0","-2","1","0","1","1","4","5","5","5","3","4","3","4","4","4","4","4","5","6","7","7","5","7","8","6","4","1","5","5","2","3","6","4","3","1","5","2","3","3","4","5","2","4","3","6","3","6","3","2","3","5","6","3","5","7","7","2","7","7","6","4","3","5","6","5","729238735765639170","张","565","Female","[""好她"",""好我"",""坏她"",""坏我""]","[""强她"",""强我"",""弱她"",""弱我""]","","","","","","","","no","","","","","","","","","SRET","EW_formal","","key","f","16.669852173913007","640","396","自己","势利","Negative","morality","","","","","","","","","","",""
"841","","f","psychophysics","87","274257","0.0-7.0-3.0-0.73","5","4","4","3","3","3","2","4","4","4","4","0","-2","0","-2","1","0","1","1","4","5","5","5","3","4","3","4","4","4","4","4","5","6","7","7","5","7","8","6","4","1","5","5","2","3","6","4","3","1","5","2","3","3","4","5","2","4","3","6","3","6","3","2","3","5","6","3","5","7","7","2","7","7","6","4","3","5","6","5","729238735765639170","张","565","Female","[""好她"",""好我"",""坏她"",""坏我""]","[""强她"",""强我"",""弱她"",""弱我""]","","","","","","","","no","","","","","","","","","SRET","EW_formal","","key","f","16.66743119266055","640","396","自己","无敌","Positive","ability","","","","","","","","","","",""
"650","","j","psychophysics","88","275907","0.0-7.0-3.0-0.74","5","4","4","3","3","3","2","4","4","4","4","0","-2","0","-2","1","0","1","1","4","5","5","5","3","4","3","4","4","4","4","4","5","6","7","7","5","7","8","6","4","1","5","5","2","3","6","4","3","1","5","2","3","3","4","5","2","4","3","6","3","6","3","2","3","5","6","3","5","7","7","2","7","7","6","4","3","5","6","5","729238735765639170","张","565","Female","[""好她"",""好我"",""坏她"",""坏我""]","[""强她"",""强我"",""弱她"",""弱我""]","","","","","","","","yes","","","","","","","","","SRET","EW_formal","","key","j","16.670571428570987","640","396","自己","扎实","Positive","ability","","","","","","","","","","",""
"619","","j","psychophysics","89","277527","0.0-7.0-3.0-0.75","5","4","4","3","3","3","2","4","4","4","4","0","-2","0","-2","1","0","1","1","4","5","5","5","3","4","3","4","4","4","4","4","5","6","7","7","5","7","8","6","4","1","5","5","2","3","6","4","3","1","5","2","3","3","4","5","2","4","3","6","3","6","3","2","3","5","6","3","5","7","7","2","7","7","6","4","3","5","6","5","729238735765639170","张","565","Female","[""好她"",""好我"",""坏她"",""坏我""]","[""强她"",""强我"",""弱她"",""弱我""]","","","","","","","","yes","","","","","","","","","SRET","EW_formal","","key","j","16.667567010309437","640","396","自己","博识","Positive","ability","","","","","","","","","","",""
"676","","j","psychophysics","90","279203","0.0-7.0-3.0-0.76","5","4","4","3","3","3","2","4","4","4","4","0","-2","0","-2","1","0","1","1","4","5","5","5","3","4","3","4","4","4","4","4","5","6","7","7","5","7","8","6","4","1","5","5","2","3","6","4","3","1","5","2","3","3","4","5","2","4","3","6","3","6","3","2","3","5","6","3","5","7","7","2","7","7","6","4","3","5","6","5","729238735765639170","张","565","Female","[""好她"",""好我"",""坏她"",""坏我""]","[""强她"",""强我"",""弱她"",""弱我""]","","","","","","","","yes","","","","","","","","","SRET","EW_formal","","key","j","16.66651515151501","640","396","自己","努力","Positive","ability","","","","","","","","","","",""
"611","","f","psychophysics","91","280816","0.0-7.0-3.0-0.77","5","4","4","3","3","3","2","4","4","4","4","0","-2","0","-2","1","0","1","1","4","5","5","5","3","4","3","4","4","4","4","4","5","6","7","7","5","7","8","6","4","1","5","5","2","3","6","4","3","1","5","2","3","3","4","5","2","4","3","6","3","6","3","2","3","5","6","3","5","7","7","2","7","7","6","4","3","5","6","5","729238735765639170","张","565","Female","[""好她"",""好我"",""坏她"",""坏我""]","[""强她"",""强我"",""弱她"",""弱我""]","","","","","","","","no","","","","","","","","","SRET","EW_formal","","key","f","16.670385416666857","640","396","朋友","缺德","Negative","morality","","","","","","","","","","",""
"542","","f","psychophysics","92","282359","0.0-7.0-3.0-0.78","5","4","4","3","3","3","2","4","4","4","4","0","-2","0","-2","1","0","1","1","4","5","5","5","3","4","3","4","4","4","4","4","5","6","7","7","5","7","8","6","4","1","5","5","2","3","6","4","3","1","5","2","3","3","4","5","2","4","3","6","3","6","3","2","3","5","6","3","5","7","7","2","7","7","6","4","3","5","6","5","729238735765639170","张","565","Female","[""好她"",""好我"",""坏她"",""坏我""]","[""强她"",""强我"",""弱她"",""弱我""]","","","","","","","","no","","","","","","","","","SRET","EW_formal","","key","f","16.670384615384666","640","396","自己","窝囊","Negative","ability","","","","","","","","","","",""
"655","","j","psychophysics","93","284020","0.0-7.0-3.0-0.79","5","4","4","3","3","3","2","4","4","4","4","0","-2","0","-2","1","0","1","1","4","5","5","5","3","4","3","4","4","4","4","4","5","6","7","7","5","7","8","6","4","1","5","5","2","3","6","4","3","1","5","2","3","3","4","5","2","4","3","6","3","6","3","2","3","5","6","3","5","7","7","2","7","7","6","4","3","5","6","5","729238735765639170","张","565","Female","[""好她"",""好我"",""坏她"",""坏我""]","[""强她"",""强我"",""弱她"",""弱我""]","","","","","","","","yes","","","","","","","","","SRET","EW_formal","","key","j","16.666777777777764","640","396","自己","礼貌","Positive","morality","","","","","","","","","","",""
"735","","f","psychophysics","94","285756","0.0-7.0-3.0-0.80","5","4","4","3","3","3","2","4","4","4","4","0","-2","0","-2","1","0","1","1","4","5","5","5","3","4","3","4","4","4","4","4","5","6","7","7","5","7","8","6","4","1","5","5","2","3","6","4","3","1","5","2","3","3","4","5","2","4","3","6","3","6","3","2","3","5","6","3","5","7","7","2","7","7","6","4","3","5","6","5","729238735765639170","张","565","Female","[""好她"",""好我"",""坏她"",""坏我""]","[""强她"",""强我"",""弱她"",""弱我""]","","","","","","","","no","","","","","","","","","SRET","EW_formal","","key","f","16.669834951455908","640","396","自己","贪污","Negative","morality","","","","","","","","","","",""
"653","","f","psychophysics","95","287409","0.0-7.0-3.0-0.81","5","4","4","3","3","3","2","4","4","4","4","0","-2","0","-2","1","0","1","1","4","5","5","5","3","4","3","4","4","4","4","4","5","6","7","7","5","7","8","6","4","1","5","5","2","3","6","4","3","1","5","2","3","3","4","5","2","4","3","6","3","6","3","2","3","5","6","3","5","7","7","2","7","7","6","4","3","5","6","5","729238735765639170","张","565","Female","[""好她"",""好我"",""坏她"",""坏我""]","[""强她"",""强我"",""弱她"",""弱我""]","","","","","","","","no","","","","","","","","","SRET","EW_formal","","key","f","16.670602040816746","640","396","自己","愚钝","Negative","ability","","","","","","","","","","",""
"799","","j","psychophysics","96","289210","0.0-7.0-3.0-0.82","5","4","4","3","3","3","2","4","4","4","4","0","-2","0","-2","1","0","1","1","4","5","5","5","3","4","3","4","4","4","4","4","5","6","7","7","5","7","8","6","4","1","5","5","2","3","6","4","3","1","5","2","3","3","4","5","2","4","3","6","3","6","3","2","3","5","6","3","5","7","7","2","7","7","6","4","3","5","6","5","729238735765639170","张","565","Female","[""好她"",""好我"",""坏她"",""坏我""]","[""强她"",""强我"",""弱她"",""弱我""]","","","","","","","","yes","","","","","","","","","SRET","EW_formal","","key","j","16.66634259259229","640","396","朋友","廉明","Positive","morality","","","","","","","","","","",""
"1031","","j","psychophysics","97","291243","0.0-7.0-3.0-0.83","5","4","4","3","3","3","2","4","4","4","4","0","-2","0","-2","1","0","1","1","4","5","5","5","3","4","3","4","4","4","4","4","5","6","7","7","5","7","8","6","4","1","5","5","2","3","6","4","3","1","5","2","3","3","4","5","2","4","3","6","3","6","3","2","3","5","6","3","5","7","7","2","7","7","6","4","3","5","6","5","729238735765639170","张","565","Female","[""好她"",""好我"",""坏她"",""坏我""]","[""强她"",""强我"",""弱她"",""弱我""]","","","","","","","","yes","","","","","","","","","SRET","EW_formal","","key","j","16.665066115702462","640","396","自己","仗义","Positive","morality","","","","","","","","","","",""
"630","","j","psychophysics","98","292875","0.0-7.0-3.0-0.84","5","4","4","3","3","3","2","4","4","4","4","0","-2","0","-2","1","0","1","1","4","5","5","5","3","4","3","4","4","4","4","4","5","6","7","7","5","7","8","6","4","1","5","5","2","3","6","4","3","1","5","2","3","3","4","5","2","4","3","6","3","6","3","2","3","5","6","3","5","7","7","2","7","7","6","4","3","5","6","5","729238735765639170","张","565","Female","[""好她"",""好我"",""坏她"",""坏我""]","[""强她"",""强我"",""弱她"",""弱我""]","","","","","","","","yes","","","","","","","","","SRET","EW_formal","","key","j","16.666093750000073","640","396","自己","主见","Positive","ability","","","","","","","","","","",""
"965","","j","psychophysics","99","294843","0.0-7.0-3.0-0.85","5","4","4","3","3","3","2","4","4","4","4","0","-2","0","-2","1","0","1","1","4","5","5","5","3","4","3","4","4","4","4","4","5","6","7","7","5","7","8","6","4","1","5","5","2","3","6","4","3","1","5","2","3","3","4","5","2","4","3","6","3","6","3","2","3","5","6","3","5","7","7","2","7","7","6","4","3","5","6","5","729238735765639170","张","565","Female","[""好她"",""好我"",""坏她"",""坏我""]","[""强她"",""强我"",""弱她"",""弱我""]","","","","","","","","yes","","","","","","","","","SRET","EW_formal","","key","j","16.66702542372859","640","396","朋友","素养","Positive","morality","","","","","","","","","","",""
"767","","f","psychophysics","100","296611","0.0-7.0-3.0-0.86","5","4","4","3","3","3","2","4","4","4","4","0","-2","0","-2","1","0","1","1","4","5","5","5","3","4","3","4","4","4","4","4","5","6","7","7","5","7","8","6","4","1","5","5","2","3","6","4","3","1","5","2","3","3","4","5","2","4","3","6","3","6","3","2","3","5","6","3","5","7","7","2","7","7","6","4","3","5","6","5","729238735765639170","张","565","Female","[""好她"",""好我"",""坏她"",""坏我""]","[""强她"",""强我"",""弱她"",""弱我""]","","","","","","","","no","","","","","","","","","SRET","EW_formal","","key","f","16.66576190476217","640","396","朋友","低俗","Negative","morality","","","","","","","","","","",""
"842","","j","psychophysics","101","298454","0.0-7.0-3.0-0.87","5","4","4","3","3","3","2","4","4","4","4","0","-2","0","-2","1","0","1","1","4","5","5","5","3","4","3","4","4","4","4","4","5","6","7","7","5","7","8","6","4","1","5","5","2","3","6","4","3","1","5","2","3","3","4","5","2","4","3","6","3","6","3","2","3","5","6","3","5","7","7","2","7","7","6","4","3","5","6","5","729238735765639170","张","565","Female","[""好她"",""好我"",""坏她"",""坏我""]","[""强她"",""强我"",""弱她"",""弱我""]","","","","","","","","yes","","","","","","","","","SRET","EW_formal","","key","j","16.66624770642241","640","396","自己","缓慢","Negative","ability","","","","","","","","","","",""
"16357","
    <p><div style='color:white;font-size:35px; line-height:20px;'>计算任务</div></p><br>
    <p><div style='color:red;font-size:25px; line-height:20px;'>接下来，您将看到一些四则运算题，<b>请从键盘选择 0-9 进行反应。</b></div></p>
    <p><div style='color:red;font-size:25px; line-height:20px;'>请尽可能快地进行计算，计算的速度和正确率将影响报酬的发放。</div></p>
    <p><div class='footer' style='color:white;font-size:25px; line-height:20px;'>如果对本实验还有不清楚之处，请立即向实验员咨询。</p><p style='color:white;font-size:25px; line-height:20px;'>如果您明白了规则：</p><p style='color:white;font-size:22px; line-height:20px;'>请按 继续 进入练习</p>
    </div>
    ","0","html-button-response","102","314812","0.0-7.0-4.0","5","4","4","3","3","3","2","4","4","4","4","0","-2","0","-2","1","0","1","1","4","5","5","5","3","4","3","4","4","4","4","4","5","6","7","7","5","7","8","6","4","1","5","5","2","3","6","4","3","1","5","2","3","3","4","5","2","4","3","6","3","6","3","2","3","5","6","3","5","7","7","2","7","7","6","4","3","5","6","5","729238735765639170","张","565","Female","[""好她"",""好我"",""坏她"",""坏我""]","[""强她"",""强我"",""弱她"",""弱我""]","","","","","","","","","","","","","","","","","SRET_math","math_instructions","Sat Jan 20 2024 19:17:37 GMT+0800 (中国标准时间)","","","","","","","","","","","","","","","","","","","",""
"3141","","8","psychophysics","103","317956","0.0-7.0-5.0-0.0","5","4","4","3","3","3","2","4","4","4","4","0","-2","0","-2","1","0","1","1","4","5","5","5","3","4","3","4","4","4","4","4","5","6","7","7","5","7","8","6","4","1","5","5","2","3","6","4","3","1","5","2","3","3","4","5","2","4","3","6","3","6","3","2","3","5","6","3","5","7","7","2","7","7","6","4","3","5","6","5","729238735765639170","张","565","Female","[""好她"",""好我"",""坏她"",""坏我""]","[""强她"",""强我"",""弱她"",""弱我""]","","","","","","","","8","","","","","","","","","SRET","SRET_math_calculate","","key","8","16.679388297872215","640","396","","","","","2*4= ?","8","1","","","","","","","",""
"2235","","0","psychophysics","104","320192","0.0-7.0-5.0-0.1","5","4","4","3","3","3","2","4","4","4","4","0","-2","0","-2","1","0","1","1","4","5","5","5","3","4","3","4","4","4","4","4","5","6","7","7","5","7","8","6","4","1","5","5","2","3","6","4","3","1","5","2","3","3","4","5","2","4","3","6","3","6","3","2","3","5","6","3","5","7","7","2","7","7","6","4","3","5","6","5","729238735765639170","张","565","Female","[""好她"",""好我"",""坏她"",""坏我""]","[""强她"",""强我"",""弱她"",""弱我""]","","","","","","","","0","","","","","","","","","SRET","SRET_math_calculate","","key","0","16.667774436090323","640","396","","","","","12-12= ?","0","1","","","","","","","",""
"2194","","3","psychophysics","105","322387","0.0-7.0-5.0-0.2","5","4","4","3","3","3","2","4","4","4","4","0","-2","0","-2","1","0","1","1","4","5","5","5","3","4","3","4","4","4","4","4","5","6","7","7","5","7","8","6","4","1","5","5","2","3","6","4","3","1","5","2","3","3","4","5","2","4","3","6","3","6","3","2","3","5","6","3","5","7","7","2","7","7","6","4","3","5","6","5","729238735765639170","张","565","Female","[""好她"",""好我"",""坏她"",""坏我""]","[""强她"",""强我"",""弱她"",""弱我""]","","","","","","","","3","","","","","","","","","SRET","SRET_math_calculate","","key","3","16.66677099236648","640","396","","","","","3*1= ?","3","1","","","","","","","",""
"2076","","6","psychophysics","106","324464","0.0-7.0-5.0-0.3","5","4","4","3","3","3","2","4","4","4","4","0","-2","0","-2","1","0","1","1","4","5","5","5","3","4","3","4","4","4","4","4","5","6","7","7","5","7","8","6","4","1","5","5","2","3","6","4","3","1","5","2","3","3","4","5","2","4","3","6","3","6","3","2","3","5","6","3","5","7","7","2","7","7","6","4","3","5","6","5","729238735765639170","张","565","Female","[""好她"",""好我"",""坏她"",""坏我""]","[""强她"",""强我"",""弱她"",""弱我""]","","","","","","","","6","","","","","","","","","SRET","SRET_math_calculate","","key","6","16.669943548387362","640","396","","","","","2*3= ?","6","1","","","","","","","",""
"2150","","8","psychophysics","107","326616","0.0-7.0-5.0-0.4","5","4","4","3","3","3","2","4","4","4","4","0","-2","0","-2","1","0","1","1","4","5","5","5","3","4","3","4","4","4","4","4","5","6","7","7","5","7","8","6","4","1","5","5","2","3","6","4","3","1","5","2","3","3","4","5","2","4","3","6","3","6","3","2","3","5","6","3","5","7","7","2","7","7","6","4","3","5","6","5","729238735765639170","张","565","Female","[""好她"",""好我"",""坏她"",""坏我""]","[""强她"",""强我"",""弱她"",""弱我""]","","","","","","","","8","","","","","","","","","SRET","SRET_math_calculate","","key","8","16.667984374999833","640","396","","","","","6+2= ?","8","1","","","","","","","",""
"2405","","8","psychophysics","108","329022","0.0-7.0-5.0-0.5","5","4","4","3","3","3","2","4","4","4","4","0","-2","0","-2","1","0","1","1","4","5","5","5","3","4","3","4","4","4","4","4","5","6","7","7","5","7","8","6","4","1","5","5","2","3","6","4","3","1","5","2","3","3","4","5","2","4","3","6","3","6","3","2","3","5","6","3","5","7","7","2","7","7","6","4","3","5","6","5","729238735765639170","张","565","Female","[""好她"",""好我"",""坏她"",""坏我""]","[""强她"",""强我"",""弱她"",""弱我""]","","","","","","","","8","","","","","","","","","SRET","SRET_math_calculate","","key","8","16.667888111888328","640","396","","","","","4*2= ?","8","1","","","","","","","",""
"2051","","7","psychophysics","109","331074","0.0-7.0-5.0-0.6","5","4","4","3","3","3","2","4","4","4","4","0","-2","0","-2","1","0","1","1","4","5","5","5","3","4","3","4","4","4","4","4","5","6","7","7","5","7","8","6","4","1","5","5","2","3","6","4","3","1","5","2","3","3","4","5","2","4","3","6","3","6","3","2","3","5","6","3","5","7","7","2","7","7","6","4","3","5","6","5","729238735765639170","张","565","Female","[""好她"",""好我"",""坏她"",""坏我""]","[""强她"",""强我"",""弱她"",""弱我""]","","","","","","","","7","","","","","","","","","SRET","SRET_math_calculate","","key","7","16.669483606557105","640","396","","","","","4+3= ?","7","1","","","","","","","",""
"2322","","5","psychophysics","110","333397","0.0-7.0-5.0-0.7","5","4","4","3","3","3","2","4","4","4","4","0","-2","0","-2","1","0","1","1","4","5","5","5","3","4","3","4","4","4","4","4","5","6","7","7","5","7","8","6","4","1","5","5","2","3","6","4","3","1","5","2","3","3","4","5","2","4","3","6","3","6","3","2","3","5","6","3","5","7","7","2","7","7","6","4","3","5","6","5","729238735765639170","张","565","Female","[""好她"",""好我"",""坏她"",""坏我""]","[""强她"",""强我"",""弱她"",""弱我""]","","","","","","","","5","","","","","","","","","SRET","SRET_math_calculate","","key","5","16.666525179856094","640","396","","","","","10-5= ?","5","1","","","","","","","",""
"6126","","9","psychophysics","111","339525","0.0-7.0-5.0-0.8","5","4","4","3","3","3","2","4","4","4","4","0","-2","0","-2","1","0","1","1","4","5","5","5","3","4","3","4","4","4","4","4","5","6","7","7","5","7","8","6","4","1","5","5","2","3","6","4","3","1","5","2","3","3","4","5","2","4","3","6","3","6","3","2","3","5","6","3","5","7","7","2","7","7","6","4","3","5","6","5","729238735765639170","张","565","Female","[""好她"",""好我"",""坏她"",""坏我""]","[""强她"",""强我"",""弱她"",""弱我""]","","","","","","","","9","","","","","","","","","SRET","SRET_math_calculate","","key","9","16.667352459016364","640","396","","","","","43-34= ?","9","1","","","","","","","",""
"3831","","7","psychophysics","112","343357","0.0-7.0-5.0-0.9","5","4","4","3","3","3","2","4","4","4","4","0","-2","0","-2","1","0","1","1","4","5","5","5","3","4","3","4","4","4","4","4","5","6","7","7","5","7","8","6","4","1","5","5","2","3","6","4","3","1","5","2","3","3","4","5","2","4","3","6","3","6","3","2","3","5","6","3","5","7","7","2","7","7","6","4","3","5","6","5","729238735765639170","张","565","Female","[""好她"",""好我"",""坏她"",""坏我""]","[""强她"",""强我"",""弱她"",""弱我""]","","","","","","","","7","","","","","","","","","SRET","SRET_math_calculate","","key","7","16.66776419213976","640","396","","","","","12-5= ?","7","1","","","","","","","",""
"2125","","1","psychophysics","113","345483","0.0-7.0-5.0-0.10","5","4","4","3","3","3","2","4","4","4","4","0","-2","0","-2","1","0","1","1","4","5","5","5","3","4","3","4","4","4","4","4","5","6","7","7","5","7","8","6","4","1","5","5","2","3","6","4","3","1","5","2","3","3","4","5","2","4","3","6","3","6","3","2","3","5","6","3","5","7","7","2","7","7","6","4","3","5","6","5","729238735765639170","张","565","Female","[""好她"",""好我"",""坏她"",""坏我""]","[""强她"",""强我"",""弱她"",""弱我""]","","","","","","","","1","","","","","","","","","SRET","SRET_math_calculate","","key","1","16.66822834645662","640","396","","","","","30-29= ?","1","1","","","","","","","",""
"3031","","8","psychophysics","114","348515","0.0-7.0-5.0-0.11","5","4","4","3","3","3","2","4","4","4","4","0","-2","0","-2","1","0","1","1","4","5","5","5","3","4","3","4","4","4","4","4","5","6","7","7","5","7","8","6","4","1","5","5","2","3","6","4","3","1","5","2","3","3","4","5","2","4","3","6","3","6","3","2","3","5","6","3","5","7","7","2","7","7","6","4","3","5","6","5","729238735765639170","张","565","Female","[""好她"",""好我"",""坏她"",""坏我""]","[""强她"",""强我"",""弱她"",""弱我""]","","","","","","","","8","","","","","","","","","SRET","SRET_math_calculate","","key","8","16.66860773480653","640","396","","","","","11-3= ?","8","1","","","","","","","",""
"4075","","0","psychophysics","115","352592","0.0-7.0-5.0-0.12","5","4","4","3","3","3","2","4","4","4","4","0","-2","0","-2","1","0","1","1","4","5","5","5","3","4","3","4","4","4","4","4","5","6","7","7","5","7","8","6","4","1","5","5","2","3","6","4","3","1","5","2","3","3","4","5","2","4","3","6","3","6","3","2","3","5","6","3","5","7","7","2","7","7","6","4","3","5","6","5","729238735765639170","张","565","Female","[""好她"",""好我"",""坏她"",""坏我""]","[""强她"",""强我"",""弱她"",""弱我""]","","","","","","","","0","","","","","","","","","SRET","SRET_math_calculate","","key","0","16.666378600823016","640","396","","","","","6*0= ?","0","1","","","","","","","",""
"1979","","5","psychophysics","116","354572","0.0-7.0-5.0-0.13","5","4","4","3","3","3","2","4","4","4","4","0","-2","0","-2","1","0","1","1","4","5","5","5","3","4","3","4","4","4","4","4","5","6","7","7","5","7","8","6","4","1","5","5","2","3","6","4","3","1","5","2","3","3","4","5","2","4","3","6","3","6","3","2","3","5","6","3","5","7","7","2","7","7","6","4","3","5","6","5","729238735765639170","张","565","Female","[""好她"",""好我"",""坏她"",""坏我""]","[""强她"",""强我"",""弱她"",""弱我""]","","","","","","","","5","","","","","","","","","SRET","SRET_math_calculate","","key","5","16.669110169491663","640","396","","","","","3+2= ?","5","1","","","","","","","",""
"2175","","3","psychophysics","117","356748","0.0-7.0-5.0-0.14","5","4","4","3","3","3","2","4","4","4","4","0","-2","0","-2","1","0","1","1","4","5","5","5","3","4","3","4","4","4","4","4","5","6","7","7","5","7","8","6","4","1","5","5","2","3","6","4","3","1","5","2","3","3","4","5","2","4","3","6","3","6","3","2","3","5","6","3","5","7","7","2","7","7","6","4","3","5","6","5","729238735765639170","张","565","Female","[""好她"",""好我"",""坏她"",""坏我""]","[""强她"",""强我"",""弱她"",""弱我""]","","","","","","","","3","","","","","","","","","SRET","SRET_math_calculate","","key","3","16.66863076923048","640","396","","","","","12/4= ?","3","1","","","","","","","",""
"2068","","0","psychophysics","118","358817","0.0-7.0-5.0-0.15","5","4","4","3","3","3","2","4","4","4","4","0","-2","0","-2","1","0","1","1","4","5","5","5","3","4","3","4","4","4","4","4","5","6","7","7","5","7","8","6","4","1","5","5","2","3","6","4","3","1","5","2","3","3","4","5","2","4","3","6","3","6","3","2","3","5","6","3","5","7","7","2","7","7","6","4","3","5","6","5","729238735765639170","张","565","Female","[""好她"",""好我"",""坏她"",""坏我""]","[""强她"",""强我"",""弱她"",""弱我""]","","","","","","","","0","","","","","","","","","SRET","SRET_math_calculate","","key","0","16.66680487804872","640","396","","","","","7*0= ?","0","1","","","","","","","",""
"2097","","6","psychophysics","119","360916","0.0-7.0-5.0-0.16","5","4","4","3","3","3","2","4","4","4","4","0","-2","0","-2","1","0","1","1","4","5","5","5","3","4","3","4","4","4","4","4","5","6","7","7","5","7","8","6","4","1","5","5","2","3","6","4","3","1","5","2","3","3","4","5","2","4","3","6","3","6","3","2","3","5","6","3","5","7","7","2","7","7","6","4","3","5","6","5","729238735765639170","张","565","Female","[""好她"",""好我"",""坏她"",""坏我""]","[""强她"",""强我"",""弱她"",""弱我""]","","","","","","","","6","","","","","","","","","SRET","SRET_math_calculate","","key","6","16.66712000000011","640","396","","","","","2+4= ?","6","1","","","","","","","",""
"1910","","1","psychophysics","120","362827","0.0-7.0-5.0-0.17","5","4","4","3","3","3","2","4","4","4","4","0","-2","0","-2","1","0","1","1","4","5","5","5","3","4","3","4","4","4","4","4","5","6","7","7","5","7","8","6","4","1","5","5","2","3","6","4","3","1","5","2","3","3","4","5","2","4","3","6","3","6","3","2","3","5","6","3","5","7","7","2","7","7","6","4","3","5","6","5","729238735765639170","张","565","Female","[""好她"",""好我"",""坏她"",""坏我""]","[""强她"",""强我"",""弱她"",""弱我""]","","","","","","","","1","","","","","","","","","SRET","SRET_math_calculate","","key","1","16.658194690265393","640","396","","","","","4/4= ?","1","1","","","","","","","",""
"2329","","8","psychophysics","121","365157","0.0-7.0-5.0-0.18","5","4","4","3","3","3","2","4","4","4","4","0","-2","0","-2","1","0","1","1","4","5","5","5","3","4","3","4","4","4","4","4","5","6","7","7","5","7","8","6","4","1","5","5","2","3","6","4","3","1","5","2","3","3","4","5","2","4","3","6","3","6","3","2","3","5","6","3","5","7","7","2","7","7","6","4","3","5","6","5","729238735765639170","张","565","Female","[""好她"",""好我"",""坏她"",""坏我""]","[""强她"",""强我"",""弱她"",""弱我""]","","","","","","","","8","","","","","","","","","SRET","SRET_math_calculate","","key","8","16.66927338129524","640","396","","","","","1+7= ?","8","1","","","","","","","",""
"1925","","3","psychophysics","122","367083","0.0-7.0-5.0-0.19","5","4","4","3","3","3","2","4","4","4","4","0","-2","0","-2","1","0","1","1","4","5","5","5","3","4","3","4","4","4","4","4","5","6","7","7","5","7","8","6","4","1","5","5","2","3","6","4","3","1","5","2","3","3","4","5","2","4","3","6","3","6","3","2","3","5","6","3","5","7","7","2","7","7","6","4","3","5","6","5","729238735765639170","张","565","Female","[""好她"",""好我"",""坏她"",""坏我""]","[""强她"",""强我"",""弱她"",""弱我""]","","","","","","","","3","","","","","","","","","SRET","SRET_math_calculate","","key","3","16.668965217391655","640","396","","","","","3+0= ?","3","1","","","","","","","",""
"2456","","7","psychophysics","123","369540","0.0-7.0-5.0-0.20","5","4","4","3","3","3","2","4","4","4","4","0","-2","0","-2","1","0","1","1","4","5","5","5","3","4","3","4","4","4","4","4","5","6","7","7","5","7","8","6","4","1","5","5","2","3","6","4","3","1","5","2","3","3","4","5","2","4","3","6","3","6","3","2","3","5","6","3","5","7","7","2","7","7","6","4","3","5","6","5","729238735765639170","张","565","Female","[""好她"",""好我"",""坏她"",""坏我""]","[""强她"",""强我"",""弱她"",""弱我""]","","","","","","","","7","","","","","","","","","SRET","SRET_math_calculate","","key","7","16.66434931506886","640","396","","","","","21/3= ? ","7","1","","","","","","","",""
"1992","","4","psychophysics","124","371533","0.0-7.0-5.0-0.21","5","4","4","3","3","3","2","4","4","4","4","0","-2","0","-2","1","0","1","1","4","5","5","5","3","4","3","4","4","4","4","4","5","6","7","7","5","7","8","6","4","1","5","5","2","3","6","4","3","1","5","2","3","3","4","5","2","4","3","6","3","6","3","2","3","5","6","3","5","7","7","2","7","7","6","4","3","5","6","5","729238735765639170","张","565","Female","[""好她"",""好我"",""坏她"",""坏我""]","[""强她"",""强我"",""弱她"",""弱我""]","","","","","","","","4","","","","","","","","","SRET","SRET_math_calculate","","key","4","16.669075630252063","640","396","","","","","3+1= ?","4","1","","","","","","","",""
"2225","","8","psychophysics","125","373759","0.0-7.0-5.0-0.22","5","4","4","3","3","3","2","4","4","4","4","0","-2","0","-2","1","0","1","1","4","5","5","5","3","4","3","4","4","4","4","4","5","6","7","7","5","7","8","6","4","1","5","5","2","3","6","4","3","1","5","2","3","3","4","5","2","4","3","6","3","6","3","2","3","5","6","3","5","7","7","2","7","7","6","4","3","5","6","5","729238735765639170","张","565","Female","[""好她"",""好我"",""坏她"",""坏我""]","[""强她"",""强我"",""弱她"",""弱我""]","","","","","","","","8","","","","","","","","","SRET","SRET_math_calculate","","key","8","16.665977272727602","640","396","","","","","4+4= ?","8","1","","","","","","","",""
"2211","","8","psychophysics","126","375972","0.0-7.0-5.0-0.23","5","4","4","3","3","3","2","4","4","4","4","0","-2","0","-2","1","0","1","1","4","5","5","5","3","4","3","4","4","4","4","4","5","6","7","7","5","7","8","6","4","1","5","5","2","3","6","4","3","1","5","2","3","3","4","5","2","4","3","6","3","6","3","2","3","5","6","3","5","7","7","2","7","7","6","4","3","5","6","5","729238735765639170","张","565","Female","[""好她"",""好我"",""坏她"",""坏我""]","[""强她"",""强我"",""弱她"",""弱我""]","","","","","","","","8","","","","","","","","","SRET","SRET_math_calculate","","key","8","16.667272727272408","640","396","","","","","5+3= ?","8","1","","","","","","","",""
"2119","","9","psychophysics","127","378092","0.0-7.0-5.0-0.24","5","4","4","3","3","3","2","4","4","4","4","0","-2","0","-2","1","0","1","1","4","5","5","5","3","4","3","4","4","4","4","4","5","6","7","7","5","7","8","6","4","1","5","5","2","3","6","4","3","1","5","2","3","3","4","5","2","4","3","6","3","6","3","2","3","5","6","3","5","7","7","2","7","7","6","4","3","5","6","5","729238735765639170","张","565","Female","[""好她"",""好我"",""坏她"",""坏我""]","[""强她"",""强我"",""弱她"",""弱我""]","","","","","","","","9","","","","","","","","","SRET","SRET_math_calculate","","key","9","16.669047619047525","640","396","","","","","3*3= ?","9","1","","","","","","","",""
"2125","","9","psychophysics","128","380218","0.0-7.0-5.0-0.25","5","4","4","3","3","3","2","4","4","4","4","0","-2","0","-2","1","0","1","1","4","5","5","5","3","4","3","4","4","4","4","4","5","6","7","7","5","7","8","6","4","1","5","5","2","3","6","4","3","1","5","2","3","3","4","5","2","4","3","6","3","6","3","2","3","5","6","3","5","7","7","2","7","7","6","4","3","5","6","5","729238735765639170","张","565","Female","[""好她"",""好我"",""坏她"",""坏我""]","[""强她"",""强我"",""弱她"",""弱我""]","","","","","","","","9","","","","","","","","","SRET","SRET_math_calculate","","key","9","16.668472440944488","640","396","","","","","18/2= ?","9","1","","","","","","","",""
"2540","","6","psychophysics","129","382760","0.0-7.0-5.0-0.26","5","4","4","3","3","3","2","4","4","4","4","0","-2","0","-2","1","0","1","1","4","5","5","5","3","4","3","4","4","4","4","4","5","6","7","7","5","7","8","6","4","1","5","5","2","3","6","4","3","1","5","2","3","3","4","5","2","4","3","6","3","6","3","2","3","5","6","3","5","7","7","2","7","7","6","4","3","5","6","5","729238735765639170","张","565","Female","[""好她"",""好我"",""坏她"",""坏我""]","[""强她"",""强我"",""弱她"",""弱我""]","","","","","","","","6","","","","","","","","","SRET","SRET_math_calculate","","key","6","16.669046357615976","640","396","","","","","4+2= ?","6","1","","","","","","","",""
"1947","","2","psychophysics","130","384708","0.0-7.0-5.0-0.27","5","4","4","3","3","3","2","4","4","4","4","0","-2","0","-2","1","0","1","1","4","5","5","5","3","4","3","4","4","4","4","4","5","6","7","7","5","7","8","6","4","1","5","5","2","3","6","4","3","1","5","2","3","3","4","5","2","4","3","6","3","6","3","2","3","5","6","3","5","7","7","2","7","7","6","4","3","5","6","5","729238735765639170","张","565","Female","[""好她"",""好我"",""坏她"",""坏我""]","[""强她"",""强我"",""弱她"",""弱我""]","","","","","","","","2","","","","","","","","","SRET","SRET_math_calculate","","key","2","16.6660344827587","640","396","","","","","12/6= ?","2","1","","","","","","","",""
"2499","","7","psychophysics","131","387207","0.0-7.0-5.0-0.28","5","4","4","3","3","3","2","4","4","4","4","0","-2","0","-2","1","0","1","1","4","5","5","5","3","4","3","4","4","4","4","4","5","6","7","7","5","7","8","6","4","1","5","5","2","3","6","4","3","1","5","2","3","3","4","5","2","4","3","6","3","6","3","2","3","5","6","3","5","7","7","2","7","7","6","4","3","5","6","5","729238735765639170","张","565","Female","[""好她"",""好我"",""坏她"",""坏我""]","[""强她"",""强我"",""弱她"",""弱我""]","","","","","","","","7","","","","","","","","","SRET","SRET_math_calculate","","key","7","16.668416107382825","640","396","","","","","8-1= ?","7","1","","","","","","","",""
"1926","","8","psychophysics","132","389134","0.0-7.0-5.0-0.29","5","4","4","3","3","3","2","4","4","4","4","0","-2","0","-2","1","0","1","1","4","5","5","5","3","4","3","4","4","4","4","4","5","6","7","7","5","7","8","6","4","1","5","5","2","3","6","4","3","1","5","2","3","3","4","5","2","4","3","6","3","6","3","2","3","5","6","3","5","7","7","2","7","7","6","4","3","5","6","5","729238735765639170","张","565","Female","[""好她"",""好我"",""坏她"",""坏我""]","[""强她"",""强我"",""弱她"",""弱我""]","","","","","","","","8","","","","","","","","","SRET","SRET_math_calculate","","key","8","16.67000869565198","640","396","","","","","8*1= ?","8","1","","","","","","","",""
"2197","","8","psychophysics","133","391333","0.0-7.0-5.0-0.30","5","4","4","3","3","3","2","4","4","4","4","0","-2","0","-2","1","0","1","1","4","5","5","5","3","4","3","4","4","4","4","4","5","6","7","7","5","7","8","6","4","1","5","5","2","3","6","4","3","1","5","2","3","3","4","5","2","4","3","6","3","6","3","2","3","5","6","3","5","7","7","2","7","7","6","4","3","5","6","5","729238735765639170","张","565","Female","[""好她"",""好我"",""坏她"",""坏我""]","[""强她"",""强我"",""弱她"",""弱我""]","","","","","","","","8","","","","","","","","","SRET","SRET_math_calculate","","key","8","16.66897709923663","640","396","","","","","3+5= ?","8","1","","","","","","","",""
"2118","","0","psychophysics","134","393452","0.0-7.0-5.0-0.31","5","4","4","3","3","3","2","4","4","4","4","0","-2","0","-2","1","0","1","1","4","5","5","5","3","4","3","4","4","4","4","4","5","6","7","7","5","7","8","6","4","1","5","5","2","3","6","4","3","1","5","2","3","3","4","5","2","4","3","6","3","6","3","2","3","5","6","3","5","7","7","2","7","7","6","4","3","5","6","5","729238735765639170","张","565","Female","[""好她"",""好我"",""坏她"",""坏我""]","[""强她"",""强我"",""弱她"",""弱我""]","","","","","","","","0","","","","","","","","","SRET","SRET_math_calculate","","key","0","16.666301587301803","640","396","","","","","32-32= ?","0","1","","","","","","","",""
"1815","","1","psychophysics","135","395268","0.0-7.0-5.0-0.32","5","4","4","3","3","3","2","4","4","4","4","0","-2","0","-2","1","0","1","1","4","5","5","5","3","4","3","4","4","4","4","4","5","6","7","7","5","7","8","6","4","1","5","5","2","3","6","4","3","1","5","2","3","3","4","5","2","4","3","6","3","6","3","2","3","5","6","3","5","7","7","2","7","7","6","4","3","5","6","5","729238735765639170","张","565","Female","[""好她"",""好我"",""坏她"",""坏我""]","[""强她"",""强我"",""弱她"",""弱我""]","","","","","","","","1","","","","","","","","","SRET","SRET_math_calculate","","key","1","16.668324074074107","640","396","","","","","10-9= ?","1","1","","","","","","","",""
"2030","","7","psychophysics","136","397299","0.0-7.0-5.0-0.33","5","4","4","3","3","3","2","4","4","4","4","0","-2","0","-2","1","0","1","1","4","5","5","5","3","4","3","4","4","4","4","4","5","6","7","7","5","7","8","6","4","1","5","5","2","3","6","4","3","1","5","2","3","3","4","5","2","4","3","6","3","6","3","2","3","5","6","3","5","7","7","2","7","7","6","4","3","5","6","5","729238735765639170","张","565","Female","[""好她"",""好我"",""坏她"",""坏我""]","[""强她"",""强我"",""弱她"",""弱我""]","","","","","","","","7","","","","","","","","","SRET","SRET_math_calculate","","key","7","16.6691900826447","640","396","","","","","9-2= ?","7","1","","","","","","","",""
"1892","","9","psychophysics","137","399191","0.0-7.0-5.0-0.34","5","4","4","3","3","3","2","4","4","4","4","0","-2","0","-2","1","0","1","1","4","5","5","5","3","4","3","4","4","4","4","4","5","6","7","7","5","7","8","6","4","1","5","5","2","3","6","4","3","1","5","2","3","3","4","5","2","4","3","6","3","6","3","2","3","5","6","3","5","7","7","2","7","7","6","4","3","5","6","5","729238735765639170","张","565","Female","[""好她"",""好我"",""坏她"",""坏我""]","[""强她"",""强我"",""弱她"",""弱我""]","","","","","","","","9","","","","","","","","","SRET","SRET_math_calculate","","key","9","16.666785714285652","640","396","","","","","7+2= ?","9","1","","","","","","","",""
"1835","","0","psychophysics","138","401028","0.0-7.0-5.0-0.35","5","4","4","3","3","3","2","4","4","4","4","0","-2","0","-2","1","0","1","1","4","5","5","5","3","4","3","4","4","4","4","4","5","6","7","7","5","7","8","6","4","1","5","5","2","3","6","4","3","1","5","2","3","3","4","5","2","4","3","6","3","6","3","2","3","5","6","3","5","7","7","2","7","7","6","4","3","5","6","5","729238735765639170","张","565","Female","[""好她"",""好我"",""坏她"",""坏我""]","[""强她"",""强我"",""弱她"",""弱我""]","","","","","","","","0","","","","","","","","","SRET","SRET_math_calculate","","key","0","16.669954128440047","640","396","","","","","22-22= ?","0","1","","","","","","","",""
"2289","","9","psychophysics","139","403318","0.0-7.0-5.0-0.36","5","4","4","3","3","3","2","4","4","4","4","0","-2","0","-2","1","0","1","1","4","5","5","5","3","4","3","4","4","4","4","4","5","6","7","7","5","7","8","6","4","1","5","5","2","3","6","4","3","1","5","2","3","3","4","5","2","4","3","6","3","6","3","2","3","5","6","3","5","7","7","2","7","7","6","4","3","5","6","5","729238735765639170","张","565","Female","[""好她"",""好我"",""坏她"",""坏我""]","[""强她"",""强我"",""弱她"",""弱我""]","","","","","","","","9","","","","","","","","","SRET","SRET_math_calculate","","key","9","16.666868613138504","640","396","","","","","81/9= ?","9","1","","","","","","","",""
"2074","","7","psychophysics","140","405393","0.0-7.0-5.0-0.37","5","4","4","3","3","3","2","4","4","4","4","0","-2","0","-2","1","0","1","1","4","5","5","5","3","4","3","4","4","4","4","4","5","6","7","7","5","7","8","6","4","1","5","5","2","3","6","4","3","1","5","2","3","3","4","5","2","4","3","6","3","6","3","2","3","5","6","3","5","7","7","2","7","7","6","4","3","5","6","5","729238735765639170","张","565","Female","[""好她"",""好我"",""坏她"",""坏我""]","[""强她"",""强我"",""弱她"",""弱我""]","","","","","","","","7","","","","","","","","","SRET","SRET_math_calculate","","key","7","16.66703252032507","640","396","","","","","49/7 = ?","7","1","","","","","","","",""
"2510","","4","psychophysics","141","407904","0.0-7.0-5.0-0.38","5","4","4","3","3","3","2","4","4","4","4","0","-2","0","-2","1","0","1","1","4","5","5","5","3","4","3","4","4","4","4","4","5","6","7","7","5","7","8","6","4","1","5","5","2","3","6","4","3","1","5","2","3","3","4","5","2","4","3","6","3","6","3","2","3","5","6","3","5","7","7","2","7","7","6","4","3","5","6","5","729238735765639170","张","565","Female","[""好她"",""好我"",""坏她"",""坏我""]","[""强她"",""强我"",""弱她"",""弱我""]","","","","","","","","4","","","","","","","","","SRET","SRET_math_calculate","","key","4","16.66819333333328","640","396","","","","","9-5= ?","4","1","","","","","","","",""
"1984","","9","psychophysics","142","409888","0.0-7.0-5.0-0.39","5","4","4","3","3","3","2","4","4","4","4","0","-2","0","-2","1","0","1","1","4","5","5","5","3","4","3","4","4","4","4","4","5","6","7","7","5","7","8","6","4","1","5","5","2","3","6","4","3","1","5","2","3","3","4","5","2","4","3","6","3","6","3","2","3","5","6","3","5","7","7","2","7","7","6","4","3","5","6","5","729238735765639170","张","565","Female","[""好她"",""好我"",""坏她"",""坏我""]","[""强她"",""强我"",""弱她"",""弱我""]","","","","","","","","9","","","","","","","","","SRET","SRET_math_calculate","","key","9","16.668279661017102","640","396","","","","","1+8= ?","9","1","","","","","","","",""
