"rt","stimulus","response","trial_type","trial_index","time_elapsed","internal_node_id","swb_1","swb_2","swb_3","swb_4","swb_5","LOT_1","LOT_2","LOT_3","LOT_4","LOT_5","LOT_6","IPC_1","IPC_2","IPC_3","IPC_4","IPC_5","IPC_6","IPC_7","IPC_8","MorIden_1","MorIden_2","MorIden_3","MorIden_4","MorIden_5","MorIden_6","MorIden_7","MorIden_8","MorIden_9","MorIden_10","moralSeImag_1","moralSeImag_2","moralSeImag_3","moralSeImag_4","moralSeImag_5","moralSeImag_6","moralSeImag_7","moralSeImag_8","moralSeImag_9","sde_1","sde_2","sde_3","sde_4","sde_5","sde_6","sde_7","sde_8","sde_9","sde_10","trap2","sde_11","sde_12","sde_13","sde_14","sde_15","sde_16","sde_17","sde_18","sde_19","sde_20","IM_1","IM_2","IM_3","IM_4","IM_5","IM_6","IM_7","IM_8","IM_9","IM_10","IM_11","IM_12","IM_13","IM_14","IM_15","IM_16","IM_17","IM_18","IM_19","IM_20","subj_idx","friend_name","ParticipantID","Sex","Word","Word2","value","success","timeout","failed_images","failed_audio","failed_video","user_agent","responses","item_order","radio_event_ids","radio_event_times","key_event_times","mouse_event_times","straightlining","zigzagging","honeypot","view_history","response_type","key_press","avg_frame_time","center_x","center_y","correct_response","correct","identity","Image","word","condition","task_id","screen_id","time_stamp","person","valence","domain","math","status","duration","question_order","trap2_item"
"3974","
   <p><div style='color:white; font-size: 25px'>您好，欢迎参加本次实验。</div></p>
   <p><div style='color:white; font-size: 25px'>为充分保障您的权利，请确保您已经知晓并同意《参与实验同意书》以及《数据公开知情同意书》。</div></p>
   <p><div style='color:white; font-size: 25px'>如果您未见过上述内容，请咨询实验员。</div></p>
   <p style='color:white; font-size: 25px'>如果您选择继续实验，则表示您已经清楚两份知情同意书的内容并同意。</p>
   <p><div style = ""color: pink;font-size:30px;"">请确保您记得day0的实验编号，您将在本次实验输入该编号，若您忘记，请咨询实验员后作答。</div></p>
   <p><div style = ""color:lightblue;font-size:25px;"">请您尽可能认真地作答，我们将依据您在各问卷和按键任务中的作答质量发放报酬。</div></p>
   <p> <div style = ""color: green""><按空格键至下页></div> </p>
   "," ","html-keyboard-response","0","3978","0.0-0.0","5","4","4","3","5","4","3","4","4","4","4","1","-1","0","1","0","0","1","1","4","5","5","4","4","3","4","3","4","4","4","6","6","5","4","7","5","5","6","4","3","5","4","4","3","5","4","5","3","1","3","4","5","4","3","5","4","5","4","4","3","4","3","4","4","4","3","4","4","5","6","4","3","4","3","4","3","6","3","4","566315942938673152","张","398","Male","[""好他"",""坏我"",""好我"",""坏他""]","[""强他"",""弱我"",""强我"",""弱他""]","","","","","","","","","","","","","","","","","","","","","","","","","","","","","","","","","","","","","","",""
"","","","call-function","1","3981","0.0-1.0-0.0","5","4","4","3","5","4","3","4","4","4","4","1","-1","0","1","0","0","1","1","4","5","5","4","4","3","4","3","4","4","4","6","6","5","4","7","5","5","6","4","3","5","4","4","3","5","4","5","3","1","3","4","5","4","3","5","4","5","4","4","3","4","3","4","4","4","3","4","4","5","6","4","3","4","3","4","3","6","3","4","566315942938673152","张","398","Male","[""好他"",""坏我"",""好我"",""坏他""]","[""强他"",""弱我"",""强我"",""弱他""]","","","","","","","","","","","","","","","","","","","","","","","","","","","","","","","","","","","","","","",""
"102039","","[{""name"":""friend_name"",""value"":""张""},{""name"":""ParticipantID"",""value"":""398""}]","survey-html-form","2","106023","0.0-1.0-1.0","5","4","4","3","5","4","3","4","4","4","4","1","-1","0","1","0","0","1","1","4","5","5","4","4","3","4","3","4","4","4","6","6","5","4","7","5","5","6","4","3","5","4","4","3","5","4","5","3","1","3","4","5","4","3","5","4","5","4","4","3","4","3","4","4","4","3","4","4","5","6","4","3","4","3","4","3","6","3","4","566315942938673152","张","398","Male","[""好他"",""坏我"",""好我"",""坏他""]","[""强他"",""弱我"",""强我"",""弱他""]","","","","","","","","","","","","","","","","","","","","","","","","","","","","","","","","","","","","","","",""
"","","","preload","3","106543","0.0-2.0","5","4","4","3","5","4","3","4","4","4","4","1","-1","0","1","0","0","1","1","4","5","5","4","4","3","4","3","4","4","4","6","6","5","4","7","5","5","6","4","3","5","4","4","3","5","4","5","3","1","3","4","5","4","3","5","4","5","4","4","3","4","3","4","4","4","3","4","4","5","6","4","3","4","3","4","3","6","3","4","566315942938673152","张","398","Male","[""好他"",""坏我"",""好我"",""坏他""]","[""强他"",""弱我"",""强我"",""弱他""]","","true","false","[]","[]","[]","","","","","","","","","","","","","","","","","","","","","","","","","","","","","","","","",""
"","","","fullscreen","4","115066","0.0-3.0","5","4","4","3","5","4","3","4","4","4","4","1","-1","0","1","0","0","1","1","4","5","5","4","4","3","4","3","4","4","4","6","6","5","4","7","5","5","6","4","3","5","4","4","3","5","4","5","3","1","3","4","5","4","3","5","4","5","4","4","3","4","3","4","4","4","3","4","4","5","6","4","3","4","3","4","3","6","3","4","566315942938673152","张","398","Male","[""好他"",""坏我"",""好我"",""坏他""]","[""强他"",""弱我"",""强我"",""弱他""]","","true","","","","","{}","","","","","","","","","","","","","","","","","","","","","","","","","","","","","","","",""
"17855","","{""Q01"":""5"",""Q02"":""4"",""Q03"":""4"",""Q04"":""3"",""Q05"":""5""}","survey-template","5","132924","0.0-4.0","5","4","4","3","5","4","3","4","4","4","4","1","-1","0","1","0","0","1","1","4","5","5","4","4","3","4","3","4","4","4","6","6","5","4","7","5","5","6","4","3","5","4","4","3","5","4","5","3","1","3","4","5","4","3","5","4","5","4","4","3","4","3","4","4","4","3","4","4","5","6","4","3","4","3","4","3","6","3","4","566315942938673152","张","398","Male","[""好他"",""坏我"",""好我"",""坏他""]","[""强他"",""弱我"",""强我"",""弱他""]","","","","","","","","{""Q01"":""5"",""Q02"":""4"",""Q03"":""4"",""Q04"":""3"",""Q05"":""5""}","[0,1,2,3,4]","[""Q01"",""Q01"",""Q02"",""Q03"",""Q04"",""Q05""]","[4174.69999999553,5403.29999999702,9428.79999999702,10590.69999999553,12908.69999999553,16804.89999999851]","[]","[4174.69999999553,5403.29999999702,9428.79999999702,10590.69999999553,12908.69999999553,16804.89999999851,17848.39999999851]","0.4","0.5","0","","","","","","","","","","","","","","","","","","","","","","",""
"21778.79999999702","","{""Q01"":""4"",""Q02"":""3"",""Q03"":""4"",""Q04"":""4"",""Q05"":""4"",""Q06"":""4""}","survey-template","6","154709","0.0-5.0","5","4","4","3","5","4","3","4","4","4","4","1","-1","0","1","0","0","1","1","4","5","5","4","4","3","4","3","4","4","4","6","6","5","4","7","5","5","6","4","3","5","4","4","3","5","4","5","3","1","3","4","5","4","3","5","4","5","4","4","3","4","3","4","4","4","3","4","4","5","6","4","3","4","3","4","3","6","3","4","566315942938673152","张","398","Male","[""好他"",""坏我"",""好我"",""坏他""]","[""强他"",""弱我"",""强我"",""弱他""]","","","","","","","","{""Q01"":""4"",""Q02"":""3"",""Q03"":""4"",""Q04"":""4"",""Q05"":""4"",""Q06"":""4""}","[0,1,2,3,4,5]","[""Q01"",""Q02"",""Q03"",""Q04"",""Q05"",""Q06""]","[4265.89999999851,6188.5999999940395,8941.5,14558.79999999702,16569.5,20499.69999999553]","[]","[965.3999999985099,4265.89999999851,6188.5999999940395,8941.5,12049.19999999553,14558.79999999702,16569.5,20499.69999999553,21773]","0.5","0.4","0","","","","","","","","","","","","","","","","","","","","","","",""
"76026.10000000149","","{""Q01"":""1"",""Q02"":""-1"",""Q03"":""0"",""Q04"":""1"",""Q05"":""0"",""Q06"":""0"",""Q07"":""1"",""Q08"":""1""}","survey-template","7","230743","0.0-6.0","5","4","4","3","5","4","3","4","4","4","4","1","-1","0","1","0","0","1","1","4","5","5","4","4","3","4","3","4","4","4","6","6","5","4","7","5","5","6","4","3","5","4","4","3","5","4","5","3","1","3","4","5","4","3","5","4","5","4","4","3","4","3","4","4","4","3","4","4","5","6","4","3","4","3","4","3","6","3","4","566315942938673152","张","398","Male","[""好他"",""坏我"",""好我"",""坏他""]","[""强他"",""弱我"",""强我"",""弱他""]","","","","","","","","{""Q01"":""1"",""Q02"":""-1"",""Q03"":""0"",""Q04"":""1"",""Q05"":""0"",""Q06"":""0"",""Q07"":""1"",""Q08"":""1""}","[0,1,2,3,4,5,6,7]","[""Q01"",""Q02"",""Q02"",""Q03"",""Q04"",""Q05"",""Q06"",""Q07"",""Q08""]","[43935.20000000298,46176,48624.29999999702,51479.39999999851,64199.70000000298,67367.5,70039.60000000149,72504.10000000149,74618.20000000298]","[]","[43935.20000000298,46176,48624.29999999702,51479.39999999851,64199.70000000298,67367.5,70039.60000000149,72504.10000000149,74618.20000000298,76022.79999999702]","0.5","0.5714285714285714","0","","","","","","","","","","","","","","","","","","","","","","",""
"24725","","","instructions","8","255475","0.0-7.0","5","4","4","3","5","4","3","4","4","4","4","1","-1","0","1","0","0","1","1","4","5","5","4","4","3","4","3","4","4","4","6","6","5","4","7","5","5","6","4","3","5","4","4","3","5","4","5","3","1","3","4","5","4","3","5","4","5","4","4","3","4","3","4","4","4","3","4","4","5","6","4","3","4","3","4","3","6","3","4","566315942938673152","张","398","Male","[""好他"",""坏我"",""好我"",""坏他""]","[""强他"",""弱我"",""强我"",""弱他""]","","","","","","","","","","","","","","","","","[{""page_index"":0,""viewing_time"":24724}]","","","","","","","","","","","","","","","","","","","","","",""
"81494","","","instructions","9","336973","0.0-8.0-0.0-0.0","5","4","4","3","5","4","3","4","4","4","4","1","-1","0","1","0","0","1","1","4","5","5","4","4","3","4","3","4","4","4","6","6","5","4","7","5","5","6","4","3","5","4","4","3","5","4","5","3","1","3","4","5","4","3","5","4","5","4","4","3","4","3","4","4","4","3","4","4","5","6","4","3","4","3","4","3","6","3","4","566315942938673152","张","398","Male","[""好他"",""坏我"",""好我"",""坏他""]","[""强他"",""弱我"",""强我"",""弱他""]","","","","","","","","","","","","","","","","","[{""page_index"":0,""viewing_time"":21443},{""page_index"":1,""viewing_time"":50367},{""page_index"":2,""viewing_time"":6508},{""page_index"":3,""viewing_time"":3176}]","","","","","","","","","","","","","","","","","","","","","",""
"null","","null","psychophysics","10","339189","0.0-8.0-0.0-1.0-0.0-0.0","5","4","4","3","5","4","3","4","4","4","4","1","-1","0","1","0","0","1","1","4","5","5","4","4","3","4","3","4","4","4","6","6","5","4","7","5","5","6","4","3","5","4","4","3","5","4","5","3","1","3","4","5","4","3","5","4","5","4","4","3","4","3","4","4","4","3","4","4","5","6","4","3","4","3","4","3","6","3","4","566315942938673152","张","398","Male","[""好他"",""坏我"",""好我"",""坏他""]","[""强他"",""弱我"",""强我"",""弱他""]","","","","","","","","null","","","","","","","","","","key","null","16.65909090909091","640","356","j","false","nonmatch","img/trapezoid.png","坏他","坏我","prac_ALT2_moral","practice_moral","","","","","","","","",""
"null","<span class='add_' style='color:yellow; font-size: 70px;'> 太慢! </span>","null","html-keyboard-response","11","339698","0.0-8.0-0.0-1.0-0.0-1.0","5","4","4","3","5","4","3","4","4","4","4","1","-1","0","1","0","0","1","1","4","5","5","4","4","3","4","3","4","4","4","6","6","5","4","7","5","5","6","4","3","5","4","4","3","5","4","5","3","1","3","4","5","4","3","5","4","5","4","4","3","4","3","4","4","4","3","4","4","5","6","4","3","4","3","4","3","6","3","4","566315942938673152","张","398","Male","[""好他"",""坏我"",""好我"",""坏他""]","[""强他"",""弱我"",""强我"",""弱他""]","","","","","","","","","","","","","","","","","","","","","","","","","","","","","","feedback_test","","","","","","","","",""
"783","","j","psychophysics","12","341502","0.0-8.0-0.0-1.0-0.0-0.1","5","4","4","3","5","4","3","4","4","4","4","1","-1","0","1","0","0","1","1","4","5","5","4","4","3","4","3","4","4","4","6","6","5","4","7","5","5","6","4","3","5","4","4","3","5","4","5","3","1","3","4","5","4","3","5","4","5","4","4","3","4","3","4","4","4","3","4","4","5","6","4","3","4","3","4","3","6","3","4","566315942938673152","张","398","Male","[""好他"",""坏我"",""好我"",""坏他""]","[""强他"",""弱我"",""强我"",""弱他""]","","","","","","","","nonmatch","","","","","","","","","","key","j","16.654716981131745","640","356","f","false","match","img/trapezoid.png","坏我","坏我","prac_ALT2_moral","practice_moral","","","","","","","","",""
"null","<span style='color:red; font-size: 70px;'>错误! </span>","null","html-keyboard-response","13","342003","0.0-8.0-0.0-1.0-0.0-1.1","5","4","4","3","5","4","3","4","4","4","4","1","-1","0","1","0","0","1","1","4","5","5","4","4","3","4","3","4","4","4","6","6","5","4","7","5","5","6","4","3","5","4","4","3","5","4","5","3","1","3","4","5","4","3","5","4","5","4","4","3","4","3","4","4","4","3","4","4","5","6","4","3","4","3","4","3","6","3","4","566315942938673152","张","398","Male","[""好他"",""坏我"",""好我"",""坏他""]","[""强他"",""弱我"",""强我"",""弱他""]","","","","","","","","","","","","","","","","","","","","","","","","","","","","","","feedback_test","","","","","","","","",""
"675","","j","psychophysics","14","343681","0.0-8.0-0.0-1.0-0.0-0.2","5","4","4","3","5","4","3","4","4","4","4","1","-1","0","1","0","0","1","1","4","5","5","4","4","3","4","3","4","4","4","6","6","5","4","7","5","5","6","4","3","5","4","4","3","5","4","5","3","1","3","4","5","4","3","5","4","5","4","4","3","4","3","4","4","4","3","4","4","5","6","4","3","4","3","4","3","6","3","4","566315942938673152","张","398","Male","[""好他"",""坏我"",""好我"",""坏他""]","[""强他"",""弱我"",""强我"",""弱他""]","","","","","","","","nonmatch","","","","","","","","","","key","j","16.656565656565657","640","356","j","true","nonmatch","img/hexagon.png","坏他","好他","prac_ALT2_moral","practice_moral","","","","","","","","",""
"null","<span style='color:GreenYellow; font-size: 70px;'>正确! </span>","null","html-keyboard-response","15","344186","0.0-8.0-0.0-1.0-0.0-1.2","5","4","4","3","5","4","3","4","4","4","4","1","-1","0","1","0","0","1","1","4","5","5","4","4","3","4","3","4","4","4","6","6","5","4","7","5","5","6","4","3","5","4","4","3","5","4","5","3","1","3","4","5","4","3","5","4","5","4","4","3","4","3","4","4","4","3","4","4","5","6","4","3","4","3","4","3","6","3","4","566315942938673152","张","398","Male","[""好他"",""坏我"",""好我"",""坏他""]","[""强他"",""弱我"",""强我"",""弱他""]","","","","","","","","","","","","","","","","","","","","","","","","","","","","","","feedback_test","","","","","","","","",""
"808","","f","psychophysics","16","345996","0.0-8.0-0.0-1.0-0.0-0.3","5","4","4","3","5","4","3","4","4","4","4","1","-1","0","1","0","0","1","1","4","5","5","4","4","3","4","3","4","4","4","6","6","5","4","7","5","5","6","4","3","5","4","4","3","5","4","5","3","1","3","4","5","4","3","5","4","5","4","4","3","4","3","4","4","4","3","4","4","5","6","4","3","4","3","4","3","6","3","4","566315942938673152","张","398","Male","[""好他"",""坏我"",""好我"",""坏他""]","[""强他"",""弱我"",""强我"",""弱他""]","","","","","","","","match","","","","","","","","","","key","f","16.65607476635525","640","356","f","true","match","img/hexagon.png","好他","好他","prac_ALT2_moral","practice_moral","","","","","","","","",""
"null","<span style='color:GreenYellow; font-size: 70px;'>正确! </span>","null","html-keyboard-response","17","346502","0.0-8.0-0.0-1.0-0.0-1.3","5","4","4","3","5","4","3","4","4","4","4","1","-1","0","1","0","0","1","1","4","5","5","4","4","3","4","3","4","4","4","6","6","5","4","7","5","5","6","4","3","5","4","4","3","5","4","5","3","1","3","4","5","4","3","5","4","5","4","4","3","4","3","4","4","4","3","4","4","5","6","4","3","4","3","4","3","6","3","4","566315942938673152","张","398","Male","[""好他"",""坏我"",""好我"",""坏他""]","[""强他"",""弱我"",""强我"",""弱他""]","","","","","","","","","","","","","","","","","","","","","","","","","","","","","","feedback_test","","","","","","","","",""
"885","","f","psychophysics","18","348413","0.0-8.0-0.0-1.0-0.0-0.4","5","4","4","3","5","4","3","4","4","4","4","1","-1","0","1","0","0","1","1","4","5","5","4","4","3","4","3","4","4","4","6","6","5","4","7","5","5","6","4","3","5","4","4","3","5","4","5","3","1","3","4","5","4","3","5","4","5","4","4","3","4","3","4","4","4","3","4","4","5","6","4","3","4","3","4","3","6","3","4","566315942938673152","张","398","Male","[""好他"",""坏我"",""好我"",""坏他""]","[""强他"",""弱我"",""强我"",""弱他""]","","","","","","","","match","","","","","","","","","","key","f","16.65840707964571","640","356","j","false","nonmatch","img/hexagon.png","好我","好他","prac_ALT2_moral","practice_moral","","","","","","","","",""
"null","<span style='color:red; font-size: 70px;'>错误! </span>","null","html-keyboard-response","19","348916","0.0-8.0-0.0-1.0-0.0-1.4","5","4","4","3","5","4","3","4","4","4","4","1","-1","0","1","0","0","1","1","4","5","5","4","4","3","4","3","4","4","4","6","6","5","4","7","5","5","6","4","3","5","4","4","3","5","4","5","3","1","3","4","5","4","3","5","4","5","4","4","3","4","3","4","4","4","3","4","4","5","6","4","3","4","3","4","3","6","3","4","566315942938673152","张","398","Male","[""好他"",""坏我"",""好我"",""坏他""]","[""强他"",""弱我"",""强我"",""弱他""]","","","","","","","","","","","","","","","","","","","","","","","","","","","","","","feedback_test","","","","","","","","",""
"1027","","j","psychophysics","20","350946","0.0-8.0-0.0-1.0-0.0-0.5","5","4","4","3","5","4","3","4","4","4","4","1","-1","0","1","0","0","1","1","4","5","5","4","4","3","4","3","4","4","4","6","6","5","4","7","5","5","6","4","3","5","4","4","3","5","4","5","3","1","3","4","5","4","3","5","4","5","4","4","3","4","3","4","4","4","3","4","4","5","6","4","3","4","3","4","3","6","3","4","566315942938673152","张","398","Male","[""好他"",""坏我"",""好我"",""坏他""]","[""强他"",""弱我"",""强我"",""弱他""]","","","","","","","","nonmatch","","","","","","","","","","key","j","16.65583333333343","640","356","j","true","nonmatch","img/trapezoid.png","好我","坏我","prac_ALT2_moral","practice_moral","","","","","","","","",""
"null","<span style='color:GreenYellow; font-size: 70px;'>正确! </span>","null","html-keyboard-response","21","351448","0.0-8.0-0.0-1.0-0.0-1.5","5","4","4","3","5","4","3","4","4","4","4","1","-1","0","1","0","0","1","1","4","5","5","4","4","3","4","3","4","4","4","6","6","5","4","7","5","5","6","4","3","5","4","4","3","5","4","5","3","1","3","4","5","4","3","5","4","5","4","4","3","4","3","4","4","4","3","4","4","5","6","4","3","4","3","4","3","6","3","4","566315942938673152","张","398","Male","[""好他"",""坏我"",""好我"",""坏他""]","[""强他"",""弱我"",""强我"",""弱他""]","","","","","","","","","","","","","","","","","","","","","","","","","","","","","","feedback_test","","","","","","","","",""
"1035","","j","psychophysics","22","353486","0.0-8.0-0.0-1.0-0.0-0.6","5","4","4","3","5","4","3","4","4","4","4","1","-1","0","1","0","0","1","1","4","5","5","4","4","3","4","3","4","4","4","6","6","5","4","7","5","5","6","4","3","5","4","4","3","5","4","5","3","1","3","4","5","4","3","5","4","5","4","4","3","4","3","4","4","4","3","4","4","5","6","4","3","4","3","4","3","6","3","4","566315942938673152","张","398","Male","[""好他"",""坏我"",""好我"",""坏他""]","[""强他"",""弱我"",""强我"",""弱他""]","","","","","","","","nonmatch","","","","","","","","","","key","j","16.658333333333335","640","356","f","false","match","img/hexagon.png","好他","好他","prac_ALT2_moral","practice_moral","","","","","","","","",""
"null","<span style='color:red; font-size: 70px;'>错误! </span>","null","html-keyboard-response","23","353989","0.0-8.0-0.0-1.0-0.0-1.6","5","4","4","3","5","4","3","4","4","4","4","1","-1","0","1","0","0","1","1","4","5","5","4","4","3","4","3","4","4","4","6","6","5","4","7","5","5","6","4","3","5","4","4","3","5","4","5","3","1","3","4","5","4","3","5","4","5","4","4","3","4","3","4","4","4","3","4","4","5","6","4","3","4","3","4","3","6","3","4","566315942938673152","张","398","Male","[""好他"",""坏我"",""好我"",""坏他""]","[""强他"",""弱我"",""强我"",""弱他""]","","","","","","","","","","","","","","","","","","","","","","","","","","","","","","feedback_test","","","","","","","","",""
"766","","j","psychophysics","24","355759","0.0-8.0-0.0-1.0-0.0-0.7","5","4","4","3","5","4","3","4","4","4","4","1","-1","0","1","0","0","1","1","4","5","5","4","4","3","4","3","4","4","4","6","6","5","4","7","5","5","6","4","3","5","4","4","3","5","4","5","3","1","3","4","5","4","3","5","4","5","4","4","3","4","3","4","4","4","3","4","4","5","6","4","3","4","3","4","3","6","3","4","566315942938673152","张","398","Male","[""好他"",""坏我"",""好我"",""坏他""]","[""强他"",""弱我"",""强我"",""弱他""]","","","","","","","","nonmatch","","","","","","","","","","key","j","16.656730769230656","640","356","f","false","match","img/ellipse.png","好我","好我","prac_ALT2_moral","practice_moral","","","","","","","","",""
"null","<span style='color:red; font-size: 70px;'>错误! </span>","null","html-keyboard-response","25","356263","0.0-8.0-0.0-1.0-0.0-1.7","5","4","4","3","5","4","3","4","4","4","4","1","-1","0","1","0","0","1","1","4","5","5","4","4","3","4","3","4","4","4","6","6","5","4","7","5","5","6","4","3","5","4","4","3","5","4","5","3","1","3","4","5","4","3","5","4","5","4","4","3","4","3","4","4","4","3","4","4","5","6","4","3","4","3","4","3","6","3","4","566315942938673152","张","398","Male","[""好他"",""坏我"",""好我"",""坏他""]","[""强他"",""弱我"",""强我"",""弱他""]","","","","","","","","","","","","","","","","","","","","","","","","","","","","","","feedback_test","","","","","","","","",""
"406","","f","psychophysics","26","357672","0.0-8.0-0.0-1.0-0.0-0.8","5","4","4","3","5","4","3","4","4","4","4","1","-1","0","1","0","0","1","1","4","5","5","4","4","3","4","3","4","4","4","6","6","5","4","7","5","5","6","4","3","5","4","4","3","5","4","5","3","1","3","4","5","4","3","5","4","5","4","4","3","4","3","4","4","4","3","4","4","5","6","4","3","4","3","4","3","6","3","4","566315942938673152","张","398","Male","[""好他"",""坏我"",""好我"",""坏他""]","[""强他"",""弱我"",""强我"",""弱他""]","","","","","","","","match","","","","","","","","","","key","f","16.657831325300926","640","356","f","true","match","img/diamond.png","坏他","坏他","prac_ALT2_moral","practice_moral","","","","","","","","",""
"null","<span style='color:GreenYellow; font-size: 70px;'>正确! </span>","null","html-keyboard-response","27","358173","0.0-8.0-0.0-1.0-0.0-1.8","5","4","4","3","5","4","3","4","4","4","4","1","-1","0","1","0","0","1","1","4","5","5","4","4","3","4","3","4","4","4","6","6","5","4","7","5","5","6","4","3","5","4","4","3","5","4","5","3","1","3","4","5","4","3","5","4","5","4","4","3","4","3","4","4","4","3","4","4","5","6","4","3","4","3","4","3","6","3","4","566315942938673152","张","398","Male","[""好他"",""坏我"",""好我"",""坏他""]","[""强他"",""弱我"",""强我"",""弱他""]","","","","","","","","","","","","","","","","","","","","","","","","","","","","","","feedback_test","","","","","","","","",""
"735","","j","psychophysics","28","359933","0.0-8.0-0.0-1.0-0.0-0.9","5","4","4","3","5","4","3","4","4","4","4","1","-1","0","1","0","0","1","1","4","5","5","4","4","3","4","3","4","4","4","6","6","5","4","7","5","5","6","4","3","5","4","4","3","5","4","5","3","1","3","4","5","4","3","5","4","5","4","4","3","4","3","4","4","4","3","4","4","5","6","4","3","4","3","4","3","6","3","4","566315942938673152","张","398","Male","[""好他"",""坏我"",""好我"",""坏他""]","[""强他"",""弱我"",""强我"",""弱他""]","","","","","","","","nonmatch","","","","","","","","","","key","j","16.656730769230656","640","356","j","true","nonmatch","img/hexagon.png","坏我","好他","prac_ALT2_moral","practice_moral","","","","","","","","",""
"null","<span style='color:GreenYellow; font-size: 70px;'>正确! </span>","null","html-keyboard-response","29","360436","0.0-8.0-0.0-1.0-0.0-1.9","5","4","4","3","5","4","3","4","4","4","4","1","-1","0","1","0","0","1","1","4","5","5","4","4","3","4","3","4","4","4","6","6","5","4","7","5","5","6","4","3","5","4","4","3","5","4","5","3","1","3","4","5","4","3","5","4","5","4","4","3","4","3","4","4","4","3","4","4","5","6","4","3","4","3","4","3","6","3","4","566315942938673152","张","398","Male","[""好他"",""坏我"",""好我"",""坏他""]","[""强他"",""弱我"",""强我"",""弱他""]","","","","","","","","","","","","","","","","","","","","","","","","","","","","","","feedback_test","","","","","","","","",""
"744","","f","psychophysics","30","362183","0.0-8.0-0.0-1.0-0.0-0.10","5","4","4","3","5","4","3","4","4","4","4","1","-1","0","1","0","0","1","1","4","5","5","4","4","3","4","3","4","4","4","6","6","5","4","7","5","5","6","4","3","5","4","4","3","5","4","5","3","1","3","4","5","4","3","5","4","5","4","4","3","4","3","4","4","4","3","4","4","5","6","4","3","4","3","4","3","6","3","4","566315942938673152","张","398","Male","[""好他"",""坏我"",""好我"",""坏他""]","[""强他"",""弱我"",""强我"",""弱他""]","","","","","","","","match","","","","","","","","","","key","f","16.658252427184355","640","356","f","true","match","img/hexagon.png","好他","好他","prac_ALT2_moral","practice_moral","","","","","","","","",""
"null","<span style='color:GreenYellow; font-size: 70px;'>正确! </span>","null","html-keyboard-response","31","362684","0.0-8.0-0.0-1.0-0.0-1.10","5","4","4","3","5","4","3","4","4","4","4","1","-1","0","1","0","0","1","1","4","5","5","4","4","3","4","3","4","4","4","6","6","5","4","7","5","5","6","4","3","5","4","4","3","5","4","5","3","1","3","4","5","4","3","5","4","5","4","4","3","4","3","4","4","4","3","4","4","5","6","4","3","4","3","4","3","6","3","4","566315942938673152","张","398","Male","[""好他"",""坏我"",""好我"",""坏他""]","[""强他"",""弱我"",""强我"",""弱他""]","","","","","","","","","","","","","","","","","","","","","","","","","","","","","","feedback_test","","","","","","","","",""
"773","","f","psychophysics","32","364460","0.0-8.0-0.0-1.0-0.0-0.11","5","4","4","3","5","4","3","4","4","4","4","1","-1","0","1","0","0","1","1","4","5","5","4","4","3","4","3","4","4","4","6","6","5","4","7","5","5","6","4","3","5","4","4","3","5","4","5","3","1","3","4","5","4","3","5","4","5","4","4","3","4","3","4","4","4","3","4","4","5","6","4","3","4","3","4","3","6","3","4","566315942938673152","张","398","Male","[""好他"",""坏我"",""好我"",""坏他""]","[""强他"",""弱我"",""强我"",""弱他""]","","","","","","","","match","","","","","","","","","","key","f","16.656190476190144","640","356","j","false","nonmatch","img/diamond.png","好我","坏他","prac_ALT2_moral","practice_moral","","","","","","","","",""
"null","<span style='color:red; font-size: 70px;'>错误! </span>","null","html-keyboard-response","33","364962","0.0-8.0-0.0-1.0-0.0-1.11","5","4","4","3","5","4","3","4","4","4","4","1","-1","0","1","0","0","1","1","4","5","5","4","4","3","4","3","4","4","4","6","6","5","4","7","5","5","6","4","3","5","4","4","3","5","4","5","3","1","3","4","5","4","3","5","4","5","4","4","3","4","3","4","4","4","3","4","4","5","6","4","3","4","3","4","3","6","3","4","566315942938673152","张","398","Male","[""好他"",""坏我"",""好我"",""坏他""]","[""强他"",""弱我"",""强我"",""弱他""]","","","","","","","","","","","","","","","","","","","","","","","","","","","","","","feedback_test","","","","","","","","",""
"665","","j","psychophysics","34","366643","0.0-8.0-0.0-1.0-0.0-0.12","5","4","4","3","5","4","3","4","4","4","4","1","-1","0","1","0","0","1","1","4","5","5","4","4","3","4","3","4","4","4","6","6","5","4","7","5","5","6","4","3","5","4","4","3","5","4","5","3","1","3","4","5","4","3","5","4","5","4","4","3","4","3","4","4","4","3","4","4","5","6","4","3","4","3","4","3","6","3","4","566315942938673152","张","398","Male","[""好他"",""坏我"",""好我"",""坏他""]","[""强他"",""弱我"",""强我"",""弱他""]","","","","","","","","nonmatch","","","","","","","","","","key","j","16.657000000000117","640","356","f","false","match","img/diamond.png","坏他","坏他","prac_ALT2_moral","practice_moral","","","","","","","","",""
"null","<span style='color:red; font-size: 70px;'>错误! </span>","null","html-keyboard-response","35","367145","0.0-8.0-0.0-1.0-0.0-1.12","5","4","4","3","5","4","3","4","4","4","4","1","-1","0","1","0","0","1","1","4","5","5","4","4","3","4","3","4","4","4","6","6","5","4","7","5","5","6","4","3","5","4","4","3","5","4","5","3","1","3","4","5","4","3","5","4","5","4","4","3","4","3","4","4","4","3","4","4","5","6","4","3","4","3","4","3","6","3","4","566315942938673152","张","398","Male","[""好他"",""坏我"",""好我"",""坏他""]","[""强他"",""弱我"",""强我"",""弱他""]","","","","","","","","","","","","","","","","","","","","","","","","","","","","","","feedback_test","","","","","","","","",""
"533","","j","psychophysics","36","368681","0.0-8.0-0.0-1.0-0.0-0.13","5","4","4","3","5","4","3","4","4","4","4","1","-1","0","1","0","0","1","1","4","5","5","4","4","3","4","3","4","4","4","6","6","5","4","7","5","5","6","4","3","5","4","4","3","5","4","5","3","1","3","4","5","4","3","5","4","5","4","4","3","4","3","4","4","4","3","4","4","5","6","4","3","4","3","4","3","6","3","4","566315942938673152","张","398","Male","[""好他"",""坏我"",""好我"",""坏他""]","[""强他"",""弱我"",""强我"",""弱他""]","","","","","","","","nonmatch","","","","","","","","","","key","j","16.658241758242013","640","356","j","true","nonmatch","img/ellipse.png","好他","好我","prac_ALT2_moral","practice_moral","","","","","","","","",""
"null","<span style='color:GreenYellow; font-size: 70px;'>正确! </span>","null","html-keyboard-response","37","369184","0.0-8.0-0.0-1.0-0.0-1.13","5","4","4","3","5","4","3","4","4","4","4","1","-1","0","1","0","0","1","1","4","5","5","4","4","3","4","3","4","4","4","6","6","5","4","7","5","5","6","4","3","5","4","4","3","5","4","5","3","1","3","4","5","4","3","5","4","5","4","4","3","4","3","4","4","4","3","4","4","5","6","4","3","4","3","4","3","6","3","4","566315942938673152","张","398","Male","[""好他"",""坏我"",""好我"",""坏他""]","[""强他"",""弱我"",""强我"",""弱他""]","","","","","","","","","","","","","","","","","","","","","","","","","","","","","","feedback_test","","","","","","","","",""
"704","","j","psychophysics","38","370891","0.0-8.0-0.0-1.0-0.0-0.14","5","4","4","3","5","4","3","4","4","4","4","1","-1","0","1","0","0","1","1","4","5","5","4","4","3","4","3","4","4","4","6","6","5","4","7","5","5","6","4","3","5","4","4","3","5","4","5","3","1","3","4","5","4","3","5","4","5","4","4","3","4","3","4","4","4","3","4","4","5","6","4","3","4","3","4","3","6","3","4","566315942938673152","张","398","Male","[""好他"",""坏我"",""好我"",""坏他""]","[""强他"",""弱我"",""强我"",""弱他""]","","","","","","","","nonmatch","","","","","","","","","","key","j","16.655999999999768","640","356","f","false","match","img/trapezoid.png","坏我","坏我","prac_ALT2_moral","practice_moral","","","","","","","","",""
"null","<span style='color:red; font-size: 70px;'>错误! </span>","null","html-keyboard-response","39","371395","0.0-8.0-0.0-1.0-0.0-1.14","5","4","4","3","5","4","3","4","4","4","4","1","-1","0","1","0","0","1","1","4","5","5","4","4","3","4","3","4","4","4","6","6","5","4","7","5","5","6","4","3","5","4","4","3","5","4","5","3","1","3","4","5","4","3","5","4","5","4","4","3","4","3","4","4","4","3","4","4","5","6","4","3","4","3","4","3","6","3","4","566315942938673152","张","398","Male","[""好他"",""坏我"",""好我"",""坏他""]","[""强他"",""弱我"",""强我"",""弱他""]","","","","","","","","","","","","","","","","","","","","","","","","","","","","","","feedback_test","","","","","","","","",""
"809","","j","psychophysics","40","373207","0.0-8.0-0.0-1.0-0.0-0.15","5","4","4","3","5","4","3","4","4","4","4","1","-1","0","1","0","0","1","1","4","5","5","4","4","3","4","3","4","4","4","6","6","5","4","7","5","5","6","4","3","5","4","4","3","5","4","5","3","1","3","4","5","4","3","5","4","5","4","4","3","4","3","4","4","4","3","4","4","5","6","4","3","4","3","4","3","6","3","4","566315942938673152","张","398","Male","[""好他"",""坏我"",""好我"",""坏他""]","[""强他"",""弱我"",""强我"",""弱他""]","","","","","","","","nonmatch","","","","","","","","","","key","j","16.66074766355151","640","356","j","true","nonmatch","img/trapezoid.png","好他","坏我","prac_ALT2_moral","practice_moral","","","","","","","","",""
"null","<span style='color:GreenYellow; font-size: 70px;'>正确! </span>","null","html-keyboard-response","41","373709","0.0-8.0-0.0-1.0-0.0-1.15","5","4","4","3","5","4","3","4","4","4","4","1","-1","0","1","0","0","1","1","4","5","5","4","4","3","4","3","4","4","4","6","6","5","4","7","5","5","6","4","3","5","4","4","3","5","4","5","3","1","3","4","5","4","3","5","4","5","4","4","3","4","3","4","4","4","3","4","4","5","6","4","3","4","3","4","3","6","3","4","566315942938673152","张","398","Male","[""好他"",""坏我"",""好我"",""坏他""]","[""强他"",""弱我"",""强我"",""弱他""]","","","","","","","","","","","","","","","","","","","","","","","","","","","","","","feedback_test","","","","","","","","",""
"686","","j","psychophysics","42","375399","0.0-8.0-0.0-1.0-0.0-0.16","5","4","4","3","5","4","3","4","4","4","4","1","-1","0","1","0","0","1","1","4","5","5","4","4","3","4","3","4","4","4","6","6","5","4","7","5","5","6","4","3","5","4","4","3","5","4","5","3","1","3","4","5","4","3","5","4","5","4","4","3","4","3","4","4","4","3","4","4","5","6","4","3","4","3","4","3","6","3","4","566315942938673152","张","398","Male","[""好他"",""坏我"",""好我"",""坏他""]","[""强他"",""弱我"",""强我"",""弱他""]","","","","","","","","nonmatch","","","","","","","","","","key","j","16.656565656565657","640","356","j","true","nonmatch","img/ellipse.png","坏我","好我","prac_ALT2_moral","practice_moral","","","","","","","","",""
"null","<span style='color:GreenYellow; font-size: 70px;'>正确! </span>","null","html-keyboard-response","43","375901","0.0-8.0-0.0-1.0-0.0-1.16","5","4","4","3","5","4","3","4","4","4","4","1","-1","0","1","0","0","1","1","4","5","5","4","4","3","4","3","4","4","4","6","6","5","4","7","5","5","6","4","3","5","4","4","3","5","4","5","3","1","3","4","5","4","3","5","4","5","4","4","3","4","3","4","4","4","3","4","4","5","6","4","3","4","3","4","3","6","3","4","566315942938673152","张","398","Male","[""好他"",""坏我"",""好我"",""坏他""]","[""强他"",""弱我"",""强我"",""弱他""]","","","","","","","","","","","","","","","","","","","","","","","","","","","","","","feedback_test","","","","","","","","",""
"644","","j","psychophysics","44","377549","0.0-8.0-0.0-1.0-0.0-0.17","5","4","4","3","5","4","3","4","4","4","4","1","-1","0","1","0","0","1","1","4","5","5","4","4","3","4","3","4","4","4","6","6","5","4","7","5","5","6","4","3","5","4","4","3","5","4","5","3","1","3","4","5","4","3","5","4","5","4","4","3","4","3","4","4","4","3","4","4","5","6","4","3","4","3","4","3","6","3","4","566315942938673152","张","398","Male","[""好他"",""坏我"",""好我"",""坏他""]","[""强他"",""弱我"",""强我"",""弱他""]","","","","","","","","nonmatch","","","","","","","","","","key","j","16.656701030927955","640","356","f","false","match","img/diamond.png","坏他","坏他","prac_ALT2_moral","practice_moral","","","","","","","","",""
"null","<span style='color:red; font-size: 70px;'>错误! </span>","null","html-keyboard-response","45","378052","0.0-8.0-0.0-1.0-0.0-1.17","5","4","4","3","5","4","3","4","4","4","4","1","-1","0","1","0","0","1","1","4","5","5","4","4","3","4","3","4","4","4","6","6","5","4","7","5","5","6","4","3","5","4","4","3","5","4","5","3","1","3","4","5","4","3","5","4","5","4","4","3","4","3","4","4","4","3","4","4","5","6","4","3","4","3","4","3","6","3","4","566315942938673152","张","398","Male","[""好他"",""坏我"",""好我"",""坏他""]","[""强他"",""弱我"",""强我"",""弱他""]","","","","","","","","","","","","","","","","","","","","","","","","","","","","","","feedback_test","","","","","","","","",""
"876","","f","psychophysics","46","379934","0.0-8.0-0.0-1.0-0.0-0.18","5","4","4","3","5","4","3","4","4","4","4","1","-1","0","1","0","0","1","1","4","5","5","4","4","3","4","3","4","4","4","6","6","5","4","7","5","5","6","4","3","5","4","4","3","5","4","5","3","1","3","4","5","4","3","5","4","5","4","4","3","4","3","4","4","4","3","4","4","5","6","4","3","4","3","4","3","6","3","4","566315942938673152","张","398","Male","[""好他"",""坏我"",""好我"",""坏他""]","[""强他"",""弱我"",""强我"",""弱他""]","","","","","","","","match","","","","","","","","","","key","f","16.65765765765766","640","356","f","true","match","img/ellipse.png","好我","好我","prac_ALT2_moral","practice_moral","","","","","","","","",""
"null","<span style='color:GreenYellow; font-size: 70px;'>正确! </span>","null","html-keyboard-response","47","380436","0.0-8.0-0.0-1.0-0.0-1.18","5","4","4","3","5","4","3","4","4","4","4","1","-1","0","1","0","0","1","1","4","5","5","4","4","3","4","3","4","4","4","6","6","5","4","7","5","5","6","4","3","5","4","4","3","5","4","5","3","1","3","4","5","4","3","5","4","5","4","4","3","4","3","4","4","4","3","4","4","5","6","4","3","4","3","4","3","6","3","4","566315942938673152","张","398","Male","[""好他"",""坏我"",""好我"",""坏他""]","[""强他"",""弱我"",""强我"",""弱他""]","","","","","","","","","","","","","","","","","","","","","","","","","","","","","","feedback_test","","","","","","","","",""
"563","","j","psychophysics","48","382005","0.0-8.0-0.0-1.0-0.0-0.19","5","4","4","3","5","4","3","4","4","4","4","1","-1","0","1","0","0","1","1","4","5","5","4","4","3","4","3","4","4","4","6","6","5","4","7","5","5","6","4","3","5","4","4","3","5","4","5","3","1","3","4","5","4","3","5","4","5","4","4","3","4","3","4","4","4","3","4","4","5","6","4","3","4","3","4","3","6","3","4","566315942938673152","张","398","Male","[""好他"",""坏我"",""好我"",""坏他""]","[""强他"",""弱我"",""强我"",""弱他""]","","","","","","","","nonmatch","","","","","","","","","","key","j","16.657608695652176","640","356","j","true","nonmatch","img/diamond.png","好他","坏他","prac_ALT2_moral","practice_moral","","","","","","","","",""
"null","<span style='color:GreenYellow; font-size: 70px;'>正确! </span>","null","html-keyboard-response","49","382507","0.0-8.0-0.0-1.0-0.0-1.19","5","4","4","3","5","4","3","4","4","4","4","1","-1","0","1","0","0","1","1","4","5","5","4","4","3","4","3","4","4","4","6","6","5","4","7","5","5","6","4","3","5","4","4","3","5","4","5","3","1","3","4","5","4","3","5","4","5","4","4","3","4","3","4","4","4","3","4","4","5","6","4","3","4","3","4","3","6","3","4","566315942938673152","张","398","Male","[""好他"",""坏我"",""好我"",""坏他""]","[""强他"",""弱我"",""强我"",""弱他""]","","","","","","","","","","","","","","","","","","","","","","","","","","","","","","feedback_test","","","","","","","","",""
"504","","j","psychophysics","50","384014","0.0-8.0-0.0-1.0-0.0-0.20","5","4","4","3","5","4","3","4","4","4","4","1","-1","0","1","0","0","1","1","4","5","5","4","4","3","4","3","4","4","4","6","6","5","4","7","5","5","6","4","3","5","4","4","3","5","4","5","3","1","3","4","5","4","3","5","4","5","4","4","3","4","3","4","4","4","3","4","4","5","6","4","3","4","3","4","3","6","3","4","566315942938673152","张","398","Male","[""好他"",""坏我"",""好我"",""坏他""]","[""强他"",""弱我"",""强我"",""弱他""]","","","","","","","","nonmatch","","","","","","","","","","key","j","16.65909090909091","640","356","f","false","match","img/ellipse.png","好我","好我","prac_ALT2_moral","practice_moral","","","","","","","","",""
"null","<span style='color:red; font-size: 70px;'>错误! </span>","null","html-keyboard-response","51","384517","0.0-8.0-0.0-1.0-0.0-1.20","5","4","4","3","5","4","3","4","4","4","4","1","-1","0","1","0","0","1","1","4","5","5","4","4","3","4","3","4","4","4","6","6","5","4","7","5","5","6","4","3","5","4","4","3","5","4","5","3","1","3","4","5","4","3","5","4","5","4","4","3","4","3","4","4","4","3","4","4","5","6","4","3","4","3","4","3","6","3","4","566315942938673152","张","398","Male","[""好他"",""坏我"",""好我"",""坏他""]","[""强他"",""弱我"",""强我"",""弱他""]","","","","","","","","","","","","","","","","","","","","","","","","","","","","","","feedback_test","","","","","","","","",""
"606","","f","psychophysics","52","386144","0.0-8.0-0.0-1.0-0.0-0.21","5","4","4","3","5","4","3","4","4","4","4","1","-1","0","1","0","0","1","1","4","5","5","4","4","3","4","3","4","4","4","6","6","5","4","7","5","5","6","4","3","5","4","4","3","5","4","5","3","1","3","4","5","4","3","5","4","5","4","4","3","4","3","4","4","4","3","4","4","5","6","4","3","4","3","4","3","6","3","4","566315942938673152","张","398","Male","[""好他"",""坏我"",""好我"",""坏他""]","[""强他"",""弱我"",""强我"",""弱他""]","","","","","","","","match","","","","","","","","","","key","f","16.655208333333576","640","356","f","true","match","img/trapezoid.png","坏我","坏我","prac_ALT2_moral","practice_moral","","","","","","","","",""
"null","<span style='color:GreenYellow; font-size: 70px;'>正确! </span>","null","html-keyboard-response","53","386647","0.0-8.0-0.0-1.0-0.0-1.21","5","4","4","3","5","4","3","4","4","4","4","1","-1","0","1","0","0","1","1","4","5","5","4","4","3","4","3","4","4","4","6","6","5","4","7","5","5","6","4","3","5","4","4","3","5","4","5","3","1","3","4","5","4","3","5","4","5","4","4","3","4","3","4","4","4","3","4","4","5","6","4","3","4","3","4","3","6","3","4","566315942938673152","张","398","Male","[""好他"",""坏我"",""好我"",""坏他""]","[""强他"",""弱我"",""强我"",""弱他""]","","","","","","","","","","","","","","","","","","","","","","","","","","","","","","feedback_test","","","","","","","","",""
"581","","j","psychophysics","54","388232","0.0-8.0-0.0-1.0-0.0-0.22","5","4","4","3","5","4","3","4","4","4","4","1","-1","0","1","0","0","1","1","4","5","5","4","4","3","4","3","4","4","4","6","6","5","4","7","5","5","6","4","3","5","4","4","3","5","4","5","3","1","3","4","5","4","3","5","4","5","4","4","3","4","3","4","4","4","3","4","4","5","6","4","3","4","3","4","3","6","3","4","566315942938673152","张","398","Male","[""好他"",""坏我"",""好我"",""坏他""]","[""强他"",""弱我"",""强我"",""弱他""]","","","","","","","","nonmatch","","","","","","","","","","key","j","16.65483870967767","640","356","j","true","nonmatch","img/diamond.png","坏我","坏他","prac_ALT2_moral","practice_moral","","","","","","","","",""
"null","<span style='color:GreenYellow; font-size: 70px;'>正确! </span>","null","html-keyboard-response","55","388737","0.0-8.0-0.0-1.0-0.0-1.22","5","4","4","3","5","4","3","4","4","4","4","1","-1","0","1","0","0","1","1","4","5","5","4","4","3","4","3","4","4","4","6","6","5","4","7","5","5","6","4","3","5","4","4","3","5","4","5","3","1","3","4","5","4","3","5","4","5","4","4","3","4","3","4","4","4","3","4","4","5","6","4","3","4","3","4","3","6","3","4","566315942938673152","张","398","Male","[""好他"",""坏我"",""好我"",""坏他""]","[""强他"",""弱我"",""强我"",""弱他""]","","","","","","","","","","","","","","","","","","","","","","","","","","","","","","feedback_test","","","","","","","","",""
"510","","f","psychophysics","56","390250","0.0-8.0-0.0-1.0-0.0-0.23","5","4","4","3","5","4","3","4","4","4","4","1","-1","0","1","0","0","1","1","4","5","5","4","4","3","4","3","4","4","4","6","6","5","4","7","5","5","6","4","3","5","4","4","3","5","4","5","3","1","3","4","5","4","3","5","4","5","4","4","3","4","3","4","4","4","3","4","4","5","6","4","3","4","3","4","3","6","3","4","566315942938673152","张","398","Male","[""好他"",""坏我"",""好我"",""坏他""]","[""强他"",""弱我"",""强我"",""弱他""]","","","","","","","","match","","","","","","","","","","key","f","16.65730337078652","640","356","j","false","nonmatch","img/ellipse.png","坏他","好我","prac_ALT2_moral","practice_moral","","","","","","","","",""
"null","<span style='color:red; font-size: 70px;'>错误! </span>","null","html-keyboard-response","57","390753","0.0-8.0-0.0-1.0-0.0-1.23","5","4","4","3","5","4","3","4","4","4","4","1","-1","0","1","0","0","1","1","4","5","5","4","4","3","4","3","4","4","4","6","6","5","4","7","5","5","6","4","3","5","4","4","3","5","4","5","3","1","3","4","5","4","3","5","4","5","4","4","3","4","3","4","4","4","3","4","4","5","6","4","3","4","3","4","3","6","3","4","566315942938673152","张","398","Male","[""好他"",""坏我"",""好我"",""坏他""]","[""强他"",""弱我"",""强我"",""弱他""]","","","","","","","","","","","","","","","","","","","","","","","","","","","","","","feedback_test","","","","","","","","",""
"328","","j","psychophysics","58","392108","0.0-8.0-0.0-1.0-0.0-0.24","5","4","4","3","5","4","3","4","4","4","4","1","-1","0","1","0","0","1","1","4","5","5","4","4","3","4","3","4","4","4","6","6","5","4","7","5","5","6","4","3","5","4","4","3","5","4","5","3","1","3","4","5","4","3","5","4","5","4","4","3","4","3","4","4","4","3","4","4","5","6","4","3","4","3","4","3","6","3","4","566315942938673152","张","398","Male","[""好他"",""坏我"",""好我"",""坏他""]","[""强他"",""弱我"",""强我"",""弱他""]","","","","","","","","nonmatch","","","","","","","","","","key","j","16.66125000000029","640","356","f","false","match","img/trapezoid.png","坏我","坏我","prac_ALT2_moral","practice_moral","","","","","","","","",""
"null","<span style='color:red; font-size: 70px;'>错误! </span>","null","html-keyboard-response","59","392609","0.0-8.0-0.0-1.0-0.0-1.24","5","4","4","3","5","4","3","4","4","4","4","1","-1","0","1","0","0","1","1","4","5","5","4","4","3","4","3","4","4","4","6","6","5","4","7","5","5","6","4","3","5","4","4","3","5","4","5","3","1","3","4","5","4","3","5","4","5","4","4","3","4","3","4","4","4","3","4","4","5","6","4","3","4","3","4","3","6","3","4","566315942938673152","张","398","Male","[""好他"",""坏我"",""好我"",""坏他""]","[""强他"",""弱我"",""强我"",""弱他""]","","","","","","","","","","","","","","","","","","","","","","","","","","","","","","feedback_test","","","","","","","","",""
"395","","j","psychophysics","60","394012","0.0-8.0-0.0-1.0-0.0-0.25","5","4","4","3","5","4","3","4","4","4","4","1","-1","0","1","0","0","1","1","4","5","5","4","4","3","4","3","4","4","4","6","6","5","4","7","5","5","6","4","3","5","4","4","3","5","4","5","3","1","3","4","5","4","3","5","4","5","4","4","3","4","3","4","4","4","3","4","4","5","6","4","3","4","3","4","3","6","3","4","566315942938673152","张","398","Male","[""好他"",""坏我"",""好我"",""坏他""]","[""强他"",""弱我"",""强我"",""弱他""]","","","","","","","","nonmatch","","","","","","","","","","key","j","16.65975609756069","640","356","f","false","match","img/ellipse.png","好我","好我","prac_ALT2_moral","practice_moral","","","","","","","","",""
"null","<span style='color:red; font-size: 70px;'>错误! </span>","null","html-keyboard-response","61","394520","0.0-8.0-0.0-1.0-0.0-1.25","5","4","4","3","5","4","3","4","4","4","4","1","-1","0","1","0","0","1","1","4","5","5","4","4","3","4","3","4","4","4","6","6","5","4","7","5","5","6","4","3","5","4","4","3","5","4","5","3","1","3","4","5","4","3","5","4","5","4","4","3","4","3","4","4","4","3","4","4","5","6","4","3","4","3","4","3","6","3","4","566315942938673152","张","398","Male","[""好他"",""坏我"",""好我"",""坏他""]","[""强他"",""弱我"",""强我"",""弱他""]","","","","","","","","","","","","","","","","","","","","","","","","","","","","","","feedback_test","","","","","","","","",""
"373","","j","psychophysics","62","395896","0.0-8.0-0.0-1.0-0.0-0.26","5","4","4","3","5","4","3","4","4","4","4","1","-1","0","1","0","0","1","1","4","5","5","4","4","3","4","3","4","4","4","6","6","5","4","7","5","5","6","4","3","5","4","4","3","5","4","5","3","1","3","4","5","4","3","5","4","5","4","4","3","4","3","4","4","4","3","4","4","5","6","4","3","4","3","4","3","6","3","4","566315942938673152","张","398","Male","[""好他"",""坏我"",""好我"",""坏他""]","[""强他"",""弱我"",""强我"",""弱他""]","","","","","","","","nonmatch","","","","","","","","","","key","j","16.656790123456933","640","356","j","true","nonmatch","img/ellipse.png","坏我","好我","prac_ALT2_moral","practice_moral","","","","","","","","",""
"null","<span style='color:GreenYellow; font-size: 70px;'>正确! </span>","null","html-keyboard-response","63","396398","0.0-8.0-0.0-1.0-0.0-1.26","5","4","4","3","5","4","3","4","4","4","4","1","-1","0","1","0","0","1","1","4","5","5","4","4","3","4","3","4","4","4","6","6","5","4","7","5","5","6","4","3","5","4","4","3","5","4","5","3","1","3","4","5","4","3","5","4","5","4","4","3","4","3","4","4","4","3","4","4","5","6","4","3","4","3","4","3","6","3","4","566315942938673152","张","398","Male","[""好他"",""坏我"",""好我"",""坏他""]","[""强他"",""弱我"",""强我"",""弱他""]","","","","","","","","","","","","","","","","","","","","","","","","","","","","","","feedback_test","","","","","","","","",""
"619","","j","psychophysics","64","398037","0.0-8.0-0.0-1.0-0.0-0.27","5","4","4","3","5","4","3","4","4","4","4","1","-1","0","1","0","0","1","1","4","5","5","4","4","3","4","3","4","4","4","6","6","5","4","7","5","5","6","4","3","5","4","4","3","5","4","5","3","1","3","4","5","4","3","5","4","5","4","4","3","4","3","4","4","4","3","4","4","5","6","4","3","4","3","4","3","6","3","4","566315942938673152","张","398","Male","[""好他"",""坏我"",""好我"",""坏他""]","[""强他"",""弱我"",""强我"",""弱他""]","","","","","","","","nonmatch","","","","","","","","","","key","j","16.657291666666424","640","356","j","true","nonmatch","img/ellipse.png","坏他","好我","prac_ALT2_moral","practice_moral","","","","","","","","",""
"null","<span style='color:GreenYellow; font-size: 70px;'>正确! </span>","null","html-keyboard-response","65","398540","0.0-8.0-0.0-1.0-0.0-1.27","5","4","4","3","5","4","3","4","4","4","4","1","-1","0","1","0","0","1","1","4","5","5","4","4","3","4","3","4","4","4","6","6","5","4","7","5","5","6","4","3","5","4","4","3","5","4","5","3","1","3","4","5","4","3","5","4","5","4","4","3","4","3","4","4","4","3","4","4","5","6","4","3","4","3","4","3","6","3","4","566315942938673152","张","398","Male","[""好他"",""坏我"",""好我"",""坏他""]","[""强他"",""弱我"",""强我"",""弱他""]","","","","","","","","","","","","","","","","","","","","","","","","","","","","","","feedback_test","","","","","","","","",""
"589","","j","psychophysics","66","400133","0.0-8.0-0.0-1.0-0.0-0.28","5","4","4","3","5","4","3","4","4","4","4","1","-1","0","1","0","0","1","1","4","5","5","4","4","3","4","3","4","4","4","6","6","5","4","7","5","5","6","4","3","5","4","4","3","5","4","5","3","1","3","4","5","4","3","5","4","5","4","4","3","4","3","4","4","4","3","4","4","5","6","4","3","4","3","4","3","6","3","4","566315942938673152","张","398","Male","[""好他"",""坏我"",""好我"",""坏他""]","[""强他"",""弱我"",""强我"",""弱他""]","","","","","","","","nonmatch","","","","","","","","","","key","j","16.656382978723528","640","356","j","true","nonmatch","img/hexagon.png","坏他","好他","prac_ALT2_moral","practice_moral","","","","","","","","",""
"null","<span style='color:GreenYellow; font-size: 70px;'>正确! </span>","null","html-keyboard-response","67","400634","0.0-8.0-0.0-1.0-0.0-1.28","5","4","4","3","5","4","3","4","4","4","4","1","-1","0","1","0","0","1","1","4","5","5","4","4","3","4","3","4","4","4","6","6","5","4","7","5","5","6","4","3","5","4","4","3","5","4","5","3","1","3","4","5","4","3","5","4","5","4","4","3","4","3","4","4","4","3","4","4","5","6","4","3","4","3","4","3","6","3","4","566315942938673152","张","398","Male","[""好他"",""坏我"",""好我"",""坏他""]","[""强他"",""弱我"",""强我"",""弱他""]","","","","","","","","","","","","","","","","","","","","","","","","","","","","","","feedback_test","","","","","","","","",""
"627","","f","psychophysics","68","402265","0.0-8.0-0.0-1.0-0.0-0.29","5","4","4","3","5","4","3","4","4","4","4","1","-1","0","1","0","0","1","1","4","5","5","4","4","3","4","3","4","4","4","6","6","5","4","7","5","5","6","4","3","5","4","4","3","5","4","5","3","1","3","4","5","4","3","5","4","5","4","4","3","4","3","4","4","4","3","4","4","5","6","4","3","4","3","4","3","6","3","4","566315942938673152","张","398","Male","[""好他"",""坏我"",""好我"",""坏他""]","[""强他"",""弱我"",""强我"",""弱他""]","","","","","","","","match","","","","","","","","","","key","f","16.658333333333456","640","356","f","true","match","img/ellipse.png","好我","好我","prac_ALT2_moral","practice_moral","","","","","","","","",""
"null","<span style='color:GreenYellow; font-size: 70px;'>正确! </span>","null","html-keyboard-response","69","402767","0.0-8.0-0.0-1.0-0.0-1.29","5","4","4","3","5","4","3","4","4","4","4","1","-1","0","1","0","0","1","1","4","5","5","4","4","3","4","3","4","4","4","6","6","5","4","7","5","5","6","4","3","5","4","4","3","5","4","5","3","1","3","4","5","4","3","5","4","5","4","4","3","4","3","4","4","4","3","4","4","5","6","4","3","4","3","4","3","6","3","4","566315942938673152","张","398","Male","[""好他"",""坏我"",""好我"",""坏他""]","[""强他"",""弱我"",""强我"",""弱他""]","","","","","","","","","","","","","","","","","","","","","","","","","","","","","","feedback_test","","","","","","","","",""
"613","","j","psychophysics","70","404392","0.0-8.0-0.0-1.0-0.0-0.30","5","4","4","3","5","4","3","4","4","4","4","1","-1","0","1","0","0","1","1","4","5","5","4","4","3","4","3","4","4","4","6","6","5","4","7","5","5","6","4","3","5","4","4","3","5","4","5","3","1","3","4","5","4","3","5","4","5","4","4","3","4","3","4","4","4","3","4","4","5","6","4","3","4","3","4","3","6","3","4","566315942938673152","张","398","Male","[""好他"",""坏我"",""好我"",""坏他""]","[""强他"",""弱我"",""强我"",""弱他""]","","","","","","","","nonmatch","","","","","","","","","","key","j","16.656842105263404","640","356","f","false","match","img/diamond.png","坏他","坏他","prac_ALT2_moral","practice_moral","","","","","","","","",""
"null","<span style='color:red; font-size: 70px;'>错误! </span>","null","html-keyboard-response","71","404894","0.0-8.0-0.0-1.0-0.0-1.30","5","4","4","3","5","4","3","4","4","4","4","1","-1","0","1","0","0","1","1","4","5","5","4","4","3","4","3","4","4","4","6","6","5","4","7","5","5","6","4","3","5","4","4","3","5","4","5","3","1","3","4","5","4","3","5","4","5","4","4","3","4","3","4","4","4","3","4","4","5","6","4","3","4","3","4","3","6","3","4","566315942938673152","张","398","Male","[""好他"",""坏我"",""好我"",""坏他""]","[""强他"",""弱我"",""强我"",""弱他""]","","","","","","","","","","","","","","","","","","","","","","","","","","","","","","feedback_test","","","","","","","","",""
"784","","j","psychophysics","72","406681","0.0-8.0-0.0-1.0-0.0-0.31","5","4","4","3","5","4","3","4","4","4","4","1","-1","0","1","0","0","1","1","4","5","5","4","4","3","4","3","4","4","4","6","6","5","4","7","5","5","6","4","3","5","4","4","3","5","4","5","3","1","3","4","5","4","3","5","4","5","4","4","3","4","3","4","4","4","3","4","4","5","6","4","3","4","3","4","3","6","3","4","566315942938673152","张","398","Male","[""好他"",""坏我"",""好我"",""坏他""]","[""强他"",""弱我"",""强我"",""弱他""]","","","","","","","","nonmatch","","","","","","","","","","key","j","16.65714285714286","640","356","f","false","match","img/hexagon.png","好他","好他","prac_ALT2_moral","practice_moral","","","","","","","","",""
"null","<span style='color:red; font-size: 70px;'>错误! </span>","null","html-keyboard-response","73","407183","0.0-8.0-0.0-1.0-0.0-1.31","5","4","4","3","5","4","3","4","4","4","4","1","-1","0","1","0","0","1","1","4","5","5","4","4","3","4","3","4","4","4","6","6","5","4","7","5","5","6","4","3","5","4","4","3","5","4","5","3","1","3","4","5","4","3","5","4","5","4","4","3","4","3","4","4","4","3","4","4","5","6","4","3","4","3","4","3","6","3","4","566315942938673152","张","398","Male","[""好他"",""坏我"",""好我"",""坏他""]","[""强他"",""弱我"",""强我"",""弱他""]","","","","","","","","","","","","","","","","","","","","","","","","","","","","","","feedback_test","","","","","","","","",""
"461","","j","psychophysics","74","408647","0.0-8.0-0.0-1.0-0.0-0.32","5","4","4","3","5","4","3","4","4","4","4","1","-1","0","1","0","0","1","1","4","5","5","4","4","3","4","3","4","4","4","6","6","5","4","7","5","5","6","4","3","5","4","4","3","5","4","5","3","1","3","4","5","4","3","5","4","5","4","4","3","4","3","4","4","4","3","4","4","5","6","4","3","4","3","4","3","6","3","4","566315942938673152","张","398","Male","[""好他"",""坏我"",""好我"",""坏他""]","[""强他"",""弱我"",""强我"",""弱他""]","","","","","","","","nonmatch","","","","","","","","","","key","j","16.655813953487964","640","356","j","true","nonmatch","img/trapezoid.png","坏他","坏我","prac_ALT2_moral","practice_moral","","","","","","","","",""
"null","<span style='color:GreenYellow; font-size: 70px;'>正确! </span>","null","html-keyboard-response","75","409148","0.0-8.0-0.0-1.0-0.0-1.32","5","4","4","3","5","4","3","4","4","4","4","1","-1","0","1","0","0","1","1","4","5","5","4","4","3","4","3","4","4","4","6","6","5","4","7","5","5","6","4","3","5","4","4","3","5","4","5","3","1","3","4","5","4","3","5","4","5","4","4","3","4","3","4","4","4","3","4","4","5","6","4","3","4","3","4","3","6","3","4","566315942938673152","张","398","Male","[""好他"",""坏我"",""好我"",""坏他""]","[""强他"",""弱我"",""强我"",""弱他""]","","","","","","","","","","","","","","","","","","","","","","","","","","","","","","feedback_test","","","","","","","","",""
"627","","j","psychophysics","76","410795","0.0-8.0-0.0-1.0-0.0-0.33","5","4","4","3","5","4","3","4","4","4","4","1","-1","0","1","0","0","1","1","4","5","5","4","4","3","4","3","4","4","4","6","6","5","4","7","5","5","6","4","3","5","4","4","3","5","4","5","3","1","3","4","5","4","3","5","4","5","4","4","3","4","3","4","4","4","3","4","4","5","6","4","3","4","3","4","3","6","3","4","566315942938673152","张","398","Male","[""好他"",""坏我"",""好我"",""坏他""]","[""强他"",""弱我"",""强我"",""弱他""]","","","","","","","","nonmatch","","","","","","","","","","key","j","16.65979381443299","640","356","f","false","match","img/hexagon.png","好他","好他","prac_ALT2_moral","practice_moral","","","","","","","","",""
"null","<span style='color:red; font-size: 70px;'>错误! </span>","null","html-keyboard-response","77","411296","0.0-8.0-0.0-1.0-0.0-1.33","5","4","4","3","5","4","3","4","4","4","4","1","-1","0","1","0","0","1","1","4","5","5","4","4","3","4","3","4","4","4","6","6","5","4","7","5","5","6","4","3","5","4","4","3","5","4","5","3","1","3","4","5","4","3","5","4","5","4","4","3","4","3","4","4","4","3","4","4","5","6","4","3","4","3","4","3","6","3","4","566315942938673152","张","398","Male","[""好他"",""坏我"",""好我"",""坏他""]","[""强他"",""弱我"",""强我"",""弱他""]","","","","","","","","","","","","","","","","","","","","","","","","","","","","","","feedback_test","","","","","","","","",""
"673","","j","psychophysics","78","412972","0.0-8.0-0.0-1.0-0.0-0.34","5","4","4","3","5","4","3","4","4","4","4","1","-1","0","1","0","0","1","1","4","5","5","4","4","3","4","3","4","4","4","6","6","5","4","7","5","5","6","4","3","5","4","4","3","5","4","5","3","1","3","4","5","4","3","5","4","5","4","4","3","4","3","4","4","4","3","4","4","5","6","4","3","4","3","4","3","6","3","4","566315942938673152","张","398","Male","[""好他"",""坏我"",""好我"",""坏他""]","[""强他"",""弱我"",""强我"",""弱他""]","","","","","","","","nonmatch","","","","","","","","","","key","j","16.65757575757611","640","356","f","false","match","img/trapezoid.png","坏我","坏我","prac_ALT2_moral","practice_moral","","","","","","","","",""
"null","<span style='color:red; font-size: 70px;'>错误! </span>","null","html-keyboard-response","79","413484","0.0-8.0-0.0-1.0-0.0-1.34","5","4","4","3","5","4","3","4","4","4","4","1","-1","0","1","0","0","1","1","4","5","5","4","4","3","4","3","4","4","4","6","6","5","4","7","5","5","6","4","3","5","4","4","3","5","4","5","3","1","3","4","5","4","3","5","4","5","4","4","3","4","3","4","4","4","3","4","4","5","6","4","3","4","3","4","3","6","3","4","566315942938673152","张","398","Male","[""好他"",""坏我"",""好我"",""坏他""]","[""强他"",""弱我"",""强我"",""弱他""]","","","","","","","","","","","","","","","","","","","","","","","","","","","","","","feedback_test","","","","","","","","",""
"794","","f","psychophysics","80","415282","0.0-8.0-0.0-1.0-0.0-0.35","5","4","4","3","5","4","3","4","4","4","4","1","-1","0","1","0","0","1","1","4","5","5","4","4","3","4","3","4","4","4","6","6","5","4","7","5","5","6","4","3","5","4","4","3","5","4","5","3","1","3","4","5","4","3","5","4","5","4","4","3","4","3","4","4","4","3","4","4","5","6","4","3","4","3","4","3","6","3","4","566315942938673152","张","398","Male","[""好他"",""坏我"",""好我"",""坏他""]","[""强他"",""弱我"",""强我"",""弱他""]","","","","","","","","match","","","","","","","","","","key","f","16.65754716981143","640","356","j","false","nonmatch","img/trapezoid.png","好我","坏我","prac_ALT2_moral","practice_moral","","","","","","","","",""
"null","<span style='color:red; font-size: 70px;'>错误! </span>","null","html-keyboard-response","81","415784","0.0-8.0-0.0-1.0-0.0-1.35","5","4","4","3","5","4","3","4","4","4","4","1","-1","0","1","0","0","1","1","4","5","5","4","4","3","4","3","4","4","4","6","6","5","4","7","5","5","6","4","3","5","4","4","3","5","4","5","3","1","3","4","5","4","3","5","4","5","4","4","3","4","3","4","4","4","3","4","4","5","6","4","3","4","3","4","3","6","3","4","566315942938673152","张","398","Male","[""好他"",""坏我"",""好我"",""坏他""]","[""强他"",""弱我"",""强我"",""弱他""]","","","","","","","","","","","","","","","","","","","","","","","","","","","","","","feedback_test","","","","","","","","",""
"815","","f","psychophysics","82","417614","0.0-8.0-0.0-1.0-0.0-0.36","5","4","4","3","5","4","3","4","4","4","4","1","-1","0","1","0","0","1","1","4","5","5","4","4","3","4","3","4","4","4","6","6","5","4","7","5","5","6","4","3","5","4","4","3","5","4","5","3","1","3","4","5","4","3","5","4","5","4","4","3","4","3","4","4","4","3","4","4","5","6","4","3","4","3","4","3","6","3","4","566315942938673152","张","398","Male","[""好他"",""坏我"",""好我"",""坏他""]","[""强他"",""弱我"",""强我"",""弱他""]","","","","","","","","match","","","","","","","","","","key","f","16.6564814814817","640","356","f","true","match","img/diamond.png","坏他","坏他","prac_ALT2_moral","practice_moral","","","","","","","","",""
"null","<span style='color:GreenYellow; font-size: 70px;'>正确! </span>","null","html-keyboard-response","83","418116","0.0-8.0-0.0-1.0-0.0-1.36","5","4","4","3","5","4","3","4","4","4","4","1","-1","0","1","0","0","1","1","4","5","5","4","4","3","4","3","4","4","4","6","6","5","4","7","5","5","6","4","3","5","4","4","3","5","4","5","3","1","3","4","5","4","3","5","4","5","4","4","3","4","3","4","4","4","3","4","4","5","6","4","3","4","3","4","3","6","3","4","566315942938673152","张","398","Male","[""好他"",""坏我"",""好我"",""坏他""]","[""强他"",""弱我"",""强我"",""弱他""]","","","","","","","","","","","","","","","","","","","","","","","","","","","","","","feedback_test","","","","","","","","",""
"683","","j","psychophysics","84","419801","0.0-8.0-0.0-1.0-0.0-0.37","5","4","4","3","5","4","3","4","4","4","4","1","-1","0","1","0","0","1","1","4","5","5","4","4","3","4","3","4","4","4","6","6","5","4","7","5","5","6","4","3","5","4","4","3","5","4","5","3","1","3","4","5","4","3","5","4","5","4","4","3","4","3","4","4","4","3","4","4","5","6","4","3","4","3","4","3","6","3","4","566315942938673152","张","398","Male","[""好他"",""坏我"",""好我"",""坏他""]","[""强他"",""弱我"",""强我"",""弱他""]","","","","","","","","nonmatch","","","","","","","","","","key","j","16.656565656565657","640","356","j","true","nonmatch","img/diamond.png","好我","坏他","prac_ALT2_moral","practice_moral","","","","","","","","",""
"null","<span style='color:GreenYellow; font-size: 70px;'>正确! </span>","null","html-keyboard-response","85","420302","0.0-8.0-0.0-1.0-0.0-1.37","5","4","4","3","5","4","3","4","4","4","4","1","-1","0","1","0","0","1","1","4","5","5","4","4","3","4","3","4","4","4","6","6","5","4","7","5","5","6","4","3","5","4","4","3","5","4","5","3","1","3","4","5","4","3","5","4","5","4","4","3","4","3","4","4","4","3","4","4","5","6","4","3","4","3","4","3","6","3","4","566315942938673152","张","398","Male","[""好他"",""坏我"",""好我"",""坏他""]","[""强他"",""弱我"",""强我"",""弱他""]","","","","","","","","","","","","","","","","","","","","","","","","","","","","","","feedback_test","","","","","","","","",""
"669","","j","psychophysics","86","421975","0.0-8.0-0.0-1.0-0.0-0.38","5","4","4","3","5","4","3","4","4","4","4","1","-1","0","1","0","0","1","1","4","5","5","4","4","3","4","3","4","4","4","6","6","5","4","7","5","5","6","4","3","5","4","4","3","5","4","5","3","1","3","4","5","4","3","5","4","5","4","4","3","4","3","4","4","4","3","4","4","5","6","4","3","4","3","4","3","6","3","4","566315942938673152","张","398","Male","[""好他"",""坏我"",""好我"",""坏他""]","[""强他"",""弱我"",""强我"",""弱他""]","","","","","","","","nonmatch","","","","","","","","","","key","j","16.658163265306122","640","356","j","true","nonmatch","img/hexagon.png","坏我","好他","prac_ALT2_moral","practice_moral","","","","","","","","",""
"null","<span style='color:GreenYellow; font-size: 70px;'>正确! </span>","null","html-keyboard-response","87","422478","0.0-8.0-0.0-1.0-0.0-1.38","5","4","4","3","5","4","3","4","4","4","4","1","-1","0","1","0","0","1","1","4","5","5","4","4","3","4","3","4","4","4","6","6","5","4","7","5","5","6","4","3","5","4","4","3","5","4","5","3","1","3","4","5","4","3","5","4","5","4","4","3","4","3","4","4","4","3","4","4","5","6","4","3","4","3","4","3","6","3","4","566315942938673152","张","398","Male","[""好他"",""坏我"",""好我"",""坏他""]","[""强他"",""弱我"",""强我"",""弱他""]","","","","","","","","","","","","","","","","","","","","","","","","","","","","","","feedback_test","","","","","","","","",""
"587","","j","psychophysics","88","424074","0.0-8.0-0.0-1.0-0.0-0.39","5","4","4","3","5","4","3","4","4","4","4","1","-1","0","1","0","0","1","1","4","5","5","4","4","3","4","3","4","4","4","6","6","5","4","7","5","5","6","4","3","5","4","4","3","5","4","5","3","1","3","4","5","4","3","5","4","5","4","4","3","4","3","4","4","4","3","4","4","5","6","4","3","4","3","4","3","6","3","4","566315942938673152","张","398","Male","[""好他"",""坏我"",""好我"",""坏他""]","[""强他"",""弱我"",""强我"",""弱他""]","","","","","","","","nonmatch","","","","","","","","","","key","j","16.6585106382975","640","356","j","true","nonmatch","img/trapezoid.png","好他","坏我","prac_ALT2_moral","practice_moral","","","","","","","","",""
"null","<span style='color:GreenYellow; font-size: 70px;'>正确! </span>","null","html-keyboard-response","89","424576","0.0-8.0-0.0-1.0-0.0-1.39","5","4","4","3","5","4","3","4","4","4","4","1","-1","0","1","0","0","1","1","4","5","5","4","4","3","4","3","4","4","4","6","6","5","4","7","5","5","6","4","3","5","4","4","3","5","4","5","3","1","3","4","5","4","3","5","4","5","4","4","3","4","3","4","4","4","3","4","4","5","6","4","3","4","3","4","3","6","3","4","566315942938673152","张","398","Male","[""好他"",""坏我"",""好我"",""坏他""]","[""强他"",""弱我"",""强我"",""弱他""]","","","","","","","","","","","","","","","","","","","","","","","","","","","","","","feedback_test","","","","","","","","",""
"574","","j","psychophysics","90","426154","0.0-8.0-0.0-1.0-0.0-0.40","5","4","4","3","5","4","3","4","4","4","4","1","-1","0","1","0","0","1","1","4","5","5","4","4","3","4","3","4","4","4","6","6","5","4","7","5","5","6","4","3","5","4","4","3","5","4","5","3","1","3","4","5","4","3","5","4","5","4","4","3","4","3","4","4","4","3","4","4","5","6","4","3","4","3","4","3","6","3","4","566315942938673152","张","398","Male","[""好他"",""坏我"",""好我"",""坏他""]","[""强他"",""弱我"",""强我"",""弱他""]","","","","","","","","nonmatch","","","","","","","","","","key","j","16.655913978494624","640","356","f","false","match","img/hexagon.png","好他","好他","prac_ALT2_moral","practice_moral","","","","","","","","",""
"null","<span style='color:red; font-size: 70px;'>错误! </span>","null","html-keyboard-response","91","426655","0.0-8.0-0.0-1.0-0.0-1.40","5","4","4","3","5","4","3","4","4","4","4","1","-1","0","1","0","0","1","1","4","5","5","4","4","3","4","3","4","4","4","6","6","5","4","7","5","5","6","4","3","5","4","4","3","5","4","5","3","1","3","4","5","4","3","5","4","5","4","4","3","4","3","4","4","4","3","4","4","5","6","4","3","4","3","4","3","6","3","4","566315942938673152","张","398","Male","[""好他"",""坏我"",""好我"",""坏他""]","[""强他"",""弱我"",""强我"",""弱他""]","","","","","","","","","","","","","","","","","","","","","","","","","","","","","","feedback_test","","","","","","","","",""
"582","","f","psychophysics","92","428242","0.0-8.0-0.0-1.0-0.0-0.41","5","4","4","3","5","4","3","4","4","4","4","1","-1","0","1","0","0","1","1","4","5","5","4","4","3","4","3","4","4","4","6","6","5","4","7","5","5","6","4","3","5","4","4","3","5","4","5","3","1","3","4","5","4","3","5","4","5","4","4","3","4","3","4","4","4","3","4","4","5","6","4","3","4","3","4","3","6","3","4","566315942938673152","张","398","Male","[""好他"",""坏我"",""好我"",""坏他""]","[""强他"",""弱我"",""强我"",""弱他""]","","","","","","","","match","","","","","","","","","","key","f","16.656989247312204","640","356","f","true","match","img/ellipse.png","好我","好我","prac_ALT2_moral","practice_moral","","","","","","","","",""
"null","<span style='color:GreenYellow; font-size: 70px;'>正确! </span>","null","html-keyboard-response","93","428744","0.0-8.0-0.0-1.0-0.0-1.41","5","4","4","3","5","4","3","4","4","4","4","1","-1","0","1","0","0","1","1","4","5","5","4","4","3","4","3","4","4","4","6","6","5","4","7","5","5","6","4","3","5","4","4","3","5","4","5","3","1","3","4","5","4","3","5","4","5","4","4","3","4","3","4","4","4","3","4","4","5","6","4","3","4","3","4","3","6","3","4","566315942938673152","张","398","Male","[""好他"",""坏我"",""好我"",""坏他""]","[""强他"",""弱我"",""强我"",""弱他""]","","","","","","","","","","","","","","","","","","","","","","","","","","","","","","feedback_test","","","","","","","","",""
"624","","f","psychophysics","94","430383","0.0-8.0-0.0-1.0-0.0-0.42","5","4","4","3","5","4","3","4","4","4","4","1","-1","0","1","0","0","1","1","4","5","5","4","4","3","4","3","4","4","4","6","6","5","4","7","5","5","6","4","3","5","4","4","3","5","4","5","3","1","3","4","5","4","3","5","4","5","4","4","3","4","3","4","4","4","3","4","4","5","6","4","3","4","3","4","3","6","3","4","566315942938673152","张","398","Male","[""好他"",""坏我"",""好我"",""坏他""]","[""强他"",""弱我"",""强我"",""弱他""]","","","","","","","","match","","","","","","","","","","key","f","16.65625","640","356","j","false","nonmatch","img/diamond.png","好他","坏他","prac_ALT2_moral","practice_moral","","","","","","","","",""
"null","<span style='color:red; font-size: 70px;'>错误! </span>","null","html-keyboard-response","95","430886","0.0-8.0-0.0-1.0-0.0-1.42","5","4","4","3","5","4","3","4","4","4","4","1","-1","0","1","0","0","1","1","4","5","5","4","4","3","4","3","4","4","4","6","6","5","4","7","5","5","6","4","3","5","4","4","3","5","4","5","3","1","3","4","5","4","3","5","4","5","4","4","3","4","3","4","4","4","3","4","4","5","6","4","3","4","3","4","3","6","3","4","566315942938673152","张","398","Male","[""好他"",""坏我"",""好我"",""坏他""]","[""强他"",""弱我"",""强我"",""弱他""]","","","","","","","","","","","","","","","","","","","","","","","","","","","","","","feedback_test","","","","","","","","",""
"513","","j","psychophysics","96","432402","0.0-8.0-0.0-1.0-0.0-0.43","5","4","4","3","5","4","3","4","4","4","4","1","-1","0","1","0","0","1","1","4","5","5","4","4","3","4","3","4","4","4","6","6","5","4","7","5","5","6","4","3","5","4","4","3","5","4","5","3","1","3","4","5","4","3","5","4","5","4","4","3","4","3","4","4","4","3","4","4","5","6","4","3","4","3","4","3","6","3","4","566315942938673152","张","398","Male","[""好他"",""坏我"",""好我"",""坏他""]","[""强他"",""弱我"",""强我"",""弱他""]","","","","","","","","nonmatch","","","","","","","","","","key","j","16.658426966292527","640","356","f","false","match","img/trapezoid.png","坏我","坏我","prac_ALT2_moral","practice_moral","","","","","","","","",""
"null","<span style='color:red; font-size: 70px;'>错误! </span>","null","html-keyboard-response","97","432903","0.0-8.0-0.0-1.0-0.0-1.43","5","4","4","3","5","4","3","4","4","4","4","1","-1","0","1","0","0","1","1","4","5","5","4","4","3","4","3","4","4","4","6","6","5","4","7","5","5","6","4","3","5","4","4","3","5","4","5","3","1","3","4","5","4","3","5","4","5","4","4","3","4","3","4","4","4","3","4","4","5","6","4","3","4","3","4","3","6","3","4","566315942938673152","张","398","Male","[""好他"",""坏我"",""好我"",""坏他""]","[""强他"",""弱我"",""强我"",""弱他""]","","","","","","","","","","","","","","","","","","","","","","","","","","","","","","feedback_test","","","","","","","","",""
"342","","f","psychophysics","98","434249","0.0-8.0-0.0-1.0-0.0-0.44","5","4","4","3","5","4","3","4","4","4","4","1","-1","0","1","0","0","1","1","4","5","5","4","4","3","4","3","4","4","4","6","6","5","4","7","5","5","6","4","3","5","4","4","3","5","4","5","3","1","3","4","5","4","3","5","4","5","4","4","3","4","3","4","4","4","3","4","4","5","6","4","3","4","3","4","3","6","3","4","566315942938673152","张","398","Male","[""好他"",""坏我"",""好我"",""坏他""]","[""强他"",""弱我"",""强我"",""弱他""]","","","","","","","","match","","","","","","","","","","key","f","16.658227848101266","640","356","j","false","nonmatch","img/diamond.png","坏我","坏他","prac_ALT2_moral","practice_moral","","","","","","","","",""
"null","<span style='color:red; font-size: 70px;'>错误! </span>","null","html-keyboard-response","99","434752","0.0-8.0-0.0-1.0-0.0-1.44","5","4","4","3","5","4","3","4","4","4","4","1","-1","0","1","0","0","1","1","4","5","5","4","4","3","4","3","4","4","4","6","6","5","4","7","5","5","6","4","3","5","4","4","3","5","4","5","3","1","3","4","5","4","3","5","4","5","4","4","3","4","3","4","4","4","3","4","4","5","6","4","3","4","3","4","3","6","3","4","566315942938673152","张","398","Male","[""好他"",""坏我"",""好我"",""坏他""]","[""强他"",""弱我"",""强我"",""弱他""]","","","","","","","","","","","","","","","","","","","","","","","","","","","","","","feedback_test","","","","","","","","",""
"438","","f","psychophysics","100","436198","0.0-8.0-0.0-1.0-0.0-0.45","5","4","4","3","5","4","3","4","4","4","4","1","-1","0","1","0","0","1","1","4","5","5","4","4","3","4","3","4","4","4","6","6","5","4","7","5","5","6","4","3","5","4","4","3","5","4","5","3","1","3","4","5","4","3","5","4","5","4","4","3","4","3","4","4","4","3","4","4","5","6","4","3","4","3","4","3","6","3","4","566315942938673152","张","398","Male","[""好他"",""坏我"",""好我"",""坏他""]","[""强他"",""弱我"",""强我"",""弱他""]","","","","","","","","match","","","","","","","","","","key","f","16.6576470588238","640","356","f","true","match","img/diamond.png","坏他","坏他","prac_ALT2_moral","practice_moral","","","","","","","","",""
"null","<span style='color:GreenYellow; font-size: 70px;'>正确! </span>","null","html-keyboard-response","101","436700","0.0-8.0-0.0-1.0-0.0-1.45","5","4","4","3","5","4","3","4","4","4","4","1","-1","0","1","0","0","1","1","4","5","5","4","4","3","4","3","4","4","4","6","6","5","4","7","5","5","6","4","3","5","4","4","3","5","4","5","3","1","3","4","5","4","3","5","4","5","4","4","3","4","3","4","4","4","3","4","4","5","6","4","3","4","3","4","3","6","3","4","566315942938673152","张","398","Male","[""好他"",""坏我"",""好我"",""坏他""]","[""强他"",""弱我"",""强我"",""弱他""]","","","","","","","","","","","","","","","","","","","","","","","","","","","","","","feedback_test","","","","","","","","",""
"696","","j","psychophysics","102","438399","0.0-8.0-0.0-1.0-0.0-0.46","5","4","4","3","5","4","3","4","4","4","4","1","-1","0","1","0","0","1","1","4","5","5","4","4","3","4","3","4","4","4","6","6","5","4","7","5","5","6","4","3","5","4","4","3","5","4","5","3","1","3","4","5","4","3","5","4","5","4","4","3","4","3","4","4","4","3","4","4","5","6","4","3","4","3","4","3","6","3","4","566315942938673152","张","398","Male","[""好他"",""坏我"",""好我"",""坏他""]","[""强他"",""弱我"",""强我"",""弱他""]","","","","","","","","nonmatch","","","","","","","","","","key","j","16.655999999999768","640","356","j","true","nonmatch","img/ellipse.png","好他","好我","prac_ALT2_moral","practice_moral","","","","","","","","",""
"null","<span style='color:GreenYellow; font-size: 70px;'>正确! </span>","null","html-keyboard-response","103","438901","0.0-8.0-0.0-1.0-0.0-1.46","5","4","4","3","5","4","3","4","4","4","4","1","-1","0","1","0","0","1","1","4","5","5","4","4","3","4","3","4","4","4","6","6","5","4","7","5","5","6","4","3","5","4","4","3","5","4","5","3","1","3","4","5","4","3","5","4","5","4","4","3","4","3","4","4","4","3","4","4","5","6","4","3","4","3","4","3","6","3","4","566315942938673152","张","398","Male","[""好他"",""坏我"",""好我"",""坏他""]","[""强他"",""弱我"",""强我"",""弱他""]","","","","","","","","","","","","","","","","","","","","","","","","","","","","","","feedback_test","","","","","","","","",""
"769","","f","psychophysics","104","440673","0.0-8.0-0.0-1.0-0.0-0.47","5","4","4","3","5","4","3","4","4","4","4","1","-1","0","1","0","0","1","1","4","5","5","4","4","3","4","3","4","4","4","6","6","5","4","7","5","5","6","4","3","5","4","4","3","5","4","5","3","1","3","4","5","4","3","5","4","5","4","4","3","4","3","4","4","4","3","4","4","5","6","4","3","4","3","4","3","6","3","4","566315942938673152","张","398","Male","[""好他"",""坏我"",""好我"",""坏他""]","[""强他"",""弱我"",""强我"",""弱他""]","","","","","","","","match","","","","","","","","","","key","f","16.65961538461572","640","356","j","false","nonmatch","img/hexagon.png","好我","好他","prac_ALT2_moral","practice_moral","","","","","","","","",""
"null","<span style='color:red; font-size: 70px;'>错误! </span>","null","html-keyboard-response","105","441176","0.0-8.0-0.0-1.0-0.0-1.47","5","4","4","3","5","4","3","4","4","4","4","1","-1","0","1","0","0","1","1","4","5","5","4","4","3","4","3","4","4","4","6","6","5","4","7","5","5","6","4","3","5","4","4","3","5","4","5","3","1","3","4","5","4","3","5","4","5","4","4","3","4","3","4","4","4","3","4","4","5","6","4","3","4","3","4","3","6","3","4","566315942938673152","张","398","Male","[""好他"",""坏我"",""好我"",""坏他""]","[""强他"",""弱我"",""强我"",""弱他""]","","","","","","","","","","","","","","","","","","","","","","","","","","","","","","feedback_test","","","","","","","","",""
"131915","<style>.context{color:white; font-size: 35px; line-height:40px}</style>                            <div><p class='context'>您正确回答了52% 的试次。</p><p class='context'>您的平均反应时为648毫秒。</p><p class='context'>按空格键继续。</p></div>"," ","html-keyboard-response","106","573097","0.0-8.0-0.0-1.0-1.0-0.0","5","4","4","3","5","4","3","4","4","4","4","1","-1","0","1","0","0","1","1","4","5","5","4","4","3","4","3","4","4","4","6","6","5","4","7","5","5","6","4","3","5","4","4","3","5","4","5","3","1","3","4","5","4","3","5","4","5","4","4","3","4","3","4","4","4","3","4","4","5","6","4","3","4","3","4","3","6","3","4","566315942938673152","张","398","Male","[""好他"",""坏我"",""好我"",""坏他""]","[""强他"",""弱我"",""强我"",""弱他""]","","","","","","","","","","","","","","","","","","","","","","","","","","","","","","","","","","","","","","",""
"36451","","","instructions","107","609555","0.0-8.0-0.0-1.0-1.0-1.0","5","4","4","3","5","4","3","4","4","4","4","1","-1","0","1","0","0","1","1","4","5","5","4","4","3","4","3","4","4","4","6","6","5","4","7","5","5","6","4","3","5","4","4","3","5","4","5","3","1","3","4","5","4","3","5","4","5","4","4","3","4","3","4","4","4","3","4","4","5","6","4","3","4","3","4","3","6","3","4","566315942938673152","张","398","Male","[""好他"",""坏我"",""好我"",""坏他""]","[""强他"",""弱我"",""强我"",""弱他""]","","","","","","","","","","","","","","","","","[{""page_index"":0,""viewing_time"":4210},{""page_index"":1,""viewing_time"":29893},{""page_index"":2,""viewing_time"":2347}]","","","","","","","","","","","","","","","","","","","","","",""
"890","","j","psychophysics","108","611449","0.0-8.0-0.0-1.1-0.1-0.48","5","4","4","3","5","4","3","4","4","4","4","1","-1","0","1","0","0","1","1","4","5","5","4","4","3","4","3","4","4","4","6","6","5","4","7","5","5","6","4","3","5","4","4","3","5","4","5","3","1","3","4","5","4","3","5","4","5","4","4","3","4","3","4","4","4","3","4","4","5","6","4","3","4","3","4","3","6","3","4","566315942938673152","张","398","Male","[""好他"",""坏我"",""好我"",""坏他""]","[""强他"",""弱我"",""强我"",""弱他""]","","","","","","","","nonmatch","","","","","","","","","","key","j","16.65765765765766","640","356","j","true","nonmatch","img/ellipse.png","好他","好我","prac_ALT2_moral","practice_moral","","","","","","","","",""
"null","<span style='color:GreenYellow; font-size: 70px;'>正确! </span>","null","html-keyboard-response","109","611967","0.0-8.0-0.0-1.1-0.1-1.48","5","4","4","3","5","4","3","4","4","4","4","1","-1","0","1","0","0","1","1","4","5","5","4","4","3","4","3","4","4","4","6","6","5","4","7","5","5","6","4","3","5","4","4","3","5","4","5","3","1","3","4","5","4","3","5","4","5","4","4","3","4","3","4","4","4","3","4","4","5","6","4","3","4","3","4","3","6","3","4","566315942938673152","张","398","Male","[""好他"",""坏我"",""好我"",""坏他""]","[""强他"",""弱我"",""强我"",""弱他""]","","","","","","","","","","","","","","","","","","","","","","","","","","","","","","feedback_test","","","","","","","","",""
"1109","","f","psychophysics","110","614078","0.0-8.0-0.0-1.1-0.1-0.49","5","4","4","3","5","4","3","4","4","4","4","1","-1","0","1","0","0","1","1","4","5","5","4","4","3","4","3","4","4","4","6","6","5","4","7","5","5","6","4","3","5","4","4","3","5","4","5","3","1","3","4","5","4","3","5","4","5","4","4","3","4","3","4","4","4","3","4","4","5","6","4","3","4","3","4","3","6","3","4","566315942938673152","张","398","Male","[""好他"",""坏我"",""好我"",""坏他""]","[""强他"",""弱我"",""强我"",""弱他""]","","","","","","","","match","","","","","","","","","","key","f","16.65759999999963","640","356","j","false","nonmatch","img/trapezoid.png","好他","坏我","prac_ALT2_moral","practice_moral","","","","","","","","",""
"null","<span style='color:red; font-size: 70px;'>错误! </span>","null","html-keyboard-response","111","614580","0.0-8.0-0.0-1.1-0.1-1.49","5","4","4","3","5","4","3","4","4","4","4","1","-1","0","1","0","0","1","1","4","5","5","4","4","3","4","3","4","4","4","6","6","5","4","7","5","5","6","4","3","5","4","4","3","5","4","5","3","1","3","4","5","4","3","5","4","5","4","4","3","4","3","4","4","4","3","4","4","5","6","4","3","4","3","4","3","6","3","4","566315942938673152","张","398","Male","[""好他"",""坏我"",""好我"",""坏他""]","[""强他"",""弱我"",""强我"",""弱他""]","","","","","","","","","","","","","","","","","","","","","","","","","","","","","","feedback_test","","","","","","","","",""
"854","","f","psychophysics","112","616438","0.0-8.0-0.0-1.1-0.1-0.50","5","4","4","3","5","4","3","4","4","4","4","1","-1","0","1","0","0","1","1","4","5","5","4","4","3","4","3","4","4","4","6","6","5","4","7","5","5","6","4","3","5","4","4","3","5","4","5","3","1","3","4","5","4","3","5","4","5","4","4","3","4","3","4","4","4","3","4","4","5","6","4","3","4","3","4","3","6","3","4","566315942938673152","张","398","Male","[""好他"",""坏我"",""好我"",""坏他""]","[""强他"",""弱我"",""强我"",""弱他""]","","","","","","","","match","","","","","","","","","","key","f","16.65688073394474","640","356","j","false","nonmatch","img/ellipse.png","坏我","好我","prac_ALT2_moral","practice_moral","","","","","","","","",""
"null","<span style='color:red; font-size: 70px;'>错误! </span>","null","html-keyboard-response","113","616941","0.0-8.0-0.0-1.1-0.1-1.50","5","4","4","3","5","4","3","4","4","4","4","1","-1","0","1","0","0","1","1","4","5","5","4","4","3","4","3","4","4","4","6","6","5","4","7","5","5","6","4","3","5","4","4","3","5","4","5","3","1","3","4","5","4","3","5","4","5","4","4","3","4","3","4","4","4","3","4","4","5","6","4","3","4","3","4","3","6","3","4","566315942938673152","张","398","Male","[""好他"",""坏我"",""好我"",""坏他""]","[""强他"",""弱我"",""强我"",""弱他""]","","","","","","","","","","","","","","","","","","","","","","","","","","","","","","feedback_test","","","","","","","","",""
"931","","j","psychophysics","114","618876","0.0-8.0-0.0-1.1-0.1-0.51","5","4","4","3","5","4","3","4","4","4","4","1","-1","0","1","0","0","1","1","4","5","5","4","4","3","4","3","4","4","4","6","6","5","4","7","5","5","6","4","3","5","4","4","3","5","4","5","3","1","3","4","5","4","3","5","4","5","4","4","3","4","3","4","4","4","3","4","4","5","6","4","3","4","3","4","3","6","3","4","566315942938673152","张","398","Male","[""好他"",""坏我"",""好我"",""坏他""]","[""强他"",""弱我"",""强我"",""弱他""]","","","","","","","","nonmatch","","","","","","","","","","key","j","16.656140350877603","640","356","f","false","match","img/ellipse.png","好我","好我","prac_ALT2_moral","practice_moral","","","","","","","","",""
"null","<span style='color:red; font-size: 70px;'>错误! </span>","null","html-keyboard-response","115","619389","0.0-8.0-0.0-1.1-0.1-1.51","5","4","4","3","5","4","3","4","4","4","4","1","-1","0","1","0","0","1","1","4","5","5","4","4","3","4","3","4","4","4","6","6","5","4","7","5","5","6","4","3","5","4","4","3","5","4","5","3","1","3","4","5","4","3","5","4","5","4","4","3","4","3","4","4","4","3","4","4","5","6","4","3","4","3","4","3","6","3","4","566315942938673152","张","398","Male","[""好他"",""坏我"",""好我"",""坏他""]","[""强他"",""弱我"",""强我"",""弱他""]","","","","","","","","","","","","","","","","","","","","","","","","","","","","","","feedback_test","","","","","","","","",""
"760","","j","psychophysics","116","621169","0.0-8.0-0.0-1.1-0.1-0.52","5","4","4","3","5","4","3","4","4","4","4","1","-1","0","1","0","0","1","1","4","5","5","4","4","3","4","3","4","4","4","6","6","5","4","7","5","5","6","4","3","5","4","4","3","5","4","5","3","1","3","4","5","4","3","5","4","5","4","4","3","4","3","4","4","4","3","4","4","5","6","4","3","4","3","4","3","6","3","4","566315942938673152","张","398","Male","[""好他"",""坏我"",""好我"",""坏他""]","[""强他"",""弱我"",""强我"",""弱他""]","","","","","","","","nonmatch","","","","","","","","","","key","j","16.659999999999336","640","356","f","false","match","img/hexagon.png","好他","好他","prac_ALT2_moral","practice_moral","","","","","","","","",""
"null","<span style='color:red; font-size: 70px;'>错误! </span>","null","html-keyboard-response","117","621672","0.0-8.0-0.0-1.1-0.1-1.52","5","4","4","3","5","4","3","4","4","4","4","1","-1","0","1","0","0","1","1","4","5","5","4","4","3","4","3","4","4","4","6","6","5","4","7","5","5","6","4","3","5","4","4","3","5","4","5","3","1","3","4","5","4","3","5","4","5","4","4","3","4","3","4","4","4","3","4","4","5","6","4","3","4","3","4","3","6","3","4","566315942938673152","张","398","Male","[""好他"",""坏我"",""好我"",""坏他""]","[""强他"",""弱我"",""强我"",""弱他""]","","","","","","","","","","","","","","","","","","","","","","","","","","","","","","feedback_test","","","","","","","","",""
"935","","f","psychophysics","118","623610","0.0-8.0-0.0-1.1-0.1-0.53","5","4","4","3","5","4","3","4","4","4","4","1","-1","0","1","0","0","1","1","4","5","5","4","4","3","4","3","4","4","4","6","6","5","4","7","5","5","6","4","3","5","4","4","3","5","4","5","3","1","3","4","5","4","3","5","4","5","4","4","3","4","3","4","4","4","3","4","4","5","6","4","3","4","3","4","3","6","3","4","566315942938673152","张","398","Male","[""好他"",""坏我"",""好我"",""坏他""]","[""强他"",""弱我"",""强我"",""弱他""]","","","","","","","","match","","","","","","","","","","key","f","16.657017543859855","640","356","j","false","nonmatch","img/diamond.png","好他","坏他","prac_ALT2_moral","practice_moral","","","","","","","","",""
"null","<span style='color:red; font-size: 70px;'>错误! </span>","null","html-keyboard-response","119","624112","0.0-8.0-0.0-1.1-0.1-1.53","5","4","4","3","5","4","3","4","4","4","4","1","-1","0","1","0","0","1","1","4","5","5","4","4","3","4","3","4","4","4","6","6","5","4","7","5","5","6","4","3","5","4","4","3","5","4","5","3","1","3","4","5","4","3","5","4","5","4","4","3","4","3","4","4","4","3","4","4","5","6","4","3","4","3","4","3","6","3","4","566315942938673152","张","398","Male","[""好他"",""坏我"",""好我"",""坏他""]","[""强他"",""弱我"",""强我"",""弱他""]","","","","","","","","","","","","","","","","","","","","","","","","","","","","","","feedback_test","","","","","","","","",""
"1182","","f","psychophysics","120","626299","0.0-8.0-0.0-1.1-0.1-0.54","5","4","4","3","5","4","3","4","4","4","4","1","-1","0","1","0","0","1","1","4","5","5","4","4","3","4","3","4","4","4","6","6","5","4","7","5","5","6","4","3","5","4","4","3","5","4","5","3","1","3","4","5","4","3","5","4","5","4","4","3","4","3","4","4","4","3","4","4","5","6","4","3","4","3","4","3","6","3","4","566315942938673152","张","398","Male","[""好他"",""坏我"",""好我"",""坏他""]","[""强他"",""弱我"",""强我"",""弱他""]","","","","","","","","match","","","","","","","","","","key","f","16.65891472868217","640","356","j","false","nonmatch","img/hexagon.png","坏他","好他","prac_ALT2_moral","practice_moral","","","","","","","","",""
"null","<span style='color:red; font-size: 70px;'>错误! </span>","null","html-keyboard-response","121","626814","0.0-8.0-0.0-1.1-0.1-1.54","5","4","4","3","5","4","3","4","4","4","4","1","-1","0","1","0","0","1","1","4","5","5","4","4","3","4","3","4","4","4","6","6","5","4","7","5","5","6","4","3","5","4","4","3","5","4","5","3","1","3","4","5","4","3","5","4","5","4","4","3","4","3","4","4","4","3","4","4","5","6","4","3","4","3","4","3","6","3","4","566315942938673152","张","398","Male","[""好他"",""坏我"",""好我"",""坏他""]","[""强他"",""弱我"",""强我"",""弱他""]","","","","","","","","","","","","","","","","","","","","","","","","","","","","","","feedback_test","","","","","","","","",""
"974","","j","psychophysics","122","628792","0.0-8.0-0.0-1.1-0.1-0.55","5","4","4","3","5","4","3","4","4","4","4","1","-1","0","1","0","0","1","1","4","5","5","4","4","3","4","3","4","4","4","6","6","5","4","7","5","5","6","4","3","5","4","4","3","5","4","5","3","1","3","4","5","4","3","5","4","5","4","4","3","4","3","4","4","4","3","4","4","5","6","4","3","4","3","4","3","6","3","4","566315942938673152","张","398","Male","[""好他"",""坏我"",""好我"",""坏他""]","[""强他"",""弱我"",""强我"",""弱他""]","","","","","","","","nonmatch","","","","","","","","","","key","j","16.656410256410656","640","356","j","true","nonmatch","img/trapezoid.png","好我","坏我","prac_ALT2_moral","practice_moral","","","","","","","","",""
"null","<span style='color:GreenYellow; font-size: 70px;'>正确! </span>","null","html-keyboard-response","123","629293","0.0-8.0-0.0-1.1-0.1-1.55","5","4","4","3","5","4","3","4","4","4","4","1","-1","0","1","0","0","1","1","4","5","5","4","4","3","4","3","4","4","4","6","6","5","4","7","5","5","6","4","3","5","4","4","3","5","4","5","3","1","3","4","5","4","3","5","4","5","4","4","3","4","3","4","4","4","3","4","4","5","6","4","3","4","3","4","3","6","3","4","566315942938673152","张","398","Male","[""好他"",""坏我"",""好我"",""坏他""]","[""强他"",""弱我"",""强我"",""弱他""]","","","","","","","","","","","","","","","","","","","","","","","","","","","","","","feedback_test","","","","","","","","",""
"null","","null","psychophysics","124","631509","0.0-8.0-0.0-1.1-0.1-0.56","5","4","4","3","5","4","3","4","4","4","4","1","-1","0","1","0","0","1","1","4","5","5","4","4","3","4","3","4","4","4","6","6","5","4","7","5","5","6","4","3","5","4","4","3","5","4","5","3","1","3","4","5","4","3","5","4","5","4","4","3","4","3","4","4","4","3","4","4","5","6","4","3","4","3","4","3","6","3","4","566315942938673152","张","398","Male","[""好他"",""坏我"",""好我"",""坏他""]","[""强他"",""弱我"",""强我"",""弱他""]","","","","","","","","null","","","","","","","","","","key","null","16.65648854961832","640","356","f","false","match","img/diamond.png","坏他","坏他","prac_ALT2_moral","practice_moral","","","","","","","","",""
"null","<span class='add_' style='color:yellow; font-size: 70px;'> 太慢! </span>","null","html-keyboard-response","125","632013","0.0-8.0-0.0-1.1-0.1-1.56","5","4","4","3","5","4","3","4","4","4","4","1","-1","0","1","0","0","1","1","4","5","5","4","4","3","4","3","4","4","4","6","6","5","4","7","5","5","6","4","3","5","4","4","3","5","4","5","3","1","3","4","5","4","3","5","4","5","4","4","3","4","3","4","4","4","3","4","4","5","6","4","3","4","3","4","3","6","3","4","566315942938673152","张","398","Male","[""好他"",""坏我"",""好我"",""坏他""]","[""强他"",""弱我"",""强我"",""弱他""]","","","","","","","","","","","","","","","","","","","","","","","","","","","","","","feedback_test","","","","","","","","",""
"1064","","f","psychophysics","126","634081","0.0-8.0-0.0-1.1-0.1-0.57","5","4","4","3","5","4","3","4","4","4","4","1","-1","0","1","0","0","1","1","4","5","5","4","4","3","4","3","4","4","4","6","6","5","4","7","5","5","6","4","3","5","4","4","3","5","4","5","3","1","3","4","5","4","3","5","4","5","4","4","3","4","3","4","4","4","3","4","4","5","6","4","3","4","3","4","3","6","3","4","566315942938673152","张","398","Male","[""好他"",""坏我"",""好我"",""坏他""]","[""强他"",""弱我"",""强我"",""弱他""]","","","","","","","","match","","","","","","","","","","key","f","16.657377049179946","640","356","f","true","match","img/trapezoid.png","坏我","坏我","prac_ALT2_moral","practice_moral","","","","","","","","",""
"null","<span style='color:GreenYellow; font-size: 70px;'>正确! </span>","null","html-keyboard-response","127","634584","0.0-8.0-0.0-1.1-0.1-1.57","5","4","4","3","5","4","3","4","4","4","4","1","-1","0","1","0","0","1","1","4","5","5","4","4","3","4","3","4","4","4","6","6","5","4","7","5","5","6","4","3","5","4","4","3","5","4","5","3","1","3","4","5","4","3","5","4","5","4","4","3","4","3","4","4","4","3","4","4","5","6","4","3","4","3","4","3","6","3","4","566315942938673152","张","398","Male","[""好他"",""坏我"",""好我"",""坏他""]","[""强他"",""弱我"",""强我"",""弱他""]","","","","","","","","","","","","","","","","","","","","","","","","","","","","","","feedback_test","","","","","","","","",""
"659","","f","psychophysics","128","636246","0.0-8.0-0.0-1.1-0.1-0.58","5","4","4","3","5","4","3","4","4","4","4","1","-1","0","1","0","0","1","1","4","5","5","4","4","3","4","3","4","4","4","6","6","5","4","7","5","5","6","4","3","5","4","4","3","5","4","5","3","1","3","4","5","4","3","5","4","5","4","4","3","4","3","4","4","4","3","4","4","5","6","4","3","4","3","4","3","6","3","4","566315942938673152","张","398","Male","[""好他"",""坏我"",""好我"",""坏他""]","[""强他"",""弱我"",""强我"",""弱他""]","","","","","","","","match","","","","","","","","","","key","f","16.657142857141906","640","356","j","false","nonmatch","img/hexagon.png","坏我","好他","prac_ALT2_moral","practice_moral","","","","","","","","",""
"null","<span style='color:red; font-size: 70px;'>错误! </span>","null","html-keyboard-response","129","636758","0.0-8.0-0.0-1.1-0.1-1.58","5","4","4","3","5","4","3","4","4","4","4","1","-1","0","1","0","0","1","1","4","5","5","4","4","3","4","3","4","4","4","6","6","5","4","7","5","5","6","4","3","5","4","4","3","5","4","5","3","1","3","4","5","4","3","5","4","5","4","4","3","4","3","4","4","4","3","4","4","5","6","4","3","4","3","4","3","6","3","4","566315942938673152","张","398","Male","[""好他"",""坏我"",""好我"",""坏他""]","[""强他"",""弱我"",""强我"",""弱他""]","","","","","","","","","","","","","","","","","","","","","","","","","","","","","","feedback_test","","","","","","","","",""
"845","","j","psychophysics","130","638623","0.0-8.0-0.0-1.1-0.1-0.59","5","4","4","3","5","4","3","4","4","4","4","1","-1","0","1","0","0","1","1","4","5","5","4","4","3","4","3","4","4","4","6","6","5","4","7","5","5","6","4","3","5","4","4","3","5","4","5","3","1","3","4","5","4","3","5","4","5","4","4","3","4","3","4","4","4","3","4","4","5","6","4","3","4","3","4","3","6","3","4","566315942938673152","张","398","Male","[""好他"",""坏我"",""好我"",""坏他""]","[""强他"",""弱我"",""强我"",""弱他""]","","","","","","","","nonmatch","","","","","","","","","","key","j","16.65727272727315","640","356","j","true","nonmatch","img/hexagon.png","好我","好他","prac_ALT2_moral","practice_moral","","","","","","","","",""
"null","<span style='color:GreenYellow; font-size: 70px;'>正确! </span>","null","html-keyboard-response","131","639125","0.0-8.0-0.0-1.1-0.1-1.59","5","4","4","3","5","4","3","4","4","4","4","1","-1","0","1","0","0","1","1","4","5","5","4","4","3","4","3","4","4","4","6","6","5","4","7","5","5","6","4","3","5","4","4","3","5","4","5","3","1","3","4","5","4","3","5","4","5","4","4","3","4","3","4","4","4","3","4","4","5","6","4","3","4","3","4","3","6","3","4","566315942938673152","张","398","Male","[""好他"",""坏我"",""好我"",""坏他""]","[""强他"",""弱我"",""强我"",""弱他""]","","","","","","","","","","","","","","","","","","","","","","","","","","","","","","feedback_test","","","","","","","","",""
"660","","j","psychophysics","132","640789","0.0-8.0-0.0-1.1-0.1-0.60","5","4","4","3","5","4","3","4","4","4","4","1","-1","0","1","0","0","1","1","4","5","5","4","4","3","4","3","4","4","4","6","6","5","4","7","5","5","6","4","3","5","4","4","3","5","4","5","3","1","3","4","5","4","3","5","4","5","4","4","3","4","3","4","4","4","3","4","4","5","6","4","3","4","3","4","3","6","3","4","566315942938673152","张","398","Male","[""好他"",""坏我"",""好我"",""坏他""]","[""强他"",""弱我"",""强我"",""弱他""]","","","","","","","","nonmatch","","","","","","","","","","key","j","16.658163265306122","640","356","f","false","match","img/ellipse.png","好我","好我","prac_ALT2_moral","practice_moral","","","","","","","","",""
"null","<span style='color:red; font-size: 70px;'>错误! </span>","null","html-keyboard-response","133","641291","0.0-8.0-0.0-1.1-0.1-1.60","5","4","4","3","5","4","3","4","4","4","4","1","-1","0","1","0","0","1","1","4","5","5","4","4","3","4","3","4","4","4","6","6","5","4","7","5","5","6","4","3","5","4","4","3","5","4","5","3","1","3","4","5","4","3","5","4","5","4","4","3","4","3","4","4","4","3","4","4","5","6","4","3","4","3","4","3","6","3","4","566315942938673152","张","398","Male","[""好他"",""坏我"",""好我"",""坏他""]","[""强他"",""弱我"",""强我"",""弱他""]","","","","","","","","","","","","","","","","","","","","","","","","","","","","","","feedback_test","","","","","","","","",""
"762","","j","psychophysics","134","643057","0.0-8.0-0.0-1.1-0.1-0.61","5","4","4","3","5","4","3","4","4","4","4","1","-1","0","1","0","0","1","1","4","5","5","4","4","3","4","3","4","4","4","6","6","5","4","7","5","5","6","4","3","5","4","4","3","5","4","5","3","1","3","4","5","4","3","5","4","5","4","4","3","4","3","4","4","4","3","4","4","5","6","4","3","4","3","4","3","6","3","4","566315942938673152","张","398","Male","[""好他"",""坏我"",""好我"",""坏他""]","[""强他"",""弱我"",""强我"",""弱他""]","","","","","","","","nonmatch","","","","","","","","","","key","j","16.656730769231217","640","356","f","false","match","img/hexagon.png","好他","好他","prac_ALT2_moral","practice_moral","","","","","","","","",""
"null","<span style='color:red; font-size: 70px;'>错误! </span>","null","html-keyboard-response","135","643559","0.0-8.0-0.0-1.1-0.1-1.61","5","4","4","3","5","4","3","4","4","4","4","1","-1","0","1","0","0","1","1","4","5","5","4","4","3","4","3","4","4","4","6","6","5","4","7","5","5","6","4","3","5","4","4","3","5","4","5","3","1","3","4","5","4","3","5","4","5","4","4","3","4","3","4","4","4","3","4","4","5","6","4","3","4","3","4","3","6","3","4","566315942938673152","张","398","Male","[""好他"",""坏我"",""好我"",""坏他""]","[""强他"",""弱我"",""强我"",""弱他""]","","","","","","","","","","","","","","","","","","","","","","","","","","","","","","feedback_test","","","","","","","","",""
"883","","j","psychophysics","136","645471","0.0-8.0-0.0-1.1-0.1-0.62","5","4","4","3","5","4","3","4","4","4","4","1","-1","0","1","0","0","1","1","4","5","5","4","4","3","4","3","4","4","4","6","6","5","4","7","5","5","6","4","3","5","4","4","3","5","4","5","3","1","3","4","5","4","3","5","4","5","4","4","3","4","3","4","4","4","3","4","4","5","6","4","3","4","3","4","3","6","3","4","566315942938673152","张","398","Male","[""好他"",""坏我"",""好我"",""坏他""]","[""强他"",""弱我"",""强我"",""弱他""]","","","","","","","","nonmatch","","","","","","","","","","key","j","16.65929203539823","640","356","j","true","nonmatch","img/ellipse.png","坏他","好我","prac_ALT2_moral","practice_moral","","","","","","","","",""
"null","<span style='color:GreenYellow; font-size: 70px;'>正确! </span>","null","html-keyboard-response","137","645974","0.0-8.0-0.0-1.1-0.1-1.62","5","4","4","3","5","4","3","4","4","4","4","1","-1","0","1","0","0","1","1","4","5","5","4","4","3","4","3","4","4","4","6","6","5","4","7","5","5","6","4","3","5","4","4","3","5","4","5","3","1","3","4","5","4","3","5","4","5","4","4","3","4","3","4","4","4","3","4","4","5","6","4","3","4","3","4","3","6","3","4","566315942938673152","张","398","Male","[""好他"",""坏我"",""好我"",""坏他""]","[""强他"",""弱我"",""强我"",""弱他""]","","","","","","","","","","","","","","","","","","","","","","","","","","","","","","feedback_test","","","","","","","","",""
"593","","j","psychophysics","138","647569","0.0-8.0-0.0-1.1-0.1-0.63","5","4","4","3","5","4","3","4","4","4","4","1","-1","0","1","0","0","1","1","4","5","5","4","4","3","4","3","4","4","4","6","6","5","4","7","5","5","6","4","3","5","4","4","3","5","4","5","3","1","3","4","5","4","3","5","4","5","4","4","3","4","3","4","4","4","3","4","4","5","6","4","3","4","3","4","3","6","3","4","566315942938673152","张","398","Male","[""好他"",""坏我"",""好我"",""坏他""]","[""强他"",""弱我"",""强我"",""弱他""]","","","","","","","","nonmatch","","","","","","","","","","key","j","16.656382978724146","640","356","j","true","nonmatch","img/trapezoid.png","坏他","坏我","prac_ALT2_moral","practice_moral","","","","","","","","",""
