"rt","stimulus","response","trial_type","trial_index","time_elapsed","internal_node_id","swb_1","swb_2","swb_3","swb_4","swb_5","LOT_1","LOT_2","LOT_3","LOT_4","LOT_5","LOT_6","IPC_1","IPC_2","IPC_3","IPC_4","IPC_5","IPC_6","IPC_7","IPC_8","MorIden_1","MorIden_2","MorIden_3","MorIden_4","MorIden_5","MorIden_6","MorIden_7","MorIden_8","MorIden_9","MorIden_10","moralSeImag_1","moralSeImag_2","moralSeImag_3","moralSeImag_4","moralSeImag_5","moralSeImag_6","moralSeImag_7","moralSeImag_8","moralSeImag_9","sde_1","sde_2","sde_3","sde_4","sde_5","sde_6","sde_7","sde_8","sde_9","sde_10","trap2","sde_11","sde_12","sde_13","sde_14","sde_15","sde_16","sde_17","sde_18","sde_19","sde_20","IM_1","IM_2","IM_3","IM_4","IM_5","IM_6","IM_7","IM_8","IM_9","IM_10","IM_11","IM_12","IM_13","IM_14","IM_15","IM_16","IM_17","IM_18","IM_19","IM_20","subj_idx","friend_name","ParticipantID","Sex","Word","Word2","value","success","timeout","failed_images","failed_audio","failed_video","user_agent","responses","item_order","radio_event_ids","radio_event_times","key_event_times","mouse_event_times","straightlining","zigzagging","honeypot","view_history","response_type","key_press","avg_frame_time","center_x","center_y","correct_response","correct","identity","Image","word","condition","task_id","screen_id","time_stamp","person","valence","domain","math","status","duration","question_order","trap2_item"
"2407","
   <p><div style='color:white; font-size: 25px'>您好，欢迎参加本次实验。</div></p>
   <p><div style='color:white; font-size: 25px'>为充分保障您的权利，请确保您已经知晓并同意《参与实验同意书》以及《数据公开知情同意书》。</div></p>
   <p><div style='color:white; font-size: 25px'>如果您未见过上述内容，请咨询实验员。</div></p>
   <p style='color:white; font-size: 25px'>如果您选择继续实验，则表示您已经清楚两份知情同意书的内容并同意。</p>
   <p><div style = ""color: pink;font-size:30px;"">请确保您记得day0的实验编号，您将在本次实验输入该编号，若您忘记，请咨询实验员后作答。</div></p>
   <p><div style = ""color:lightblue;font-size:25px;"">请您尽可能认真地作答，我们将依据您在各问卷和按键任务中的作答质量发放报酬。</div></p>
   <p> <div style = ""color: green""><按空格键至下页></div> </p>
   "," ","html-keyboard-response","0","2408","0.0-0.0","7","7","7","7","7","5","5","5","5","5","5","2","2","2","2","2","2","2","2","5","5","5","5","5","5","5","5","5","5","8","8","8","8","7","7","8","9","8","7","6","7","7","7","7","7","1","7","7","1","7","7","7","7","7","7","7","7","6","7","7","7","7","7","7","7","7","7","7","7","7","6","7","7","7","7","7","7","6","7","633781445638225920","刘","357","Male","[""坏他"",""坏我"",""好他"",""好我""]","[""弱他"",""弱我"",""强他"",""强我""]","","","","","","","","","","","","","","","","","","","","","","","","","","","","","","","","","","","","","","",""
"","","","call-function","1","2409","0.0-1.0-0.0","7","7","7","7","7","5","5","5","5","5","5","2","2","2","2","2","2","2","2","5","5","5","5","5","5","5","5","5","5","8","8","8","8","7","7","8","9","8","7","6","7","7","7","7","7","1","7","7","1","7","7","7","7","7","7","7","7","6","7","7","7","7","7","7","7","7","7","7","7","7","6","7","7","7","7","7","7","6","7","633781445638225920","刘","357","Male","[""坏他"",""坏我"",""好他"",""好我""]","[""弱他"",""弱我"",""强他"",""强我""]","","","","","","","","","","","","","","","","","","","","","","","","","","","","","","","","","","","","","","",""
"21535","","[{""name"":""Sex"",""value"":""0""},{""name"":""friend_name"",""value"":""刘""},{""name"":""ParticipantID"",""value"":""357""}]","survey-html-form","2","23945","0.0-1.0-1.0","7","7","7","7","7","5","5","5","5","5","5","2","2","2","2","2","2","2","2","5","5","5","5","5","5","5","5","5","5","8","8","8","8","7","7","8","9","8","7","6","7","7","7","7","7","1","7","7","1","7","7","7","7","7","7","7","7","6","7","7","7","7","7","7","7","7","7","7","7","7","6","7","7","7","7","7","7","6","7","633781445638225920","刘","357","Male","[""坏他"",""坏我"",""好他"",""好我""]","[""弱他"",""弱我"",""强他"",""强我""]","","","","","","","","","","","","","","","","","","","","","","","","","","","","","","","","","","","","","","",""
"","","","preload","3","24183","0.0-2.0","7","7","7","7","7","5","5","5","5","5","5","2","2","2","2","2","2","2","2","5","5","5","5","5","5","5","5","5","5","8","8","8","8","7","7","8","9","8","7","6","7","7","7","7","7","1","7","7","1","7","7","7","7","7","7","7","7","6","7","7","7","7","7","7","7","7","7","7","7","7","6","7","7","7","7","7","7","6","7","633781445638225920","刘","357","Male","[""坏他"",""坏我"",""好他"",""好我""]","[""弱他"",""弱我"",""强他"",""强我""]","","true","false","[]","[]","[]","","","","","","","","","","","","","","","","","","","","","","","","","","","","","","","","",""
"","","","fullscreen","4","25205","0.0-3.0","7","7","7","7","7","5","5","5","5","5","5","2","2","2","2","2","2","2","2","5","5","5","5","5","5","5","5","5","5","8","8","8","8","7","7","8","9","8","7","6","7","7","7","7","7","1","7","7","1","7","7","7","7","7","7","7","7","6","7","7","7","7","7","7","7","7","7","7","7","7","6","7","7","7","7","7","7","6","7","633781445638225920","刘","357","Male","[""坏他"",""坏我"",""好他"",""好我""]","[""弱他"",""弱我"",""强他"",""强我""]","","true","","","","","{}","","","","","","","","","","","","","","","","","","","","","","","","","","","","","","","",""
"7834.600000023842","","{""Q01"":""7"",""Q02"":""7"",""Q03"":""7"",""Q04"":""7"",""Q05"":""7""}","survey-template","5","33042","0.0-4.0","7","7","7","7","7","5","5","5","5","5","5","2","2","2","2","2","2","2","2","5","5","5","5","5","5","5","5","5","5","8","8","8","8","7","7","8","9","8","7","6","7","7","7","7","7","1","7","7","1","7","7","7","7","7","7","7","7","6","7","7","7","7","7","7","7","7","7","7","7","7","6","7","7","7","7","7","7","6","7","633781445638225920","刘","357","Male","[""坏他"",""坏我"",""好他"",""好我""]","[""弱他"",""弱我"",""强他"",""强我""]","","","","","","","","{""Q01"":""7"",""Q02"":""7"",""Q03"":""7"",""Q04"":""7"",""Q05"":""7""}","[0,1,2,3,4]","[""Q01"",""Q01"",""Q02"",""Q02"",""Q03"",""Q05"",""Q04""]","[2057.900000035763,2481.600000023842,3617.600000023842,3682.100000023842,4017.100000023842,5657.400000035763,6577.5]","[]","[1793.5,2057.900000035763,2481.600000023842,3017.300000011921,3617.600000023842,3682.100000023842,4017.100000023842,4456.800000011921,4786,5113.699999988079,5657.400000035763,6577.5,7833.400000035763]","1","0","0","","","","","","","","","","","","","","","","","","","","","","",""
"9059.5","","{""Q01"":""5"",""Q02"":""5"",""Q03"":""5"",""Q04"":""5"",""Q05"":""5"",""Q06"":""5""}","survey-template","6","42105","0.0-5.0","7","7","7","7","7","5","5","5","5","5","5","2","2","2","2","2","2","2","2","5","5","5","5","5","5","5","5","5","5","8","8","8","8","7","7","8","9","8","7","6","7","7","7","7","7","1","7","7","1","7","7","7","7","7","7","7","7","6","7","7","7","7","7","7","7","7","7","7","7","7","6","7","7","7","7","7","7","6","7","633781445638225920","刘","357","Male","[""坏他"",""坏我"",""好他"",""好我""]","[""弱他"",""弱我"",""强他"",""强我""]","","","","","","","","{""Q01"":""5"",""Q02"":""5"",""Q03"":""5"",""Q04"":""5"",""Q05"":""5"",""Q06"":""5""}","[0,1,2,3,4,5]","[""Q01"",""Q02"",""Q03"",""Q04"",""Q05"",""Q06""]","[819,2162.599999964237,3050.899999976158,4459.399999976158,5730.599999964237,7386.899999976158]","[]","[819,2162.599999964237,3050.899999976158,3938.300000011921,4459.399999976158,5083,5730.599999964237,7386.899999976158,9058.899999976158]","0.5","0.8","0","","","","","","","","","","","","","","","","","","","","","","",""
"14028.900000035763","","{""Q01"":""2"",""Q02"":""2"",""Q03"":""2"",""Q04"":""2"",""Q05"":""2"",""Q06"":""2"",""Q07"":""2"",""Q08"":""2""}","survey-template","7","56136","0.0-6.0","7","7","7","7","7","5","5","5","5","5","5","2","2","2","2","2","2","2","2","5","5","5","5","5","5","5","5","5","5","8","8","8","8","7","7","8","9","8","7","6","7","7","7","7","7","1","7","7","1","7","7","7","7","7","7","7","7","6","7","7","7","7","7","7","7","7","7","7","7","7","6","7","7","7","7","7","7","6","7","633781445638225920","刘","357","Male","[""坏他"",""坏我"",""好他"",""好我""]","[""弱他"",""弱我"",""强他"",""强我""]","","","","","","","","{""Q01"":""2"",""Q02"":""2"",""Q03"":""2"",""Q04"":""2"",""Q05"":""2"",""Q06"":""2"",""Q07"":""2"",""Q08"":""2""}","[0,1,2,3,4,5,6,7]","[""Q01"",""Q02"",""Q03"",""Q03"",""Q04"",""Q05"",""Q05"",""Q05"",""Q07"",""Q06"",""Q08""]","[1396.800000011921,2116.900000035763,2636.600000023842,2700.7000000476837,3492.900000035763,4517,4604.400000035763,4732.800000011921,6348.800000011921,6997.5,7813]","[]","[1396.800000011921,1492.7000000476837,2116.900000035763,2636.600000023842,2700.7000000476837,3157,3492.900000035763,4036.5,4276.300000011921,4517,4604.400000035763,4732.800000011921,5981.800000011921,6348.800000011921,6997.5,7813,14028.100000023842]","1","0","0","","","","","","","","","","","","","","","","","","","","","","",""
"1542","","","instructions","8","57680","0.0-7.0","7","7","7","7","7","5","5","5","5","5","5","2","2","2","2","2","2","2","2","5","5","5","5","5","5","5","5","5","5","8","8","8","8","7","7","8","9","8","7","6","7","7","7","7","7","1","7","7","1","7","7","7","7","7","7","7","7","6","7","7","7","7","7","7","7","7","7","7","7","7","6","7","7","7","7","7","7","6","7","633781445638225920","刘","357","Male","[""坏他"",""坏我"",""好他"",""好我""]","[""弱他"",""弱我"",""强他"",""强我""]","","","","","","","","","","","","","","","","","[{""page_index"":0,""viewing_time"":1542}]","","","","","","","","","","","","","","","","","","","","","",""
"41679","","","instructions","9","99361","0.0-8.0-0.0-0.0","7","7","7","7","7","5","5","5","5","5","5","2","2","2","2","2","2","2","2","5","5","5","5","5","5","5","5","5","5","8","8","8","8","7","7","8","9","8","7","6","7","7","7","7","7","1","7","7","1","7","7","7","7","7","7","7","7","6","7","7","7","7","7","7","7","7","7","7","7","7","6","7","7","7","7","7","7","6","7","633781445638225920","刘","357","Male","[""坏他"",""坏我"",""好他"",""好我""]","[""弱他"",""弱我"",""强他"",""强我""]","","","","","","","","","","","","","","","","","[{""page_index"":0,""viewing_time"":26159},{""page_index"":1,""viewing_time"":13857},{""page_index"":2,""viewing_time"":1103},{""page_index"":3,""viewing_time"":560}]","","","","","","","","","","","","","","","","","","","","","",""
"821","","f","psychophysics","10","101186","0.0-8.0-0.0-1.0-0.0-0.0","7","7","7","7","7","5","5","5","5","5","5","2","2","2","2","2","2","2","2","5","5","5","5","5","5","5","5","5","5","8","8","8","8","7","7","8","9","8","7","6","7","7","7","7","7","1","7","7","1","7","7","7","7","7","7","7","7","6","7","7","7","7","7","7","7","7","7","7","7","7","6","7","7","7","7","7","7","6","7","633781445638225920","刘","357","Male","[""坏他"",""坏我"",""好他"",""好我""]","[""弱他"",""弱我"",""强他"",""强我""]","","","","","","","","nonmatch","","","","","","","","","","key","f","16.654629629629603","768","428","f","true","nonmatch","img/triangle.png","坏他","好我","prac_ALT2_moral","practice_moral","","","","","","","","",""
"null","<span style='color:GreenYellow; font-size: 70px;'>正确! </span>","null","html-keyboard-response","11","101689","0.0-8.0-0.0-1.0-0.0-1.0","7","7","7","7","7","5","5","5","5","5","5","2","2","2","2","2","2","2","2","5","5","5","5","5","5","5","5","5","5","8","8","8","8","7","7","8","9","8","7","6","7","7","7","7","7","1","7","7","1","7","7","7","7","7","7","7","7","6","7","7","7","7","7","7","7","7","7","7","7","7","6","7","7","7","7","7","7","6","7","633781445638225920","刘","357","Male","[""坏他"",""坏我"",""好他"",""好我""]","[""弱他"",""弱我"",""强他"",""强我""]","","","","","","","","","","","","","","","","","","","","","","","","","","","","","","feedback_test","","","","","","","","",""
"734","","f","psychophysics","12","103424","0.0-8.0-0.0-1.0-0.0-0.1","7","7","7","7","7","5","5","5","5","5","5","2","2","2","2","2","2","2","2","5","5","5","5","5","5","5","5","5","5","8","8","8","8","7","7","8","9","8","7","6","7","7","7","7","7","1","7","7","1","7","7","7","7","7","7","7","7","6","7","7","7","7","7","7","7","7","7","7","7","7","6","7","7","7","7","7","7","6","7","633781445638225920","刘","357","Male","[""坏他"",""坏我"",""好他"",""好我""]","[""弱他"",""弱我"",""强他"",""强我""]","","","","","","","","nonmatch","","","","","","","","","","key","f","16.652427184465992","768","428","f","true","nonmatch","img/square.png","好他","坏他","prac_ALT2_moral","practice_moral","","","","","","","","",""
"null","<span style='color:GreenYellow; font-size: 70px;'>正确! </span>","null","html-keyboard-response","13","103925","0.0-8.0-0.0-1.0-0.0-1.1","7","7","7","7","7","5","5","5","5","5","5","2","2","2","2","2","2","2","2","5","5","5","5","5","5","5","5","5","5","8","8","8","8","7","7","8","9","8","7","6","7","7","7","7","7","1","7","7","1","7","7","7","7","7","7","7","7","6","7","7","7","7","7","7","7","7","7","7","7","7","6","7","7","7","7","7","7","6","7","633781445638225920","刘","357","Male","[""坏他"",""坏我"",""好他"",""好我""]","[""弱他"",""弱我"",""强他"",""强我""]","","","","","","","","","","","","","","","","","","","","","","","","","","","","","","feedback_test","","","","","","","","",""
"953","","f","psychophysics","14","105881","0.0-8.0-0.0-1.0-0.0-0.2","7","7","7","7","7","5","5","5","5","5","5","2","2","2","2","2","2","2","2","5","5","5","5","5","5","5","5","5","5","8","8","8","8","7","7","8","9","8","7","6","7","7","7","7","7","1","7","7","1","7","7","7","7","7","7","7","7","6","7","7","7","7","7","7","7","7","7","7","7","7","6","7","7","7","7","7","7","6","7","633781445638225920","刘","357","Male","[""坏他"",""坏我"",""好他"",""好我""]","[""弱他"",""弱我"",""强他"",""强我""]","","","","","","","","nonmatch","","","","","","","","","","key","f","16.64999999999995","768","428","j","false","match","img/triangle.png","好我","好我","prac_ALT2_moral","practice_moral","","","","","","","","",""
"null","<span style='color:red; font-size: 70px;'>错误! </span>","null","html-keyboard-response","15","106382","0.0-8.0-0.0-1.0-0.0-1.2","7","7","7","7","7","5","5","5","5","5","5","2","2","2","2","2","2","2","2","5","5","5","5","5","5","5","5","5","5","8","8","8","8","7","7","8","9","8","7","6","7","7","7","7","7","1","7","7","1","7","7","7","7","7","7","7","7","6","7","7","7","7","7","7","7","7","7","7","7","7","6","7","7","7","7","7","7","6","7","633781445638225920","刘","357","Male","[""坏他"",""坏我"",""好他"",""好我""]","[""弱他"",""弱我"",""强他"",""强我""]","","","","","","","","","","","","","","","","","","","","","","","","","","","","","","feedback_test","","","","","","","","",""
"624","","f","psychophysics","16","108008","0.0-8.0-0.0-1.0-0.0-0.3","7","7","7","7","7","5","5","5","5","5","5","2","2","2","2","2","2","2","2","5","5","5","5","5","5","5","5","5","5","8","8","8","8","7","7","8","9","8","7","6","7","7","7","7","7","1","7","7","1","7","7","7","7","7","7","7","7","6","7","7","7","7","7","7","7","7","7","7","7","7","6","7","7","7","7","7","7","6","7","633781445638225920","刘","357","Male","[""坏他"",""坏我"",""好他"",""好我""]","[""弱他"",""弱我"",""强他"",""强我""]","","","","","","","","nonmatch","","","","","","","","","","key","f","16.64639175257744","768","428","f","true","nonmatch","img/triangle.png","坏我","好我","prac_ALT2_moral","practice_moral","","","","","","","","",""
"null","<span style='color:GreenYellow; font-size: 70px;'>正确! </span>","null","html-keyboard-response","17","108509","0.0-8.0-0.0-1.0-0.0-1.3","7","7","7","7","7","5","5","5","5","5","5","2","2","2","2","2","2","2","2","5","5","5","5","5","5","5","5","5","5","8","8","8","8","7","7","8","9","8","7","6","7","7","7","7","7","1","7","7","1","7","7","7","7","7","7","7","7","6","7","7","7","7","7","7","7","7","7","7","7","7","6","7","7","7","7","7","7","6","7","633781445638225920","刘","357","Male","[""坏他"",""坏我"",""好他"",""好我""]","[""弱他"",""弱我"",""强他"",""强我""]","","","","","","","","","","","","","","","","","","","","","","","","","","","","","","feedback_test","","","","","","","","",""
"888","","j","psychophysics","18","110400","0.0-8.0-0.0-1.0-0.0-0.4","7","7","7","7","7","5","5","5","5","5","5","2","2","2","2","2","2","2","2","5","5","5","5","5","5","5","5","5","5","8","8","8","8","7","7","8","9","8","7","6","7","7","7","7","7","1","7","7","1","7","7","7","7","7","7","7","7","6","7","7","7","7","7","7","7","7","7","7","7","7","6","7","7","7","7","7","7","6","7","633781445638225920","刘","357","Male","[""坏他"",""坏我"",""好他"",""好我""]","[""弱他"",""弱我"",""强他"",""强我""]","","","","","","","","match","","","","","","","","","","key","j","16.655752212389302","768","428","j","true","match","img/pentagon.png","好他","好他","prac_ALT2_moral","practice_moral","","","","","","","","",""
"null","<span style='color:GreenYellow; font-size: 70px;'>正确! </span>","null","html-keyboard-response","19","110901","0.0-8.0-0.0-1.0-0.0-1.4","7","7","7","7","7","5","5","5","5","5","5","2","2","2","2","2","2","2","2","5","5","5","5","5","5","5","5","5","5","8","8","8","8","7","7","8","9","8","7","6","7","7","7","7","7","1","7","7","1","7","7","7","7","7","7","7","7","6","7","7","7","7","7","7","7","7","7","7","7","7","6","7","7","7","7","7","7","6","7","633781445638225920","刘","357","Male","[""坏他"",""坏我"",""好他"",""好我""]","[""弱他"",""弱我"",""强他"",""强我""]","","","","","","","","","","","","","","","","","","","","","","","","","","","","","","feedback_test","","","","","","","","",""
"642","","f","psychophysics","20","112545","0.0-8.0-0.0-1.0-0.0-0.5","7","7","7","7","7","5","5","5","5","5","5","2","2","2","2","2","2","2","2","5","5","5","5","5","5","5","5","5","5","8","8","8","8","7","7","8","9","8","7","6","7","7","7","7","7","1","7","7","1","7","7","7","7","7","7","7","7","6","7","7","7","7","7","7","7","7","7","7","7","7","6","7","7","7","7","7","7","6","7","633781445638225920","刘","357","Male","[""坏他"",""坏我"",""好他"",""好我""]","[""弱他"",""弱我"",""强他"",""强我""]","","","","","","","","nonmatch","","","","","","","","","","key","f","16.65360824742262","768","428","f","true","nonmatch","img/pentagon.png","好我","好他","prac_ALT2_moral","practice_moral","","","","","","","","",""
"null","<span style='color:GreenYellow; font-size: 70px;'>正确! </span>","null","html-keyboard-response","21","113046","0.0-8.0-0.0-1.0-0.0-1.5","7","7","7","7","7","5","5","5","5","5","5","2","2","2","2","2","2","2","2","5","5","5","5","5","5","5","5","5","5","8","8","8","8","7","7","8","9","8","7","6","7","7","7","7","7","1","7","7","1","7","7","7","7","7","7","7","7","6","7","7","7","7","7","7","7","7","7","7","7","7","6","7","7","7","7","7","7","6","7","633781445638225920","刘","357","Male","[""坏他"",""坏我"",""好他"",""好我""]","[""弱他"",""弱我"",""强他"",""强我""]","","","","","","","","","","","","","","","","","","","","","","","","","","","","","","feedback_test","","","","","","","","",""
"632","","j","psychophysics","22","114680","0.0-8.0-0.0-1.0-0.0-0.6","7","7","7","7","7","5","5","5","5","5","5","2","2","2","2","2","2","2","2","5","5","5","5","5","5","5","5","5","5","8","8","8","8","7","7","8","9","8","7","6","7","7","7","7","7","1","7","7","1","7","7","7","7","7","7","7","7","6","7","7","7","7","7","7","7","7","7","7","7","7","6","7","7","7","7","7","7","6","7","633781445638225920","刘","357","Male","[""坏他"",""坏我"",""好他"",""好我""]","[""弱他"",""弱我"",""强他"",""强我""]","","","","","","","","match","","","","","","","","","","key","j","16.65257731958766","768","428","j","true","match","img/pentagon.png","好他","好他","prac_ALT2_moral","practice_moral","","","","","","","","",""
"null","<span style='color:GreenYellow; font-size: 70px;'>正确! </span>","null","html-keyboard-response","23","115183","0.0-8.0-0.0-1.0-0.0-1.6","7","7","7","7","7","5","5","5","5","5","5","2","2","2","2","2","2","2","2","5","5","5","5","5","5","5","5","5","5","8","8","8","8","7","7","8","9","8","7","6","7","7","7","7","7","1","7","7","1","7","7","7","7","7","7","7","7","6","7","7","7","7","7","7","7","7","7","7","7","7","6","7","7","7","7","7","7","6","7","633781445638225920","刘","357","Male","[""坏他"",""坏我"",""好他"",""好我""]","[""弱他"",""弱我"",""强他"",""强我""]","","","","","","","","","","","","","","","","","","","","","","","","","","","","","","feedback_test","","","","","","","","",""
"929","","f","psychophysics","24","117113","0.0-8.0-0.0-1.0-0.0-0.7","7","7","7","7","7","5","5","5","5","5","5","2","2","2","2","2","2","2","2","5","5","5","5","5","5","5","5","5","5","8","8","8","8","7","7","8","9","8","7","6","7","7","7","7","7","1","7","7","1","7","7","7","7","7","7","7","7","6","7","7","7","7","7","7","7","7","7","7","7","7","6","7","7","7","7","7","7","6","7","633781445638225920","刘","357","Male","[""坏他"",""坏我"",""好他"",""好我""]","[""弱他"",""弱我"",""强他"",""强我""]","","","","","","","","nonmatch","","","","","","","","","","key","f","16.651304347826038","768","428","j","false","match","img/square.png","坏他","坏他","prac_ALT2_moral","practice_moral","","","","","","","","",""
"null","<span style='color:red; font-size: 70px;'>错误! </span>","null","html-keyboard-response","25","117615","0.0-8.0-0.0-1.0-0.0-1.7","7","7","7","7","7","5","5","5","5","5","5","2","2","2","2","2","2","2","2","5","5","5","5","5","5","5","5","5","5","8","8","8","8","7","7","8","9","8","7","6","7","7","7","7","7","1","7","7","1","7","7","7","7","7","7","7","7","6","7","7","7","7","7","7","7","7","7","7","7","7","6","7","7","7","7","7","7","6","7","633781445638225920","刘","357","Male","[""坏他"",""坏我"",""好他"",""好我""]","[""弱他"",""弱我"",""强他"",""强我""]","","","","","","","","","","","","","","","","","","","","","","","","","","","","","","feedback_test","","","","","","","","",""
"471","","j","psychophysics","26","119089","0.0-8.0-0.0-1.0-0.0-0.8","7","7","7","7","7","5","5","5","5","5","5","2","2","2","2","2","2","2","2","5","5","5","5","5","5","5","5","5","5","8","8","8","8","7","7","8","9","8","7","6","7","7","7","7","7","1","7","7","1","7","7","7","7","7","7","7","7","6","7","7","7","7","7","7","7","7","7","7","7","7","6","7","7","7","7","7","7","6","7","633781445638225920","刘","357","Male","[""坏他"",""坏我"",""好他"",""好我""]","[""弱他"",""弱我"",""强他"",""强我""]","","","","","","","","match","","","","","","","","","","key","j","16.647126436781644","768","428","j","true","match","img/square.png","坏他","坏他","prac_ALT2_moral","practice_moral","","","","","","","","",""
"null","<span style='color:GreenYellow; font-size: 70px;'>正确! </span>","null","html-keyboard-response","27","119590","0.0-8.0-0.0-1.0-0.0-1.8","7","7","7","7","7","5","5","5","5","5","5","2","2","2","2","2","2","2","2","5","5","5","5","5","5","5","5","5","5","8","8","8","8","7","7","8","9","8","7","6","7","7","7","7","7","1","7","7","1","7","7","7","7","7","7","7","7","6","7","7","7","7","7","7","7","7","7","7","7","7","6","7","7","7","7","7","7","6","7","633781445638225920","刘","357","Male","[""坏他"",""坏我"",""好他"",""好我""]","[""弱他"",""弱我"",""强他"",""强我""]","","","","","","","","","","","","","","","","","","","","","","","","","","","","","","feedback_test","","","","","","","","",""
"854","","f","psychophysics","28","121448","0.0-8.0-0.0-1.0-0.0-0.9","7","7","7","7","7","5","5","5","5","5","5","2","2","2","2","2","2","2","2","5","5","5","5","5","5","5","5","5","5","8","8","8","8","7","7","8","9","8","7","6","7","7","7","7","7","1","7","7","1","7","7","7","7","7","7","7","7","6","7","7","7","7","7","7","7","7","7","7","7","7","6","7","7","7","7","7","7","6","7","633781445638225920","刘","357","Male","[""坏他"",""坏我"",""好他"",""好我""]","[""弱他"",""弱我"",""强他"",""强我""]","","","","","","","","nonmatch","","","","","","","","","","key","f","16.6527272727273","768","428","f","true","nonmatch","img/pentagon.png","坏我","好他","prac_ALT2_moral","practice_moral","","","","","","","","",""
"null","<span style='color:GreenYellow; font-size: 70px;'>正确! </span>","null","html-keyboard-response","29","121950","0.0-8.0-0.0-1.0-0.0-1.9","7","7","7","7","7","5","5","5","5","5","5","2","2","2","2","2","2","2","2","5","5","5","5","5","5","5","5","5","5","8","8","8","8","7","7","8","9","8","7","6","7","7","7","7","7","1","7","7","1","7","7","7","7","7","7","7","7","6","7","7","7","7","7","7","7","7","7","7","7","7","6","7","7","7","7","7","7","6","7","633781445638225920","刘","357","Male","[""坏他"",""坏我"",""好他"",""好我""]","[""弱他"",""弱我"",""强他"",""强我""]","","","","","","","","","","","","","","","","","","","","","","","","","","","","","","feedback_test","","","","","","","","",""
"905","","f","psychophysics","30","123856","0.0-8.0-0.0-1.0-0.0-0.10","7","7","7","7","7","5","5","5","5","5","5","2","2","2","2","2","2","2","2","5","5","5","5","5","5","5","5","5","5","8","8","8","8","7","7","8","9","8","7","6","7","7","7","7","7","1","7","7","1","7","7","7","7","7","7","7","7","6","7","7","7","7","7","7","7","7","7","7","7","7","6","7","7","7","7","7","7","6","7","633781445638225920","刘","357","Male","[""坏他"",""坏我"",""好他"",""好我""]","[""弱他"",""弱我"",""强他"",""强我""]","","","","","","","","nonmatch","","","","","","","","","","key","f","16.653508771929825","768","428","f","true","nonmatch","img/circle.png","好他","坏我","prac_ALT2_moral","practice_moral","","","","","","","","",""
"null","<span style='color:GreenYellow; font-size: 70px;'>正确! </span>","null","html-keyboard-response","31","124357","0.0-8.0-0.0-1.0-0.0-1.10","7","7","7","7","7","5","5","5","5","5","5","2","2","2","2","2","2","2","2","5","5","5","5","5","5","5","5","5","5","8","8","8","8","7","7","8","9","8","7","6","7","7","7","7","7","1","7","7","1","7","7","7","7","7","7","7","7","6","7","7","7","7","7","7","7","7","7","7","7","7","6","7","7","7","7","7","7","6","7","633781445638225920","刘","357","Male","[""坏他"",""坏我"",""好他"",""好我""]","[""弱他"",""弱我"",""强他"",""强我""]","","","","","","","","","","","","","","","","","","","","","","","","","","","","","","feedback_test","","","","","","","","",""
"978","","j","psychophysics","32","126336","0.0-8.0-0.0-1.0-0.0-0.11","7","7","7","7","7","5","5","5","5","5","5","2","2","2","2","2","2","2","2","5","5","5","5","5","5","5","5","5","5","8","8","8","8","7","7","8","9","8","7","6","7","7","7","7","7","1","7","7","1","7","7","7","7","7","7","7","7","6","7","7","7","7","7","7","7","7","7","7","7","7","6","7","7","7","7","7","7","6","7","633781445638225920","刘","357","Male","[""坏他"",""坏我"",""好他"",""好我""]","[""弱他"",""弱我"",""强他"",""强我""]","","","","","","","","match","","","","","","","","","","key","j","16.646610169491428","768","428","f","false","nonmatch","img/square.png","坏我","坏他","prac_ALT2_moral","practice_moral","","","","","","","","",""
"null","<span style='color:red; font-size: 70px;'>错误! </span>","null","html-keyboard-response","33","126837","0.0-8.0-0.0-1.0-0.0-1.11","7","7","7","7","7","5","5","5","5","5","5","2","2","2","2","2","2","2","2","5","5","5","5","5","5","5","5","5","5","8","8","8","8","7","7","8","9","8","7","6","7","7","7","7","7","1","7","7","1","7","7","7","7","7","7","7","7","6","7","7","7","7","7","7","7","7","7","7","7","7","6","7","7","7","7","7","7","6","7","633781445638225920","刘","357","Male","[""坏他"",""坏我"",""好他"",""好我""]","[""弱他"",""弱我"",""强他"",""强我""]","","","","","","","","","","","","","","","","","","","","","","","","","","","","","","feedback_test","","","","","","","","",""
"752","","f","psychophysics","34","128592","0.0-8.0-0.0-1.0-0.0-0.12","7","7","7","7","7","5","5","5","5","5","5","2","2","2","2","2","2","2","2","5","5","5","5","5","5","5","5","5","5","8","8","8","8","7","7","8","9","8","7","6","7","7","7","7","7","1","7","7","1","7","7","7","7","7","7","7","7","6","7","7","7","7","7","7","7","7","7","7","7","7","6","7","7","7","7","7","7","6","7","633781445638225920","刘","357","Male","[""坏他"",""坏我"",""好他"",""好我""]","[""弱他"",""弱我"",""强他"",""强我""]","","","","","","","","nonmatch","","","","","","","","","","key","f","16.655769230769202","768","428","f","true","nonmatch","img/circle.png","坏他","坏我","prac_ALT2_moral","practice_moral","","","","","","","","",""
"null","<span style='color:GreenYellow; font-size: 70px;'>正确! </span>","null","html-keyboard-response","35","129093","0.0-8.0-0.0-1.0-0.0-1.12","7","7","7","7","7","5","5","5","5","5","5","2","2","2","2","2","2","2","2","5","5","5","5","5","5","5","5","5","5","8","8","8","8","7","7","8","9","8","7","6","7","7","7","7","7","1","7","7","1","7","7","7","7","7","7","7","7","6","7","7","7","7","7","7","7","7","7","7","7","7","6","7","7","7","7","7","7","6","7","633781445638225920","刘","357","Male","[""坏他"",""坏我"",""好他"",""好我""]","[""弱他"",""弱我"",""强他"",""强我""]","","","","","","","","","","","","","","","","","","","","","","","","","","","","","","feedback_test","","","","","","","","",""
"552","","j","psychophysics","36","130648","0.0-8.0-0.0-1.0-0.0-0.13","7","7","7","7","7","5","5","5","5","5","5","2","2","2","2","2","2","2","2","5","5","5","5","5","5","5","5","5","5","8","8","8","8","7","7","8","9","8","7","6","7","7","7","7","7","1","7","7","1","7","7","7","7","7","7","7","7","6","7","7","7","7","7","7","7","7","7","7","7","7","6","7","7","7","7","7","7","6","7","633781445638225920","刘","357","Male","[""坏他"",""坏我"",""好他"",""好我""]","[""弱他"",""弱我"",""强他"",""强我""]","","","","","","","","match","","","","","","","","","","key","j","16.651612903225868","768","428","j","true","match","img/circle.png","坏我","坏我","prac_ALT2_moral","practice_moral","","","","","","","","",""
"null","<span style='color:GreenYellow; font-size: 70px;'>正确! </span>","null","html-keyboard-response","37","131150","0.0-8.0-0.0-1.0-0.0-1.13","7","7","7","7","7","5","5","5","5","5","5","2","2","2","2","2","2","2","2","5","5","5","5","5","5","5","5","5","5","8","8","8","8","7","7","8","9","8","7","6","7","7","7","7","7","1","7","7","1","7","7","7","7","7","7","7","7","6","7","7","7","7","7","7","7","7","7","7","7","7","6","7","7","7","7","7","7","6","7","633781445638225920","刘","357","Male","[""坏他"",""坏我"",""好他"",""好我""]","[""弱他"",""弱我"",""强他"",""强我""]","","","","","","","","","","","","","","","","","","","","","","","","","","","","","","feedback_test","","","","","","","","",""
"849","","f","psychophysics","38","133000","0.0-8.0-0.0-1.0-0.0-0.14","7","7","7","7","7","5","5","5","5","5","5","2","2","2","2","2","2","2","2","5","5","5","5","5","5","5","5","5","5","8","8","8","8","7","7","8","9","8","7","6","7","7","7","7","7","1","7","7","1","7","7","7","7","7","7","7","7","6","7","7","7","7","7","7","7","7","7","7","7","7","6","7","7","7","7","7","7","6","7","633781445638225920","刘","357","Male","[""坏他"",""坏我"",""好他"",""好我""]","[""弱他"",""弱我"",""强他"",""强我""]","","","","","","","","nonmatch","","","","","","","","","","key","f","16.651818181818022","768","428","f","true","nonmatch","img/pentagon.png","坏他","好他","prac_ALT2_moral","practice_moral","","","","","","","","",""
"null","<span style='color:GreenYellow; font-size: 70px;'>正确! </span>","null","html-keyboard-response","39","133501","0.0-8.0-0.0-1.0-0.0-1.14","7","7","7","7","7","5","5","5","5","5","5","2","2","2","2","2","2","2","2","5","5","5","5","5","5","5","5","5","5","8","8","8","8","7","7","8","9","8","7","6","7","7","7","7","7","1","7","7","1","7","7","7","7","7","7","7","7","6","7","7","7","7","7","7","7","7","7","7","7","7","6","7","7","7","7","7","7","6","7","633781445638225920","刘","357","Male","[""坏他"",""坏我"",""好他"",""好我""]","[""弱他"",""弱我"",""强他"",""强我""]","","","","","","","","","","","","","","","","","","","","","","","","","","","","","","feedback_test","","","","","","","","",""
"775","","j","psychophysics","40","135280","0.0-8.0-0.0-1.0-0.0-0.15","7","7","7","7","7","5","5","5","5","5","5","2","2","2","2","2","2","2","2","5","5","5","5","5","5","5","5","5","5","8","8","8","8","7","7","8","9","8","7","6","7","7","7","7","7","1","7","7","1","7","7","7","7","7","7","7","7","6","7","7","7","7","7","7","7","7","7","7","7","7","6","7","7","7","7","7","7","6","7","633781445638225920","刘","357","Male","[""坏他"",""坏我"",""好他"",""好我""]","[""弱他"",""弱我"",""强他"",""强我""]","","","","","","","","match","","","","","","","","","","key","j","16.64905660377375","768","428","j","true","match","img/triangle.png","好我","好我","prac_ALT2_moral","practice_moral","","","","","","","","",""
"null","<span style='color:GreenYellow; font-size: 70px;'>正确! </span>","null","html-keyboard-response","41","135781","0.0-8.0-0.0-1.0-0.0-1.15","7","7","7","7","7","5","5","5","5","5","5","2","2","2","2","2","2","2","2","5","5","5","5","5","5","5","5","5","5","8","8","8","8","7","7","8","9","8","7","6","7","7","7","7","7","1","7","7","1","7","7","7","7","7","7","7","7","6","7","7","7","7","7","7","7","7","7","7","7","7","6","7","7","7","7","7","7","6","7","633781445638225920","刘","357","Male","[""坏他"",""坏我"",""好他"",""好我""]","[""弱他"",""弱我"",""强他"",""强我""]","","","","","","","","","","","","","","","","","","","","","","","","","","","","","","feedback_test","","","","","","","","",""
"482","","j","psychophysics","42","137265","0.0-8.0-0.0-1.0-0.0-0.16","7","7","7","7","7","5","5","5","5","5","5","2","2","2","2","2","2","2","2","5","5","5","5","5","5","5","5","5","5","8","8","8","8","7","7","8","9","8","7","6","7","7","7","7","7","1","7","7","1","7","7","7","7","7","7","7","7","6","7","7","7","7","7","7","7","7","7","7","7","7","6","7","7","7","7","7","7","6","7","633781445638225920","刘","357","Male","[""坏他"",""坏我"",""好他"",""好我""]","[""弱他"",""弱我"",""强他"",""强我""]","","","","","","","","match","","","","","","","","","","key","j","16.65227272727299","768","428","j","true","match","img/pentagon.png","好他","好他","prac_ALT2_moral","practice_moral","","","","","","","","",""
"null","<span style='color:GreenYellow; font-size: 70px;'>正确! </span>","null","html-keyboard-response","43","137766","0.0-8.0-0.0-1.0-0.0-1.16","7","7","7","7","7","5","5","5","5","5","5","2","2","2","2","2","2","2","2","5","5","5","5","5","5","5","5","5","5","8","8","8","8","7","7","8","9","8","7","6","7","7","7","7","7","1","7","7","1","7","7","7","7","7","7","7","7","6","7","7","7","7","7","7","7","7","7","7","7","7","6","7","7","7","7","7","7","6","7","633781445638225920","刘","357","Male","[""坏他"",""坏我"",""好他"",""好我""]","[""弱他"",""弱我"",""强他"",""强我""]","","","","","","","","","","","","","","","","","","","","","","","","","","","","","","feedback_test","","","","","","","","",""
"1041","","j","psychophysics","44","139809","0.0-8.0-0.0-1.0-0.0-0.17","7","7","7","7","7","5","5","5","5","5","5","2","2","2","2","2","2","2","2","5","5","5","5","5","5","5","5","5","5","8","8","8","8","7","7","8","9","8","7","6","7","7","7","7","7","1","7","7","1","7","7","7","7","7","7","7","7","6","7","7","7","7","7","7","7","7","7","7","7","7","6","7","7","7","7","7","7","6","7","633781445638225920","刘","357","Male","[""坏他"",""坏我"",""好他"",""好我""]","[""弱他"",""弱我"",""强他"",""强我""]","","","","","","","","match","","","","","","","","","","key","j","16.649999999999906","768","428","j","true","match","img/square.png","坏他","坏他","prac_ALT2_moral","practice_moral","","","","","","","","",""
"null","<span style='color:GreenYellow; font-size: 70px;'>正确! </span>","null","html-keyboard-response","45","140311","0.0-8.0-0.0-1.0-0.0-1.17","7","7","7","7","7","5","5","5","5","5","5","2","2","2","2","2","2","2","2","5","5","5","5","5","5","5","5","5","5","8","8","8","8","7","7","8","9","8","7","6","7","7","7","7","7","1","7","7","1","7","7","7","7","7","7","7","7","6","7","7","7","7","7","7","7","7","7","7","7","7","6","7","7","7","7","7","7","6","7","633781445638225920","刘","357","Male","[""坏他"",""坏我"",""好他"",""好我""]","[""弱他"",""弱我"",""强他"",""强我""]","","","","","","","","","","","","","","","","","","","","","","","","","","","","","","feedback_test","","","","","","","","",""
"400","","j","psychophysics","46","141714","0.0-8.0-0.0-1.0-0.0-0.18","7","7","7","7","7","5","5","5","5","5","5","2","2","2","2","2","2","2","2","5","5","5","5","5","5","5","5","5","5","8","8","8","8","7","7","8","9","8","7","6","7","7","7","7","7","1","7","7","1","7","7","7","7","7","7","7","7","6","7","7","7","7","7","7","7","7","7","7","7","7","6","7","7","7","7","7","7","6","7","633781445638225920","刘","357","Male","[""坏他"",""坏我"",""好他"",""好我""]","[""弱他"",""弱我"",""强他"",""强我""]","","","","","","","","match","","","","","","","","","","key","j","16.651807228915732","768","428","f","false","nonmatch","img/square.png","好我","坏他","prac_ALT2_moral","practice_moral","","","","","","","","",""
"null","<span style='color:red; font-size: 70px;'>错误! </span>","null","html-keyboard-response","47","142216","0.0-8.0-0.0-1.0-0.0-1.18","7","7","7","7","7","5","5","5","5","5","5","2","2","2","2","2","2","2","2","5","5","5","5","5","5","5","5","5","5","8","8","8","8","7","7","8","9","8","7","6","7","7","7","7","7","1","7","7","1","7","7","7","7","7","7","7","7","6","7","7","7","7","7","7","7","7","7","7","7","7","6","7","7","7","7","7","7","6","7","633781445638225920","刘","357","Male","[""坏他"",""坏我"",""好他"",""好我""]","[""弱他"",""弱我"",""强他"",""强我""]","","","","","","","","","","","","","","","","","","","","","","","","","","","","","","feedback_test","","","","","","","","",""
"847","","f","psychophysics","48","144064","0.0-8.0-0.0-1.0-0.0-0.19","7","7","7","7","7","5","5","5","5","5","5","2","2","2","2","2","2","2","2","5","5","5","5","5","5","5","5","5","5","8","8","8","8","7","7","8","9","8","7","6","7","7","7","7","7","1","7","7","1","7","7","7","7","7","7","7","7","6","7","7","7","7","7","7","7","7","7","7","7","7","6","7","7","7","7","7","7","6","7","633781445638225920","刘","357","Male","[""坏他"",""坏我"",""好他"",""好我""]","[""弱他"",""弱我"",""强他"",""强我""]","","","","","","","","nonmatch","","","","","","","","","","key","f","16.651818181818022","768","428","f","true","nonmatch","img/circle.png","好我","坏我","prac_ALT2_moral","practice_moral","","","","","","","","",""
"null","<span style='color:GreenYellow; font-size: 70px;'>正确! </span>","null","html-keyboard-response","49","144565","0.0-8.0-0.0-1.0-0.0-1.19","7","7","7","7","7","5","5","5","5","5","5","2","2","2","2","2","2","2","2","5","5","5","5","5","5","5","5","5","5","8","8","8","8","7","7","8","9","8","7","6","7","7","7","7","7","1","7","7","1","7","7","7","7","7","7","7","7","6","7","7","7","7","7","7","7","7","7","7","7","7","6","7","7","7","7","7","7","6","7","633781445638225920","刘","357","Male","[""坏他"",""坏我"",""好他"",""好我""]","[""弱他"",""弱我"",""强他"",""强我""]","","","","","","","","","","","","","","","","","","","","","","","","","","","","","","feedback_test","","","","","","","","",""
"538","","j","psychophysics","50","146104","0.0-8.0-0.0-1.0-0.0-0.20","7","7","7","7","7","5","5","5","5","5","5","2","2","2","2","2","2","2","2","5","5","5","5","5","5","5","5","5","5","8","8","8","8","7","7","8","9","8","7","6","7","7","7","7","7","1","7","7","1","7","7","7","7","7","7","7","7","6","7","7","7","7","7","7","7","7","7","7","7","7","6","7","7","7","7","7","7","6","7","633781445638225920","刘","357","Male","[""坏他"",""坏我"",""好他"",""好我""]","[""弱他"",""弱我"",""强他"",""强我""]","","","","","","","","match","","","","","","","","","","key","j","16.65054945054958","768","428","j","true","match","img/circle.png","坏我","坏我","prac_ALT2_moral","practice_moral","","","","","","","","",""
"null","<span style='color:GreenYellow; font-size: 70px;'>正确! </span>","null","html-keyboard-response","51","146604","0.0-8.0-0.0-1.0-0.0-1.20","7","7","7","7","7","5","5","5","5","5","5","2","2","2","2","2","2","2","2","5","5","5","5","5","5","5","5","5","5","8","8","8","8","7","7","8","9","8","7","6","7","7","7","7","7","1","7","7","1","7","7","7","7","7","7","7","7","6","7","7","7","7","7","7","7","7","7","7","7","7","6","7","7","7","7","7","7","6","7","633781445638225920","刘","357","Male","[""坏他"",""坏我"",""好他"",""好我""]","[""弱他"",""弱我"",""强他"",""强我""]","","","","","","","","","","","","","","","","","","","","","","","","","","","","","","feedback_test","","","","","","","","",""
"521","","j","psychophysics","52","148128","0.0-8.0-0.0-1.0-0.0-0.21","7","7","7","7","7","5","5","5","5","5","5","2","2","2","2","2","2","2","2","5","5","5","5","5","5","5","5","5","5","8","8","8","8","7","7","8","9","8","7","6","7","7","7","7","7","1","7","7","1","7","7","7","7","7","7","7","7","6","7","7","7","7","7","7","7","7","7","7","7","7","6","7","7","7","7","7","7","6","7","633781445638225920","刘","357","Male","[""坏他"",""坏我"",""好他"",""好我""]","[""弱他"",""弱我"",""强他"",""强我""]","","","","","","","","match","","","","","","","","","","key","j","16.654444444444703","768","428","j","true","match","img/circle.png","坏我","坏我","prac_ALT2_moral","practice_moral","","","","","","","","",""
"null","<span style='color:GreenYellow; font-size: 70px;'>正确! </span>","null","html-keyboard-response","53","148629","0.0-8.0-0.0-1.0-0.0-1.21","7","7","7","7","7","5","5","5","5","5","5","2","2","2","2","2","2","2","2","5","5","5","5","5","5","5","5","5","5","8","8","8","8","7","7","8","9","8","7","6","7","7","7","7","7","1","7","7","1","7","7","7","7","7","7","7","7","6","7","7","7","7","7","7","7","7","7","7","7","7","6","7","7","7","7","7","7","6","7","633781445638225920","刘","357","Male","[""坏他"",""坏我"",""好他"",""好我""]","[""弱他"",""弱我"",""强他"",""强我""]","","","","","","","","","","","","","","","","","","","","","","","","","","","","","","feedback_test","","","","","","","","",""
"1009","","j","psychophysics","54","150640","0.0-8.0-0.0-1.0-0.0-0.22","7","7","7","7","7","5","5","5","5","5","5","2","2","2","2","2","2","2","2","5","5","5","5","5","5","5","5","5","5","8","8","8","8","7","7","8","9","8","7","6","7","7","7","7","7","1","7","7","1","7","7","7","7","7","7","7","7","6","7","7","7","7","7","7","7","7","7","7","7","7","6","7","7","7","7","7","7","6","7","633781445638225920","刘","357","Male","[""坏他"",""坏我"",""好他"",""好我""]","[""弱他"",""弱我"",""强他"",""强我""]","","","","","","","","match","","","","","","","","","","key","j","16.652100840336182","768","428","f","false","nonmatch","img/triangle.png","好他","好我","prac_ALT2_moral","practice_moral","","","","","","","","",""
"null","<span style='color:red; font-size: 70px;'>错误! </span>","null","html-keyboard-response","55","151142","0.0-8.0-0.0-1.0-0.0-1.22","7","7","7","7","7","5","5","5","5","5","5","2","2","2","2","2","2","2","2","5","5","5","5","5","5","5","5","5","5","8","8","8","8","7","7","8","9","8","7","6","7","7","7","7","7","1","7","7","1","7","7","7","7","7","7","7","7","6","7","7","7","7","7","7","7","7","7","7","7","7","6","7","7","7","7","7","7","6","7","633781445638225920","刘","357","Male","[""坏他"",""坏我"",""好他"",""好我""]","[""弱他"",""弱我"",""强他"",""强我""]","","","","","","","","","","","","","","","","","","","","","","","","","","","","","","feedback_test","","","","","","","","",""
"801","","j","psychophysics","56","152945","0.0-8.0-0.0-1.0-0.0-0.23","7","7","7","7","7","5","5","5","5","5","5","2","2","2","2","2","2","2","2","5","5","5","5","5","5","5","5","5","5","8","8","8","8","7","7","8","9","8","7","6","7","7","7","7","7","1","7","7","1","7","7","7","7","7","7","7","7","6","7","7","7","7","7","7","7","7","7","7","7","7","6","7","7","7","7","7","7","6","7","633781445638225920","刘","357","Male","[""坏他"",""坏我"",""好他"",""好我""]","[""弱他"",""弱我"",""强他"",""强我""]","","","","","","","","match","","","","","","","","","","key","j","16.64485981308411","768","428","j","true","match","img/triangle.png","好我","好我","prac_ALT2_moral","practice_moral","","","","","","","","",""
"null","<span style='color:GreenYellow; font-size: 70px;'>正确! </span>","null","html-keyboard-response","57","153446","0.0-8.0-0.0-1.0-0.0-1.23","7","7","7","7","7","5","5","5","5","5","5","2","2","2","2","2","2","2","2","5","5","5","5","5","5","5","5","5","5","8","8","8","8","7","7","8","9","8","7","6","7","7","7","7","7","1","7","7","1","7","7","7","7","7","7","7","7","6","7","7","7","7","7","7","7","7","7","7","7","7","6","7","7","7","7","7","7","6","7","633781445638225920","刘","357","Male","[""坏他"",""坏我"",""好他"",""好我""]","[""弱他"",""弱我"",""强他"",""强我""]","","","","","","","","","","","","","","","","","","","","","","","","","","","","","","feedback_test","","","","","","","","",""
"909","","f","psychophysics","58","155360","0.0-8.0-0.0-1.0-0.0-0.24","7","7","7","7","7","5","5","5","5","5","5","2","2","2","2","2","2","2","2","5","5","5","5","5","5","5","5","5","5","8","8","8","8","7","7","8","9","8","7","6","7","7","7","7","7","1","7","7","1","7","7","7","7","7","7","7","7","6","7","7","7","7","7","7","7","7","7","7","7","7","6","7","7","7","7","7","7","6","7","633781445638225920","刘","357","Male","[""坏他"",""坏我"",""好他"",""好我""]","[""弱他"",""弱我"",""强他"",""强我""]","","","","","","","","nonmatch","","","","","","","","","","key","f","16.652631578947318","768","428","f","true","nonmatch","img/square.png","坏我","坏他","prac_ALT2_moral","practice_moral","","","","","","","","",""
"null","<span style='color:GreenYellow; font-size: 70px;'>正确! </span>","null","html-keyboard-response","59","155861","0.0-8.0-0.0-1.0-0.0-1.24","7","7","7","7","7","5","5","5","5","5","5","2","2","2","2","2","2","2","2","5","5","5","5","5","5","5","5","5","5","8","8","8","8","7","7","8","9","8","7","6","7","7","7","7","7","1","7","7","1","7","7","7","7","7","7","7","7","6","7","7","7","7","7","7","7","7","7","7","7","7","6","7","7","7","7","7","7","6","7","633781445638225920","刘","357","Male","[""坏他"",""坏我"",""好他"",""好我""]","[""弱他"",""弱我"",""强他"",""强我""]","","","","","","","","","","","","","","","","","","","","","","","","","","","","","","feedback_test","","","","","","","","",""
"585","","j","psychophysics","60","157448","0.0-8.0-0.0-1.0-0.0-0.25","7","7","7","7","7","5","5","5","5","5","5","2","2","2","2","2","2","2","2","5","5","5","5","5","5","5","5","5","5","8","8","8","8","7","7","8","9","8","7","6","7","7","7","7","7","1","7","7","1","7","7","7","7","7","7","7","7","6","7","7","7","7","7","7","7","7","7","7","7","7","6","7","7","7","7","7","7","6","7","633781445638225920","刘","357","Male","[""坏他"",""坏我"",""好他"",""好我""]","[""弱他"",""弱我"",""强他"",""强我""]","","","","","","","","match","","","","","","","","","","key","j","16.654255319148938","768","428","j","true","match","img/square.png","坏他","坏他","prac_ALT2_moral","practice_moral","","","","","","","","",""
"null","<span style='color:GreenYellow; font-size: 70px;'>正确! </span>","null","html-keyboard-response","61","157949","0.0-8.0-0.0-1.0-0.0-1.25","7","7","7","7","7","5","5","5","5","5","5","2","2","2","2","2","2","2","2","5","5","5","5","5","5","5","5","5","5","8","8","8","8","7","7","8","9","8","7","6","7","7","7","7","7","1","7","7","1","7","7","7","7","7","7","7","7","6","7","7","7","7","7","7","7","7","7","7","7","7","6","7","7","7","7","7","7","6","7","633781445638225920","刘","357","Male","[""坏他"",""坏我"",""好他"",""好我""]","[""弱他"",""弱我"",""强他"",""强我""]","","","","","","","","","","","","","","","","","","","","","","","","","","","","","","feedback_test","","","","","","","","",""
"713","","j","psychophysics","62","159664","0.0-8.0-0.0-1.0-0.0-0.26","7","7","7","7","7","5","5","5","5","5","5","2","2","2","2","2","2","2","2","5","5","5","5","5","5","5","5","5","5","8","8","8","8","7","7","8","9","8","7","6","7","7","7","7","7","1","7","7","1","7","7","7","7","7","7","7","7","6","7","7","7","7","7","7","7","7","7","7","7","7","6","7","7","7","7","7","7","6","7","633781445638225920","刘","357","Male","[""坏他"",""坏我"",""好他"",""好我""]","[""弱他"",""弱我"",""强他"",""强我""]","","","","","","","","match","","","","","","","","","","key","j","16.650980392156807","768","428","j","true","match","img/circle.png","坏我","坏我","prac_ALT2_moral","practice_moral","","","","","","","","",""
"null","<span style='color:GreenYellow; font-size: 70px;'>正确! </span>","null","html-keyboard-response","63","160165","0.0-8.0-0.0-1.0-0.0-1.26","7","7","7","7","7","5","5","5","5","5","5","2","2","2","2","2","2","2","2","5","5","5","5","5","5","5","5","5","5","8","8","8","8","7","7","8","9","8","7","6","7","7","7","7","7","1","7","7","1","7","7","7","7","7","7","7","7","6","7","7","7","7","7","7","7","7","7","7","7","7","6","7","7","7","7","7","7","6","7","633781445638225920","刘","357","Male","[""坏他"",""坏我"",""好他"",""好我""]","[""弱他"",""弱我"",""强他"",""强我""]","","","","","","","","","","","","","","","","","","","","","","","","","","","","","","feedback_test","","","","","","","","",""
"834","","f","psychophysics","64","162000","0.0-8.0-0.0-1.0-0.0-0.27","7","7","7","7","7","5","5","5","5","5","5","2","2","2","2","2","2","2","2","5","5","5","5","5","5","5","5","5","5","8","8","8","8","7","7","8","9","8","7","6","7","7","7","7","7","1","7","7","1","7","7","7","7","7","7","7","7","6","7","7","7","7","7","7","7","7","7","7","7","7","6","7","7","7","7","7","7","6","7","633781445638225920","刘","357","Male","[""坏他"",""坏我"",""好他"",""好我""]","[""弱他"",""弱我"",""强他"",""强我""]","","","","","","","","nonmatch","","","","","","","","","","key","f","16.65504587155958","768","428","f","true","nonmatch","img/triangle.png","坏他","好我","prac_ALT2_moral","practice_moral","","","","","","","","",""
"null","<span style='color:GreenYellow; font-size: 70px;'>正确! </span>","null","html-keyboard-response","65","162501","0.0-8.0-0.0-1.0-0.0-1.27","7","7","7","7","7","5","5","5","5","5","5","2","2","2","2","2","2","2","2","5","5","5","5","5","5","5","5","5","5","8","8","8","8","7","7","8","9","8","7","6","7","7","7","7","7","1","7","7","1","7","7","7","7","7","7","7","7","6","7","7","7","7","7","7","7","7","7","7","7","7","6","7","7","7","7","7","7","6","7","633781445638225920","刘","357","Male","[""坏他"",""坏我"",""好他"",""好我""]","[""弱他"",""弱我"",""强他"",""强我""]","","","","","","","","","","","","","","","","","","","","","","","","","","","","","","feedback_test","","","","","","","","",""
"625","","j","psychophysics","66","164128","0.0-8.0-0.0-1.0-0.0-0.28","7","7","7","7","7","5","5","5","5","5","5","2","2","2","2","2","2","2","2","5","5","5","5","5","5","5","5","5","5","8","8","8","8","7","7","8","9","8","7","6","7","7","7","7","7","1","7","7","1","7","7","7","7","7","7","7","7","6","7","7","7","7","7","7","7","7","7","7","7","7","6","7","7","7","7","7","7","6","7","633781445638225920","刘","357","Male","[""坏他"",""坏我"",""好他"",""好我""]","[""弱他"",""弱我"",""强他"",""强我""]","","","","","","","","match","","","","","","","","","","key","j","16.65312500000012","768","428","j","true","match","img/circle.png","坏我","坏我","prac_ALT2_moral","practice_moral","","","","","","","","",""
"null","<span style='color:GreenYellow; font-size: 70px;'>正确! </span>","null","html-keyboard-response","67","164629","0.0-8.0-0.0-1.0-0.0-1.28","7","7","7","7","7","5","5","5","5","5","5","2","2","2","2","2","2","2","2","5","5","5","5","5","5","5","5","5","5","8","8","8","8","7","7","8","9","8","7","6","7","7","7","7","7","1","7","7","1","7","7","7","7","7","7","7","7","6","7","7","7","7","7","7","7","7","7","7","7","7","6","7","7","7","7","7","7","6","7","633781445638225920","刘","357","Male","[""坏他"",""坏我"",""好他"",""好我""]","[""弱他"",""弱我"",""强他"",""强我""]","","","","","","","","","","","","","","","","","","","","","","","","","","","","","","feedback_test","","","","","","","","",""
"905","","f","psychophysics","68","166536","0.0-8.0-0.0-1.0-0.0-0.29","7","7","7","7","7","5","5","5","5","5","5","2","2","2","2","2","2","2","2","5","5","5","5","5","5","5","5","5","5","8","8","8","8","7","7","8","9","8","7","6","7","7","7","7","7","1","7","7","1","7","7","7","7","7","7","7","7","6","7","7","7","7","7","7","7","7","7","7","7","7","6","7","7","7","7","7","7","6","7","633781445638225920","刘","357","Male","[""坏他"",""坏我"",""好他"",""好我""]","[""弱他"",""弱我"",""强他"",""强我""]","","","","","","","","nonmatch","","","","","","","","","","key","f","16.648245614035037","768","428","f","true","nonmatch","img/circle.png","好他","坏我","prac_ALT2_moral","practice_moral","","","","","","","","",""
"null","<span style='color:GreenYellow; font-size: 70px;'>正确! </span>","null","html-keyboard-response","69","167037","0.0-8.0-0.0-1.0-0.0-1.29","7","7","7","7","7","5","5","5","5","5","5","2","2","2","2","2","2","2","2","5","5","5","5","5","5","5","5","5","5","8","8","8","8","7","7","8","9","8","7","6","7","7","7","7","7","1","7","7","1","7","7","7","7","7","7","7","7","6","7","7","7","7","7","7","7","7","7","7","7","7","6","7","7","7","7","7","7","6","7","633781445638225920","刘","357","Male","[""坏他"",""坏我"",""好他"",""好我""]","[""弱他"",""弱我"",""强他"",""强我""]","","","","","","","","","","","","","","","","","","","","","","","","","","","","","","feedback_test","","","","","","","","",""
"744","","j","psychophysics","70","168784","0.0-8.0-0.0-1.0-0.0-0.30","7","7","7","7","7","5","5","5","5","5","5","2","2","2","2","2","2","2","2","5","5","5","5","5","5","5","5","5","5","8","8","8","8","7","7","8","9","8","7","6","7","7","7","7","7","1","7","7","1","7","7","7","7","7","7","7","7","6","7","7","7","7","7","7","7","7","7","7","7","7","6","7","7","7","7","7","7","6","7","633781445638225920","刘","357","Male","[""坏他"",""坏我"",""好他"",""好我""]","[""弱他"",""弱我"",""强他"",""强我""]","","","","","","","","match","","","","","","","","","","key","j","16.650000000000055","768","428","j","true","match","img/pentagon.png","好他","好他","prac_ALT2_moral","practice_moral","","","","","","","","",""
"null","<span style='color:GreenYellow; font-size: 70px;'>正确! </span>","null","html-keyboard-response","71","169285","0.0-8.0-0.0-1.0-0.0-1.30","7","7","7","7","7","5","5","5","5","5","5","2","2","2","2","2","2","2","2","5","5","5","5","5","5","5","5","5","5","8","8","8","8","7","7","8","9","8","7","6","7","7","7","7","7","1","7","7","1","7","7","7","7","7","7","7","7","6","7","7","7","7","7","7","7","7","7","7","7","7","6","7","7","7","7","7","7","6","7","633781445638225920","刘","357","Male","[""坏他"",""坏我"",""好他"",""好我""]","[""弱他"",""弱我"",""强他"",""强我""]","","","","","","","","","","","","","","","","","","","","","","","","","","","","","","feedback_test","","","","","","","","",""
"673","","f","psychophysics","72","170960","0.0-8.0-0.0-1.0-0.0-0.31","7","7","7","7","7","5","5","5","5","5","5","2","2","2","2","2","2","2","2","5","5","5","5","5","5","5","5","5","5","8","8","8","8","7","7","8","9","8","7","6","7","7","7","7","7","1","7","7","1","7","7","7","7","7","7","7","7","6","7","7","7","7","7","7","7","7","7","7","7","7","6","7","7","7","7","7","7","6","7","633781445638225920","刘","357","Male","[""坏他"",""坏我"",""好他"",""好我""]","[""弱他"",""弱我"",""强他"",""强我""]","","","","","","","","nonmatch","","","","","","","","","","key","f","16.652000000000115","768","428","f","true","nonmatch","img/circle.png","坏他","坏我","prac_ALT2_moral","practice_moral","","","","","","","","",""
"null","<span style='color:GreenYellow; font-size: 70px;'>正确! </span>","null","html-keyboard-response","73","171462","0.0-8.0-0.0-1.0-0.0-1.31","7","7","7","7","7","5","5","5","5","5","5","2","2","2","2","2","2","2","2","5","5","5","5","5","5","5","5","5","5","8","8","8","8","7","7","8","9","8","7","6","7","7","7","7","7","1","7","7","1","7","7","7","7","7","7","7","7","6","7","7","7","7","7","7","7","7","7","7","7","7","6","7","7","7","7","7","7","6","7","633781445638225920","刘","357","Male","[""坏他"",""坏我"",""好他"",""好我""]","[""弱他"",""弱我"",""强他"",""强我""]","","","","","","","","","","","","","","","","","","","","","","","","","","","","","","feedback_test","","","","","","","","",""
"695","","j","psychophysics","74","173160","0.0-8.0-0.0-1.0-0.0-0.32","7","7","7","7","7","5","5","5","5","5","5","2","2","2","2","2","2","2","2","5","5","5","5","5","5","5","5","5","5","8","8","8","8","7","7","8","9","8","7","6","7","7","7","7","7","1","7","7","1","7","7","7","7","7","7","7","7","6","7","7","7","7","7","7","7","7","7","7","7","7","6","7","7","7","7","7","7","6","7","633781445638225920","刘","357","Male","[""坏他"",""坏我"",""好他"",""好我""]","[""弱他"",""弱我"",""强他"",""强我""]","","","","","","","","match","","","","","","","","","","key","j","16.650495049504777","768","428","f","false","nonmatch","img/circle.png","好我","坏我","prac_ALT2_moral","practice_moral","","","","","","","","",""
"null","<span style='color:red; font-size: 70px;'>错误! </span>","null","html-keyboard-response","75","173661","0.0-8.0-0.0-1.0-0.0-1.32","7","7","7","7","7","5","5","5","5","5","5","2","2","2","2","2","2","2","2","5","5","5","5","5","5","5","5","5","5","8","8","8","8","7","7","8","9","8","7","6","7","7","7","7","7","1","7","7","1","7","7","7","7","7","7","7","7","6","7","7","7","7","7","7","7","7","7","7","7","7","6","7","7","7","7","7","7","6","7","633781445638225920","刘","357","Male","[""坏他"",""坏我"",""好他"",""好我""]","[""弱他"",""弱我"",""强他"",""强我""]","","","","","","","","","","","","","","","","","","","","","","","","","","","","","","feedback_test","","","","","","","","",""
"857","","j","psychophysics","76","175520","0.0-8.0-0.0-1.0-0.0-0.33","7","7","7","7","7","5","5","5","5","5","5","2","2","2","2","2","2","2","2","5","5","5","5","5","5","5","5","5","5","8","8","8","8","7","7","8","9","8","7","6","7","7","7","7","7","1","7","7","1","7","7","7","7","7","7","7","7","6","7","7","7","7","7","7","7","7","7","7","7","7","6","7","7","7","7","7","7","6","7","633781445638225920","刘","357","Male","[""坏他"",""坏我"",""好他"",""好我""]","[""弱他"",""弱我"",""强他"",""强我""]","","","","","","","","match","","","","","","","","","","key","j","16.64818181818198","768","428","j","true","match","img/triangle.png","好我","好我","prac_ALT2_moral","practice_moral","","","","","","","","",""
"null","<span style='color:GreenYellow; font-size: 70px;'>正确! </span>","null","html-keyboard-response","77","176022","0.0-8.0-0.0-1.0-0.0-1.33","7","7","7","7","7","5","5","5","5","5","5","2","2","2","2","2","2","2","2","5","5","5","5","5","5","5","5","5","5","8","8","8","8","7","7","8","9","8","7","6","7","7","7","7","7","1","7","7","1","7","7","7","7","7","7","7","7","6","7","7","7","7","7","7","7","7","7","7","7","7","6","7","7","7","7","7","7","6","7","633781445638225920","刘","357","Male","[""坏他"",""坏我"",""好他"",""好我""]","[""弱他"",""弱我"",""强他"",""强我""]","","","","","","","","","","","","","","","","","","","","","","","","","","","","","","feedback_test","","","","","","","","",""
"678","","j","psychophysics","78","177704","0.0-8.0-0.0-1.0-0.0-0.34","7","7","7","7","7","5","5","5","5","5","5","2","2","2","2","2","2","2","2","5","5","5","5","5","5","5","5","5","5","8","8","8","8","7","7","8","9","8","7","6","7","7","7","7","7","1","7","7","1","7","7","7","7","7","7","7","7","6","7","7","7","7","7","7","7","7","7","7","7","7","6","7","7","7","7","7","7","6","7","633781445638225920","刘","357","Male","[""坏他"",""坏我"",""好他"",""好我""]","[""弱他"",""弱我"",""强他"",""强我""]","","","","","","","","match","","","","","","","","","","key","j","16.651000000000057","768","428","j","true","match","img/pentagon.png","好他","好他","prac_ALT2_moral","practice_moral","","","","","","","","",""
"null","<span style='color:GreenYellow; font-size: 70px;'>正确! </span>","null","html-keyboard-response","79","178205","0.0-8.0-0.0-1.0-0.0-1.34","7","7","7","7","7","5","5","5","5","5","5","2","2","2","2","2","2","2","2","5","5","5","5","5","5","5","5","5","5","8","8","8","8","7","7","8","9","8","7","6","7","7","7","7","7","1","7","7","1","7","7","7","7","7","7","7","7","6","7","7","7","7","7","7","7","7","7","7","7","7","6","7","7","7","7","7","7","6","7","633781445638225920","刘","357","Male","[""坏他"",""坏我"",""好他"",""好我""]","[""弱他"",""弱我"",""强他"",""强我""]","","","","","","","","","","","","","","","","","","","","","","","","","","","","","","feedback_test","","","","","","","","",""
"920","","f","psychophysics","80","180128","0.0-8.0-0.0-1.0-0.0-0.35","7","7","7","7","7","5","5","5","5","5","5","2","2","2","2","2","2","2","2","5","5","5","5","5","5","5","5","5","5","8","8","8","8","7","7","8","9","8","7","6","7","7","7","7","7","1","7","7","1","7","7","7","7","7","7","7","7","6","7","7","7","7","7","7","7","7","7","7","7","7","6","7","7","7","7","7","7","6","7","633781445638225920","刘","357","Male","[""坏他"",""坏我"",""好他"",""好我""]","[""弱他"",""弱我"",""强他"",""强我""]","","","","","","","","nonmatch","","","","","","","","","","key","f","16.65087719298256","768","428","f","true","nonmatch","img/pentagon.png","坏我","好他","prac_ALT2_moral","practice_moral","","","","","","","","",""
"null","<span style='color:GreenYellow; font-size: 70px;'>正确! </span>","null","html-keyboard-response","81","180630","0.0-8.0-0.0-1.0-0.0-1.35","7","7","7","7","7","5","5","5","5","5","5","2","2","2","2","2","2","2","2","5","5","5","5","5","5","5","5","5","5","8","8","8","8","7","7","8","9","8","7","6","7","7","7","7","7","1","7","7","1","7","7","7","7","7","7","7","7","6","7","7","7","7","7","7","7","7","7","7","7","7","6","7","7","7","7","7","7","6","7","633781445638225920","刘","357","Male","[""坏他"",""坏我"",""好他"",""好我""]","[""弱他"",""弱我"",""强他"",""强我""]","","","","","","","","","","","","","","","","","","","","","","","","","","","","","","feedback_test","","","","","","","","",""
"887","","f","psychophysics","82","182520","0.0-8.0-0.0-1.0-0.0-0.36","7","7","7","7","7","5","5","5","5","5","5","2","2","2","2","2","2","2","2","5","5","5","5","5","5","5","5","5","5","8","8","8","8","7","7","8","9","8","7","6","7","7","7","7","7","1","7","7","1","7","7","7","7","7","7","7","7","6","7","7","7","7","7","7","7","7","7","7","7","7","6","7","7","7","7","7","7","6","7","633781445638225920","刘","357","Male","[""坏他"",""坏我"",""好他"",""好我""]","[""弱他"",""弱我"",""强他"",""强我""]","","","","","","","","nonmatch","","","","","","","","","","key","f","16.6530973451329","768","428","f","true","nonmatch","img/square.png","好我","坏他","prac_ALT2_moral","practice_moral","","","","","","","","",""
"null","<span style='color:GreenYellow; font-size: 70px;'>正确! </span>","null","html-keyboard-response","83","183022","0.0-8.0-0.0-1.0-0.0-1.36","7","7","7","7","7","5","5","5","5","5","5","2","2","2","2","2","2","2","2","5","5","5","5","5","5","5","5","5","5","8","8","8","8","7","7","8","9","8","7","6","7","7","7","7","7","1","7","7","1","7","7","7","7","7","7","7","7","6","7","7","7","7","7","7","7","7","7","7","7","7","6","7","7","7","7","7","7","6","7","633781445638225920","刘","357","Male","[""坏他"",""坏我"",""好他"",""好我""]","[""弱他"",""弱我"",""强他"",""强我""]","","","","","","","","","","","","","","","","","","","","","","","","","","","","","","feedback_test","","","","","","","","",""
"1048","","f","psychophysics","84","185072","0.0-8.0-0.0-1.0-0.0-0.37","7","7","7","7","7","5","5","5","5","5","5","2","2","2","2","2","2","2","2","5","5","5","5","5","5","5","5","5","5","8","8","8","8","7","7","8","9","8","7","6","7","7","7","7","7","1","7","7","1","7","7","7","7","7","7","7","7","6","7","7","7","7","7","7","7","7","7","7","7","7","6","7","7","7","7","7","7","6","7","633781445638225920","刘","357","Male","[""坏他"",""坏我"",""好他"",""好我""]","[""弱他"",""弱我"",""强他"",""强我""]","","","","","","","","nonmatch","","","","","","","","","","key","f","16.651639344262296","768","428","j","false","match","img/triangle.png","好我","好我","prac_ALT2_moral","practice_moral","","","","","","","","",""
"null","<span style='color:red; font-size: 70px;'>错误! </span>","null","html-keyboard-response","85","185573","0.0-8.0-0.0-1.0-0.0-1.37","7","7","7","7","7","5","5","5","5","5","5","2","2","2","2","2","2","2","2","5","5","5","5","5","5","5","5","5","5","8","8","8","8","7","7","8","9","8","7","6","7","7","7","7","7","1","7","7","1","7","7","7","7","7","7","7","7","6","7","7","7","7","7","7","7","7","7","7","7","7","6","7","7","7","7","7","7","6","7","633781445638225920","刘","357","Male","[""坏他"",""坏我"",""好他"",""好我""]","[""弱他"",""弱我"",""强他"",""强我""]","","","","","","","","","","","","","","","","","","","","","","","","","","","","","","feedback_test","","","","","","","","",""
"682","","j","psychophysics","86","187258","0.0-8.0-0.0-1.0-0.0-0.38","7","7","7","7","7","5","5","5","5","5","5","2","2","2","2","2","2","2","2","5","5","5","5","5","5","5","5","5","5","8","8","8","8","7","7","8","9","8","7","6","7","7","7","7","7","1","7","7","1","7","7","7","7","7","7","7","7","6","7","7","7","7","7","7","7","7","7","7","7","7","6","7","7","7","7","7","7","6","7","633781445638225920","刘","357","Male","[""坏他"",""坏我"",""好他"",""好我""]","[""弱他"",""弱我"",""强他"",""强我""]","","","","","","","","match","","","","","","","","","","key","j","16.651999999999827","768","428","j","true","match","img/square.png","坏他","坏他","prac_ALT2_moral","practice_moral","","","","","","","","",""
"null","<span style='color:GreenYellow; font-size: 70px;'>正确! </span>","null","html-keyboard-response","87","187759","0.0-8.0-0.0-1.0-0.0-1.38","7","7","7","7","7","5","5","5","5","5","5","2","2","2","2","2","2","2","2","5","5","5","5","5","5","5","5","5","5","8","8","8","8","7","7","8","9","8","7","6","7","7","7","7","7","1","7","7","1","7","7","7","7","7","7","7","7","6","7","7","7","7","7","7","7","7","7","7","7","7","6","7","7","7","7","7","7","6","7","633781445638225920","刘","357","Male","[""坏他"",""坏我"",""好他"",""好我""]","[""弱他"",""弱我"",""强他"",""强我""]","","","","","","","","","","","","","","","","","","","","","","","","","","","","","","feedback_test","","","","","","","","",""
"743","","j","psychophysics","88","189504","0.0-8.0-0.0-1.0-0.0-0.39","7","7","7","7","7","5","5","5","5","5","5","2","2","2","2","2","2","2","2","5","5","5","5","5","5","5","5","5","5","8","8","8","8","7","7","8","9","8","7","6","7","7","7","7","7","1","7","7","1","7","7","7","7","7","7","7","7","6","7","7","7","7","7","7","7","7","7","7","7","7","6","7","7","7","7","7","7","6","7","633781445638225920","刘","357","Male","[""坏他"",""坏我"",""好他"",""好我""]","[""弱他"",""弱我"",""强他"",""强我""]","","","","","","","","match","","","","","","","","","","key","j","16.64757281553381","768","428","j","true","match","img/square.png","坏他","坏他","prac_ALT2_moral","practice_moral","","","","","","","","",""
"null","<span style='color:GreenYellow; font-size: 70px;'>正确! </span>","null","html-keyboard-response","89","190005","0.0-8.0-0.0-1.0-0.0-1.39","7","7","7","7","7","5","5","5","5","5","5","2","2","2","2","2","2","2","2","5","5","5","5","5","5","5","5","5","5","8","8","8","8","7","7","8","9","8","7","6","7","7","7","7","7","1","7","7","1","7","7","7","7","7","7","7","7","6","7","7","7","7","7","7","7","7","7","7","7","7","6","7","7","7","7","7","7","6","7","633781445638225920","刘","357","Male","[""坏他"",""坏我"",""好他"",""好我""]","[""弱他"",""弱我"",""强他"",""强我""]","","","","","","","","","","","","","","","","","","","","","","","","","","","","","","feedback_test","","","","","","","","",""
"904","","f","psychophysics","90","191912","0.0-8.0-0.0-1.0-0.0-0.40","7","7","7","7","7","5","5","5","5","5","5","2","2","2","2","2","2","2","2","5","5","5","5","5","5","5","5","5","5","8","8","8","8","7","7","8","9","8","7","6","7","7","7","7","7","1","7","7","1","7","7","7","7","7","7","7","7","6","7","7","7","7","7","7","7","7","7","7","7","7","6","7","7","7","7","7","7","6","7","633781445638225920","刘","357","Male","[""坏他"",""坏我"",""好他"",""好我""]","[""弱他"",""弱我"",""强他"",""强我""]","","","","","","","","nonmatch","","","","","","","","","","key","f","16.65087719298256","768","428","f","true","nonmatch","img/triangle.png","坏我","好我","prac_ALT2_moral","practice_moral","","","","","","","","",""
"null","<span style='color:GreenYellow; font-size: 70px;'>正确! </span>","null","html-keyboard-response","91","192414","0.0-8.0-0.0-1.0-0.0-1.40","7","7","7","7","7","5","5","5","5","5","5","2","2","2","2","2","2","2","2","5","5","5","5","5","5","5","5","5","5","8","8","8","8","7","7","8","9","8","7","6","7","7","7","7","7","1","7","7","1","7","7","7","7","7","7","7","7","6","7","7","7","7","7","7","7","7","7","7","7","7","6","7","7","7","7","7","7","6","7","633781445638225920","刘","357","Male","[""坏他"",""坏我"",""好他"",""好我""]","[""弱他"",""弱我"",""强他"",""强我""]","","","","","","","","","","","","","","","","","","","","","","","","","","","","","","feedback_test","","","","","","","","",""
"936","","j","psychophysics","92","194352","0.0-8.0-0.0-1.0-0.0-0.41","7","7","7","7","7","5","5","5","5","5","5","2","2","2","2","2","2","2","2","5","5","5","5","5","5","5","5","5","5","8","8","8","8","7","7","8","9","8","7","6","7","7","7","7","7","1","7","7","1","7","7","7","7","7","7","7","7","6","7","7","7","7","7","7","7","7","7","7","7","7","6","7","7","7","7","7","7","6","7","633781445638225920","刘","357","Male","[""坏他"",""坏我"",""好他"",""好我""]","[""弱他"",""弱我"",""强他"",""强我""]","","","","","","","","match","","","","","","","","","","key","j","16.652173913043477","768","428","j","true","match","img/triangle.png","好我","好我","prac_ALT2_moral","practice_moral","","","","","","","","",""
"null","<span style='color:GreenYellow; font-size: 70px;'>正确! </span>","null","html-keyboard-response","93","194853","0.0-8.0-0.0-1.0-0.0-1.41","7","7","7","7","7","5","5","5","5","5","5","2","2","2","2","2","2","2","2","5","5","5","5","5","5","5","5","5","5","8","8","8","8","7","7","8","9","8","7","6","7","7","7","7","7","1","7","7","1","7","7","7","7","7","7","7","7","6","7","7","7","7","7","7","7","7","7","7","7","7","6","7","7","7","7","7","7","6","7","633781445638225920","刘","357","Male","[""坏他"",""坏我"",""好他"",""好我""]","[""弱他"",""弱我"",""强他"",""强我""]","","","","","","","","","","","","","","","","","","","","","","","","","","","","","","feedback_test","","","","","","","","",""
"625","","f","psychophysics","94","196480","0.0-8.0-0.0-1.0-0.0-0.42","7","7","7","7","7","5","5","5","5","5","5","2","2","2","2","2","2","2","2","5","5","5","5","5","5","5","5","5","5","8","8","8","8","7","7","8","9","8","7","6","7","7","7","7","7","1","7","7","1","7","7","7","7","7","7","7","7","6","7","7","7","7","7","7","7","7","7","7","7","7","6","7","7","7","7","7","7","6","7","633781445638225920","刘","357","Male","[""坏他"",""坏我"",""好他"",""好我""]","[""弱他"",""弱我"",""强他"",""强我""]","","","","","","","","nonmatch","","","","","","","","","","key","f","16.655208333333274","768","428","f","true","nonmatch","img/triangle.png","好他","好我","prac_ALT2_moral","practice_moral","","","","","","","","",""
"null","<span style='color:GreenYellow; font-size: 70px;'>正确! </span>","null","html-keyboard-response","95","196981","0.0-8.0-0.0-1.0-0.0-1.42","7","7","7","7","7","5","5","5","5","5","5","2","2","2","2","2","2","2","2","5","5","5","5","5","5","5","5","5","5","8","8","8","8","7","7","8","9","8","7","6","7","7","7","7","7","1","7","7","1","7","7","7","7","7","7","7","7","6","7","7","7","7","7","7","7","7","7","7","7","7","6","7","7","7","7","7","7","6","7","633781445638225920","刘","357","Male","[""坏他"",""坏我"",""好他"",""好我""]","[""弱他"",""弱我"",""强他"",""强我""]","","","","","","","","","","","","","","","","","","","","","","","","","","","","","","feedback_test","","","","","","","","",""
"674","","j","psychophysics","96","198656","0.0-8.0-0.0-1.0-0.0-0.43","7","7","7","7","7","5","5","5","5","5","5","2","2","2","2","2","2","2","2","5","5","5","5","5","5","5","5","5","5","8","8","8","8","7","7","8","9","8","7","6","7","7","7","7","7","1","7","7","1","7","7","7","7","7","7","7","7","6","7","7","7","7","7","7","7","7","7","7","7","7","6","7","7","7","7","7","7","6","7","633781445638225920","刘","357","Male","[""坏他"",""坏我"",""好他"",""好我""]","[""弱他"",""弱我"",""强他"",""强我""]","","","","","","","","match","","","","","","","","","","key","j","16.655","768","428","f","false","nonmatch","img/square.png","好他","坏他","prac_ALT2_moral","practice_moral","","","","","","","","",""
"null","<span style='color:red; font-size: 70px;'>错误! </span>","null","html-keyboard-response","97","199157","0.0-8.0-0.0-1.0-0.0-1.43","7","7","7","7","7","5","5","5","5","5","5","2","2","2","2","2","2","2","2","5","5","5","5","5","5","5","5","5","5","8","8","8","8","7","7","8","9","8","7","6","7","7","7","7","7","1","7","7","1","7","7","7","7","7","7","7","7","6","7","7","7","7","7","7","7","7","7","7","7","7","6","7","7","7","7","7","7","6","7","633781445638225920","刘","357","Male","[""坏他"",""坏我"",""好他"",""好我""]","[""弱他"",""弱我"",""强他"",""强我""]","","","","","","","","","","","","","","","","","","","","","","","","","","","","","","feedback_test","","","","","","","","",""
"778","","j","psychophysics","98","200937","0.0-8.0-0.0-1.0-0.0-0.44","7","7","7","7","7","5","5","5","5","5","5","2","2","2","2","2","2","2","2","5","5","5","5","5","5","5","5","5","5","8","8","8","8","7","7","8","9","8","7","6","7","7","7","7","7","1","7","7","1","7","7","7","7","7","7","7","7","6","7","7","7","7","7","7","7","7","7","7","7","7","6","7","7","7","7","7","7","6","7","633781445638225920","刘","357","Male","[""坏他"",""坏我"",""好他"",""好我""]","[""弱他"",""弱我"",""强他"",""强我""]","","","","","","","","match","","","","","","","","","","key","j","16.65377358490555","768","428","f","false","nonmatch","img/pentagon.png","好我","好他","prac_ALT2_moral","practice_moral","","","","","","","","",""
"null","<span style='color:red; font-size: 70px;'>错误! </span>","null","html-keyboard-response","99","201438","0.0-8.0-0.0-1.0-0.0-1.44","7","7","7","7","7","5","5","5","5","5","5","2","2","2","2","2","2","2","2","5","5","5","5","5","5","5","5","5","5","8","8","8","8","7","7","8","9","8","7","6","7","7","7","7","7","1","7","7","1","7","7","7","7","7","7","7","7","6","7","7","7","7","7","7","7","7","7","7","7","7","6","7","7","7","7","7","7","6","7","633781445638225920","刘","357","Male","[""坏他"",""坏我"",""好他"",""好我""]","[""弱他"",""弱我"",""强他"",""强我""]","","","","","","","","","","","","","","","","","","","","","","","","","","","","","","feedback_test","","","","","","","","",""
"840","","j","psychophysics","100","203280","0.0-8.0-0.0-1.0-0.0-0.45","7","7","7","7","7","5","5","5","5","5","5","2","2","2","2","2","2","2","2","5","5","5","5","5","5","5","5","5","5","8","8","8","8","7","7","8","9","8","7","6","7","7","7","7","7","1","7","7","1","7","7","7","7","7","7","7","7","6","7","7","7","7","7","7","7","7","7","7","7","7","6","7","7","7","7","7","7","6","7","633781445638225920","刘","357","Male","[""坏他"",""坏我"",""好他"",""好我""]","[""弱他"",""弱我"",""强他"",""强我""]","","","","","","","","match","","","","","","","","","","key","j","16.65090909090888","768","428","j","true","match","img/circle.png","坏我","坏我","prac_ALT2_moral","practice_moral","","","","","","","","",""
"null","<span style='color:GreenYellow; font-size: 70px;'>正确! </span>","null","html-keyboard-response","101","203782","0.0-8.0-0.0-1.0-0.0-1.45","7","7","7","7","7","5","5","5","5","5","5","2","2","2","2","2","2","2","2","5","5","5","5","5","5","5","5","5","5","8","8","8","8","7","7","8","9","8","7","6","7","7","7","7","7","1","7","7","1","7","7","7","7","7","7","7","7","6","7","7","7","7","7","7","7","7","7","7","7","7","6","7","7","7","7","7","7","6","7","633781445638225920","刘","357","Male","[""坏他"",""坏我"",""好他"",""好我""]","[""弱他"",""弱我"",""强他"",""强我""]","","","","","","","","","","","","","","","","","","","","","","","","","","","","","","feedback_test","","","","","","","","",""
"576","","j","psychophysics","102","205361","0.0-8.0-0.0-1.0-0.0-0.46","7","7","7","7","7","5","5","5","5","5","5","2","2","2","2","2","2","2","2","5","5","5","5","5","5","5","5","5","5","8","8","8","8","7","7","8","9","8","7","6","7","7","7","7","7","1","7","7","1","7","7","7","7","7","7","7","7","6","7","7","7","7","7","7","7","7","7","7","7","7","6","7","7","7","7","7","7","6","7","633781445638225920","刘","357","Male","[""坏他"",""坏我"",""好他"",""好我""]","[""弱他"",""弱我"",""强他"",""强我""]","","","","","","","","match","","","","","","","","","","key","j","16.64787234042547","768","428","f","false","nonmatch","img/pentagon.png","坏他","好他","prac_ALT2_moral","practice_moral","","","","","","","","",""
"null","<span style='color:red; font-size: 70px;'>错误! </span>","null","html-keyboard-response","103","205864","0.0-8.0-0.0-1.0-0.0-1.46","7","7","7","7","7","5","5","5","5","5","5","2","2","2","2","2","2","2","2","5","5","5","5","5","5","5","5","5","5","8","8","8","8","7","7","8","9","8","7","6","7","7","7","7","7","1","7","7","1","7","7","7","7","7","7","7","7","6","7","7","7","7","7","7","7","7","7","7","7","7","6","7","7","7","7","7","7","6","7","633781445638225920","刘","357","Male","[""坏他"",""坏我"",""好他"",""好我""]","[""弱他"",""弱我"",""强他"",""强我""]","","","","","","","","","","","","","","","","","","","","","","","","","","","","","","feedback_test","","","","","","","","",""
"862","","j","psychophysics","104","207728","0.0-8.0-0.0-1.0-0.0-0.47","7","7","7","7","7","5","5","5","5","5","5","2","2","2","2","2","2","2","2","5","5","5","5","5","5","5","5","5","5","8","8","8","8","7","7","8","9","8","7","6","7","7","7","7","7","1","7","7","1","7","7","7","7","7","7","7","7","6","7","7","7","7","7","7","7","7","7","7","7","7","6","7","7","7","7","7","7","6","7","633781445638225920","刘","357","Male","[""坏他"",""坏我"",""好他"",""好我""]","[""弱他"",""弱我"",""强他"",""强我""]","","","","","","","","match","","","","","","","","","","key","j","16.65495495495506","768","428","j","true","match","img/pentagon.png","好他","好他","prac_ALT2_moral","practice_moral","","","","","","","","",""
"null","<span style='color:GreenYellow; font-size: 70px;'>正确! </span>","null","html-keyboard-response","105","208229","0.0-8.0-0.0-1.0-0.0-1.47","7","7","7","7","7","5","5","5","5","5","5","2","2","2","2","2","2","2","2","5","5","5","5","5","5","5","5","5","5","8","8","8","8","7","7","8","9","8","7","6","7","7","7","7","7","1","7","7","1","7","7","7","7","7","7","7","7","6","7","7","7","7","7","7","7","7","7","7","7","7","6","7","7","7","7","7","7","6","7","633781445638225920","刘","357","Male","[""坏他"",""坏我"",""好他"",""好我""]","[""弱他"",""弱我"",""强他"",""强我""]","","","","","","","","","","","","","","","","","","","","","","","","","","","","","","feedback_test","","","","","","","","",""
"863","<style>.context{color:white; font-size: 35px; line-height:40px}</style>                            <div><p class='context'>您正确回答了79% 的试次。</p><p class='context'>您的平均反应时为754毫秒。</p><p class='context'>恭喜您完成练习。按空格键进入正式实验。</p><p class='footer' style='font-size: 35px; line-height:40px;'>请在进入正式实验实验之前将您的<span style='color: lightgreen;'>食指</span>放在电脑键盘的相应键位上进行按键。</p>"," ","html-keyboard-response","106","209097","0.0-8.0-0.0-2.0","7","7","7","7","7","5","5","5","5","5","5","2","2","2","2","2","2","2","2","5","5","5","5","5","5","5","5","5","5","8","8","8","8","7","7","8","9","8","7","6","7","7","7","7","7","1","7","7","1","7","7","7","7","7","7","7","7","6","7","7","7","7","7","7","7","7","7","7","7","7","6","7","7","7","7","7","7","6","7","633781445638225920","刘","357","Male","[""坏他"",""坏我"",""好他"",""好我""]","[""弱他"",""弱我"",""强他"",""强我""]","","","","","","","","","","","","","","","","","","","","","","","","","","","","","","","","","","","","","","",""
"738","
    <p style='color: white; font-size: 22px'>请您将手指放在按键上，准备进入正式的匹配任务。</p>
    <p> <div style = ""color: green""><按空格键进入下一阶段的匹配任务></div></p>
    "," ","html-keyboard-response","107","209840","0.0-8.0-0.0-3.0","7","7","7","7","7","5","5","5","5","5","5","2","2","2","2","2","2","2","2","5","5","5","5","5","5","5","5","5","5","8","8","8","8","7","7","8","9","8","7","6","7","7","7","7","7","1","7","7","1","7","7","7","7","7","7","7","7","6","7","7","7","7","7","7","7","7","7","7","7","7","6","7","7","7","7","7","7","6","7","633781445638225920","刘","357","Male","[""坏他"",""坏我"",""好他"",""好我""]","[""弱他"",""弱我"",""强他"",""强我""]","","","","","","","","","","","","","","","","","","","","","","","","","","","","","","","","","","","","","","",""
"591","","j","psychophysics","108","211433","0.0-8.0-0.0-4.0-0.0-0.0","7","7","7","7","7","5","5","5","5","5","5","2","2","2","2","2","2","2","2","5","5","5","5","5","5","5","5","5","5","8","8","8","8","7","7","8","9","8","7","6","7","7","7","7","7","1","7","7","1","7","7","7","7","7","7","7","7","6","7","7","7","7","7","7","7","7","7","7","7","7","6","7","7","7","7","7","7","6","7","633781445638225920","刘","357","Male","[""坏他"",""坏我"",""好他"",""好我""]","[""弱他"",""弱我"",""强他"",""强我""]","","","","","","","","match","","","","","","","","","","key","j","16.651063829787358","768","428","j","true","match","img/square.png","坏他","坏他","ALT2","moral","","","","","","","","",""
"null","<span style='color:GreenYellow; font-size: 70px;'>正确! </span>","null","html-keyboard-response","109","211936","0.0-8.0-0.0-4.0-0.0-1.0","7","7","7","7","7","5","5","5","5","5","5","2","2","2","2","2","2","2","2","5","5","5","5","5","5","5","5","5","5","8","8","8","8","7","7","8","9","8","7","6","7","7","7","7","7","1","7","7","1","7","7","7","7","7","7","7","7","6","7","7","7","7","7","7","7","7","7","7","7","7","6","7","7","7","7","7","7","6","7","633781445638225920","刘","357","Male","[""坏他"",""坏我"",""好他"",""好我""]","[""弱他"",""弱我"",""强他"",""强我""]","","","","","","","","","","","","","","","","","","","","","","","","","","","","","","feedback_test","","","","","","","","",""
"728","","f","psychophysics","110","213665","0.0-8.0-0.0-4.0-0.0-0.1","7","7","7","7","7","5","5","5","5","5","5","2","2","2","2","2","2","2","2","5","5","5","5","5","5","5","5","5","5","8","8","8","8","7","7","8","9","8","7","6","7","7","7","7","7","1","7","7","1","7","7","7","7","7","7","7","7","6","7","7","7","7","7","7","7","7","7","7","7","7","6","7","7","7","7","7","7","6","7","633781445638225920","刘","357","Male","[""坏他"",""坏我"",""好他"",""好我""]","[""弱他"",""弱我"",""强他"",""强我""]","","","","","","","","nonmatch","","","","","","","","","","key","f","16.63333333333339","768","428","j","false","match","img/pentagon.png","好他","好他","ALT2","moral","","","","","","","","",""
"null","<span style='color:red; font-size: 70px;'>错误! </span>","null","html-keyboard-response","111","214168","0.0-8.0-0.0-4.0-0.0-1.1","7","7","7","7","7","5","5","5","5","5","5","2","2","2","2","2","2","2","2","5","5","5","5","5","5","5","5","5","5","8","8","8","8","7","7","8","9","8","7","6","7","7","7","7","7","1","7","7","1","7","7","7","7","7","7","7","7","6","7","7","7","7","7","7","7","7","7","7","7","7","6","7","7","7","7","7","7","6","7","633781445638225920","刘","357","Male","[""坏他"",""坏我"",""好他"",""好我""]","[""弱他"",""弱我"",""强他"",""强我""]","","","","","","","","","","","","","","","","","","","","","","","","","","","","","","feedback_test","","","","","","","","",""
"822","","j","psychophysics","112","215992","0.0-8.0-0.0-4.0-0.0-0.2","7","7","7","7","7","5","5","5","5","5","5","2","2","2","2","2","2","2","2","5","5","5","5","5","5","5","5","5","5","8","8","8","8","7","7","8","9","8","7","6","7","7","7","7","7","1","7","7","1","7","7","7","7","7","7","7","7","6","7","7","7","7","7","7","7","7","7","7","7","7","6","7","7","7","7","7","7","6","7","633781445638225920","刘","357","Male","[""坏他"",""坏我"",""好他"",""好我""]","[""弱他"",""弱我"",""强他"",""强我""]","","","","","","","","match","","","","","","","","","","key","j","16.63796296296318","768","428","f","false","nonmatch","img/pentagon.png","坏他","好他","ALT2","moral","","","","","","","","",""
"null","<span style='color:red; font-size: 70px;'>错误! </span>","null","html-keyboard-response","113","216493","0.0-8.0-0.0-4.0-0.0-1.2","7","7","7","7","7","5","5","5","5","5","5","2","2","2","2","2","2","2","2","5","5","5","5","5","5","5","5","5","5","8","8","8","8","7","7","8","9","8","7","6","7","7","7","7","7","1","7","7","1","7","7","7","7","7","7","7","7","6","7","7","7","7","7","7","7","7","7","7","7","7","6","7","7","7","7","7","7","6","7","633781445638225920","刘","357","Male","[""坏他"",""坏我"",""好他"",""好我""]","[""弱他"",""弱我"",""强他"",""强我""]","","","","","","","","","","","","","","","","","","","","","","","","","","","","","","feedback_test","","","","","","","","",""
"1041","","j","psychophysics","114","218536","0.0-8.0-0.0-4.0-0.0-0.3","7","7","7","7","7","5","5","5","5","5","5","2","2","2","2","2","2","2","2","5","5","5","5","5","5","5","5","5","5","8","8","8","8","7","7","8","9","8","7","6","7","7","7","7","7","1","7","7","1","7","7","7","7","7","7","7","7","6","7","7","7","7","7","7","7","7","7","7","7","7","6","7","7","7","7","7","7","6","7","633781445638225920","刘","357","Male","[""坏他"",""坏我"",""好他"",""好我""]","[""弱他"",""弱我"",""强他"",""强我""]","","","","","","","","match","","","","","","","","","","key","j","16.65245901639349","768","428","f","false","nonmatch","img/square.png","好我","坏他","ALT2","moral","","","","","","","","",""
"null","<span style='color:red; font-size: 70px;'>错误! </span>","null","html-keyboard-response","115","219037","0.0-8.0-0.0-4.0-0.0-1.3","7","7","7","7","7","5","5","5","5","5","5","2","2","2","2","2","2","2","2","5","5","5","5","5","5","5","5","5","5","8","8","8","8","7","7","8","9","8","7","6","7","7","7","7","7","1","7","7","1","7","7","7","7","7","7","7","7","6","7","7","7","7","7","7","7","7","7","7","7","7","6","7","7","7","7","7","7","6","7","633781445638225920","刘","357","Male","[""坏他"",""坏我"",""好他"",""好我""]","[""弱他"",""弱我"",""强他"",""强我""]","","","","","","","","","","","","","","","","","","","","","","","","","","","","","","feedback_test","","","","","","","","",""
"818","","f","psychophysics","116","220856","0.0-8.0-0.0-4.0-0.0-0.4","7","7","7","7","7","5","5","5","5","5","5","2","2","2","2","2","2","2","2","5","5","5","5","5","5","5","5","5","5","8","8","8","8","7","7","8","9","8","7","6","7","7","7","7","7","1","7","7","1","7","7","7","7","7","7","7","7","6","7","7","7","7","7","7","7","7","7","7","7","7","6","7","7","7","7","7","7","6","7","633781445638225920","刘","357","Male","[""坏他"",""坏我"",""好他"",""好我""]","[""弱他"",""弱我"",""强他"",""强我""]","","","","","","","","nonmatch","","","","","","","","","","key","f","16.64722222222217","768","428","f","true","nonmatch","img/pentagon.png","好我","好他","ALT2","moral","","","","","","","","",""
"null","<span style='color:GreenYellow; font-size: 70px;'>正确! </span>","null","html-keyboard-response","117","221357","0.0-8.0-0.0-4.0-0.0-1.4","7","7","7","7","7","5","5","5","5","5","5","2","2","2","2","2","2","2","2","5","5","5","5","5","5","5","5","5","5","8","8","8","8","7","7","8","9","8","7","6","7","7","7","7","7","1","7","7","1","7","7","7","7","7","7","7","7","6","7","7","7","7","7","7","7","7","7","7","7","7","6","7","7","7","7","7","7","6","7","633781445638225920","刘","357","Male","[""坏他"",""坏我"",""好他"",""好我""]","[""弱他"",""弱我"",""强他"",""强我""]","","","","","","","","","","","","","","","","","","","","","","","","","","","","","","feedback_test","","","","","","","","",""
"807","","f","psychophysics","118","223168","0.0-8.0-0.0-4.0-0.0-0.5","7","7","7","7","7","5","5","5","5","5","5","2","2","2","2","2","2","2","2","5","5","5","5","5","5","5","5","5","5","8","8","8","8","7","7","8","9","8","7","6","7","7","7","7","7","1","7","7","1","7","7","7","7","7","7","7","7","6","7","7","7","7","7","7","7","7","7","7","7","7","6","7","7","7","7","7","7","6","7","633781445638225920","刘","357","Male","[""坏他"",""坏我"",""好他"",""好我""]","[""弱他"",""弱我"",""强他"",""强我""]","","","","","","","","nonmatch","","","","","","","","","","key","f","16.6518518518518","768","428","f","true","nonmatch","img/triangle.png","坏他","好我","ALT2","moral","","","","","","","","",""
"null","<span style='color:GreenYellow; font-size: 70px;'>正确! </span>","null","html-keyboard-response","119","223669","0.0-8.0-0.0-4.0-0.0-1.5","7","7","7","7","7","5","5","5","5","5","5","2","2","2","2","2","2","2","2","5","5","5","5","5","5","5","5","5","5","8","8","8","8","7","7","8","9","8","7","6","7","7","7","7","7","1","7","7","1","7","7","7","7","7","7","7","7","6","7","7","7","7","7","7","7","7","7","7","7","7","6","7","7","7","7","7","7","6","7","633781445638225920","刘","357","Male","[""坏他"",""坏我"",""好他"",""好我""]","[""弱他"",""弱我"",""强他"",""强我""]","","","","","","","","","","","","","","","","","","","","","","","","","","","","","","feedback_test","","","","","","","","",""
"617","","j","psychophysics","120","225288","0.0-8.0-0.0-4.0-0.0-0.6","7","7","7","7","7","5","5","5","5","5","5","2","2","2","2","2","2","2","2","5","5","5","5","5","5","5","5","5","5","8","8","8","8","7","7","8","9","8","7","6","7","7","7","7","7","1","7","7","1","7","7","7","7","7","7","7","7","6","7","7","7","7","7","7","7","7","7","7","7","7","6","7","7","7","7","7","7","6","7","633781445638225920","刘","357","Male","[""坏他"",""坏我"",""好他"",""好我""]","[""弱他"",""弱我"",""强他"",""强我""]","","","","","","","","match","","","","","","","","","","key","j","16.65312500000012","768","428","j","true","match","img/circle.png","坏我","坏我","ALT2","moral","","","","","","","","",""
"null","<span style='color:GreenYellow; font-size: 70px;'>正确! </span>","null","html-keyboard-response","121","225790","0.0-8.0-0.0-4.0-0.0-1.6","7","7","7","7","7","5","5","5","5","5","5","2","2","2","2","2","2","2","2","5","5","5","5","5","5","5","5","5","5","8","8","8","8","7","7","8","9","8","7","6","7","7","7","7","7","1","7","7","1","7","7","7","7","7","7","7","7","6","7","7","7","7","7","7","7","7","7","7","7","7","6","7","7","7","7","7","7","6","7","633781445638225920","刘","357","Male","[""坏他"",""坏我"",""好他"",""好我""]","[""弱他"",""弱我"",""强他"",""强我""]","","","","","","","","","","","","","","","","","","","","","","","","","","","","","","feedback_test","","","","","","","","",""
"880","","j","psychophysics","122","227673","0.0-8.0-0.0-4.0-0.0-0.7","7","7","7","7","7","5","5","5","5","5","5","2","2","2","2","2","2","2","2","5","5","5","5","5","5","5","5","5","5","8","8","8","8","7","7","8","9","8","7","6","7","7","7","7","7","1","7","7","1","7","7","7","7","7","7","7","7","6","7","7","7","7","7","7","7","7","7","7","7","7","6","7","7","7","7","7","7","6","7","633781445638225920","刘","357","Male","[""坏他"",""坏我"",""好他"",""好我""]","[""弱他"",""弱我"",""强他"",""强我""]","","","","","","","","match","","","","","","","","","","key","j","16.641441441441547","768","428","j","true","match","img/triangle.png","好我","好我","ALT2","moral","","","","","","","","",""
"null","<span style='color:GreenYellow; font-size: 70px;'>正确! </span>","null","html-keyboard-response","123","228174","0.0-8.0-0.0-4.0-0.0-1.7","7","7","7","7","7","5","5","5","5","5","5","2","2","2","2","2","2","2","2","5","5","5","5","5","5","5","5","5","5","8","8","8","8","7","7","8","9","8","7","6","7","7","7","7","7","1","7","7","1","7","7","7","7","7","7","7","7","6","7","7","7","7","7","7","7","7","7","7","7","7","6","7","7","7","7","7","7","6","7","633781445638225920","刘","357","Male","[""坏他"",""坏我"",""好他"",""好我""]","[""弱他"",""弱我"",""强他"",""强我""]","","","","","","","","","","","","","","","","","","","","","","","","","","","","","","feedback_test","","","","","","","","",""
"814","","j","psychophysics","124","229992","0.0-8.0-0.0-4.0-0.0-0.8","7","7","7","7","7","5","5","5","5","5","5","2","2","2","2","2","2","2","2","5","5","5","5","5","5","5","5","5","5","8","8","8","8","7","7","8","9","8","7","6","7","7","7","7","7","1","7","7","1","7","7","7","7","7","7","7","7","6","7","7","7","7","7","7","7","7","7","7","7","7","6","7","7","7","7","7","7","6","7","633781445638225920","刘","357","Male","[""坏他"",""坏我"",""好他"",""好我""]","[""弱他"",""弱我"",""强他"",""强我""]","","","","","","","","match","","","","","","","","","","key","j","16.65000000000011","768","428","j","true","match","img/square.png","坏他","坏他","ALT2","moral","","","","","","","","",""
"null","<span style='color:GreenYellow; font-size: 70px;'>正确! </span>","null","html-keyboard-response","125","230494","0.0-8.0-0.0-4.0-0.0-1.8","7","7","7","7","7","5","5","5","5","5","5","2","2","2","2","2","2","2","2","5","5","5","5","5","5","5","5","5","5","8","8","8","8","7","7","8","9","8","7","6","7","7","7","7","7","1","7","7","1","7","7","7","7","7","7","7","7","6","7","7","7","7","7","7","7","7","7","7","7","7","6","7","7","7","7","7","7","6","7","633781445638225920","刘","357","Male","[""坏他"",""坏我"",""好他"",""好我""]","[""弱他"",""弱我"",""强他"",""强我""]","","","","","","","","","","","","","","","","","","","","","","","","","","","","","","feedback_test","","","","","","","","",""
"560","","f","psychophysics","126","232056","0.0-8.0-0.0-4.0-0.0-0.9","7","7","7","7","7","5","5","5","5","5","5","2","2","2","2","2","2","2","2","5","5","5","5","5","5","5","5","5","5","8","8","8","8","7","7","8","9","8","7","6","7","7","7","7","7","1","7","7","1","7","7","7","7","7","7","7","7","6","7","7","7","7","7","7","7","7","7","7","7","7","6","7","7","7","7","7","7","6","7","633781445638225920","刘","357","Male","[""坏他"",""坏我"",""好他"",""好我""]","[""弱他"",""弱我"",""强他"",""强我""]","","","","","","","","nonmatch","","","","","","","","","","key","f","16.655913978494624","768","428","f","true","nonmatch","img/circle.png","坏他","坏我","ALT2","moral","","","","","","","","",""
"null","<span style='color:GreenYellow; font-size: 70px;'>正确! </span>","null","html-keyboard-response","127","232557","0.0-8.0-0.0-4.0-0.0-1.9","7","7","7","7","7","5","5","5","5","5","5","2","2","2","2","2","2","2","2","5","5","5","5","5","5","5","5","5","5","8","8","8","8","7","7","8","9","8","7","6","7","7","7","7","7","1","7","7","1","7","7","7","7","7","7","7","7","6","7","7","7","7","7","7","7","7","7","7","7","7","6","7","7","7","7","7","7","6","7","633781445638225920","刘","357","Male","[""坏他"",""坏我"",""好他"",""好我""]","[""弱他"",""弱我"",""强他"",""强我""]","","","","","","","","","","","","","","","","","","","","","","","","","","","","","","feedback_test","","","","","","","","",""
"890","","f","psychophysics","128","234448","0.0-8.0-0.0-4.0-0.0-0.10","7","7","7","7","7","5","5","5","5","5","5","2","2","2","2","2","2","2","2","5","5","5","5","5","5","5","5","5","5","8","8","8","8","7","7","8","9","8","7","6","7","7","7","7","7","1","7","7","1","7","7","7","7","7","7","7","7","6","7","7","7","7","7","7","7","7","7","7","7","7","6","7","7","7","7","7","7","6","7","633781445638225920","刘","357","Male","[""坏他"",""坏我"",""好他"",""好我""]","[""弱他"",""弱我"",""强他"",""强我""]","","","","","","","","nonmatch","","","","","","","","","","key","f","16.64821428571434","768","428","f","true","nonmatch","img/square.png","好他","坏他","ALT2","moral","","","","","","","","",""
"null","<span style='color:GreenYellow; font-size: 70px;'>正确! </span>","null","html-keyboard-response","129","234949","0.0-8.0-0.0-4.0-0.0-1.10","7","7","7","7","7","5","5","5","5","5","5","2","2","2","2","2","2","2","2","5","5","5","5","5","5","5","5","5","5","8","8","8","8","7","7","8","9","8","7","6","7","7","7","7","7","1","7","7","1","7","7","7","7","7","7","7","7","6","7","7","7","7","7","7","7","7","7","7","7","7","6","7","7","7","7","7","7","6","7","633781445638225920","刘","357","Male","[""坏他"",""坏我"",""好他"",""好我""]","[""弱他"",""弱我"",""强他"",""强我""]","","","","","","","","","","","","","","","","","","","","","","","","","","","","","","feedback_test","","","","","","","","",""
"690","","j","psychophysics","130","236640","0.0-8.0-0.0-4.0-0.0-0.11","7","7","7","7","7","5","5","5","5","5","5","2","2","2","2","2","2","2","2","5","5","5","5","5","5","5","5","5","5","8","8","8","8","7","7","8","9","8","7","6","7","7","7","7","7","1","7","7","1","7","7","7","7","7","7","7","7","6","7","7","7","7","7","7","7","7","7","7","7","7","6","7","7","7","7","7","7","6","7","633781445638225920","刘","357","Male","[""坏他"",""坏我"",""好他"",""好我""]","[""弱他"",""弱我"",""强他"",""强我""]","","","","","","","","match","","","","","","","","","","key","j","16.65600000000006","768","428","j","true","match","img/triangle.png","好我","好我","ALT2","moral","","","","","","","","",""
"null","<span style='color:GreenYellow; font-size: 70px;'>正确! </span>","null","html-keyboard-response","131","237141","0.0-8.0-0.0-4.0-0.0-1.11","7","7","7","7","7","5","5","5","5","5","5","2","2","2","2","2","2","2","2","5","5","5","5","5","5","5","5","5","5","8","8","8","8","7","7","8","9","8","7","6","7","7","7","7","7","1","7","7","1","7","7","7","7","7","7","7","7","6","7","7","7","7","7","7","7","7","7","7","7","7","6","7","7","7","7","7","7","6","7","633781445638225920","刘","357","Male","[""坏他"",""坏我"",""好他"",""好我""]","[""弱他"",""弱我"",""强他"",""强我""]","","","","","","","","","","","","","","","","","","","","","","","","","","","","","","feedback_test","","","","","","","","",""
"761","","j","psychophysics","132","238904","0.0-8.0-0.0-4.0-0.0-0.12","7","7","7","7","7","5","5","5","5","5","5","2","2","2","2","2","2","2","2","5","5","5","5","5","5","5","5","5","5","8","8","8","8","7","7","8","9","8","7","6","7","7","7","7","7","1","7","7","1","7","7","7","7","7","7","7","7","6","7","7","7","7","7","7","7","7","7","7","7","7","6","7","7","7","7","7","7","6","7","633781445638225920","刘","357","Male","[""坏他"",""坏我"",""好他"",""好我""]","[""弱他"",""弱我"",""强他"",""强我""]","","","","","","","","match","","","","","","","","","","key","j","16.65333333333339","768","428","j","true","match","img/pentagon.png","好他","好他","ALT2","moral","","","","","","","","",""
"null","<span style='color:GreenYellow; font-size: 70px;'>正确! </span>","null","html-keyboard-response","133","239405","0.0-8.0-0.0-4.0-0.0-1.12","7","7","7","7","7","5","5","5","5","5","5","2","2","2","2","2","2","2","2","5","5","5","5","5","5","5","5","5","5","8","8","8","8","7","7","8","9","8","7","6","7","7","7","7","7","1","7","7","1","7","7","7","7","7","7","7","7","6","7","7","7","7","7","7","7","7","7","7","7","7","6","7","7","7","7","7","7","6","7","633781445638225920","刘","357","Male","[""坏他"",""坏我"",""好他"",""好我""]","[""弱他"",""弱我"",""强他"",""强我""]","","","","","","","","","","","","","","","","","","","","","","","","","","","","","","feedback_test","","","","","","","","",""
"587","","f","psychophysics","134","240992","0.0-8.0-0.0-4.0-0.0-0.13","7","7","7","7","7","5","5","5","5","5","5","2","2","2","2","2","2","2","2","5","5","5","5","5","5","5","5","5","5","8","8","8","8","7","7","8","9","8","7","6","7","7","7","7","7","1","7","7","1","7","7","7","7","7","7","7","7","6","7","7","7","7","7","7","7","7","7","7","7","7","6","7","7","7","7","7","7","6","7","633781445638225920","刘","357","Male","[""坏他"",""坏我"",""好他"",""好我""]","[""弱他"",""弱我"",""强他"",""强我""]","","","","","","","","nonmatch","","","","","","","","","","key","f","16.654255319148938","768","428","f","true","nonmatch","img/pentagon.png","坏我","好他","ALT2","moral","","","","","","","","",""
"null","<span style='color:GreenYellow; font-size: 70px;'>正确! </span>","null","html-keyboard-response","135","241493","0.0-8.0-0.0-4.0-0.0-1.13","7","7","7","7","7","5","5","5","5","5","5","2","2","2","2","2","2","2","2","5","5","5","5","5","5","5","5","5","5","8","8","8","8","7","7","8","9","8","7","6","7","7","7","7","7","1","7","7","1","7","7","7","7","7","7","7","7","6","7","7","7","7","7","7","7","7","7","7","7","7","6","7","7","7","7","7","7","6","7","633781445638225920","刘","357","Male","[""坏他"",""坏我"",""好他"",""好我""]","[""弱他"",""弱我"",""强他"",""强我""]","","","","","","","","","","","","","","","","","","","","","","","","","","","","","","feedback_test","","","","","","","","",""
"808","","f","psychophysics","136","243304","0.0-8.0-0.0-4.0-0.0-0.14","7","7","7","7","7","5","5","5","5","5","5","2","2","2","2","2","2","2","2","5","5","5","5","5","5","5","5","5","5","8","8","8","8","7","7","8","9","8","7","6","7","7","7","7","7","1","7","7","1","7","7","7","7","7","7","7","7","6","7","7","7","7","7","7","7","7","7","7","7","7","6","7","7","7","7","7","7","6","7","633781445638225920","刘","357","Male","[""坏他"",""坏我"",""好他"",""好我""]","[""弱他"",""弱我"",""强他"",""强我""]","","","","","","","","nonmatch","","","","","","","","","","key","f","16.654205607476637","768","428","f","true","nonmatch","img/square.png","坏我","坏他","ALT2","moral","","","","","","","","",""
"null","<span style='color:GreenYellow; font-size: 70px;'>正确! </span>","null","html-keyboard-response","137","243805","0.0-8.0-0.0-4.0-0.0-1.14","7","7","7","7","7","5","5","5","5","5","5","2","2","2","2","2","2","2","2","5","5","5","5","5","5","5","5","5","5","8","8","8","8","7","7","8","9","8","7","6","7","7","7","7","7","1","7","7","1","7","7","7","7","7","7","7","7","6","7","7","7","7","7","7","7","7","7","7","7","7","6","7","7","7","7","7","7","6","7","633781445638225920","刘","357","Male","[""坏他"",""坏我"",""好他"",""好我""]","[""弱他"",""弱我"",""强他"",""强我""]","","","","","","","","","","","","","","","","","","","","","","","","","","","","","","feedback_test","","","","","","","","",""
"971","","j","psychophysics","138","245778","0.0-8.0-0.0-4.0-0.0-0.15","7","7","7","7","7","5","5","5","5","5","5","2","2","2","2","2","2","2","2","5","5","5","5","5","5","5","5","5","5","8","8","8","8","7","7","8","9","8","7","6","7","7","7","7","7","1","7","7","1","7","7","7","7","7","7","7","7","6","7","7","7","7","7","7","7","7","7","7","7","7","6","7","7","7","7","7","7","6","7","633781445638225920","刘","357","Male","[""坏他"",""坏我"",""好他"",""好我""]","[""弱他"",""弱我"",""强他"",""强我""]","","","","","","","","match","","","","","","","","","","key","j","16.643220338983003","768","428","j","true","match","img/circle.png","坏我","坏我","ALT2","moral","","","","","","","","",""
