"rt","stimulus","response","trial_type","trial_index","time_elapsed","internal_node_id","swb_1","swb_2","swb_3","swb_4","swb_5","LOT_1","LOT_2","LOT_3","LOT_4","LOT_5","LOT_6","IPC_1","IPC_2","IPC_3","IPC_4","IPC_5","IPC_6","IPC_7","IPC_8","MorIden_1","MorIden_2","MorIden_3","MorIden_4","MorIden_5","MorIden_6","MorIden_7","MorIden_8","MorIden_9","MorIden_10","moralSeImag_1","moralSeImag_2","moralSeImag_3","moralSeImag_4","moralSeImag_5","moralSeImag_6","moralSeImag_7","moralSeImag_8","moralSeImag_9","sde_1","sde_2","sde_3","sde_4","sde_5","sde_6","sde_7","sde_8","sde_9","sde_10","trap2","sde_11","sde_12","sde_13","sde_14","sde_15","sde_16","sde_17","sde_18","sde_19","sde_20","IM_1","IM_2","IM_3","IM_4","IM_5","IM_6","IM_7","IM_8","IM_9","IM_10","IM_11","IM_12","IM_13","IM_14","IM_15","IM_16","IM_17","IM_18","IM_19","IM_20","subj_idx","friend_name","ParticipantID","Sex","Word","Word2","value","success","timeout","failed_images","failed_audio","failed_video","user_agent","responses","item_order","radio_event_ids","radio_event_times","key_event_times","mouse_event_times","straightlining","zigzagging","honeypot","view_history","response_type","key_press","avg_frame_time","center_x","center_y","correct_response","correct","identity","Image","word","condition","task_id","screen_id","time_stamp","person","valence","domain","math","status","duration","question_order","trap2_item"
"1933","
   <p><div style='color:white; font-size: 25px'>您好，欢迎参加本次实验。</div></p>
   <p><div style='color:white; font-size: 25px'>为充分保障您的权利，请确保您已经知晓并同意《参与实验同意书》以及《数据公开知情同意书》。</div></p>
   <p><div style='color:white; font-size: 25px'>如果您未见过上述内容，请咨询实验员。</div></p>
   <p style='color:white; font-size: 25px'>如果您选择继续实验，则表示您已经清楚两份知情同意书的内容并同意。</p>
   <p><div style = ""color: pink;font-size:30px;"">请确保您记得day0的实验编号，您将在本次实验输入该编号，若您忘记，请咨询实验员后作答。</div></p>
   <p><div style = ""color:lightblue;font-size:25px;"">请您尽可能认真地作答，我们将依据您在各问卷和按键任务中的作答质量发放报酬。</div></p>
   <p> <div style = ""color: green""><按空格键至下页></div> </p>
   "," ","html-keyboard-response","0","1946","0.0-0.0","5","5","6","5","4","4","3","4","4","4","4","0","-1","1","1","-1","0","0","0","5","4","5","4","4","4","5","4","4","4","6","7","5","7","6","7","6","5","6","6","5","4","4","5","3","6","5","5","5","1","5","5","6","4","5","5","5","5","5","5","3","4","3","3","2","5","5","6","5","6","5","6","5","4","3","6","3","5","4","5","789244798249869314","马","640","Female","[""好她"",""坏她"",""好我"",""坏我""]","[""强她"",""弱她"",""强我"",""弱我""]","","","","","","","","","","","","","","","","","","","","","","","","","","","","","","","","","","","","","","",""
"","","","call-function","1","1949","0.0-1.0-0.0","5","5","6","5","4","4","3","4","4","4","4","0","-1","1","1","-1","0","0","0","5","4","5","4","4","4","5","4","4","4","6","7","5","7","6","7","6","5","6","6","5","4","4","5","3","6","5","5","5","1","5","5","6","4","5","5","5","5","5","5","3","4","3","3","2","5","5","6","5","6","5","6","5","4","3","6","3","5","4","5","789244798249869314","马","640","Female","[""好她"",""坏她"",""好我"",""坏我""]","[""强她"",""弱她"",""强我"",""弱我""]","","","","","","","","","","","","","","","","","","","","","","","","","","","","","","","","","","","","","","",""
"36485","","[{""name"":""Sex"",""value"":""1""},{""name"":""friend_name"",""value"":""马""},{""name"":""ParticipantID"",""value"":""640""}]","survey-html-form","2","38437","0.0-1.0-1.0","5","5","6","5","4","4","3","4","4","4","4","0","-1","1","1","-1","0","0","0","5","4","5","4","4","4","5","4","4","4","6","7","5","7","6","7","6","5","6","6","5","4","4","5","3","6","5","5","5","1","5","5","6","4","5","5","5","5","5","5","3","4","3","3","2","5","5","6","5","6","5","6","5","4","3","6","3","5","4","5","789244798249869314","马","640","Female","[""好她"",""坏她"",""好我"",""坏我""]","[""强她"",""弱她"",""强我"",""弱我""]","","","","","","","","","","","","","","","","","","","","","","","","","","","","","","","","","","","","","","",""
"","","","preload","3","38785","0.0-2.0","5","5","6","5","4","4","3","4","4","4","4","0","-1","1","1","-1","0","0","0","5","4","5","4","4","4","5","4","4","4","6","7","5","7","6","7","6","5","6","6","5","4","4","5","3","6","5","5","5","1","5","5","6","4","5","5","5","5","5","5","3","4","3","3","2","5","5","6","5","6","5","6","5","4","3","6","3","5","4","5","789244798249869314","马","640","Female","[""好她"",""坏她"",""好我"",""坏我""]","[""强她"",""弱她"",""强我"",""弱我""]","","true","false","[]","[]","[]","","","","","","","","","","","","","","","","","","","","","","","","","","","","","","","","",""
"","","","fullscreen","4","41446","0.0-3.0","5","5","6","5","4","4","3","4","4","4","4","0","-1","1","1","-1","0","0","0","5","4","5","4","4","4","5","4","4","4","6","7","5","7","6","7","6","5","6","6","5","4","4","5","3","6","5","5","5","1","5","5","6","4","5","5","5","5","5","5","3","4","3","3","2","5","5","6","5","6","5","6","5","4","3","6","3","5","4","5","789244798249869314","马","640","Female","[""好她"",""坏她"",""好我"",""坏我""]","[""强她"",""弱她"",""强我"",""弱我""]","","true","","","","","{}","","","","","","","","","","","","","","","","","","","","","","","","","","","","","","","",""
"12261.5","","{""Q01"":""5"",""Q02"":""5"",""Q03"":""6"",""Q04"":""5"",""Q05"":""4""}","survey-template","5","53714","0.0-4.0","5","5","6","5","4","4","3","4","4","4","4","0","-1","1","1","-1","0","0","0","5","4","5","4","4","4","5","4","4","4","6","7","5","7","6","7","6","5","6","6","5","4","4","5","3","6","5","5","5","1","5","5","6","4","5","5","5","5","5","5","3","4","3","3","2","5","5","6","5","6","5","6","5","4","3","6","3","5","4","5","789244798249869314","马","640","Female","[""好她"",""坏她"",""好我"",""坏我""]","[""强她"",""弱她"",""强我"",""弱我""]","","","","","","","","{""Q01"":""5"",""Q02"":""5"",""Q03"":""6"",""Q04"":""5"",""Q05"":""4""}","[0,1,2,3,4]","[""Q01"",""Q02"",""Q01"",""Q03"",""Q04"",""Q05""]","[5811.899999976158,6641.599999964237,7457.199999988079,8626.899999976158,10735.899999976158,11523.199999988079]","[]","[5811.899999976158,6641.599999964237,7457.199999988079,8626.899999976158,10735.899999976158,11523.199999988079,12258.699999988079]","0.6","0.75","0","","","","","","","","","","","","","","","","","","","","","","",""
"21548.5","","{""Q01"":""4"",""Q02"":""3"",""Q03"":""4"",""Q04"":""4"",""Q05"":""4"",""Q06"":""4""}","survey-template","6","75275","0.0-5.0","5","5","6","5","4","4","3","4","4","4","4","0","-1","1","1","-1","0","0","0","5","4","5","4","4","4","5","4","4","4","6","7","5","7","6","7","6","5","6","6","5","4","4","5","3","6","5","5","5","1","5","5","6","4","5","5","5","5","5","5","3","4","3","3","2","5","5","6","5","6","5","6","5","4","3","6","3","5","4","5","789244798249869314","马","640","Female","[""好她"",""坏她"",""好我"",""坏我""]","[""强她"",""弱她"",""强我"",""弱我""]","","","","","","","","{""Q01"":""4"",""Q02"":""3"",""Q03"":""4"",""Q04"":""4"",""Q05"":""4"",""Q06"":""4""}","[0,1,2,3,4,5]","[""Q01"",""Q02"",""Q03"",""Q04"",""Q05"",""Q06""]","[6524.300000011921,14460,16225.400000035763,18120.100000023842,19140.5,20968.400000035763]","[]","[6524.300000011921,14460,16225.400000035763,18120.100000023842,19140.5,20968.400000035763,21546.5]","0.5","0.4","0","","","","","","","","","","","","","","","","","","","","","","",""
"20423.100000023842","","{""Q01"":""0"",""Q02"":""-1"",""Q03"":""1"",""Q04"":""1"",""Q05"":""-1"",""Q06"":""0"",""Q07"":""0"",""Q08"":""0""}","survey-template","7","95709","0.0-6.0","5","5","6","5","4","4","3","4","4","4","4","0","-1","1","1","-1","0","0","0","5","4","5","4","4","4","5","4","4","4","6","7","5","7","6","7","6","5","6","6","5","4","4","5","3","6","5","5","5","1","5","5","6","4","5","5","5","5","5","5","3","4","3","3","2","5","5","6","5","6","5","6","5","4","3","6","3","5","4","5","789244798249869314","马","640","Female","[""好她"",""坏她"",""好我"",""坏我""]","[""强她"",""弱她"",""强我"",""弱我""]","","","","","","","","{""Q01"":""0"",""Q02"":""-1"",""Q03"":""1"",""Q04"":""1"",""Q05"":""-1"",""Q06"":""0"",""Q07"":""0"",""Q08"":""0""}","[0,1,2,3,4,5,6,7]","[""Q01"",""Q02"",""Q03"",""Q03"",""Q04"",""Q05"",""Q06"",""Q07"",""Q08""]","[3921.600000023842,5594.100000023842,6996.300000011921,9413.899999976158,11926.100000023842,14410.100000023842,16893.5,17887.80000001192,19554]","[]","[3921.600000023842,5594.100000023842,6996.300000011921,9413.899999976158,11926.100000023842,14410.100000023842,16893.5,17887.80000001192,18575.899999976158,19158.100000023842,19554,20419.899999976158]","0.5","0.2857142857142857","0","","","","","","","","","","","","","","","","","","","","","","",""
"2886","","","instructions","8","98602","0.0-7.0","5","5","6","5","4","4","3","4","4","4","4","0","-1","1","1","-1","0","0","0","5","4","5","4","4","4","5","4","4","4","6","7","5","7","6","7","6","5","6","6","5","4","4","5","3","6","5","5","5","1","5","5","6","4","5","5","5","5","5","5","3","4","3","3","2","5","5","6","5","6","5","6","5","4","3","6","3","5","4","5","789244798249869314","马","640","Female","[""好她"",""坏她"",""好我"",""坏我""]","[""强她"",""弱她"",""强我"",""弱我""]","","","","","","","","","","","","","","","","","[{""page_index"":0,""viewing_time"":2885}]","","","","","","","","","","","","","","","","","","","","","",""
"83047","","","instructions","9","181653","0.0-8.0-1.0-0.0","5","5","6","5","4","4","3","4","4","4","4","0","-1","1","1","-1","0","0","0","5","4","5","4","4","4","5","4","4","4","6","7","5","7","6","7","6","5","6","6","5","4","4","5","3","6","5","5","5","1","5","5","6","4","5","5","5","5","5","5","3","4","3","3","2","5","5","6","5","6","5","6","5","4","3","6","3","5","4","5","789244798249869314","马","640","Female","[""好她"",""坏她"",""好我"",""坏我""]","[""强她"",""弱她"",""强我"",""弱我""]","","","","","","","","","","","","","","","","","[{""page_index"":0,""viewing_time"":4836},{""page_index"":1,""viewing_time"":74774},{""page_index"":2,""viewing_time"":1756},{""page_index"":3,""viewing_time"":1680}]","","","","","","","","","","","","","","","","","","","","","",""
"1049","","f","psychophysics","10","183713","0.0-8.0-1.0-1.0-0.0-0.0","5","5","6","5","4","4","3","4","4","4","4","0","-1","1","1","-1","0","0","0","5","4","5","4","4","4","5","4","4","4","6","7","5","7","6","7","6","5","6","6","5","4","4","5","3","6","5","5","5","1","5","5","6","4","5","5","5","5","5","5","3","4","3","3","2","5","5","6","5","6","5","6","5","4","3","6","3","5","4","5","789244798249869314","马","640","Female","[""好她"",""坏她"",""好我"",""坏我""]","[""强她"",""弱她"",""强我"",""弱我""]","","","","","","","","match","","","","","","","","","","key","f","17.843433628318497","768","428","j","false","nonmatch","img/triangle.png","强她","强我","prac_ALT2_ability","practice_ability","","","","","","","","",""
"null","<span style='color:red; font-size: 70px;'>错误! </span>","null","html-keyboard-response","11","184227","0.0-8.0-1.0-1.0-0.0-1.0","5","5","6","5","4","4","3","4","4","4","4","0","-1","1","1","-1","0","0","0","5","4","5","4","4","4","5","4","4","4","6","7","5","7","6","7","6","5","6","6","5","4","4","5","3","6","5","5","5","1","5","5","6","4","5","5","5","5","5","5","3","4","3","3","2","5","5","6","5","6","5","6","5","4","3","6","3","5","4","5","789244798249869314","马","640","Female","[""好她"",""坏她"",""好我"",""坏我""]","[""强她"",""弱她"",""强我"",""弱我""]","","","","","","","","","","","","","","","","","","","","","","","","","","","","","","feedback_test","","","","","","","","",""
"1091","","f","psychophysics","12","186323","0.0-8.0-1.0-1.0-0.0-0.1","5","5","6","5","4","4","3","4","4","4","4","0","-1","1","1","-1","0","0","0","5","4","5","4","4","4","5","4","4","4","6","7","5","7","6","7","6","5","6","6","5","4","4","5","3","6","5","5","5","1","5","5","6","4","5","5","5","5","5","5","3","4","3","3","2","5","5","6","5","6","5","6","5","4","3","6","3","5","4","5","789244798249869314","马","640","Female","[""好她"",""坏她"",""好我"",""坏我""]","[""强她"",""弱她"",""强我"",""弱我""]","","","","","","","","match","","","","","","","","","","key","f","16.66547999999998","768","428","f","true","match","img/triangle.png","强我","强我","prac_ALT2_ability","practice_ability","","","","","","","","",""
"null","<span style='color:GreenYellow; font-size: 70px;'>正确! </span>","null","html-keyboard-response","13","186832","0.0-8.0-1.0-1.0-0.0-1.1","5","5","6","5","4","4","3","4","4","4","4","0","-1","1","1","-1","0","0","0","5","4","5","4","4","4","5","4","4","4","6","7","5","7","6","7","6","5","6","6","5","4","4","5","3","6","5","5","5","1","5","5","6","4","5","5","5","5","5","5","3","4","3","3","2","5","5","6","5","6","5","6","5","4","3","6","3","5","4","5","789244798249869314","马","640","Female","[""好她"",""坏她"",""好我"",""坏我""]","[""强她"",""弱她"",""强我"",""弱我""]","","","","","","","","","","","","","","","","","","","","","","","","","","","","","","feedback_test","","","","","","","","",""
"null","","null","psychophysics","14","189045","0.0-8.0-1.0-1.0-0.0-0.2","5","5","6","5","4","4","3","4","4","4","4","0","-1","1","1","-1","0","0","0","5","4","5","4","4","4","5","4","4","4","6","7","5","7","6","7","6","5","6","6","5","4","4","5","3","6","5","5","5","1","5","5","6","4","5","5","5","5","5","5","3","4","3","3","2","5","5","6","5","6","5","6","5","4","3","6","3","5","4","5","789244798249869314","马","640","Female","[""好她"",""坏她"",""好我"",""坏我""]","[""强她"",""弱她"",""强我"",""弱我""]","","","","","","","","null","","","","","","","","","","key","null","16.665587786259618","768","428","f","false","match","img/hexagon.png","强她","强她","prac_ALT2_ability","practice_ability","","","","","","","","",""
"null","<span class='add_' style='color:yellow; font-size: 70px;'> 太慢! </span>","null","html-keyboard-response","15","189553","0.0-8.0-1.0-1.0-0.0-1.2","5","5","6","5","4","4","3","4","4","4","4","0","-1","1","1","-1","0","0","0","5","4","5","4","4","4","5","4","4","4","6","7","5","7","6","7","6","5","6","6","5","4","4","5","3","6","5","5","5","1","5","5","6","4","5","5","5","5","5","5","3","4","3","3","2","5","5","6","5","6","5","6","5","4","3","6","3","5","4","5","789244798249869314","马","640","Female","[""好她"",""坏她"",""好我"",""坏我""]","[""强她"",""弱她"",""强我"",""弱我""]","","","","","","","","","","","","","","","","","","","","","","","","","","","","","","feedback_test","","","","","","","","",""
"851","","f","psychophysics","16","191411","0.0-8.0-1.0-1.0-0.0-0.3","5","5","6","5","4","4","3","4","4","4","4","0","-1","1","1","-1","0","0","0","5","4","5","4","4","4","5","4","4","4","6","7","5","7","6","7","6","5","6","6","5","4","4","5","3","6","5","5","5","1","5","5","6","4","5","5","5","5","5","5","3","4","3","3","2","5","5","6","5","6","5","6","5","4","3","6","3","5","4","5","789244798249869314","马","640","Female","[""好她"",""坏她"",""好我"",""坏我""]","[""强她"",""弱她"",""强我"",""弱我""]","","","","","","","","match","","","","","","","","","","key","f","16.663409090909145","768","428","f","true","match","img/triangle.png","强我","强我","prac_ALT2_ability","practice_ability","","","","","","","","",""
"null","<span style='color:GreenYellow; font-size: 70px;'>正确! </span>","null","html-keyboard-response","17","191921","0.0-8.0-1.0-1.0-0.0-1.3","5","5","6","5","4","4","3","4","4","4","4","0","-1","1","1","-1","0","0","0","5","4","5","4","4","4","5","4","4","4","6","7","5","7","6","7","6","5","6","6","5","4","4","5","3","6","5","5","5","1","5","5","6","4","5","5","5","5","5","5","3","4","3","3","2","5","5","6","5","6","5","6","5","4","3","6","3","5","4","5","789244798249869314","马","640","Female","[""好她"",""坏她"",""好我"",""坏我""]","[""强她"",""弱她"",""强我"",""弱我""]","","","","","","","","","","","","","","","","","","","","","","","","","","","","","","feedback_test","","","","","","","","",""
"891","","j","psychophysics","18","193819","0.0-8.0-1.0-1.0-0.0-0.4","5","5","6","5","4","4","3","4","4","4","4","0","-1","1","1","-1","0","0","0","5","4","5","4","4","4","5","4","4","4","6","7","5","7","6","7","6","5","6","6","5","4","4","5","3","6","5","5","5","1","5","5","6","4","5","5","5","5","5","5","3","4","3","3","2","5","5","6","5","6","5","6","5","4","3","6","3","5","4","5","789244798249869314","马","640","Female","[""好她"",""坏她"",""好我"",""坏我""]","[""强她"",""弱她"",""强我"",""弱我""]","","","","","","","","nonmatch","","","","","","","","","","key","j","16.664097345132532","768","428","j","true","nonmatch","img/ellipse.png","强我","弱我","prac_ALT2_ability","practice_ability","","","","","","","","",""
"null","<span style='color:GreenYellow; font-size: 70px;'>正确! </span>","null","html-keyboard-response","19","194328","0.0-8.0-1.0-1.0-0.0-1.4","5","5","6","5","4","4","3","4","4","4","4","0","-1","1","1","-1","0","0","0","5","4","5","4","4","4","5","4","4","4","6","7","5","7","6","7","6","5","6","6","5","4","4","5","3","6","5","5","5","1","5","5","6","4","5","5","5","5","5","5","3","4","3","3","2","5","5","6","5","6","5","6","5","4","3","6","3","5","4","5","789244798249869314","马","640","Female","[""好她"",""坏她"",""好我"",""坏我""]","[""强她"",""弱她"",""强我"",""弱我""]","","","","","","","","","","","","","","","","","","","","","","","","","","","","","","feedback_test","","","","","","","","",""
"1162","","f","psychophysics","20","196494","0.0-8.0-1.0-1.0-0.0-0.5","5","5","6","5","4","4","3","4","4","4","4","0","-1","1","1","-1","0","0","0","5","4","5","4","4","4","5","4","4","4","6","7","5","7","6","7","6","5","6","6","5","4","4","5","3","6","5","5","5","1","5","5","6","4","5","5","5","5","5","5","3","4","3","3","2","5","5","6","5","6","5","6","5","4","3","6","3","5","4","5","789244798249869314","马","640","Female","[""好她"",""坏她"",""好我"",""坏我""]","[""强她"",""弱她"",""强我"",""弱我""]","","","","","","","","match","","","","","","","","","","key","f","16.666000000000167","768","428","j","false","nonmatch","img/triangle.png","弱她","强我","prac_ALT2_ability","practice_ability","","","","","","","","",""
"null","<span style='color:red; font-size: 70px;'>错误! </span>","null","html-keyboard-response","21","197012","0.0-8.0-1.0-1.0-0.0-1.5","5","5","6","5","4","4","3","4","4","4","4","0","-1","1","1","-1","0","0","0","5","4","5","4","4","4","5","4","4","4","6","7","5","7","6","7","6","5","6","6","5","4","4","5","3","6","5","5","5","1","5","5","6","4","5","5","5","5","5","5","3","4","3","3","2","5","5","6","5","6","5","6","5","4","3","6","3","5","4","5","789244798249869314","马","640","Female","[""好她"",""坏她"",""好我"",""坏我""]","[""强她"",""弱她"",""强我"",""弱我""]","","","","","","","","","","","","","","","","","","","","","","","","","","","","","","feedback_test","","","","","","","","",""
"1092","","f","psychophysics","22","199110","0.0-8.0-1.0-1.0-0.0-0.6","5","5","6","5","4","4","3","4","4","4","4","0","-1","1","1","-1","0","0","0","5","4","5","4","4","4","5","4","4","4","6","7","5","7","6","7","6","5","6","6","5","4","4","5","3","6","5","5","5","1","5","5","6","4","5","5","5","5","5","5","3","4","3","3","2","5","5","6","5","6","5","6","5","4","3","6","3","5","4","5","789244798249869314","马","640","Female","[""好她"",""坏她"",""好我"",""坏我""]","[""强她"",""弱她"",""强我"",""弱我""]","","","","","","","","match","","","","","","","","","","key","f","16.66524193548403","768","428","j","false","nonmatch","img/diamond.png","弱我","弱她","prac_ALT2_ability","practice_ability","","","","","","","","",""
"null","<span style='color:red; font-size: 70px;'>错误! </span>","null","html-keyboard-response","23","199619","0.0-8.0-1.0-1.0-0.0-1.6","5","5","6","5","4","4","3","4","4","4","4","0","-1","1","1","-1","0","0","0","5","4","5","4","4","4","5","4","4","4","6","7","5","7","6","7","6","5","6","6","5","4","4","5","3","6","5","5","5","1","5","5","6","4","5","5","5","5","5","5","3","4","3","3","2","5","5","6","5","6","5","6","5","4","3","6","3","5","4","5","789244798249869314","马","640","Female","[""好她"",""坏她"",""好我"",""坏我""]","[""强她"",""弱她"",""强我"",""弱我""]","","","","","","","","","","","","","","","","","","","","","","","","","","","","","","feedback_test","","","","","","","","",""
"943","","j","psychophysics","24","201571","0.0-8.0-1.0-1.0-0.0-0.7","5","5","6","5","4","4","3","4","4","4","4","0","-1","1","1","-1","0","0","0","5","4","5","4","4","4","5","4","4","4","6","7","5","7","6","7","6","5","6","6","5","4","4","5","3","6","5","5","5","1","5","5","6","4","5","5","5","5","5","5","3","4","3","3","2","5","5","6","5","6","5","6","5","4","3","6","3","5","4","5","789244798249869314","马","640","Female","[""好她"",""坏她"",""好我"",""坏我""]","[""强她"",""弱她"",""强我"",""弱我""]","","","","","","","","nonmatch","","","","","","","","","","key","j","16.664715517241284","768","428","j","true","nonmatch","img/triangle.png","弱我","强我","prac_ALT2_ability","practice_ability","","","","","","","","",""
"null","<span style='color:GreenYellow; font-size: 70px;'>正确! </span>","null","html-keyboard-response","25","202083","0.0-8.0-1.0-1.0-0.0-1.7","5","5","6","5","4","4","3","4","4","4","4","0","-1","1","1","-1","0","0","0","5","4","5","4","4","4","5","4","4","4","6","7","5","7","6","7","6","5","6","6","5","4","4","5","3","6","5","5","5","1","5","5","6","4","5","5","5","5","5","5","3","4","3","3","2","5","5","6","5","6","5","6","5","4","3","6","3","5","4","5","789244798249869314","马","640","Female","[""好她"",""坏她"",""好我"",""坏我""]","[""强她"",""弱她"",""强我"",""弱我""]","","","","","","","","","","","","","","","","","","","","","","","","","","","","","","feedback_test","","","","","","","","",""
"986","","j","psychophysics","26","204077","0.0-8.0-1.0-1.0-0.0-0.8","5","5","6","5","4","4","3","4","4","4","4","0","-1","1","1","-1","0","0","0","5","4","5","4","4","4","5","4","4","4","6","7","5","7","6","7","6","5","6","6","5","4","4","5","3","6","5","5","5","1","5","5","6","4","5","5","5","5","5","5","3","4","3","3","2","5","5","6","5","6","5","6","5","4","3","6","3","5","4","5","789244798249869314","马","640","Female","[""好她"",""坏她"",""好我"",""坏我""]","[""强她"",""弱她"",""强我"",""弱我""]","","","","","","","","nonmatch","","","","","","","","","","key","j","16.665584745762626","768","428","f","false","match","img/hexagon.png","强她","强她","prac_ALT2_ability","practice_ability","","","","","","","","",""
"null","<span style='color:red; font-size: 70px;'>错误! </span>","null","html-keyboard-response","27","204588","0.0-8.0-1.0-1.0-0.0-1.8","5","5","6","5","4","4","3","4","4","4","4","0","-1","1","1","-1","0","0","0","5","4","5","4","4","4","5","4","4","4","6","7","5","7","6","7","6","5","6","6","5","4","4","5","3","6","5","5","5","1","5","5","6","4","5","5","5","5","5","5","3","4","3","3","2","5","5","6","5","6","5","6","5","4","3","6","3","5","4","5","789244798249869314","马","640","Female","[""好她"",""坏她"",""好我"",""坏我""]","[""强她"",""弱她"",""强我"",""弱我""]","","","","","","","","","","","","","","","","","","","","","","","","","","","","","","feedback_test","","","","","","","","",""
"1172","","f","psychophysics","28","206766","0.0-8.0-1.0-1.0-0.0-0.9","5","5","6","5","4","4","3","4","4","4","4","0","-1","1","1","-1","0","0","0","5","4","5","4","4","4","5","4","4","4","6","7","5","7","6","7","6","5","6","6","5","4","4","5","3","6","5","5","5","1","5","5","6","4","5","5","5","5","5","5","3","4","3","3","2","5","5","6","5","6","5","6","5","4","3","6","3","5","4","5","789244798249869314","马","640","Female","[""好她"",""坏她"",""好我"",""坏我""]","[""强她"",""弱她"",""强我"",""弱我""]","","","","","","","","match","","","","","","","","","","key","f","16.663330769230825","768","428","f","true","match","img/ellipse.png","弱我","弱我","prac_ALT2_ability","practice_ability","","","","","","","","",""
"null","<span style='color:GreenYellow; font-size: 70px;'>正确! </span>","null","html-keyboard-response","29","207277","0.0-8.0-1.0-1.0-0.0-1.9","5","5","6","5","4","4","3","4","4","4","4","0","-1","1","1","-1","0","0","0","5","4","5","4","4","4","5","4","4","4","6","7","5","7","6","7","6","5","6","6","5","4","4","5","3","6","5","5","5","1","5","5","6","4","5","5","5","5","5","5","3","4","3","3","2","5","5","6","5","6","5","6","5","4","3","6","3","5","4","5","789244798249869314","马","640","Female","[""好她"",""坏她"",""好我"",""坏我""]","[""强她"",""弱她"",""强我"",""弱我""]","","","","","","","","","","","","","","","","","","","","","","","","","","","","","","feedback_test","","","","","","","","",""
"948","","f","psychophysics","30","209238","0.0-8.0-1.0-1.0-0.0-0.10","5","5","6","5","4","4","3","4","4","4","4","0","-1","1","1","-1","0","0","0","5","4","5","4","4","4","5","4","4","4","6","7","5","7","6","7","6","5","6","6","5","4","4","5","3","6","5","5","5","1","5","5","6","4","5","5","5","5","5","5","3","4","3","3","2","5","5","6","5","6","5","6","5","4","3","6","3","5","4","5","789244798249869314","马","640","Female","[""好她"",""坏她"",""好我"",""坏我""]","[""强她"",""弱她"",""强我"",""弱我""]","","","","","","","","match","","","","","","","","","","key","f","16.66350862068969","768","428","f","true","match","img/hexagon.png","强她","强她","prac_ALT2_ability","practice_ability","","","","","","","","",""
"null","<span style='color:GreenYellow; font-size: 70px;'>正确! </span>","null","html-keyboard-response","31","209748","0.0-8.0-1.0-1.0-0.0-1.10","5","5","6","5","4","4","3","4","4","4","4","0","-1","1","1","-1","0","0","0","5","4","5","4","4","4","5","4","4","4","6","7","5","7","6","7","6","5","6","6","5","4","4","5","3","6","5","5","5","1","5","5","6","4","5","5","5","5","5","5","3","4","3","3","2","5","5","6","5","6","5","6","5","4","3","6","3","5","4","5","789244798249869314","马","640","Female","[""好她"",""坏她"",""好我"",""坏我""]","[""强她"",""弱她"",""强我"",""弱我""]","","","","","","","","","","","","","","","","","","","","","","","","","","","","","","feedback_test","","","","","","","","",""
"null","","null","psychophysics","32","211964","0.0-8.0-1.0-1.0-0.0-0.11","5","5","6","5","4","4","3","4","4","4","4","0","-1","1","1","-1","0","0","0","5","4","5","4","4","4","5","4","4","4","6","7","5","7","6","7","6","5","6","6","5","4","4","5","3","6","5","5","5","1","5","5","6","4","5","5","5","5","5","5","3","4","3","3","2","5","5","6","5","6","5","6","5","4","3","6","3","5","4","5","789244798249869314","马","640","Female","[""好她"",""坏她"",""好我"",""坏我""]","[""强她"",""弱她"",""强我"",""弱我""]","","","","","","","","null","","","","","","","","","","key","null","16.663962121212204","768","428","f","false","match","img/ellipse.png","弱我","弱我","prac_ALT2_ability","practice_ability","","","","","","","","",""
"null","<span class='add_' style='color:yellow; font-size: 70px;'> 太慢! </span>","null","html-keyboard-response","33","212474","0.0-8.0-1.0-1.0-0.0-1.11","5","5","6","5","4","4","3","4","4","4","4","0","-1","1","1","-1","0","0","0","5","4","5","4","4","4","5","4","4","4","6","7","5","7","6","7","6","5","6","6","5","4","4","5","3","6","5","5","5","1","5","5","6","4","5","5","5","5","5","5","3","4","3","3","2","5","5","6","5","6","5","6","5","4","3","6","3","5","4","5","789244798249869314","马","640","Female","[""好她"",""坏她"",""好我"",""坏我""]","[""强她"",""弱她"",""强我"",""弱我""]","","","","","","","","","","","","","","","","","","","","","","","","","","","","","","feedback_test","","","","","","","","",""
"1003","","j","psychophysics","34","214483","0.0-8.0-1.0-1.0-0.0-0.12","5","5","6","5","4","4","3","4","4","4","4","0","-1","1","1","-1","0","0","0","5","4","5","4","4","4","5","4","4","4","6","7","5","7","6","7","6","5","6","6","5","4","4","5","3","6","5","5","5","1","5","5","6","4","5","5","5","5","5","5","3","4","3","3","2","5","5","6","5","6","5","6","5","4","3","6","3","5","4","5","789244798249869314","马","640","Female","[""好她"",""坏她"",""好我"",""坏我""]","[""强她"",""弱她"",""强我"",""弱我""]","","","","","","","","nonmatch","","","","","","","","","","key","j","16.663966386554765","768","428","j","true","nonmatch","img/hexagon.png","弱我","强她","prac_ALT2_ability","practice_ability","","","","","","","","",""
"null","<span style='color:GreenYellow; font-size: 70px;'>正确! </span>","null","html-keyboard-response","35","214995","0.0-8.0-1.0-1.0-0.0-1.12","5","5","6","5","4","4","3","4","4","4","4","0","-1","1","1","-1","0","0","0","5","4","5","4","4","4","5","4","4","4","6","7","5","7","6","7","6","5","6","6","5","4","4","5","3","6","5","5","5","1","5","5","6","4","5","5","5","5","5","5","3","4","3","3","2","5","5","6","5","6","5","6","5","4","3","6","3","5","4","5","789244798249869314","马","640","Female","[""好她"",""坏她"",""好我"",""坏我""]","[""强她"",""弱她"",""强我"",""弱我""]","","","","","","","","","","","","","","","","","","","","","","","","","","","","","","feedback_test","","","","","","","","",""
"1092","","f","psychophysics","36","217094","0.0-8.0-1.0-1.0-0.0-0.13","5","5","6","5","4","4","3","4","4","4","4","0","-1","1","1","-1","0","0","0","5","4","5","4","4","4","5","4","4","4","6","7","5","7","6","7","6","5","6","6","5","4","4","5","3","6","5","5","5","1","5","5","6","4","5","5","5","5","5","5","3","4","3","3","2","5","5","6","5","6","5","6","5","4","3","6","3","5","4","5","789244798249869314","马","640","Female","[""好她"",""坏她"",""好我"",""坏我""]","[""强她"",""弱她"",""强我"",""弱我""]","","","","","","","","match","","","","","","","","","","key","f","16.663168000000063","768","428","f","true","match","img/diamond.png","弱她","弱她","prac_ALT2_ability","practice_ability","","","","","","","","",""
"null","<span style='color:GreenYellow; font-size: 70px;'>正确! </span>","null","html-keyboard-response","37","217598","0.0-8.0-1.0-1.0-0.0-1.13","5","5","6","5","4","4","3","4","4","4","4","0","-1","1","1","-1","0","0","0","5","4","5","4","4","4","5","4","4","4","6","7","5","7","6","7","6","5","6","6","5","4","4","5","3","6","5","5","5","1","5","5","6","4","5","5","5","5","5","5","3","4","3","3","2","5","5","6","5","6","5","6","5","4","3","6","3","5","4","5","789244798249869314","马","640","Female","[""好她"",""坏她"",""好我"",""坏我""]","[""强她"",""弱她"",""强我"",""弱我""]","","","","","","","","","","","","","","","","","","","","","","","","","","","","","","feedback_test","","","","","","","","",""
"857","","j","psychophysics","38","219460","0.0-8.0-1.0-1.0-0.0-0.14","5","5","6","5","4","4","3","4","4","4","4","0","-1","1","1","-1","0","0","0","5","4","5","4","4","4","5","4","4","4","6","7","5","7","6","7","6","5","6","6","5","4","4","5","3","6","5","5","5","1","5","5","6","4","5","5","5","5","5","5","3","4","3","3","2","5","5","6","5","6","5","6","5","4","3","6","3","5","4","5","789244798249869314","马","640","Female","[""好她"",""坏她"",""好我"",""坏我""]","[""强她"",""弱她"",""强我"",""弱我""]","","","","","","","","nonmatch","","","","","","","","","","key","j","16.66658558558567","768","428","j","true","nonmatch","img/diamond.png","强她","弱她","prac_ALT2_ability","practice_ability","","","","","","","","",""
"null","<span style='color:GreenYellow; font-size: 70px;'>正确! </span>","null","html-keyboard-response","39","219969","0.0-8.0-1.0-1.0-0.0-1.14","5","5","6","5","4","4","3","4","4","4","4","0","-1","1","1","-1","0","0","0","5","4","5","4","4","4","5","4","4","4","6","7","5","7","6","7","6","5","6","6","5","4","4","5","3","6","5","5","5","1","5","5","6","4","5","5","5","5","5","5","3","4","3","3","2","5","5","6","5","6","5","6","5","4","3","6","3","5","4","5","789244798249869314","马","640","Female","[""好她"",""坏她"",""好我"",""坏我""]","[""强她"",""弱她"",""强我"",""弱我""]","","","","","","","","","","","","","","","","","","","","","","","","","","","","","","feedback_test","","","","","","","","",""
"922","","j","psychophysics","40","221895","0.0-8.0-1.0-1.0-0.0-0.15","5","5","6","5","4","4","3","4","4","4","4","0","-1","1","1","-1","0","0","0","5","4","5","4","4","4","5","4","4","4","6","7","5","7","6","7","6","5","6","6","5","4","4","5","3","6","5","5","5","1","5","5","6","4","5","5","5","5","5","5","3","4","3","3","2","5","5","6","5","6","5","6","5","4","3","6","3","5","4","5","789244798249869314","马","640","Female","[""好她"",""坏她"",""好我"",""坏我""]","[""强她"",""弱她"",""强我"",""弱我""]","","","","","","","","nonmatch","","","","","","","","","","key","j","16.81215789473693","768","428","j","true","nonmatch","img/hexagon.png","弱她","强她","prac_ALT2_ability","practice_ability","","","","","","","","",""
"null","<span style='color:GreenYellow; font-size: 70px;'>正确! </span>","null","html-keyboard-response","41","222405","0.0-8.0-1.0-1.0-0.0-1.15","5","5","6","5","4","4","3","4","4","4","4","0","-1","1","1","-1","0","0","0","5","4","5","4","4","4","5","4","4","4","6","7","5","7","6","7","6","5","6","6","5","4","4","5","3","6","5","5","5","1","5","5","6","4","5","5","5","5","5","5","3","4","3","3","2","5","5","6","5","6","5","6","5","4","3","6","3","5","4","5","789244798249869314","马","640","Female","[""好她"",""坏她"",""好我"",""坏我""]","[""强她"",""弱她"",""强我"",""弱我""]","","","","","","","","","","","","","","","","","","","","","","","","","","","","","","feedback_test","","","","","","","","",""
"901","","j","psychophysics","42","224320","0.0-8.0-1.0-1.0-0.0-0.16","5","5","6","5","4","4","3","4","4","4","4","0","-1","1","1","-1","0","0","0","5","4","5","4","4","4","5","4","4","4","6","7","5","7","6","7","6","5","6","6","5","4","4","5","3","6","5","5","5","1","5","5","6","4","5","5","5","5","5","5","3","4","3","3","2","5","5","6","5","6","5","6","5","4","3","6","3","5","4","5","789244798249869314","马","640","Female","[""好她"",""坏她"",""好我"",""坏我""]","[""强她"",""弱她"",""强我"",""弱我""]","","","","","","","","nonmatch","","","","","","","","","","key","j","16.663858407079676","768","428","j","true","nonmatch","img/ellipse.png","强她","弱我","prac_ALT2_ability","practice_ability","","","","","","","","",""
"null","<span style='color:GreenYellow; font-size: 70px;'>正确! </span>","null","html-keyboard-response","43","224829","0.0-8.0-1.0-1.0-0.0-1.16","5","5","6","5","4","4","3","4","4","4","4","0","-1","1","1","-1","0","0","0","5","4","5","4","4","4","5","4","4","4","6","7","5","7","6","7","6","5","6","6","5","4","4","5","3","6","5","5","5","1","5","5","6","4","5","5","5","5","5","5","3","4","3","3","2","5","5","6","5","6","5","6","5","4","3","6","3","5","4","5","789244798249869314","马","640","Female","[""好她"",""坏她"",""好我"",""坏我""]","[""强她"",""弱她"",""强我"",""弱我""]","","","","","","","","","","","","","","","","","","","","","","","","","","","","","","feedback_test","","","","","","","","",""
"1004","","j","psychophysics","44","226839","0.0-8.0-1.0-1.0-0.0-0.17","5","5","6","5","4","4","3","4","4","4","4","0","-1","1","1","-1","0","0","0","5","4","5","4","4","4","5","4","4","4","6","7","5","7","6","7","6","5","6","6","5","4","4","5","3","6","5","5","5","1","5","5","6","4","5","5","5","5","5","5","3","4","3","3","2","5","5","6","5","6","5","6","5","4","3","6","3","5","4","5","789244798249869314","马","640","Female","[""好她"",""坏她"",""好我"",""坏我""]","[""强她"",""弱她"",""强我"",""弱我""]","","","","","","","","nonmatch","","","","","","","","","","key","j","16.66388235294124","768","428","j","true","nonmatch","img/ellipse.png","弱她","弱我","prac_ALT2_ability","practice_ability","","","","","","","","",""
"null","<span style='color:GreenYellow; font-size: 70px;'>正确! </span>","null","html-keyboard-response","45","227351","0.0-8.0-1.0-1.0-0.0-1.17","5","5","6","5","4","4","3","4","4","4","4","0","-1","1","1","-1","0","0","0","5","4","5","4","4","4","5","4","4","4","6","7","5","7","6","7","6","5","6","6","5","4","4","5","3","6","5","5","5","1","5","5","6","4","5","5","5","5","5","5","3","4","3","3","2","5","5","6","5","6","5","6","5","4","3","6","3","5","4","5","789244798249869314","马","640","Female","[""好她"",""坏她"",""好我"",""坏我""]","[""强她"",""弱她"",""强我"",""弱我""]","","","","","","","","","","","","","","","","","","","","","","","","","","","","","","feedback_test","","","","","","","","",""
"986","","j","psychophysics","46","229342","0.0-8.0-1.0-1.0-0.0-0.18","5","5","6","5","4","4","3","4","4","4","4","0","-1","1","1","-1","0","0","0","5","4","5","4","4","4","5","4","4","4","6","7","5","7","6","7","6","5","6","6","5","4","4","5","3","6","5","5","5","1","5","5","6","4","5","5","5","5","5","5","3","4","3","3","2","5","5","6","5","6","5","6","5","4","3","6","3","5","4","5","789244798249869314","马","640","Female","[""好她"",""坏她"",""好我"",""坏我""]","[""强她"",""弱她"",""强我"",""弱我""]","","","","","","","","nonmatch","","","","","","","","","","key","j","16.601872881355998","768","428","f","false","match","img/diamond.png","弱她","弱她","prac_ALT2_ability","practice_ability","","","","","","","","",""
"null","<span style='color:red; font-size: 70px;'>错误! </span>","null","html-keyboard-response","47","229849","0.0-8.0-1.0-1.0-0.0-1.18","5","5","6","5","4","4","3","4","4","4","4","0","-1","1","1","-1","0","0","0","5","4","5","4","4","4","5","4","4","4","6","7","5","7","6","7","6","5","6","6","5","4","4","5","3","6","5","5","5","1","5","5","6","4","5","5","5","5","5","5","3","4","3","3","2","5","5","6","5","6","5","6","5","4","3","6","3","5","4","5","789244798249869314","马","640","Female","[""好她"",""坏她"",""好我"",""坏我""]","[""强她"",""弱她"",""强我"",""弱我""]","","","","","","","","","","","","","","","","","","","","","","","","","","","","","","feedback_test","","","","","","","","",""
"373","","f","psychophysics","48","231227","0.0-8.0-1.0-1.0-0.0-0.19","5","5","6","5","4","4","3","4","4","4","4","0","-1","1","1","-1","0","0","0","5","4","5","4","4","4","5","4","4","4","6","7","5","7","6","7","6","5","6","6","5","4","4","5","3","6","5","5","5","1","5","5","6","4","5","5","5","5","5","5","3","4","3","3","2","5","5","6","5","6","5","6","5","4","3","6","3","5","4","5","789244798249869314","马","640","Female","[""好她"",""坏她"",""好我"",""坏我""]","[""强她"",""弱她"",""强我"",""弱我""]","","","","","","","","match","","","","","","","","","","key","f","16.66392682926806","768","428","f","true","match","img/ellipse.png","弱我","弱我","prac_ALT2_ability","practice_ability","","","","","","","","",""
"null","<span style='color:GreenYellow; font-size: 70px;'>正确! </span>","null","html-keyboard-response","49","231740","0.0-8.0-1.0-1.0-0.0-1.19","5","5","6","5","4","4","3","4","4","4","4","0","-1","1","1","-1","0","0","0","5","4","5","4","4","4","5","4","4","4","6","7","5","7","6","7","6","5","6","6","5","4","4","5","3","6","5","5","5","1","5","5","6","4","5","5","5","5","5","5","3","4","3","3","2","5","5","6","5","6","5","6","5","4","3","6","3","5","4","5","789244798249869314","马","640","Female","[""好她"",""坏她"",""好我"",""坏我""]","[""强她"",""弱她"",""强我"",""弱我""]","","","","","","","","","","","","","","","","","","","","","","","","","","","","","","feedback_test","","","","","","","","",""
"597","","j","psychophysics","50","233349","0.0-8.0-1.0-1.0-0.0-0.20","5","5","6","5","4","4","3","4","4","4","4","0","-1","1","1","-1","0","0","0","5","4","5","4","4","4","5","4","4","4","6","7","5","7","6","7","6","5","6","6","5","4","4","5","3","6","5","5","5","1","5","5","6","4","5","5","5","5","5","5","3","4","3","3","2","5","5","6","5","6","5","6","5","4","3","6","3","5","4","5","789244798249869314","马","640","Female","[""好她"",""坏她"",""好我"",""坏我""]","[""强她"",""弱她"",""强我"",""弱我""]","","","","","","","","nonmatch","","","","","","","","","","key","j","16.665947368420895","768","428","j","true","nonmatch","img/diamond.png","强我","弱她","prac_ALT2_ability","practice_ability","","","","","","","","",""
"null","<span style='color:GreenYellow; font-size: 70px;'>正确! </span>","null","html-keyboard-response","51","233855","0.0-8.0-1.0-1.0-0.0-1.20","5","5","6","5","4","4","3","4","4","4","4","0","-1","1","1","-1","0","0","0","5","4","5","4","4","4","5","4","4","4","6","7","5","7","6","7","6","5","6","6","5","4","4","5","3","6","5","5","5","1","5","5","6","4","5","5","5","5","5","5","3","4","3","3","2","5","5","6","5","6","5","6","5","4","3","6","3","5","4","5","789244798249869314","马","640","Female","[""好她"",""坏她"",""好我"",""坏我""]","[""强她"",""弱她"",""强我"",""弱我""]","","","","","","","","","","","","","","","","","","","","","","","","","","","","","","feedback_test","","","","","","","","",""
"513","","f","psychophysics","52","235380","0.0-8.0-1.0-1.0-0.0-0.21","5","5","6","5","4","4","3","4","4","4","4","0","-1","1","1","-1","0","0","0","5","4","5","4","4","4","5","4","4","4","6","7","5","7","6","7","6","5","6","6","5","4","4","5","3","6","5","5","5","1","5","5","6","4","5","5","5","5","5","5","3","4","3","3","2","5","5","6","5","6","5","6","5","4","3","6","3","5","4","5","789244798249869314","马","640","Female","[""好她"",""坏她"",""好我"",""坏我""]","[""强她"",""弱她"",""强我"",""弱我""]","","","","","","","","match","","","","","","","","","","key","f","16.66469999999972","768","428","j","false","nonmatch","img/hexagon.png","强我","强她","prac_ALT2_ability","practice_ability","","","","","","","","",""
"null","<span style='color:red; font-size: 70px;'>错误! </span>","null","html-keyboard-response","53","235888","0.0-8.0-1.0-1.0-0.0-1.21","5","5","6","5","4","4","3","4","4","4","4","0","-1","1","1","-1","0","0","0","5","4","5","4","4","4","5","4","4","4","6","7","5","7","6","7","6","5","6","6","5","4","4","5","3","6","5","5","5","1","5","5","6","4","5","5","5","5","5","5","3","4","3","3","2","5","5","6","5","6","5","6","5","4","3","6","3","5","4","5","789244798249869314","马","640","Female","[""好她"",""坏她"",""好我"",""坏我""]","[""强她"",""弱她"",""强我"",""弱我""]","","","","","","","","","","","","","","","","","","","","","","","","","","","","","","feedback_test","","","","","","","","",""
"718","","j","psychophysics","54","237617","0.0-8.0-1.0-1.0-0.0-0.22","5","5","6","5","4","4","3","4","4","4","4","0","-1","1","1","-1","0","0","0","5","4","5","4","4","4","5","4","4","4","6","7","5","7","6","7","6","5","6","6","5","4","4","5","3","6","5","5","5","1","5","5","6","4","5","5","5","5","5","5","3","4","3","3","2","5","5","6","5","6","5","6","5","4","3","6","3","5","4","5","789244798249869314","马","640","Female","[""好她"",""坏她"",""好我"",""坏我""]","[""强她"",""弱她"",""强我"",""弱我""]","","","","","","","","nonmatch","","","","","","","","","","key","j","16.66415686274516","768","428","f","false","match","img/diamond.png","弱她","弱她","prac_ALT2_ability","practice_ability","","","","","","","","",""
"null","<span style='color:red; font-size: 70px;'>错误! </span>","null","html-keyboard-response","55","238129","0.0-8.0-1.0-1.0-0.0-1.22","5","5","6","5","4","4","3","4","4","4","4","0","-1","1","1","-1","0","0","0","5","4","5","4","4","4","5","4","4","4","6","7","5","7","6","7","6","5","6","6","5","4","4","5","3","6","5","5","5","1","5","5","6","4","5","5","5","5","5","5","3","4","3","3","2","5","5","6","5","6","5","6","5","4","3","6","3","5","4","5","789244798249869314","马","640","Female","[""好她"",""坏她"",""好我"",""坏我""]","[""强她"",""弱她"",""强我"",""弱我""]","","","","","","","","","","","","","","","","","","","","","","","","","","","","","","feedback_test","","","","","","","","",""
"850","","f","psychophysics","56","239985","0.0-8.0-1.0-1.0-0.0-0.23","5","5","6","5","4","4","3","4","4","4","4","0","-1","1","1","-1","0","0","0","5","4","5","4","4","4","5","4","4","4","6","7","5","7","6","7","6","5","6","6","5","4","4","5","3","6","5","5","5","1","5","5","6","4","5","5","5","5","5","5","3","4","3","3","2","5","5","6","5","6","5","6","5","4","3","6","3","5","4","5","789244798249869314","马","640","Female","[""好她"",""坏她"",""好我"",""坏我""]","[""强她"",""弱她"",""强我"",""弱我""]","","","","","","","","match","","","","","","","","","","key","f","16.66478181818172","768","428","f","true","match","img/triangle.png","强我","强我","prac_ALT2_ability","practice_ability","","","","","","","","",""
"null","<span style='color:GreenYellow; font-size: 70px;'>正确! </span>","null","html-keyboard-response","57","240489","0.0-8.0-1.0-1.0-0.0-1.23","5","5","6","5","4","4","3","4","4","4","4","0","-1","1","1","-1","0","0","0","5","4","5","4","4","4","5","4","4","4","6","7","5","7","6","7","6","5","6","6","5","4","4","5","3","6","5","5","5","1","5","5","6","4","5","5","5","5","5","5","3","4","3","3","2","5","5","6","5","6","5","6","5","4","3","6","3","5","4","5","789244798249869314","马","640","Female","[""好她"",""坏她"",""好我"",""坏我""]","[""强她"",""弱她"",""强我"",""弱我""]","","","","","","","","","","","","","","","","","","","","","","","","","","","","","","feedback_test","","","","","","","","",""
"939","","j","psychophysics","58","242437","0.0-8.0-1.0-1.0-0.0-0.24","5","5","6","5","4","4","3","4","4","4","4","0","-1","1","1","-1","0","0","0","5","4","5","4","4","4","5","4","4","4","6","7","5","7","6","7","6","5","6","6","5","4","4","5","3","6","5","5","5","1","5","5","6","4","5","5","5","5","5","5","3","4","3","3","2","5","5","6","5","6","5","6","5","4","3","6","3","5","4","5","789244798249869314","马","640","Female","[""好她"",""坏她"",""好我"",""坏我""]","[""强她"",""弱她"",""强我"",""弱我""]","","","","","","","","nonmatch","","","","","","","","","","key","j","16.66372413793102","768","428","f","false","match","img/triangle.png","强我","强我","prac_ALT2_ability","practice_ability","","","","","","","","",""
"null","<span style='color:red; font-size: 70px;'>错误! </span>","null","html-keyboard-response","59","242947","0.0-8.0-1.0-1.0-0.0-1.24","5","5","6","5","4","4","3","4","4","4","4","0","-1","1","1","-1","0","0","0","5","4","5","4","4","4","5","4","4","4","6","7","5","7","6","7","6","5","6","6","5","4","4","5","3","6","5","5","5","1","5","5","6","4","5","5","5","5","5","5","3","4","3","3","2","5","5","6","5","6","5","6","5","4","3","6","3","5","4","5","789244798249869314","马","640","Female","[""好她"",""坏她"",""好我"",""坏我""]","[""强她"",""弱她"",""强我"",""弱我""]","","","","","","","","","","","","","","","","","","","","","","","","","","","","","","feedback_test","","","","","","","","",""
"920","","j","psychophysics","60","244873","0.0-8.0-1.0-1.0-0.0-0.25","5","5","6","5","4","4","3","4","4","4","4","0","-1","1","1","-1","0","0","0","5","4","5","4","4","4","5","4","4","4","6","7","5","7","6","7","6","5","6","6","5","4","4","5","3","6","5","5","5","1","5","5","6","4","5","5","5","5","5","5","3","4","3","3","2","5","5","6","5","6","5","6","5","4","3","6","3","5","4","5","789244798249869314","马","640","Female","[""好她"",""坏她"",""好我"",""坏我""]","[""强她"",""弱她"",""强我"",""弱我""]","","","","","","","","nonmatch","","","","","","","","","","key","j","16.594710526315968","768","428","j","true","nonmatch","img/ellipse.png","强她","弱我","prac_ALT2_ability","practice_ability","","","","","","","","",""
"null","<span style='color:GreenYellow; font-size: 70px;'>正确! </span>","null","html-keyboard-response","61","245388","0.0-8.0-1.0-1.0-0.0-1.25","5","5","6","5","4","4","3","4","4","4","4","0","-1","1","1","-1","0","0","0","5","4","5","4","4","4","5","4","4","4","6","7","5","7","6","7","6","5","6","6","5","4","4","5","3","6","5","5","5","1","5","5","6","4","5","5","5","5","5","5","3","4","3","3","2","5","5","6","5","6","5","6","5","4","3","6","3","5","4","5","789244798249869314","马","640","Female","[""好她"",""坏她"",""好我"",""坏我""]","[""强她"",""弱她"",""强我"",""弱我""]","","","","","","","","","","","","","","","","","","","","","","","","","","","","","","feedback_test","","","","","","","","",""
"922","","f","psychophysics","62","247320","0.0-8.0-1.0-1.0-0.0-0.26","5","5","6","5","4","4","3","4","4","4","4","0","-1","1","1","-1","0","0","0","5","4","5","4","4","4","5","4","4","4","6","7","5","7","6","7","6","5","6","6","5","4","4","5","3","6","5","5","5","1","5","5","6","4","5","5","5","5","5","5","3","4","3","3","2","5","5","6","5","6","5","6","5","4","3","6","3","5","4","5","789244798249869314","马","640","Female","[""好她"",""坏她"",""好我"",""坏我""]","[""强她"",""弱她"",""强我"",""弱我""]","","","","","","","","match","","","","","","","","","","key","f","16.663286956521663","768","428","j","false","nonmatch","img/hexagon.png","强我","强她","prac_ALT2_ability","practice_ability","","","","","","","","",""
"null","<span style='color:red; font-size: 70px;'>错误! </span>","null","html-keyboard-response","63","247824","0.0-8.0-1.0-1.0-0.0-1.26","5","5","6","5","4","4","3","4","4","4","4","0","-1","1","1","-1","0","0","0","5","4","5","4","4","4","5","4","4","4","6","7","5","7","6","7","6","5","6","6","5","4","4","5","3","6","5","5","5","1","5","5","6","4","5","5","5","5","5","5","3","4","3","3","2","5","5","6","5","6","5","6","5","4","3","6","3","5","4","5","789244798249869314","马","640","Female","[""好她"",""坏她"",""好我"",""坏我""]","[""强她"",""弱她"",""强我"",""弱我""]","","","","","","","","","","","","","","","","","","","","","","","","","","","","","","feedback_test","","","","","","","","",""
"998","","j","psychophysics","64","249829","0.0-8.0-1.0-1.0-0.0-0.27","5","5","6","5","4","4","3","4","4","4","4","0","-1","1","1","-1","0","0","0","5","4","5","4","4","4","5","4","4","4","6","7","5","7","6","7","6","5","6","6","5","4","4","5","3","6","5","5","5","1","5","5","6","4","5","5","5","5","5","5","3","4","3","3","2","5","5","6","5","6","5","6","5","4","3","6","3","5","4","5","789244798249869314","马","640","Female","[""好她"",""坏她"",""好我"",""坏我""]","[""强她"",""弱她"",""强我"",""弱我""]","","","","","","","","nonmatch","","","","","","","","","","key","j","16.80460169491525","768","428","j","true","nonmatch","img/triangle.png","弱她","强我","prac_ALT2_ability","practice_ability","","","","","","","","",""
"null","<span style='color:GreenYellow; font-size: 70px;'>正确! </span>","null","html-keyboard-response","65","250340","0.0-8.0-1.0-1.0-0.0-1.27","5","5","6","5","4","4","3","4","4","4","4","0","-1","1","1","-1","0","0","0","5","4","5","4","4","4","5","4","4","4","6","7","5","7","6","7","6","5","6","6","5","4","4","5","3","6","5","5","5","1","5","5","6","4","5","5","5","5","5","5","3","4","3","3","2","5","5","6","5","6","5","6","5","4","3","6","3","5","4","5","789244798249869314","马","640","Female","[""好她"",""坏她"",""好我"",""坏我""]","[""强她"",""弱她"",""强我"",""弱我""]","","","","","","","","","","","","","","","","","","","","","","","","","","","","","","feedback_test","","","","","","","","",""
"938","","f","psychophysics","66","252285","0.0-8.0-1.0-1.0-0.0-0.28","5","5","6","5","4","4","3","4","4","4","4","0","-1","1","1","-1","0","0","0","5","4","5","4","4","4","5","4","4","4","6","7","5","7","6","7","6","5","6","6","5","4","4","5","3","6","5","5","5","1","5","5","6","4","5","5","5","5","5","5","3","4","3","3","2","5","5","6","5","6","5","6","5","4","3","6","3","5","4","5","789244798249869314","马","640","Female","[""好她"",""坏她"",""好我"",""坏我""]","[""强她"",""弱她"",""强我"",""弱我""]","","","","","","","","match","","","","","","","","","","key","f","16.665284482758704","768","428","f","true","match","img/diamond.png","弱她","弱她","prac_ALT2_ability","practice_ability","","","","","","","","",""
"null","<span style='color:GreenYellow; font-size: 70px;'>正确! </span>","null","html-keyboard-response","67","252792","0.0-8.0-1.0-1.0-0.0-1.28","5","5","6","5","4","4","3","4","4","4","4","0","-1","1","1","-1","0","0","0","5","4","5","4","4","4","5","4","4","4","6","7","5","7","6","7","6","5","6","6","5","4","4","5","3","6","5","5","5","1","5","5","6","4","5","5","5","5","5","5","3","4","3","3","2","5","5","6","5","6","5","6","5","4","3","6","3","5","4","5","789244798249869314","马","640","Female","[""好她"",""坏她"",""好我"",""坏我""]","[""强她"",""弱她"",""强我"",""弱我""]","","","","","","","","","","","","","","","","","","","","","","","","","","","","","","feedback_test","","","","","","","","",""
"827","","f","psychophysics","68","254624","0.0-8.0-1.0-1.0-0.0-0.29","5","5","6","5","4","4","3","4","4","4","4","0","-1","1","1","-1","0","0","0","5","4","5","4","4","4","5","4","4","4","6","7","5","7","6","7","6","5","6","6","5","4","4","5","3","6","5","5","5","1","5","5","6","4","5","5","5","5","5","5","3","4","3","3","2","5","5","6","5","6","5","6","5","4","3","6","3","5","4","5","789244798249869314","马","640","Female","[""好她"",""坏她"",""好我"",""坏我""]","[""强她"",""弱她"",""强我"",""弱我""]","","","","","","","","match","","","","","","","","","","key","f","16.82119626168213","768","428","f","true","match","img/hexagon.png","强她","强她","prac_ALT2_ability","practice_ability","","","","","","","","",""
"null","<span style='color:GreenYellow; font-size: 70px;'>正确! </span>","null","html-keyboard-response","69","255130","0.0-8.0-1.0-1.0-0.0-1.29","5","5","6","5","4","4","3","4","4","4","4","0","-1","1","1","-1","0","0","0","5","4","5","4","4","4","5","4","4","4","6","7","5","7","6","7","6","5","6","6","5","4","4","5","3","6","5","5","5","1","5","5","6","4","5","5","5","5","5","5","3","4","3","3","2","5","5","6","5","6","5","6","5","4","3","6","3","5","4","5","789244798249869314","马","640","Female","[""好她"",""坏她"",""好我"",""坏我""]","[""强她"",""弱她"",""强我"",""弱我""]","","","","","","","","","","","","","","","","","","","","","","","","","","","","","","feedback_test","","","","","","","","",""
"973","","j","psychophysics","70","257107","0.0-8.0-1.0-1.0-0.0-0.30","5","5","6","5","4","4","3","4","4","4","4","0","-1","1","1","-1","0","0","0","5","4","5","4","4","4","5","4","4","4","6","7","5","7","6","7","6","5","6","6","5","4","4","5","3","6","5","5","5","1","5","5","6","4","5","5","5","5","5","5","3","4","3","3","2","5","5","6","5","6","5","6","5","4","3","6","3","5","4","5","789244798249869314","马","640","Female","[""好她"",""坏她"",""好我"",""坏我""]","[""强她"",""弱她"",""强我"",""弱我""]","","","","","","","","nonmatch","","","","","","","","","","key","j","16.664341880341905","768","428","j","true","nonmatch","img/ellipse.png","弱她","弱我","prac_ALT2_ability","practice_ability","","","","","","","","",""
"null","<span style='color:GreenYellow; font-size: 70px;'>正确! </span>","null","html-keyboard-response","71","257610","0.0-8.0-1.0-1.0-0.0-1.30","5","5","6","5","4","4","3","4","4","4","4","0","-1","1","1","-1","0","0","0","5","4","5","4","4","4","5","4","4","4","6","7","5","7","6","7","6","5","6","6","5","4","4","5","3","6","5","5","5","1","5","5","6","4","5","5","5","5","5","5","3","4","3","3","2","5","5","6","5","6","5","6","5","4","3","6","3","5","4","5","789244798249869314","马","640","Female","[""好她"",""坏她"",""好我"",""坏我""]","[""强她"",""弱她"",""强我"",""弱我""]","","","","","","","","","","","","","","","","","","","","","","","","","","","","","","feedback_test","","","","","","","","",""
"708","","f","psychophysics","72","259324","0.0-8.0-1.0-1.0-0.0-0.31","5","5","6","5","4","4","3","4","4","4","4","0","-1","1","1","-1","0","0","0","5","4","5","4","4","4","5","4","4","4","6","7","5","7","6","7","6","5","6","6","5","4","4","5","3","6","5","5","5","1","5","5","6","4","5","5","5","5","5","5","3","4","3","3","2","5","5","6","5","6","5","6","5","4","3","6","3","5","4","5","789244798249869314","马","640","Female","[""好她"",""坏她"",""好我"",""坏我""]","[""强她"",""弱她"",""强我"",""弱我""]","","","","","","","","match","","","","","","","","","","key","f","16.61959405940592","768","428","j","false","nonmatch","img/triangle.png","强她","强我","prac_ALT2_ability","practice_ability","","","","","","","","",""
"null","<span style='color:red; font-size: 70px;'>错误! </span>","null","html-keyboard-response","73","259834","0.0-8.0-1.0-1.0-0.0-1.31","5","5","6","5","4","4","3","4","4","4","4","0","-1","1","1","-1","0","0","0","5","4","5","4","4","4","5","4","4","4","6","7","5","7","6","7","6","5","6","6","5","4","4","5","3","6","5","5","5","1","5","5","6","4","5","5","5","5","5","5","3","4","3","3","2","5","5","6","5","6","5","6","5","4","3","6","3","5","4","5","789244798249869314","马","640","Female","[""好她"",""坏她"",""好我"",""坏我""]","[""强她"",""弱她"",""强我"",""弱我""]","","","","","","","","","","","","","","","","","","","","","","","","","","","","","","feedback_test","","","","","","","","",""
"863","","j","psychophysics","74","261708","0.0-8.0-1.0-1.0-0.0-0.32","5","5","6","5","4","4","3","4","4","4","4","0","-1","1","1","-1","0","0","0","5","4","5","4","4","4","5","4","4","4","6","7","5","7","6","7","6","5","6","6","5","4","4","5","3","6","5","5","5","1","5","5","6","4","5","5","5","5","5","5","3","4","3","3","2","5","5","6","5","6","5","6","5","4","3","6","3","5","4","5","789244798249869314","马","640","Female","[""好她"",""坏她"",""好我"",""坏我""]","[""强她"",""弱她"",""强我"",""弱我""]","","","","","","","","nonmatch","","","","","","","","","","key","j","16.66614414414397","768","428","j","true","nonmatch","img/hexagon.png","弱我","强她","prac_ALT2_ability","practice_ability","","","","","","","","",""
"null","<span style='color:GreenYellow; font-size: 70px;'>正确! </span>","null","html-keyboard-response","75","262212","0.0-8.0-1.0-1.0-0.0-1.32","5","5","6","5","4","4","3","4","4","4","4","0","-1","1","1","-1","0","0","0","5","4","5","4","4","4","5","4","4","4","6","7","5","7","6","7","6","5","6","6","5","4","4","5","3","6","5","5","5","1","5","5","6","4","5","5","5","5","5","5","3","4","3","3","2","5","5","6","5","6","5","6","5","4","3","6","3","5","4","5","789244798249869314","马","640","Female","[""好她"",""坏她"",""好我"",""坏我""]","[""强她"",""弱她"",""强我"",""弱我""]","","","","","","","","","","","","","","","","","","","","","","","","","","","","","","feedback_test","","","","","","","","",""
"null","","null","psychophysics","76","264439","0.0-8.0-1.0-1.0-0.0-0.33","5","5","6","5","4","4","3","4","4","4","4","0","-1","1","1","-1","0","0","0","5","4","5","4","4","4","5","4","4","4","6","7","5","7","6","7","6","5","6","6","5","4","4","5","3","6","5","5","5","1","5","5","6","4","5","5","5","5","5","5","3","4","3","3","2","5","5","6","5","6","5","6","5","4","3","6","3","5","4","5","789244798249869314","马","640","Female","[""好她"",""坏她"",""好我"",""坏我""]","[""强她"",""弱她"",""强我"",""弱我""]","","","","","","","","null","","","","","","","","","","key","null","16.665174242424353","768","428","j","false","nonmatch","img/diamond.png","弱我","弱她","prac_ALT2_ability","practice_ability","","","","","","","","",""
"null","<span class='add_' style='color:yellow; font-size: 70px;'> 太慢! </span>","null","html-keyboard-response","77","264946","0.0-8.0-1.0-1.0-0.0-1.33","5","5","6","5","4","4","3","4","4","4","4","0","-1","1","1","-1","0","0","0","5","4","5","4","4","4","5","4","4","4","6","7","5","7","6","7","6","5","6","6","5","4","4","5","3","6","5","5","5","1","5","5","6","4","5","5","5","5","5","5","3","4","3","3","2","5","5","6","5","6","5","6","5","4","3","6","3","5","4","5","789244798249869314","马","640","Female","[""好她"",""坏她"",""好我"",""坏我""]","[""强她"",""弱她"",""强我"",""弱我""]","","","","","","","","","","","","","","","","","","","","","","","","","","","","","","feedback_test","","","","","","","","",""
"917","","j","psychophysics","78","266876","0.0-8.0-1.0-1.0-0.0-0.34","5","5","6","5","4","4","3","4","4","4","4","0","-1","1","1","-1","0","0","0","5","4","5","4","4","4","5","4","4","4","6","7","5","7","6","7","6","5","6","6","5","4","4","5","3","6","5","5","5","1","5","5","6","4","5","5","5","5","5","5","3","4","3","3","2","5","5","6","5","6","5","6","5","4","3","6","3","5","4","5","789244798249869314","马","640","Female","[""好她"",""坏她"",""好我"",""坏我""]","[""强她"",""弱她"",""强我"",""弱我""]","","","","","","","","nonmatch","","","","","","","","","","key","j","16.66393859649134","768","428","f","false","match","img/triangle.png","强我","强我","prac_ALT2_ability","practice_ability","","","","","","","","",""
"null","<span style='color:red; font-size: 70px;'>错误! </span>","null","html-keyboard-response","79","267385","0.0-8.0-1.0-1.0-0.0-1.34","5","5","6","5","4","4","3","4","4","4","4","0","-1","1","1","-1","0","0","0","5","4","5","4","4","4","5","4","4","4","6","7","5","7","6","7","6","5","6","6","5","4","4","5","3","6","5","5","5","1","5","5","6","4","5","5","5","5","5","5","3","4","3","3","2","5","5","6","5","6","5","6","5","4","3","6","3","5","4","5","789244798249869314","马","640","Female","[""好她"",""坏她"",""好我"",""坏我""]","[""强她"",""弱她"",""强我"",""弱我""]","","","","","","","","","","","","","","","","","","","","","","","","","","","","","","feedback_test","","","","","","","","",""
"null","","null","psychophysics","80","269597","0.0-8.0-1.0-1.0-0.0-0.35","5","5","6","5","4","4","3","4","4","4","4","0","-1","1","1","-1","0","0","0","5","4","5","4","4","4","5","4","4","4","6","7","5","7","6","7","6","5","6","6","5","4","4","5","3","6","5","5","5","1","5","5","6","4","5","5","5","5","5","5","3","4","3","3","2","5","5","6","5","6","5","6","5","4","3","6","3","5","4","5","789244798249869314","马","640","Female","[""好她"",""坏她"",""好我"",""坏我""]","[""强她"",""弱她"",""强我"",""弱我""]","","","","","","","","null","","","","","","","","","","key","null","16.663568181817855","768","428","j","false","nonmatch","img/diamond.png","强她","弱她","prac_ALT2_ability","practice_ability","","","","","","","","",""
"null","<span class='add_' style='color:yellow; font-size: 70px;'> 太慢! </span>","null","html-keyboard-response","81","270102","0.0-8.0-1.0-1.0-0.0-1.35","5","5","6","5","4","4","3","4","4","4","4","0","-1","1","1","-1","0","0","0","5","4","5","4","4","4","5","4","4","4","6","7","5","7","6","7","6","5","6","6","5","4","4","5","3","6","5","5","5","1","5","5","6","4","5","5","5","5","5","5","3","4","3","3","2","5","5","6","5","6","5","6","5","4","3","6","3","5","4","5","789244798249869314","马","640","Female","[""好她"",""坏她"",""好我"",""坏我""]","[""强她"",""弱她"",""强我"",""弱我""]","","","","","","","","","","","","","","","","","","","","","","","","","","","","","","feedback_test","","","","","","","","",""
"948","","j","psychophysics","82","272058","0.0-8.0-1.0-1.0-0.0-0.36","5","5","6","5","4","4","3","4","4","4","4","0","-1","1","1","-1","0","0","0","5","4","5","4","4","4","5","4","4","4","6","7","5","7","6","7","6","5","6","6","5","4","4","5","3","6","5","5","5","1","5","5","6","4","5","5","5","5","5","5","3","4","3","3","2","5","5","6","5","6","5","6","5","4","3","6","3","5","4","5","789244798249869314","马","640","Female","[""好她"",""坏她"",""好我"",""坏我""]","[""强她"",""弱她"",""强我"",""弱我""]","","","","","","","","nonmatch","","","","","","","","","","key","j","16.663551724138006","768","428","j","true","nonmatch","img/ellipse.png","强我","弱我","prac_ALT2_ability","practice_ability","","","","","","","","",""
"null","<span style='color:GreenYellow; font-size: 70px;'>正确! </span>","null","html-keyboard-response","83","272569","0.0-8.0-1.0-1.0-0.0-1.36","5","5","6","5","4","4","3","4","4","4","4","0","-1","1","1","-1","0","0","0","5","4","5","4","4","4","5","4","4","4","6","7","5","7","6","7","6","5","6","6","5","4","4","5","3","6","5","5","5","1","5","5","6","4","5","5","5","5","5","5","3","4","3","3","2","5","5","6","5","6","5","6","5","4","3","6","3","5","4","5","789244798249869314","马","640","Female","[""好她"",""坏她"",""好我"",""坏我""]","[""强她"",""弱她"",""强我"",""弱我""]","","","","","","","","","","","","","","","","","","","","","","","","","","","","","","feedback_test","","","","","","","","",""
"838","","f","psychophysics","84","274413","0.0-8.0-1.0-1.0-0.0-0.37","5","5","6","5","4","4","3","4","4","4","4","0","-1","1","1","-1","0","0","0","5","4","5","4","4","4","5","4","4","4","6","7","5","7","6","7","6","5","6","6","5","4","4","5","3","6","5","5","5","1","5","5","6","4","5","5","5","5","5","5","3","4","3","3","2","5","5","6","5","6","5","6","5","4","3","6","3","5","4","5","789244798249869314","马","640","Female","[""好她"",""坏她"",""好我"",""坏我""]","[""强她"",""弱她"",""强我"",""弱我""]","","","","","","","","match","","","","","","","","","","key","f","16.819715596330695","768","428","f","true","match","img/ellipse.png","弱我","弱我","prac_ALT2_ability","practice_ability","","","","","","","","",""
"null","<span style='color:GreenYellow; font-size: 70px;'>正确! </span>","null","html-keyboard-response","85","274922","0.0-8.0-1.0-1.0-0.0-1.37","5","5","6","5","4","4","3","4","4","4","4","0","-1","1","1","-1","0","0","0","5","4","5","4","4","4","5","4","4","4","6","7","5","7","6","7","6","5","6","6","5","4","4","5","3","6","5","5","5","1","5","5","6","4","5","5","5","5","5","5","3","4","3","3","2","5","5","6","5","6","5","6","5","4","3","6","3","5","4","5","789244798249869314","马","640","Female","[""好她"",""坏她"",""好我"",""坏我""]","[""强她"",""弱她"",""强我"",""弱我""]","","","","","","","","","","","","","","","","","","","","","","","","","","","","","","feedback_test","","","","","","","","",""
"966","","j","psychophysics","86","276895","0.0-8.0-1.0-1.0-0.0-0.38","5","5","6","5","4","4","3","4","4","4","4","0","-1","1","1","-1","0","0","0","5","4","5","4","4","4","5","4","4","4","6","7","5","7","6","7","6","5","6","6","5","4","4","5","3","6","5","5","5","1","5","5","6","4","5","5","5","5","5","5","3","4","3","3","2","5","5","6","5","6","5","6","5","4","3","6","3","5","4","5","789244798249869314","马","640","Female","[""好她"",""坏她"",""好我"",""坏我""]","[""强她"",""弱她"",""强我"",""弱我""]","","","","","","","","nonmatch","","","","","","","","","","key","j","16.605247863247975","768","428","j","true","nonmatch","img/hexagon.png","弱她","强她","prac_ALT2_ability","practice_ability","","","","","","","","",""
"null","<span style='color:GreenYellow; font-size: 70px;'>正确! </span>","null","html-keyboard-response","87","277410","0.0-8.0-1.0-1.0-0.0-1.38","5","5","6","5","4","4","3","4","4","4","4","0","-1","1","1","-1","0","0","0","5","4","5","4","4","4","5","4","4","4","6","7","5","7","6","7","6","5","6","6","5","4","4","5","3","6","5","5","5","1","5","5","6","4","5","5","5","5","5","5","3","4","3","3","2","5","5","6","5","6","5","6","5","4","3","6","3","5","4","5","789244798249869314","马","640","Female","[""好她"",""坏她"",""好我"",""坏我""]","[""强她"",""弱她"",""强我"",""弱我""]","","","","","","","","","","","","","","","","","","","","","","","","","","","","","","feedback_test","","","","","","","","",""
"825","","j","psychophysics","88","279249","0.0-8.0-1.0-1.0-0.0-0.39","5","5","6","5","4","4","3","4","4","4","4","0","-1","1","1","-1","0","0","0","5","4","5","4","4","4","5","4","4","4","6","7","5","7","6","7","6","5","6","6","5","4","4","5","3","6","5","5","5","1","5","5","6","4","5","5","5","5","5","5","3","4","3","3","2","5","5","6","5","6","5","6","5","4","3","6","3","5","4","5","789244798249869314","马","640","Female","[""好她"",""坏她"",""好我"",""坏我""]","[""强她"",""弱她"",""强我"",""弱我""]","","","","","","","","nonmatch","","","","","","","","","","key","j","16.662853211009075","768","428","f","false","match","img/diamond.png","弱她","弱她","prac_ALT2_ability","practice_ability","","","","","","","","",""
"null","<span style='color:red; font-size: 70px;'>错误! </span>","null","html-keyboard-response","89","279756","0.0-8.0-1.0-1.0-0.0-1.39","5","5","6","5","4","4","3","4","4","4","4","0","-1","1","1","-1","0","0","0","5","4","5","4","4","4","5","4","4","4","6","7","5","7","6","7","6","5","6","6","5","4","4","5","3","6","5","5","5","1","5","5","6","4","5","5","5","5","5","5","3","4","3","3","2","5","5","6","5","6","5","6","5","4","3","6","3","5","4","5","789244798249869314","马","640","Female","[""好她"",""坏她"",""好我"",""坏我""]","[""强她"",""弱她"",""强我"",""弱我""]","","","","","","","","","","","","","","","","","","","","","","","","","","","","","","feedback_test","","","","","","","","",""
"824","","f","psychophysics","90","281585","0.0-8.0-1.0-1.0-0.0-0.40","5","5","6","5","4","4","3","4","4","4","4","0","-1","1","1","-1","0","0","0","5","4","5","4","4","4","5","4","4","4","6","7","5","7","6","7","6","5","6","6","5","4","4","5","3","6","5","5","5","1","5","5","6","4","5","5","5","5","5","5","3","4","3","3","2","5","5","6","5","6","5","6","5","4","3","6","3","5","4","5","789244798249869314","马","640","Female","[""好她"",""坏她"",""好我"",""坏我""]","[""强她"",""弱她"",""强我"",""弱我""]","","","","","","","","match","","","","","","","","","","key","f","16.66560185185194","768","428","f","true","match","img/ellipse.png","弱我","弱我","prac_ALT2_ability","practice_ability","","","","","","","","",""
"null","<span style='color:GreenYellow; font-size: 70px;'>正确! </span>","null","html-keyboard-response","91","282090","0.0-8.0-1.0-1.0-0.0-1.40","5","5","6","5","4","4","3","4","4","4","4","0","-1","1","1","-1","0","0","0","5","4","5","4","4","4","5","4","4","4","6","7","5","7","6","7","6","5","6","6","5","4","4","5","3","6","5","5","5","1","5","5","6","4","5","5","5","5","5","5","3","4","3","3","2","5","5","6","5","6","5","6","5","4","3","6","3","5","4","5","789244798249869314","马","640","Female","[""好她"",""坏她"",""好我"",""坏我""]","[""强她"",""弱她"",""强我"",""弱我""]","","","","","","","","","","","","","","","","","","","","","","","","","","","","","","feedback_test","","","","","","","","",""
"713","","j","psychophysics","92","283807","0.0-8.0-1.0-1.0-0.0-0.41","5","5","6","5","4","4","3","4","4","4","4","0","-1","1","1","-1","0","0","0","5","4","5","4","4","4","5","4","4","4","6","7","5","7","6","7","6","5","6","6","5","4","4","5","3","6","5","5","5","1","5","5","6","4","5","5","5","5","5","5","3","4","3","3","2","5","5","6","5","6","5","6","5","4","3","6","3","5","4","5","789244798249869314","马","640","Female","[""好她"",""坏她"",""好我"",""坏我""]","[""强她"",""弱她"",""强我"",""弱我""]","","","","","","","","nonmatch","","","","","","","","","","key","j","16.6641188118812","768","428","j","true","nonmatch","img/diamond.png","强我","弱她","prac_ALT2_ability","practice_ability","","","","","","","","",""
"null","<span style='color:GreenYellow; font-size: 70px;'>正确! </span>","null","html-keyboard-response","93","284315","0.0-8.0-1.0-1.0-0.0-1.41","5","5","6","5","4","4","3","4","4","4","4","0","-1","1","1","-1","0","0","0","5","4","5","4","4","4","5","4","4","4","6","7","5","7","6","7","6","5","6","6","5","4","4","5","3","6","5","5","5","1","5","5","6","4","5","5","5","5","5","5","3","4","3","3","2","5","5","6","5","6","5","6","5","4","3","6","3","5","4","5","789244798249869314","马","640","Female","[""好她"",""坏她"",""好我"",""坏我""]","[""强她"",""弱她"",""强我"",""弱我""]","","","","","","","","","","","","","","","","","","","","","","","","","","","","","","feedback_test","","","","","","","","",""
"838","","j","psychophysics","94","286159","0.0-8.0-1.0-1.0-0.0-0.42","5","5","6","5","4","4","3","4","4","4","4","0","-1","1","1","-1","0","0","0","5","4","5","4","4","4","5","4","4","4","6","7","5","7","6","7","6","5","6","6","5","4","4","5","3","6","5","5","5","1","5","5","6","4","5","5","5","5","5","5","3","4","3","3","2","5","5","6","5","6","5","6","5","4","3","6","3","5","4","5","789244798249869314","马","640","Female","[""好她"",""坏她"",""好我"",""坏我""]","[""强她"",""弱她"",""强我"",""弱我""]","","","","","","","","nonmatch","","","","","","","","","","key","j","16.663309090909422","768","428","j","true","nonmatch","img/triangle.png","弱我","强我","prac_ALT2_ability","practice_ability","","","","","","","","",""
"null","<span style='color:GreenYellow; font-size: 70px;'>正确! </span>","null","html-keyboard-response","95","286668","0.0-8.0-1.0-1.0-0.0-1.42","5","5","6","5","4","4","3","4","4","4","4","0","-1","1","1","-1","0","0","0","5","4","5","4","4","4","5","4","4","4","6","7","5","7","6","7","6","5","6","6","5","4","4","5","3","6","5","5","5","1","5","5","6","4","5","5","5","5","5","5","3","4","3","3","2","5","5","6","5","6","5","6","5","4","3","6","3","5","4","5","789244798249869314","马","640","Female","[""好她"",""坏她"",""好我"",""坏我""]","[""强她"",""弱她"",""强我"",""弱我""]","","","","","","","","","","","","","","","","","","","","","","","","","","","","","","feedback_test","","","","","","","","",""
"788","","f","psychophysics","96","288461","0.0-8.0-1.0-1.0-0.0-0.43","5","5","6","5","4","4","3","4","4","4","4","0","-1","1","1","-1","0","0","0","5","4","5","4","4","4","5","4","4","4","6","7","5","7","6","7","6","5","6","6","5","4","4","5","3","6","5","5","5","1","5","5","6","4","5","5","5","5","5","5","3","4","3","3","2","5","5","6","5","6","5","6","5","4","3","6","3","5","4","5","789244798249869314","马","640","Female","[""好她"",""坏她"",""好我"",""坏我""]","[""强她"",""弱她"",""强我"",""弱我""]","","","","","","","","match","","","","","","","","","","key","f","16.664794392523653","768","428","f","true","match","img/hexagon.png","强她","强她","prac_ALT2_ability","practice_ability","","","","","","","","",""
"null","<span style='color:GreenYellow; font-size: 70px;'>正确! </span>","null","html-keyboard-response","97","288968","0.0-8.0-1.0-1.0-0.0-1.43","5","5","6","5","4","4","3","4","4","4","4","0","-1","1","1","-1","0","0","0","5","4","5","4","4","4","5","4","4","4","6","7","5","7","6","7","6","5","6","6","5","4","4","5","3","6","5","5","5","1","5","5","6","4","5","5","5","5","5","5","3","4","3","3","2","5","5","6","5","6","5","6","5","4","3","6","3","5","4","5","789244798249869314","马","640","Female","[""好她"",""坏她"",""好我"",""坏我""]","[""强她"",""弱她"",""强我"",""弱我""]","","","","","","","","","","","","","","","","","","","","","","","","","","","","","","feedback_test","","","","","","","","",""
"844","","j","psychophysics","98","290816","0.0-8.0-1.0-1.0-0.0-0.44","5","5","6","5","4","4","3","4","4","4","4","0","-1","1","1","-1","0","0","0","5","4","5","4","4","4","5","4","4","4","6","7","5","7","6","7","6","5","6","6","5","4","4","5","3","6","5","5","5","1","5","5","6","4","5","5","5","5","5","5","3","4","3","3","2","5","5","6","5","6","5","6","5","4","3","6","3","5","4","5","789244798249869314","马","640","Female","[""好她"",""坏她"",""好我"",""坏我""]","[""强她"",""弱她"",""强我"",""弱我""]","","","","","","","","nonmatch","","","","","","","","","","key","j","16.662427272726994","768","428","f","false","match","img/diamond.png","弱她","弱她","prac_ALT2_ability","practice_ability","","","","","","","","",""
"null","<span style='color:red; font-size: 70px;'>错误! </span>","null","html-keyboard-response","99","291328","0.0-8.0-1.0-1.0-0.0-1.44","5","5","6","5","4","4","3","4","4","4","4","0","-1","1","1","-1","0","0","0","5","4","5","4","4","4","5","4","4","4","6","7","5","7","6","7","6","5","6","6","5","4","4","5","3","6","5","5","5","1","5","5","6","4","5","5","5","5","5","5","3","4","3","3","2","5","5","6","5","6","5","6","5","4","3","6","3","5","4","5","789244798249869314","马","640","Female","[""好她"",""坏她"",""好我"",""坏我""]","[""强她"",""弱她"",""强我"",""弱我""]","","","","","","","","","","","","","","","","","","","","","","","","","","","","","","feedback_test","","","","","","","","",""
"723","","f","psychophysics","100","293057","0.0-8.0-1.0-1.0-0.0-0.45","5","5","6","5","4","4","3","4","4","4","4","0","-1","1","1","-1","0","0","0","5","4","5","4","4","4","5","4","4","4","6","7","5","7","6","7","6","5","6","6","5","4","4","5","3","6","5","5","5","1","5","5","6","4","5","5","5","5","5","5","3","4","3","3","2","5","5","6","5","6","5","6","5","4","3","6","3","5","4","5","789244798249869314","马","640","Female","[""好她"",""坏她"",""好我"",""坏我""]","[""强她"",""弱她"",""强我"",""弱我""]","","","","","","","","match","","","","","","","","","","key","f","16.66364077669885","768","428","f","true","match","img/hexagon.png","强她","强她","prac_ALT2_ability","practice_ability","","","","","","","","",""
"null","<span style='color:GreenYellow; font-size: 70px;'>正确! </span>","null","html-keyboard-response","101","293563","0.0-8.0-1.0-1.0-0.0-1.45","5","5","6","5","4","4","3","4","4","4","4","0","-1","1","1","-1","0","0","0","5","4","5","4","4","4","5","4","4","4","6","7","5","7","6","7","6","5","6","6","5","4","4","5","3","6","5","5","5","1","5","5","6","4","5","5","5","5","5","5","3","4","3","3","2","5","5","6","5","6","5","6","5","4","3","6","3","5","4","5","789244798249869314","马","640","Female","[""好她"",""坏她"",""好我"",""坏我""]","[""强她"",""弱她"",""强我"",""弱我""]","","","","","","","","","","","","","","","","","","","","","","","","","","","","","","feedback_test","","","","","","","","",""
"730","","f","psychophysics","102","295298","0.0-8.0-1.0-1.0-0.0-0.46","5","5","6","5","4","4","3","4","4","4","4","0","-1","1","1","-1","0","0","0","5","4","5","4","4","4","5","4","4","4","6","7","5","7","6","7","6","5","6","6","5","4","4","5","3","6","5","5","5","1","5","5","6","4","5","5","5","5","5","5","3","4","3","3","2","5","5","6","5","6","5","6","5","4","3","6","3","5","4","5","789244798249869314","马","640","Female","[""好她"",""坏她"",""好我"",""坏我""]","[""强她"",""弱她"",""强我"",""弱我""]","","","","","","","","match","","","","","","","","","","key","f","16.663427184465867","768","428","f","true","match","img/ellipse.png","弱我","弱我","prac_ALT2_ability","practice_ability","","","","","","","","",""
"null","<span style='color:GreenYellow; font-size: 70px;'>正确! </span>","null","html-keyboard-response","103","295803","0.0-8.0-1.0-1.0-0.0-1.46","5","5","6","5","4","4","3","4","4","4","4","0","-1","1","1","-1","0","0","0","5","4","5","4","4","4","5","4","4","4","6","7","5","7","6","7","6","5","6","6","5","4","4","5","3","6","5","5","5","1","5","5","6","4","5","5","5","5","5","5","3","4","3","3","2","5","5","6","5","6","5","6","5","4","3","6","3","5","4","5","789244798249869314","马","640","Female","[""好她"",""坏她"",""好我"",""坏我""]","[""强她"",""弱她"",""强我"",""弱我""]","","","","","","","","","","","","","","","","","","","","","","","","","","","","","","feedback_test","","","","","","","","",""
"662","","f","psychophysics","104","297478","0.0-8.0-1.0-1.0-0.0-0.47","5","5","6","5","4","4","3","4","4","4","4","0","-1","1","1","-1","0","0","0","5","4","5","4","4","4","5","4","4","4","6","7","5","7","6","7","6","5","6","6","5","4","4","5","3","6","5","5","5","1","5","5","6","4","5","5","5","5","5","5","3","4","3","3","2","5","5","6","5","6","5","6","5","4","3","6","3","5","4","5","789244798249869314","马","640","Female","[""好她"",""坏她"",""好我"",""坏我""]","[""强她"",""弱她"",""强我"",""弱我""]","","","","","","","","match","","","","","","","","","","key","f","16.665737373737333","768","428","f","true","match","img/triangle.png","强我","强我","prac_ALT2_ability","practice_ability","","","","","","","","",""
"null","<span style='color:GreenYellow; font-size: 70px;'>正确! </span>","null","html-keyboard-response","105","297986","0.0-8.0-1.0-1.0-0.0-1.47","5","5","6","5","4","4","3","4","4","4","4","0","-1","1","1","-1","0","0","0","5","4","5","4","4","4","5","4","4","4","6","7","5","7","6","7","6","5","6","6","5","4","4","5","3","6","5","5","5","1","5","5","6","4","5","5","5","5","5","5","3","4","3","3","2","5","5","6","5","6","5","6","5","4","3","6","3","5","4","5","789244798249869314","马","640","Female","[""好她"",""坏她"",""好我"",""坏我""]","[""强她"",""弱她"",""强我"",""弱我""]","","","","","","","","","","","","","","","","","","","","","","","","","","","","","","feedback_test","","","","","","","","",""
"5076","<style>.context{color:white; font-size: 35px; line-height:40px}</style>                          <div><p class='context'>您正确回答了65% 的试次。</p><p class='context'>您的平均反应时为872毫秒。</p><p class='context'>恭喜您完成练习。按空格键进入正式实验。</p><p class='footer' style='color:white;font-size: 35px; line-height:40px;'>请在进入正式实验实验之前将您的<span style='color: lightgreen;'>食指</span>放在电脑键盘的相应键位上进行按键。</p>"," ","html-keyboard-response","106","303073","0.0-8.0-1.0-2.0","5","5","6","5","4","4","3","4","4","4","4","0","-1","1","1","-1","0","0","0","5","4","5","4","4","4","5","4","4","4","6","7","5","7","6","7","6","5","6","6","5","4","4","5","3","6","5","5","5","1","5","5","6","4","5","5","5","5","5","5","3","4","3","3","2","5","5","6","5","6","5","6","5","4","3","6","3","5","4","5","789244798249869314","马","640","Female","[""好她"",""坏她"",""好我"",""坏我""]","[""强她"",""弱她"",""强我"",""弱我""]","","","","","","","","","","","","","","","","","","","","","","","","","","","","","","","","","","","","","","",""
"21665","
  <p style='color: white; font-size: 22px'>请您将手指放在按键上，准备进入正式的匹配任务。</p>
  <p> <div style = ""color: green""><按空格键进入下一阶段的匹配任务></div></p>
  "," ","html-keyboard-response","107","324754","0.0-8.0-1.0-3.0","5","5","6","5","4","4","3","4","4","4","4","0","-1","1","1","-1","0","0","0","5","4","5","4","4","4","5","4","4","4","6","7","5","7","6","7","6","5","6","6","5","4","4","5","3","6","5","5","5","1","5","5","6","4","5","5","5","5","5","5","3","4","3","3","2","5","5","6","5","6","5","6","5","4","3","6","3","5","4","5","789244798249869314","马","640","Female","[""好她"",""坏她"",""好我"",""坏我""]","[""强她"",""弱她"",""强我"",""弱我""]","","","","","","","","","","","","","","","","","","","","","","","","","","","","","","","","","","","","","","",""
"751","","f","psychophysics","108","326509","0.0-8.0-1.0-4.0-0.0-0.0","5","5","6","5","4","4","3","4","4","4","4","0","-1","1","1","-1","0","0","0","5","4","5","4","4","4","5","4","4","4","6","7","5","7","6","7","6","5","6","6","5","4","4","5","3","6","5","5","5","1","5","5","6","4","5","5","5","5","5","5","3","4","3","3","2","5","5","6","5","6","5","6","5","4","3","6","3","5","4","5","789244798249869314","马","640","Female","[""好她"",""坏她"",""好我"",""坏我""]","[""强她"",""弱她"",""强我"",""弱我""]","","","","","","","","match","","","","","","","","","","key","f","16.665711538461508","768","428","f","true","match","img/ellipse.png","弱我","弱我","ALT2","ability","","","","","","","","",""
"null","<span style='color:GreenYellow; font-size: 70px;'>正确! </span>","null","html-keyboard-response","109","327018","0.0-8.0-1.0-4.0-0.0-1.0","5","5","6","5","4","4","3","4","4","4","4","0","-1","1","1","-1","0","0","0","5","4","5","4","4","4","5","4","4","4","6","7","5","7","6","7","6","5","6","6","5","4","4","5","3","6","5","5","5","1","5","5","6","4","5","5","5","5","5","5","3","4","3","3","2","5","5","6","5","6","5","6","5","4","3","6","3","5","4","5","789244798249869314","马","640","Female","[""好她"",""坏她"",""好我"",""坏我""]","[""强她"",""弱她"",""强我"",""弱我""]","","","","","","","","","","","","","","","","","","","","","","","","","","","","","","feedback_test","","","","","","","","",""
"744","","j","psychophysics","110","328771","0.0-8.0-1.0-4.0-0.0-0.1","5","5","6","5","4","4","3","4","4","4","4","0","-1","1","1","-1","0","0","0","5","4","5","4","4","4","5","4","4","4","6","7","5","7","6","7","6","5","6","6","5","4","4","5","3","6","5","5","5","1","5","5","6","4","5","5","5","5","5","5","3","4","3","3","2","5","5","6","5","6","5","6","5","4","3","6","3","5","4","5","789244798249869314","马","640","Female","[""好她"",""坏她"",""好我"",""坏我""]","[""强她"",""弱她"",""强我"",""弱我""]","","","","","","","","nonmatch","","","","","","","","","","key","j","16.66387500000005","768","428","j","true","nonmatch","img/ellipse.png","强我","弱我","ALT2","ability","","","","","","","","",""
"null","<span style='color:GreenYellow; font-size: 70px;'>正确! </span>","null","html-keyboard-response","111","329283","0.0-8.0-1.0-4.0-0.0-1.1","5","5","6","5","4","4","3","4","4","4","4","0","-1","1","1","-1","0","0","0","5","4","5","4","4","4","5","4","4","4","6","7","5","7","6","7","6","5","6","6","5","4","4","5","3","6","5","5","5","1","5","5","6","4","5","5","5","5","5","5","3","4","3","3","2","5","5","6","5","6","5","6","5","4","3","6","3","5","4","5","789244798249869314","马","640","Female","[""好她"",""坏她"",""好我"",""坏我""]","[""强她"",""弱她"",""强我"",""弱我""]","","","","","","","","","","","","","","","","","","","","","","","","","","","","","","feedback_test","","","","","","","","",""
"959","","j","psychophysics","112","331252","0.0-8.0-1.0-4.0-0.0-0.2","5","5","6","5","4","4","3","4","4","4","4","0","-1","1","1","-1","0","0","0","5","4","5","4","4","4","5","4","4","4","6","7","5","7","6","7","6","5","6","6","5","4","4","5","3","6","5","5","5","1","5","5","6","4","5","5","5","5","5","5","3","4","3","3","2","5","5","6","5","6","5","6","5","4","3","6","3","5","4","5","789244798249869314","马","640","Female","[""好她"",""坏她"",""好我"",""坏我""]","[""强她"",""弱她"",""强我"",""弱我""]","","","","","","","","nonmatch","","","","","","","","","","key","j","16.66580341880321","768","428","j","true","nonmatch","img/hexagon.png","弱我","强她","ALT2","ability","","","","","","","","",""
"null","<span style='color:GreenYellow; font-size: 70px;'>正确! </span>","null","html-keyboard-response","113","331766","0.0-8.0-1.0-4.0-0.0-1.2","5","5","6","5","4","4","3","4","4","4","4","0","-1","1","1","-1","0","0","0","5","4","5","4","4","4","5","4","4","4","6","7","5","7","6","7","6","5","6","6","5","4","4","5","3","6","5","5","5","1","5","5","6","4","5","5","5","5","5","5","3","4","3","3","2","5","5","6","5","6","5","6","5","4","3","6","3","5","4","5","789244798249869314","马","640","Female","[""好她"",""坏她"",""好我"",""坏我""]","[""强她"",""弱她"",""强我"",""弱我""]","","","","","","","","","","","","","","","","","","","","","","","","","","","","","","feedback_test","","","","","","","","",""
"955","","j","psychophysics","114","333731","0.0-8.0-1.0-4.0-0.0-0.3","5","5","6","5","4","4","3","4","4","4","4","0","-1","1","1","-1","0","0","0","5","4","5","4","4","4","5","4","4","4","6","7","5","7","6","7","6","5","6","6","5","4","4","5","3","6","5","5","5","1","5","5","6","4","5","5","5","5","5","5","3","4","3","3","2","5","5","6","5","6","5","6","5","4","3","6","3","5","4","5","789244798249869314","马","640","Female","[""好她"",""坏她"",""好我"",""坏我""]","[""强她"",""弱她"",""强我"",""弱我""]","","","","","","","","nonmatch","","","","","","","","","","key","j","16.66329914529939","768","428","j","true","nonmatch","img/triangle.png","强她","强我","ALT2","ability","","","","","","","","",""
"null","<span style='color:GreenYellow; font-size: 70px;'>正确! </span>","null","html-keyboard-response","115","334236","0.0-8.0-1.0-4.0-0.0-1.3","5","5","6","5","4","4","3","4","4","4","4","0","-1","1","1","-1","0","0","0","5","4","5","4","4","4","5","4","4","4","6","7","5","7","6","7","6","5","6","6","5","4","4","5","3","6","5","5","5","1","5","5","6","4","5","5","5","5","5","5","3","4","3","3","2","5","5","6","5","6","5","6","5","4","3","6","3","5","4","5","789244798249869314","马","640","Female","[""好她"",""坏她"",""好我"",""坏我""]","[""强她"",""弱她"",""强我"",""弱我""]","","","","","","","","","","","","","","","","","","","","","","","","","","","","","","feedback_test","","","","","","","","",""
"894","","f","psychophysics","116","336135","0.0-8.0-1.0-4.0-0.0-0.4","5","5","6","5","4","4","3","4","4","4","4","0","-1","1","1","-1","0","0","0","5","4","5","4","4","4","5","4","4","4","6","7","5","7","6","7","6","5","6","6","5","4","4","5","3","6","5","5","5","1","5","5","6","4","5","5","5","5","5","5","3","4","3","3","2","5","5","6","5","6","5","6","5","4","3","6","3","5","4","5","789244798249869314","马","640","Female","[""好她"",""坏她"",""好我"",""坏我""]","[""强她"",""弱她"",""强我"",""弱我""]","","","","","","","","match","","","","","","","","","","key","f","16.664053097345136","768","428","f","true","match","img/hexagon.png","强她","强她","ALT2","ability","","","","","","","","",""
"null","<span style='color:GreenYellow; font-size: 70px;'>正确! </span>","null","html-keyboard-response","117","336647","0.0-8.0-1.0-4.0-0.0-1.4","5","5","6","5","4","4","3","4","4","4","4","0","-1","1","1","-1","0","0","0","5","4","5","4","4","4","5","4","4","4","6","7","5","7","6","7","6","5","6","6","5","4","4","5","3","6","5","5","5","1","5","5","6","4","5","5","5","5","5","5","3","4","3","3","2","5","5","6","5","6","5","6","5","4","3","6","3","5","4","5","789244798249869314","马","640","Female","[""好她"",""坏她"",""好我"",""坏我""]","[""强她"",""弱她"",""强我"",""弱我""]","","","","","","","","","","","","","","","","","","","","","","","","","","","","","","feedback_test","","","","","","","","",""
"758","","j","psychophysics","118","338417","0.0-8.0-1.0-4.0-0.0-0.5","5","5","6","5","4","4","3","4","4","4","4","0","-1","1","1","-1","0","0","0","5","4","5","4","4","4","5","4","4","4","6","7","5","7","6","7","6","5","6","6","5","4","4","5","3","6","5","5","5","1","5","5","6","4","5","5","5","5","5","5","3","4","3","3","2","5","5","6","5","6","5","6","5","4","3","6","3","5","4","5","789244798249869314","马","640","Female","[""好她"",""坏她"",""好我"",""坏我""]","[""强她"",""弱她"",""强我"",""弱我""]","","","","","","","","nonmatch","","","","","","","","","","key","j","16.665828571428676","768","428","f","false","match","img/hexagon.png","强她","强她","ALT2","ability","","","","","","","","",""
"null","<span style='color:red; font-size: 70px;'>错误! </span>","null","html-keyboard-response","119","338924","0.0-8.0-1.0-4.0-0.0-1.5","5","5","6","5","4","4","3","4","4","4","4","0","-1","1","1","-1","0","0","0","5","4","5","4","4","4","5","4","4","4","6","7","5","7","6","7","6","5","6","6","5","4","4","5","3","6","5","5","5","1","5","5","6","4","5","5","5","5","5","5","3","4","3","3","2","5","5","6","5","6","5","6","5","4","3","6","3","5","4","5","789244798249869314","马","640","Female","[""好她"",""坏她"",""好我"",""坏我""]","[""强她"",""弱她"",""强我"",""弱我""]","","","","","","","","","","","","","","","","","","","","","","","","","","","","","","feedback_test","","","","","","","","",""
"842","","j","psychophysics","120","340773","0.0-8.0-1.0-4.0-0.0-0.6","5","5","6","5","4","4","3","4","4","4","4","0","-1","1","1","-1","0","0","0","5","4","5","4","4","4","5","4","4","4","6","7","5","7","6","7","6","5","6","6","5","4","4","5","3","6","5","5","5","1","5","5","6","4","5","5","5","5","5","5","3","4","3","3","2","5","5","6","5","6","5","6","5","4","3","6","3","5","4","5","789244798249869314","马","640","Female","[""好她"",""坏她"",""好我"",""坏我""]","[""强她"",""弱她"",""强我"",""弱我""]","","","","","","","","nonmatch","","","","","","","","","","key","j","16.535330275229047","768","428","j","true","nonmatch","img/diamond.png","强她","弱她","ALT2","ability","","","","","","","","",""
"null","<span style='color:GreenYellow; font-size: 70px;'>正确! </span>","null","html-keyboard-response","121","341275","0.0-8.0-1.0-4.0-0.0-1.6","5","5","6","5","4","4","3","4","4","4","4","0","-1","1","1","-1","0","0","0","5","4","5","4","4","4","5","4","4","4","6","7","5","7","6","7","6","5","6","6","5","4","4","5","3","6","5","5","5","1","5","5","6","4","5","5","5","5","5","5","3","4","3","3","2","5","5","6","5","6","5","6","5","4","3","6","3","5","4","5","789244798249869314","马","640","Female","[""好她"",""坏她"",""好我"",""坏我""]","[""强她"",""弱她"",""强我"",""弱我""]","","","","","","","","","","","","","","","","","","","","","","","","","","","","","","feedback_test","","","","","","","","",""
"833","","j","psychophysics","122","343114","0.0-8.0-1.0-4.0-0.0-0.7","5","5","6","5","4","4","3","4","4","4","4","0","-1","1","1","-1","0","0","0","5","4","5","4","4","4","5","4","4","4","6","7","5","7","6","7","6","5","6","6","5","4","4","5","3","6","5","5","5","1","5","5","6","4","5","5","5","5","5","5","3","4","3","3","2","5","5","6","5","6","5","6","5","4","3","6","3","5","4","5","789244798249869314","马","640","Female","[""好她"",""坏她"",""好我"",""坏我""]","[""强她"",""弱她"",""强我"",""弱我""]","","","","","","","","nonmatch","","","","","","","","","","key","j","16.666146788990698","768","428","j","true","nonmatch","img/triangle.png","弱她","强我","ALT2","ability","","","","","","","","",""
"null","<span style='color:GreenYellow; font-size: 70px;'>正确! </span>","null","html-keyboard-response","123","343626","0.0-8.0-1.0-4.0-0.0-1.7","5","5","6","5","4","4","3","4","4","4","4","0","-1","1","1","-1","0","0","0","5","4","5","4","4","4","5","4","4","4","6","7","5","7","6","7","6","5","6","6","5","4","4","5","3","6","5","5","5","1","5","5","6","4","5","5","5","5","5","5","3","4","3","3","2","5","5","6","5","6","5","6","5","4","3","6","3","5","4","5","789244798249869314","马","640","Female","[""好她"",""坏她"",""好我"",""坏我""]","[""强她"",""弱她"",""强我"",""弱我""]","","","","","","","","","","","","","","","","","","","","","","","","","","","","","","feedback_test","","","","","","","","",""
"940","","f","psychophysics","124","345572","0.0-8.0-1.0-4.0-0.0-0.8","5","5","6","5","4","4","3","4","4","4","4","0","-1","1","1","-1","0","0","0","5","4","5","4","4","4","5","4","4","4","6","7","5","7","6","7","6","5","6","6","5","4","4","5","3","6","5","5","5","1","5","5","6","4","5","5","5","5","5","5","3","4","3","3","2","5","5","6","5","6","5","6","5","4","3","6","3","5","4","5","789244798249869314","马","640","Female","[""好她"",""坏她"",""好我"",""坏我""]","[""强她"",""弱她"",""强我"",""弱我""]","","","","","","","","match","","","","","","","","","","key","f","16.665452173912552","768","428","f","true","match","img/diamond.png","弱她","弱她","ALT2","ability","","","","","","","","",""
"null","<span style='color:GreenYellow; font-size: 70px;'>正确! </span>","null","html-keyboard-response","125","346077","0.0-8.0-1.0-4.0-0.0-1.8","5","5","6","5","4","4","3","4","4","4","4","0","-1","1","1","-1","0","0","0","5","4","5","4","4","4","5","4","4","4","6","7","5","7","6","7","6","5","6","6","5","4","4","5","3","6","5","5","5","1","5","5","6","4","5","5","5","5","5","5","3","4","3","3","2","5","5","6","5","6","5","6","5","4","3","6","3","5","4","5","789244798249869314","马","640","Female","[""好她"",""坏她"",""好我"",""坏我""]","[""强她"",""弱她"",""强我"",""弱我""]","","","","","","","","","","","","","","","","","","","","","","","","","","","","","","feedback_test","","","","","","","","",""
"762","","j","psychophysics","126","347852","0.0-8.0-1.0-4.0-0.0-0.9","5","5","6","5","4","4","3","4","4","4","4","0","-1","1","1","-1","0","0","0","5","4","5","4","4","4","5","4","4","4","6","7","5","7","6","7","6","5","6","6","5","4","4","5","3","6","5","5","5","1","5","5","6","4","5","5","5","5","5","5","3","4","3","3","2","5","5","6","5","6","5","6","5","4","3","6","3","5","4","5","789244798249869314","马","640","Female","[""好她"",""坏她"",""好我"",""坏我""]","[""强她"",""弱她"",""强我"",""弱我""]","","","","","","","","nonmatch","","","","","","","","","","key","j","16.66363809523838","768","428","j","true","nonmatch","img/diamond.png","弱我","弱她","ALT2","ability","","","","","","","","",""
"null","<span style='color:GreenYellow; font-size: 70px;'>正确! </span>","null","html-keyboard-response","127","348357","0.0-8.0-1.0-4.0-0.0-1.9","5","5","6","5","4","4","3","4","4","4","4","0","-1","1","1","-1","0","0","0","5","4","5","4","4","4","5","4","4","4","6","7","5","7","6","7","6","5","6","6","5","4","4","5","3","6","5","5","5","1","5","5","6","4","5","5","5","5","5","5","3","4","3","3","2","5","5","6","5","6","5","6","5","4","3","6","3","5","4","5","789244798249869314","马","640","Female","[""好她"",""坏她"",""好我"",""坏我""]","[""强她"",""弱她"",""强我"",""弱我""]","","","","","","","","","","","","","","","","","","","","","","","","","","","","","","feedback_test","","","","","","","","",""
"675","","f","psychophysics","128","350037","0.0-8.0-1.0-4.0-0.0-0.10","5","5","6","5","4","4","3","4","4","4","4","0","-1","1","1","-1","0","0","0","5","4","5","4","4","4","5","4","4","4","6","7","5","7","6","7","6","5","6","6","5","4","4","5","3","6","5","5","5","1","5","5","6","4","5","5","5","5","5","5","3","4","3","3","2","5","5","6","5","6","5","6","5","4","3","6","3","5","4","5","789244798249869314","马","640","Female","[""好她"",""坏她"",""好我"",""坏我""]","[""强她"",""弱她"",""强我"",""弱我""]","","","","","","","","match","","","","","","","","","","key","f","16.663555555555952","768","428","f","true","match","img/hexagon.png","强她","强她","ALT2","ability","","","","","","","","",""
"null","<span style='color:GreenYellow; font-size: 70px;'>正确! </span>","null","html-keyboard-response","129","350540","0.0-8.0-1.0-4.0-0.0-1.10","5","5","6","5","4","4","3","4","4","4","4","0","-1","1","1","-1","0","0","0","5","4","5","4","4","4","5","4","4","4","6","7","5","7","6","7","6","5","6","6","5","4","4","5","3","6","5","5","5","1","5","5","6","4","5","5","5","5","5","5","3","4","3","3","2","5","5","6","5","6","5","6","5","4","3","6","3","5","4","5","789244798249869314","马","640","Female","[""好她"",""坏她"",""好我"",""坏我""]","[""强她"",""弱她"",""强我"",""弱我""]","","","","","","","","","","","","","","","","","","","","","","","","","","","","","","feedback_test","","","","","","","","",""
"852","","j","psychophysics","130","352395","0.0-8.0-1.0-4.0-0.0-0.11","5","5","6","5","4","4","3","4","4","4","4","0","-1","1","1","-1","0","0","0","5","4","5","4","4","4","5","4","4","4","6","7","5","7","6","7","6","5","6","6","5","4","4","5","3","6","5","5","5","1","5","5","6","4","5","5","5","5","5","5","3","4","3","3","2","5","5","6","5","6","5","6","5","4","3","6","3","5","4","5","789244798249869314","马","640","Female","[""好她"",""坏她"",""好我"",""坏我""]","[""强她"",""弱她"",""强我"",""弱我""]","","","","","","","","nonmatch","","","","","","","","","","key","j","16.664918181818212","768","428","j","true","nonmatch","img/diamond.png","强我","弱她","ALT2","ability","","","","","","","","",""
"null","<span style='color:GreenYellow; font-size: 70px;'>正确! </span>","null","html-keyboard-response","131","352898","0.0-8.0-1.0-4.0-0.0-1.11","5","5","6","5","4","4","3","4","4","4","4","0","-1","1","1","-1","0","0","0","5","4","5","4","4","4","5","4","4","4","6","7","5","7","6","7","6","5","6","6","5","4","4","5","3","6","5","5","5","1","5","5","6","4","5","5","5","5","5","5","3","4","3","3","2","5","5","6","5","6","5","6","5","4","3","6","3","5","4","5","789244798249869314","马","640","Female","[""好她"",""坏她"",""好我"",""坏我""]","[""强她"",""弱她"",""强我"",""弱我""]","","","","","","","","","","","","","","","","","","","","","","","","","","","","","","feedback_test","","","","","","","","",""
"756","","f","psychophysics","132","354659","0.0-8.0-1.0-4.0-0.0-0.12","5","5","6","5","4","4","3","4","4","4","4","0","-1","1","1","-1","0","0","0","5","4","5","4","4","4","5","4","4","4","6","7","5","7","6","7","6","5","6","6","5","4","4","5","3","6","5","5","5","1","5","5","6","4","5","5","5","5","5","5","3","4","3","3","2","5","5","6","5","6","5","6","5","4","3","6","3","5","4","5","789244798249869314","马","640","Female","[""好她"",""坏她"",""好我"",""坏我""]","[""强她"",""弱她"",""强我"",""弱我""]","","","","","","","","match","","","","","","","","","","key","f","16.664180952380967","768","428","f","true","match","img/diamond.png","弱她","弱她","ALT2","ability","","","","","","","","",""
"null","<span style='color:GreenYellow; font-size: 70px;'>正确! </span>","null","html-keyboard-response","133","355167","0.0-8.0-1.0-4.0-0.0-1.12","5","5","6","5","4","4","3","4","4","4","4","0","-1","1","1","-1","0","0","0","5","4","5","4","4","4","5","4","4","4","6","7","5","7","6","7","6","5","6","6","5","4","4","5","3","6","5","5","5","1","5","5","6","4","5","5","5","5","5","5","3","4","3","3","2","5","5","6","5","6","5","6","5","4","3","6","3","5","4","5","789244798249869314","马","640","Female","[""好她"",""坏她"",""好我"",""坏我""]","[""强她"",""弱她"",""强我"",""弱我""]","","","","","","","","","","","","","","","","","","","","","","","","","","","","","","feedback_test","","","","","","","","",""
"583","","f","psychophysics","134","356754","0.0-8.0-1.0-4.0-0.0-0.13","5","5","6","5","4","4","3","4","4","4","4","0","-1","1","1","-1","0","0","0","5","4","5","4","4","4","5","4","4","4","6","7","5","7","6","7","6","5","6","6","5","4","4","5","3","6","5","5","5","1","5","5","6","4","5","5","5","5","5","5","3","4","3","3","2","5","5","6","5","6","5","6","5","4","3","6","3","5","4","5","789244798249869314","马","640","Female","[""好她"",""坏她"",""好我"",""坏我""]","[""强她"",""弱她"",""强我"",""弱我""]","","","","","","","","match","","","","","","","","","","key","f","16.841430107526538","768","428","f","true","match","img/triangle.png","强我","强我","ALT2","ability","","","","","","","","",""
"null","<span style='color:GreenYellow; font-size: 70px;'>正确! </span>","null","html-keyboard-response","135","357271","0.0-8.0-1.0-4.0-0.0-1.13","5","5","6","5","4","4","3","4","4","4","4","0","-1","1","1","-1","0","0","0","5","4","5","4","4","4","5","4","4","4","6","7","5","7","6","7","6","5","6","6","5","4","4","5","3","6","5","5","5","1","5","5","6","4","5","5","5","5","5","5","3","4","3","3","2","5","5","6","5","6","5","6","5","4","3","6","3","5","4","5","789244798249869314","马","640","Female","[""好她"",""坏她"",""好我"",""坏我""]","[""强她"",""弱她"",""强我"",""弱我""]","","","","","","","","","","","","","","","","","","","","","","","","","","","","","","feedback_test","","","","","","","","",""
"812","","j","psychophysics","136","359093","0.0-8.0-1.0-4.0-0.0-0.14","5","5","6","5","4","4","3","4","4","4","4","0","-1","1","1","-1","0","0","0","5","4","5","4","4","4","5","4","4","4","6","7","5","7","6","7","6","5","6","6","5","4","4","5","3","6","5","5","5","1","5","5","6","4","5","5","5","5","5","5","3","4","3","3","2","5","5","6","5","6","5","6","5","4","3","6","3","5","4","5","789244798249869314","马","640","Female","[""好她"",""坏她"",""好我"",""坏我""]","[""强她"",""弱她"",""强我"",""弱我""]","","","","","","","","nonmatch","","","","","","","","","","key","j","16.66379629629632","768","428","j","true","nonmatch","img/triangle.png","弱我","强我","ALT2","ability","","","","","","","","",""
"null","<span style='color:GreenYellow; font-size: 70px;'>正确! </span>","null","html-keyboard-response","137","359599","0.0-8.0-1.0-4.0-0.0-1.14","5","5","6","5","4","4","3","4","4","4","4","0","-1","1","1","-1","0","0","0","5","4","5","4","4","4","5","4","4","4","6","7","5","7","6","7","6","5","6","6","5","4","4","5","3","6","5","5","5","1","5","5","6","4","5","5","5","5","5","5","3","4","3","3","2","5","5","6","5","6","5","6","5","4","3","6","3","5","4","5","789244798249869314","马","640","Female","[""好她"",""坏她"",""好我"",""坏我""]","[""强她"",""弱她"",""强我"",""弱我""]","","","","","","","","","","","","","","","","","","","","","","","","","","","","","","feedback_test","","","","","","","","",""
