"rt","stimulus","response","trial_type","trial_index","time_elapsed","internal_node_id","swb_1","swb_2","swb_3","swb_4","swb_5","LOT_1","LOT_2","LOT_3","LOT_4","LOT_5","LOT_6","IPC_1","IPC_2","IPC_3","IPC_4","IPC_5","IPC_6","IPC_7","IPC_8","MorIden_1","MorIden_2","MorIden_3","MorIden_4","MorIden_5","MorIden_6","MorIden_7","MorIden_8","MorIden_9","MorIden_10","moralSeImag_1","moralSeImag_2","moralSeImag_3","moralSeImag_4","moralSeImag_5","moralSeImag_6","moralSeImag_7","moralSeImag_8","moralSeImag_9","sde_1","sde_2","sde_3","sde_4","sde_5","sde_6","sde_7","sde_8","sde_9","sde_10","trap2","sde_11","sde_12","sde_13","sde_14","sde_15","sde_16","sde_17","sde_18","sde_19","sde_20","IM_1","IM_2","IM_3","IM_4","IM_5","IM_6","IM_7","IM_8","IM_9","IM_10","IM_11","IM_12","IM_13","IM_14","IM_15","IM_16","IM_17","IM_18","IM_19","IM_20","subj_idx","friend_name","ParticipantID","Sex","Word","Word2","value","success","timeout","failed_images","failed_audio","failed_video","user_agent","responses","item_order","radio_event_ids","radio_event_times","key_event_times","mouse_event_times","straightlining","zigzagging","honeypot","task_id","screen_id","time_stamp","response_type","key_press","avg_frame_time","center_x","center_y","person","word","valence","domain","math","correct_response","correct","status","view_history","identity","duration","Image","condition","question_order","trap2_item"
"14543","
   <p><div style='color:white; font-size: 25px'>您好，欢迎参加本次实验。</div></p>
   <p><div style='color:white; font-size: 25px'>为充分保障您的权利，请确保您已经知晓并同意《参与实验同意书》以及《数据公开知情同意书》。</div></p>
   <p><div style='color:white; font-size: 25px'>如果您未见过上述内容，请咨询实验员。</div></p>
   <p style='color:white; font-size: 25px'>如果您选择继续实验，则表示您已经清楚两份知情同意书的内容并同意。</p>
   <p><div style = ""color: pink;font-size:30px;"">请确保您记得day0的实验编号，您将在本次实验输入该编号，若您忘记，请咨询实验员后作答。</div></p>
   <p><div style = ""color:lightblue;font-size:25px;"">请您尽可能认真地作答，我们将依据您在各问卷和按键任务中的作答质量发放报酬。</div></p>
   <p> <div style = ""color: green""><按空格键至下页></div> </p>
   "," ","html-keyboard-response","0","14551","0.0-0.0","6","5","7","6","6","4","5","4","4","4","5","-2","-2","0","2","-3","2","2","1","4","5","4","4","4","5","4","5","4","4","8","8","7","9","7","7","7","7","8","6","3","7","6","5","3","6","2","4","4","1","6","3","7","3","1","7","5","4","6","4","3","7","6","7","3","6","5","7","7","6","6","7","5","5","7","6","6","5","3","7","797763687048945665","杨","673","Male","[""好我"",""坏我"",""坏他"",""好他""]","[""强我"",""弱我"",""弱他"",""强他""]","","","","","","","","","","","","","","","","","","","","","","","","","","","","","","","","","","","","","","",""
"","","","call-function","1","14554","0.0-1.0-0.0","6","5","7","6","6","4","5","4","4","4","5","-2","-2","0","2","-3","2","2","1","4","5","4","4","4","5","4","5","4","4","8","8","7","9","7","7","7","7","8","6","3","7","6","5","3","6","2","4","4","1","6","3","7","3","1","7","5","4","6","4","3","7","6","7","3","6","5","7","7","6","6","7","5","5","7","6","6","5","3","7","797763687048945665","杨","673","Male","[""好我"",""坏我"",""坏他"",""好他""]","[""强我"",""弱我"",""弱他"",""强他""]","","","","","","","","","","","","","","","","","","","","","","","","","","","","","","","","","","","","","","",""
"18233","","[{""name"":""Sex"",""value"":""0""},{""name"":""friend_name"",""value"":""杨""},{""name"":""ParticipantID"",""value"":""673""}]","survey-html-form","2","32789","0.0-1.0-1.0","6","5","7","6","6","4","5","4","4","4","5","-2","-2","0","2","-3","2","2","1","4","5","4","4","4","5","4","5","4","4","8","8","7","9","7","7","7","7","8","6","3","7","6","5","3","6","2","4","4","1","6","3","7","3","1","7","5","4","6","4","3","7","6","7","3","6","5","7","7","6","6","7","5","5","7","6","6","5","3","7","797763687048945665","杨","673","Male","[""好我"",""坏我"",""坏他"",""好他""]","[""强我"",""弱我"",""弱他"",""强他""]","","","","","","","","","","","","","","","","","","","","","","","","","","","","","","","","","","","","","","",""
"","","","preload","3","33409","0.0-2.0","6","5","7","6","6","4","5","4","4","4","5","-2","-2","0","2","-3","2","2","1","4","5","4","4","4","5","4","5","4","4","8","8","7","9","7","7","7","7","8","6","3","7","6","5","3","6","2","4","4","1","6","3","7","3","1","7","5","4","6","4","3","7","6","7","3","6","5","7","7","6","6","7","5","5","7","6","6","5","3","7","797763687048945665","杨","673","Male","[""好我"",""坏我"",""坏他"",""好他""]","[""强我"",""弱我"",""弱他"",""强他""]","","true","false","[]","[]","[]","","","","","","","","","","","","","","","","","","","","","","","","","","","","","","","","",""
"","","","fullscreen","4","36536","0.0-3.0","6","5","7","6","6","4","5","4","4","4","5","-2","-2","0","2","-3","2","2","1","4","5","4","4","4","5","4","5","4","4","8","8","7","9","7","7","7","7","8","6","3","7","6","5","3","6","2","4","4","1","6","3","7","3","1","7","5","4","6","4","3","7","6","7","3","6","5","7","7","6","6","7","5","5","7","6","6","5","3","7","797763687048945665","杨","673","Male","[""好我"",""坏我"",""坏他"",""好他""]","[""强我"",""弱我"",""弱他"",""强他""]","","true","","","","","{}","","","","","","","","","","","","","","","","","","","","","","","","","","","","","","","",""
"17318.599999999627","","{""Q01"":""6"",""Q02"":""5"",""Q03"":""7"",""Q04"":""6"",""Q05"":""6""}","survey-template","5","53865","0.0-4.0","6","5","7","6","6","4","5","4","4","4","5","-2","-2","0","2","-3","2","2","1","4","5","4","4","4","5","4","5","4","4","8","8","7","9","7","7","7","7","8","6","3","7","6","5","3","6","2","4","4","1","6","3","7","3","1","7","5","4","6","4","3","7","6","7","3","6","5","7","7","6","6","7","5","5","7","6","6","5","3","7","797763687048945665","杨","673","Male","[""好我"",""坏我"",""坏他"",""好他""]","[""强我"",""弱我"",""弱他"",""强他""]","","","","","","","","{""Q01"":""6"",""Q02"":""5"",""Q03"":""7"",""Q04"":""6"",""Q05"":""6""}","[0,1,2,3,4]","[""Q01"",""Q02"",""Q03"",""Q04"",""Q05""]","[6611.300000000745,7467,8131.300000000745,10554.900000000373,11762.700000001118]","[]","[6611.300000000745,7467,8131.300000000745,10554.900000000373,11762.700000001118,17315.099999999627]","0.6","0.5","0","","","","","","","","","","","","","","","","","","","","","","",""
"15790.900000000373","","{""Q01"":""4"",""Q02"":""5"",""Q03"":""4"",""Q04"":""4"",""Q05"":""4"",""Q06"":""5""}","survey-template","6","69672","0.0-5.0","6","5","7","6","6","4","5","4","4","4","5","-2","-2","0","2","-3","2","2","1","4","5","4","4","4","5","4","5","4","4","8","8","7","9","7","7","7","7","8","6","3","7","6","5","3","6","2","4","4","1","6","3","7","3","1","7","5","4","6","4","3","7","6","7","3","6","5","7","7","6","6","7","5","5","7","6","6","5","3","7","797763687048945665","杨","673","Male","[""好我"",""坏我"",""坏他"",""好他""]","[""强我"",""弱我"",""弱他"",""强他""]","","","","","","","","{""Q01"":""4"",""Q02"":""5"",""Q03"":""4"",""Q04"":""4"",""Q05"":""4"",""Q06"":""5""}","[0,1,2,3,4,5]","[""Q01"",""Q02"",""Q03"",""Q04"",""Q05"",""Q06""]","[2508.9000000003725,5044.800000000745,5924.800000000745,7676.5999999996275,8859.900000000373,10228.700000001118]","[]","[2508.9000000003725,4181,5044.800000000745,5924.800000000745,7676.5999999996275,8156.5999999996275,8859.900000000373,10228.700000001118,15788.599999999627]","0.3333333333333333","0","0","","","","","","","","","","","","","","","","","","","","","","",""
"19724.89999999851","","{""Q01"":""-2"",""Q02"":""-2"",""Q03"":""0"",""Q04"":""2"",""Q05"":""-3"",""Q06"":""2"",""Q07"":""2"",""Q08"":""1""}","survey-template","7","89410","0.0-6.0","6","5","7","6","6","4","5","4","4","4","5","-2","-2","0","2","-3","2","2","1","4","5","4","4","4","5","4","5","4","4","8","8","7","9","7","7","7","7","8","6","3","7","6","5","3","6","2","4","4","1","6","3","7","3","1","7","5","4","6","4","3","7","6","7","3","6","5","7","7","6","6","7","5","5","7","6","6","5","3","7","797763687048945665","杨","673","Male","[""好我"",""坏我"",""坏他"",""好他""]","[""强我"",""弱我"",""弱他"",""强他""]","","","","","","","","{""Q01"":""-2"",""Q02"":""-2"",""Q03"":""0"",""Q04"":""2"",""Q05"":""-3"",""Q06"":""2"",""Q07"":""2"",""Q08"":""1""}","[0,1,2,3,4,5,6,7]","[""Q01"",""Q02"",""Q03"",""Q04"",""Q05"",""Q06"",""Q07"",""Q08""]","[2057.5,3721.5,5857.39999999851,7505.39999999851,9017.39999999851,10545.39999999851,12441.299999998882,14153.199999999255]","[]","[2057.5,3721.5,5857.39999999851,7041.299999998882,7505.39999999851,9017.39999999851,10545.39999999851,12441.299999998882,14153.199999999255,19721.5]","0.375","0.42857142857142855","0","","","","","","","","","","","","","","","","","","","","","","",""
"22046","
    <p><div style='color:white;font-size:35px; line-height:20px;'>词汇评估任务</div></p><br>
    <p><div style='color:white;font-size:25px; line-height:20px;'>请再次回忆该亲密的朋友，你们至少2年前就认识了，并且最近2年经常见面。</div></p>
    <p><div style='color:white;font-size:25px; line-height:20px;'>在本实验中，您将会看到一些形容词。</div></p>
    <p><div style='color:yellow;font-size:25px; line-height:20px;'>您的任务是判断这些形容词是否符合对您自己或您的朋友的描述。</div></p><p style='font-size:35px'>符合按<span style=""color:lightgreen""> j 键</span>，不符合按<span style=""color:red""> f 键</span></p>","0","html-button-response","8","111469","0.0-7.0-0.0","6","5","7","6","6","4","5","4","4","4","5","-2","-2","0","2","-3","2","2","1","4","5","4","4","4","5","4","5","4","4","8","8","7","9","7","7","7","7","8","6","3","7","6","5","3","6","2","4","4","1","6","3","7","3","1","7","5","4","6","4","3","7","6","7","3","6","5","7","7","6","6","7","5","5","7","6","6","5","3","7","797763687048945665","杨","673","Male","[""好我"",""坏我"",""坏他"",""好他""]","[""强我"",""弱我"",""弱他"",""强他""]","","","","","","","","","","","","","","","","","SRET_EW","EW_instructions","Sat Jan 20 2024 13:15:09 GMT+0800 (中国标准时间)","","","","","","","","","","","","","","","","","","","",""
"1179","","f","psychophysics","9","113683","0.0-7.0-1.0-0.0","6","5","7","6","6","4","5","4","4","4","5","-2","-2","0","2","-3","2","2","1","4","5","4","4","4","5","4","5","4","4","8","8","7","9","7","7","7","7","8","6","3","7","6","5","3","6","2","4","4","1","6","3","7","3","1","7","5","4","6","4","3","7","6","7","3","6","5","7","7","6","6","7","5","5","7","6","6","5","3","7","797763687048945665","杨","673","Male","[""好我"",""坏我"",""坏他"",""好他""]","[""强我"",""弱我"",""弱他"",""强他""]","","","","","","","","no","","","","","","","","","SRET_EW","EW_practice","","key","f","17.066146153846056","683","380","自己","刻板","Negative","ability","","","","","","","","","","",""
"1493","","j","psychophysics","10","116181","0.0-7.0-1.0-0.1","6","5","7","6","6","4","5","4","4","4","5","-2","-2","0","2","-3","2","2","1","4","5","4","4","4","5","4","5","4","4","8","8","7","9","7","7","7","7","8","6","3","7","6","5","3","6","2","4","4","1","6","3","7","3","1","7","5","4","6","4","3","7","6","7","3","6","5","7","7","6","6","7","5","5","7","6","6","5","3","7","797763687048945665","杨","673","Male","[""好我"",""坏我"",""坏他"",""好他""]","[""强我"",""弱我"",""弱他"",""强他""]","","","","","","","","yes","","","","","","","","","SRET_EW","EW_practice","","key","j","16.892258503401337","683","380","自己","严谨","Positive","ability","","","","","","","","","","",""
"1386","","j","psychophysics","11","118572","0.0-7.0-1.0-0.2","6","5","7","6","6","4","5","4","4","4","5","-2","-2","0","2","-3","2","2","1","4","5","4","4","4","5","4","5","4","4","8","8","7","9","7","7","7","7","8","6","3","7","6","5","3","6","2","4","4","1","6","3","7","3","1","7","5","4","6","4","3","7","6","7","3","6","5","7","7","6","6","7","5","5","7","6","6","5","3","7","797763687048945665","杨","673","Male","[""好我"",""坏我"",""坏他"",""好他""]","[""强我"",""弱我"",""弱他"",""强他""]","","","","","","","","yes","","","","","","","","","SRET_EW","EW_practice","","key","j","16.66580281690137","683","380","朋友","忠实","Positive","morality","","","","","","","","","","",""
"1288","","f","psychophysics","12","120868","0.0-7.0-1.0-0.3","6","5","7","6","6","4","5","4","4","4","5","-2","-2","0","2","-3","2","2","1","4","5","4","4","4","5","4","5","4","4","8","8","7","9","7","7","7","7","8","6","3","7","6","5","3","6","2","4","4","1","6","3","7","3","1","7","5","4","6","4","3","7","6","7","3","6","5","7","7","6","6","7","5","5","7","6","6","5","3","7","797763687048945665","杨","673","Male","[""好我"",""坏我"",""坏他"",""好他""]","[""强我"",""弱我"",""弱他"",""强他""]","","","","","","","","no","","","","","","","","","SRET_EW","EW_practice","","key","f","16.78840441176469","683","380","朋友","徇私","Negative","morality","","","","","","","","","","",""
"6895","
    <p><div style='color:white;font-size:35px; line-height:20px;'>请您再次阅读实验要求</div></p><br>
    <p><div style='color:white;font-size:25px; line-height:20px;'>请回忆某一个亲密的朋友，你们至少2年前就认识了，并且最近2年经常见面。</div></p>
    <p><div style='color:white;font-size:25px; line-height:20px;'>在本实验中，您将会看到一些形容词。</div></p>
    <p><div style='color:yellow;font-size:25px; line-height:20px;'>您的任务是判断这些形容词是否符合对您自己或您的朋友的描述。</div></p>
    <p><div class='footer' style='font-size:25px; line-height:20px;'>如果对本实验还有不清楚之处，请立即向实验员咨询。</p><p style='font-size:25px; line-height:20px;'>如果您明白了规则：</p><p style='font-size:22px; line-height:20px;'>请按 继续 进入正式实验</p>
    </div>
    <p style='font-size:35px'>符合按<span style=""color:lightgreen""> j 键</span>，不符合按<span style=""color:red""> f 键</span></p>","0","html-button-response","13","127765","0.0-7.0-2.0","6","5","7","6","6","4","5","4","4","4","5","-2","-2","0","2","-3","2","2","1","4","5","4","4","4","5","4","5","4","4","8","8","7","9","7","7","7","7","8","6","3","7","6","5","3","6","2","4","4","1","6","3","7","3","1","7","5","4","6","4","3","7","6","7","3","6","5","7","7","6","6","7","5","5","7","6","6","5","3","7","797763687048945665","杨","673","Male","[""好我"",""坏我"",""坏他"",""好他""]","[""强我"",""弱我"",""弱他"",""强他""]","","","","","","","","","","","","","","","","","SRET_EW","prac_instructions","Sat Jan 20 2024 13:15:09 GMT+0800 (中国标准时间)","","","","","","","","","","","","","","","","","","","",""
"1444","","j","psychophysics","14","130214","0.0-7.0-3.0-0.0","6","5","7","6","6","4","5","4","4","4","5","-2","-2","0","2","-3","2","2","1","4","5","4","4","4","5","4","5","4","4","8","8","7","9","7","7","7","7","8","6","3","7","6","5","3","6","2","4","4","1","6","3","7","3","1","7","5","4","6","4","3","7","6","7","3","6","5","7","7","6","6","7","5","5","7","6","6","5","3","7","797763687048945665","杨","673","Male","[""好我"",""坏我"",""坏他"",""好他""]","[""强我"",""弱我"",""弱他"",""强他""]","","","","","","","","yes","","","","","","","","","SRET","EW_formal","","key","j","16.780335616438382","683","380","朋友","务实","Positive","ability","","","","","","","","","","",""
"1195","","f","psychophysics","15","132413","0.0-7.0-3.0-0.1","6","5","7","6","6","4","5","4","4","4","5","-2","-2","0","2","-3","2","2","1","4","5","4","4","4","5","4","5","4","4","8","8","7","9","7","7","7","7","8","6","3","7","6","5","3","6","2","4","4","1","6","3","7","3","1","7","5","4","6","4","3","7","6","7","3","6","5","7","7","6","6","7","5","5","7","6","6","5","3","7","797763687048945665","杨","673","Male","[""好我"",""坏我"",""坏他"",""好他""]","[""强我"",""弱我"",""弱他"",""强他""]","","","","","","","","no","","","","","","","","","SRET","EW_formal","","key","f","17.056507812500058","683","380","自己","说谎","Negative","morality","","","","","","","","","","",""
"1466","","f","psychophysics","16","134892","0.0-7.0-3.0-0.2","6","5","7","6","6","4","5","4","4","4","5","-2","-2","0","2","-3","2","2","1","4","5","4","4","4","5","4","5","4","4","8","8","7","9","7","7","7","7","8","6","3","7","6","5","3","6","2","4","4","1","6","3","7","3","1","7","5","4","6","4","3","7","6","7","3","6","5","7","7","6","6","7","5","5","7","6","6","5","3","7","797763687048945665","杨","673","Male","[""好我"",""坏我"",""坏他"",""好他""]","[""强我"",""弱我"",""弱他"",""强他""]","","","","","","","","no","","","","","","","","","SRET","EW_formal","","key","f","16.66521088435369","683","380","朋友","迷糊","Negative","ability","","","","","","","","","","",""
"1301","","j","psychophysics","17","137199","0.0-7.0-3.0-0.3","6","5","7","6","6","4","5","4","4","4","5","-2","-2","0","2","-3","2","2","1","4","5","4","4","4","5","4","5","4","4","8","8","7","9","7","7","7","7","8","6","3","7","6","5","3","6","2","4","4","1","6","3","7","3","1","7","5","4","6","4","3","7","6","7","3","6","5","7","7","6","6","7","5","5","7","6","6","5","3","7","797763687048945665","杨","673","Male","[""好我"",""坏我"",""坏他"",""好他""]","[""强我"",""弱我"",""弱他"",""强他""]","","","","","","","","yes","","","","","","","","","SRET","EW_formal","","key","j","16.78728467153269","683","380","自己","坚贞","Positive","morality","","","","","","","","","","",""
"1379","","f","psychophysics","18","139582","0.0-7.0-3.0-0.4","6","5","7","6","6","4","5","4","4","4","5","-2","-2","0","2","-3","2","2","1","4","5","4","4","4","5","4","5","4","4","8","8","7","9","7","7","7","7","8","6","3","7","6","5","3","6","2","4","4","1","6","3","7","3","1","7","5","4","6","4","3","7","6","7","3","6","5","7","7","6","6","7","5","5","7","6","6","5","3","7","797763687048945665","杨","673","Male","[""好我"",""坏我"",""坏他"",""好他""]","[""强我"",""弱我"",""弱他"",""强他""]","","","","","","","","no","","","","","","","","","SRET","EW_formal","","key","f","16.666112676056258","683","380","朋友","自私","Negative","morality","","","","","","","","","","",""
"1578","","f","psychophysics","19","142164","0.0-7.0-3.0-0.5","6","5","7","6","6","4","5","4","4","4","5","-2","-2","0","2","-3","2","2","1","4","5","4","4","4","5","4","5","4","4","8","8","7","9","7","7","7","7","8","6","3","7","6","5","3","6","2","4","4","1","6","3","7","3","1","7","5","4","6","4","3","7","6","7","3","6","5","7","7","6","6","7","5","5","7","6","6","5","3","7","797763687048945665","杨","673","Male","[""好我"",""坏我"",""坏他"",""好他""]","[""强我"",""弱我"",""弱他"",""强他""]","","","","","","","","no","","","","","","","","","SRET","EW_formal","","key","f","16.6652857142857","683","380","自己","邪恶","Negative","morality","","","","","","","","","","",""
"1345","","f","psychophysics","20","144515","0.0-7.0-3.0-0.6","6","5","7","6","6","4","5","4","4","4","5","-2","-2","0","2","-3","2","2","1","4","5","4","4","4","5","4","5","4","4","8","8","7","9","7","7","7","7","8","6","3","7","6","5","3","6","2","4","4","1","6","3","7","3","1","7","5","4","6","4","3","7","6","7","3","6","5","7","7","6","6","7","5","5","7","6","6","5","3","7","797763687048945665","杨","673","Male","[""好我"",""坏我"",""坏他"",""好他""]","[""强我"",""弱我"",""弱他"",""强他""]","","","","","","","","no","","","","","","","","","SRET","EW_formal","","key","f","16.78500719424446","683","380","朋友","蛇蝎","Negative","morality","","","","","","","","","","",""
"1314","","j","psychophysics","21","146835","0.0-7.0-3.0-0.7","6","5","7","6","6","4","5","4","4","4","5","-2","-2","0","2","-3","2","2","1","4","5","4","4","4","5","4","5","4","4","8","8","7","9","7","7","7","7","8","6","3","7","6","5","3","6","2","4","4","1","6","3","7","3","1","7","5","4","6","4","3","7","6","7","3","6","5","7","7","6","6","7","5","5","7","6","6","5","3","7","797763687048945665","杨","673","Male","[""好我"",""坏我"",""坏他"",""好他""]","[""强我"",""弱我"",""弱他"",""强他""]","","","","","","","","yes","","","","","","","","","SRET","EW_formal","","key","j","16.665992753623236","683","380","朋友","宽容","Positive","morality","","","","","","","","","","",""
"1223","","j","psychophysics","22","149064","0.0-7.0-3.0-0.8","6","5","7","6","6","4","5","4","4","4","5","-2","-2","0","2","-3","2","2","1","4","5","4","4","4","5","4","5","4","4","8","8","7","9","7","7","7","7","8","6","3","7","6","5","3","6","2","4","4","1","6","3","7","3","1","7","5","4","6","4","3","7","6","7","3","6","5","7","7","6","6","7","5","5","7","6","6","5","3","7","797763687048945665","杨","673","Male","[""好我"",""坏我"",""坏他"",""好他""]","[""强我"",""弱我"",""弱他"",""强他""]","","","","","","","","yes","","","","","","","","","SRET","EW_formal","","key","j","16.665195488721732","683","380","朋友","顶事","Positive","ability","","","","","","","","","","",""
"1314","","j","psychophysics","23","151388","0.0-7.0-3.0-0.9","6","5","7","6","6","4","5","4","4","4","5","-2","-2","0","2","-3","2","2","1","4","5","4","4","4","5","4","5","4","4","8","8","7","9","7","7","7","7","8","6","3","7","6","5","3","6","2","4","4","1","6","3","7","3","1","7","5","4","6","4","3","7","6","7","3","6","5","7","7","6","6","7","5","5","7","6","6","5","3","7","797763687048945665","杨","673","Male","[""好我"",""坏我"",""坏他"",""好他""]","[""强我"",""弱我"",""弱他"",""强他""]","","","","","","","","yes","","","","","","","","","SRET","EW_formal","","key","j","16.665485507246373","683","380","自己","谦逊","Positive","morality","","","","","","","","","","",""
"1388","","j","psychophysics","24","153781","0.0-7.0-3.0-0.10","6","5","7","6","6","4","5","4","4","4","5","-2","-2","0","2","-3","2","2","1","4","5","4","4","4","5","4","5","4","4","8","8","7","9","7","7","7","7","8","6","3","7","6","5","3","6","2","4","4","1","6","3","7","3","1","7","5","4","6","4","3","7","6","7","3","6","5","7","7","6","6","7","5","5","7","6","6","5","3","7","797763687048945665","杨","673","Male","[""好我"",""坏我"",""坏他"",""好他""]","[""强我"",""弱我"",""弱他"",""强他""]","","","","","","","","yes","","","","","","","","","SRET","EW_formal","","key","j","16.66554545454532","683","380","自己","稳健","Positive","ability","","","","","","","","","","",""
"1196","","j","psychophysics","25","155981","0.0-7.0-3.0-0.11","6","5","7","6","6","4","5","4","4","4","5","-2","-2","0","2","-3","2","2","1","4","5","4","4","4","5","4","5","4","4","8","8","7","9","7","7","7","7","8","6","3","7","6","5","3","6","2","4","4","1","6","3","7","3","1","7","5","4","6","4","3","7","6","7","3","6","5","7","7","6","6","7","5","5","7","6","6","5","3","7","797763687048945665","杨","673","Male","[""好我"",""坏我"",""坏他"",""好他""]","[""强我"",""弱我"",""弱他"",""强他""]","","","","","","","","yes","","","","","","","","","SRET","EW_formal","","key","j","16.66537404580167","683","380","朋友","高效","Positive","ability","","","","","","","","","","",""
"1250","","j","psychophysics","26","158235","0.0-7.0-3.0-0.12","6","5","7","6","6","4","5","4","4","4","5","-2","-2","0","2","-3","2","2","1","4","5","4","4","4","5","4","5","4","4","8","8","7","9","7","7","7","7","8","6","3","7","6","5","3","6","2","4","4","1","6","3","7","3","1","7","5","4","6","4","3","7","6","7","3","6","5","7","7","6","6","7","5","5","7","6","6","5","3","7","797763687048945665","杨","673","Male","[""好我"",""坏我"",""坏他"",""好他""]","[""强我"",""弱我"",""弱他"",""强他""]","","","","","","","","yes","","","","","","","","","SRET","EW_formal","","key","j","16.79088721804507","683","380","自己","精干","Positive","ability","","","","","","","","","","",""
"1097","","f","psychophysics","27","160340","0.0-7.0-3.0-0.13","6","5","7","6","6","4","5","4","4","4","5","-2","-2","0","2","-3","2","2","1","4","5","4","4","4","5","4","5","4","4","8","8","7","9","7","7","7","7","8","6","3","7","6","5","3","6","2","4","4","1","6","3","7","3","1","7","5","4","6","4","3","7","6","7","3","6","5","7","7","6","6","7","5","5","7","6","6","5","3","7","797763687048945665","杨","673","Male","[""好我"",""坏我"",""坏他"",""好他""]","[""强我"",""弱我"",""弱他"",""强他""]","","","","","","","","no","","","","","","","","","SRET","EW_formal","","key","f","16.800040322580777","683","380","朋友","拙笨","Negative","ability","","","","","","","","","","",""
"1069","","f","psychophysics","28","162413","0.0-7.0-3.0-0.14","6","5","7","6","6","4","5","4","4","4","5","-2","-2","0","2","-3","2","2","1","4","5","4","4","4","5","4","5","4","4","8","8","7","9","7","7","7","7","8","6","3","7","6","5","3","6","2","4","4","1","6","3","7","3","1","7","5","4","6","4","3","7","6","7","3","6","5","7","7","6","6","7","5","5","7","6","6","5","3","7","797763687048945665","杨","673","Male","[""好我"",""坏我"",""坏他"",""好他""]","[""强我"",""弱我"",""弱他"",""强他""]","","","","","","","","no","","","","","","","","","SRET","EW_formal","","key","f","16.801235772357693","683","380","朋友","势利","Negative","morality","","","","","","","","","","",""
"1001","","f","psychophysics","29","164419","0.0-7.0-3.0-0.15","6","5","7","6","6","4","5","4","4","4","5","-2","-2","0","2","-3","2","2","1","4","5","4","4","4","5","4","5","4","4","8","8","7","9","7","7","7","7","8","6","3","7","6","5","3","6","2","4","4","1","6","3","7","3","1","7","5","4","6","4","3","7","6","7","3","6","5","7","7","6","6","7","5","5","7","6","6","5","3","7","797763687048945665","杨","673","Male","[""好我"",""坏我"",""坏他"",""好他""]","[""强我"",""弱我"",""弱他"",""强他""]","","","","","","","","no","","","","","","","","","SRET","EW_formal","","key","f","16.665352941176437","683","380","朋友","驽钝","Negative","ability","","","","","","","","","","",""
"1066","","j","psychophysics","30","166496","0.0-7.0-3.0-0.16","6","5","7","6","6","4","5","4","4","4","5","-2","-2","0","2","-3","2","2","1","4","5","4","4","4","5","4","5","4","4","8","8","7","9","7","7","7","7","8","6","3","7","6","5","3","6","2","4","4","1","6","3","7","3","1","7","5","4","6","4","3","7","6","7","3","6","5","7","7","6","6","7","5","5","7","6","6","5","3","7","797763687048945665","杨","673","Male","[""好我"",""坏我"",""坏他"",""好他""]","[""强我"",""弱我"",""弱他"",""强他""]","","","","","","","","yes","","","","","","","","","SRET","EW_formal","","key","j","16.666475806451466","683","380","朋友","扎实","Positive","ability","","","","","","","","","","",""
"1146","","j","psychophysics","31","168652","0.0-7.0-3.0-0.17","6","5","7","6","6","4","5","4","4","4","5","-2","-2","0","2","-3","2","2","1","4","5","4","4","4","5","4","5","4","4","8","8","7","9","7","7","7","7","8","6","3","7","6","5","3","6","2","4","4","1","6","3","7","3","1","7","5","4","6","4","3","7","6","7","3","6","5","7","7","6","6","7","5","5","7","6","6","5","3","7","797763687048945665","杨","673","Male","[""好我"",""坏我"",""坏他"",""好他""]","[""强我"",""弱我"",""弱他"",""强他""]","","","","","","","","yes","","","","","","","","","SRET","EW_formal","","key","j","16.66608593749993","683","380","朋友","忠良","Positive","morality","","","","","","","","","","",""
"970","","f","psychophysics","32","170628","0.0-7.0-3.0-0.18","6","5","7","6","6","4","5","4","4","4","5","-2","-2","0","2","-3","2","2","1","4","5","4","4","4","5","4","5","4","4","8","8","7","9","7","7","7","7","8","6","3","7","6","5","3","6","2","4","4","1","6","3","7","3","1","7","5","4","6","4","3","7","6","7","3","6","5","7","7","6","6","7","5","5","7","6","6","5","3","7","797763687048945665","杨","673","Male","[""好我"",""坏我"",""坏他"",""好他""]","[""强我"",""弱我"",""弱他"",""强他""]","","","","","","","","no","","","","","","","","","SRET","EW_formal","","key","f","16.665805084745536","683","380","自己","拖拉","Negative","ability","","","","","","","","","","",""
"1075","","f","psychophysics","33","172709","0.0-7.0-3.0-0.19","6","5","7","6","6","4","5","4","4","4","5","-2","-2","0","2","-3","2","2","1","4","5","4","4","4","5","4","5","4","4","8","8","7","9","7","7","7","7","8","6","3","7","6","5","3","6","2","4","4","1","6","3","7","3","1","7","5","4","6","4","3","7","6","7","3","6","5","7","7","6","6","7","5","5","7","6","6","5","3","7","797763687048945665","杨","673","Male","[""好我"",""坏我"",""坏他"",""好他""]","[""强我"",""弱我"",""弱他"",""强他""]","","","","","","","","no","","","","","","","","","SRET","EW_formal","","key","f","16.66639024390256","683","380","自己","笨蛋","Negative","ability","","","","","","","","","","",""
"1149","","j","psychophysics","34","174863","0.0-7.0-3.0-0.20","6","5","7","6","6","4","5","4","4","4","5","-2","-2","0","2","-3","2","2","1","4","5","4","4","4","5","4","5","4","4","8","8","7","9","7","7","7","7","8","6","3","7","6","5","3","6","2","4","4","1","6","3","7","3","1","7","5","4","6","4","3","7","6","7","3","6","5","7","7","6","6","7","5","5","7","6","6","5","3","7","797763687048945665","杨","673","Male","[""好我"",""坏我"",""坏他"",""好他""]","[""强我"",""弱我"",""弱他"",""强他""]","","","","","","","","yes","","","","","","","","","SRET","EW_formal","","key","j","17.337435483871","683","380","自己","孝顺","Positive","morality","","","","","","","","","","",""
"1522","","j","psychophysics","35","177396","0.0-7.0-3.0-0.21","6","5","7","6","6","4","5","4","4","4","5","-2","-2","0","2","-3","2","2","1","4","5","4","4","4","5","4","5","4","4","8","8","7","9","7","7","7","7","8","6","3","7","6","5","3","6","2","4","4","1","6","3","7","3","1","7","5","4","6","4","3","7","6","7","3","6","5","7","7","6","6","7","5","5","7","6","6","5","3","7","797763687048945665","杨","673","Male","[""好我"",""坏我"",""坏他"",""好他""]","[""强我"",""弱我"",""弱他"",""强他""]","","","","","","","","yes","","","","","","","","","SRET","EW_formal","","key","j","16.665834437086076","683","380","自己","高洁","Positive","morality","","","","","","","","","","",""
"1001","","j","psychophysics","36","179404","0.0-7.0-3.0-0.22","6","5","7","6","6","4","5","4","4","4","5","-2","-2","0","2","-3","2","2","1","4","5","4","4","4","5","4","5","4","4","8","8","7","9","7","7","7","7","8","6","3","7","6","5","3","6","2","4","4","1","6","3","7","3","1","7","5","4","6","4","3","7","6","7","3","6","5","7","7","6","6","7","5","5","7","6","6","5","3","7","797763687048945665","杨","673","Male","[""好我"",""坏我"",""坏他"",""好他""]","[""强我"",""弱我"",""弱他"",""强他""]","","","","","","","","yes","","","","","","","","","SRET","EW_formal","","key","j","16.66576470588231","683","380","自己","有力","Positive","ability","","","","","","","","","","",""
"null","","null","psychophysics","37","182420","0.0-7.0-3.0-0.23","6","5","7","6","6","4","5","4","4","4","5","-2","-2","0","2","-3","2","2","1","4","5","4","4","4","5","4","5","4","4","8","8","7","9","7","7","7","7","8","6","3","7","6","5","3","6","2","4","4","1","6","3","7","3","1","7","5","4","6","4","3","7","6","7","3","6","5","7","7","6","6","7","5","5","7","6","6","5","3","7","797763687048945665","杨","673","Male","[""好我"",""坏我"",""坏他"",""好他""]","[""强我"",""弱我"",""弱他"",""强他""]","","","","","","","","","","","","","","","","","SRET","EW_formal","","key","null","16.666016666666675","683","380","朋友","无为","Negative","ability","","","","","","","","","","",""
"852","","f","psychophysics","38","184280","0.0-7.0-3.0-0.24","6","5","7","6","6","4","5","4","4","4","5","-2","-2","0","2","-3","2","2","1","4","5","4","4","4","5","4","5","4","4","8","8","7","9","7","7","7","7","8","6","3","7","6","5","3","6","2","4","4","1","6","3","7","3","1","7","5","4","6","4","3","7","6","7","3","6","5","7","7","6","6","7","5","5","7","6","6","5","3","7","797763687048945665","杨","673","Male","[""好我"",""坏我"",""坏他"",""好他""]","[""强我"",""弱我"",""弱他"",""强他""]","","","","","","","","no","","","","","","","","","SRET","EW_formal","","key","f","16.817518181818144","683","380","朋友","差生","Negative","ability","","","","","","","","","","",""
"1065","","j","psychophysics","39","186348","0.0-7.0-3.0-0.25","6","5","7","6","6","4","5","4","4","4","5","-2","-2","0","2","-3","2","2","1","4","5","4","4","4","5","4","5","4","4","8","8","7","9","7","7","7","7","8","6","3","7","6","5","3","6","2","4","4","1","6","3","7","3","1","7","5","4","6","4","3","7","6","7","3","6","5","7","7","6","6","7","5","5","7","6","6","5","3","7","797763687048945665","杨","673","Male","[""好我"",""坏我"",""坏他"",""好他""]","[""强我"",""弱我"",""弱他"",""强他""]","","","","","","","","yes","","","","","","","","","SRET","EW_formal","","key","j","16.665422764227714","683","380","朋友","专注","Positive","ability","","","","","","","","","","",""
"849","","f","psychophysics","40","188204","0.0-7.0-3.0-0.26","6","5","7","6","6","4","5","4","4","4","5","-2","-2","0","2","-3","2","2","1","4","5","4","4","4","5","4","5","4","4","8","8","7","9","7","7","7","7","8","6","3","7","6","5","3","6","2","4","4","1","6","3","7","3","1","7","5","4","6","4","3","7","6","7","3","6","5","7","7","6","6","7","5","5","7","6","6","5","3","7","797763687048945665","杨","673","Male","[""好我"",""坏我"",""坏他"",""好他""]","[""强我"",""弱我"",""弱他"",""强他""]","","","","","","","","no","","","","","","","","","SRET","EW_formal","","key","f","16.8190733944955","683","380","自己","奸诈","Negative","morality","","","","","","","","","","",""
"1161","","f","psychophysics","41","190372","0.0-7.0-3.0-0.27","6","5","7","6","6","4","5","4","4","4","5","-2","-2","0","2","-3","2","2","1","4","5","4","4","4","5","4","5","4","4","8","8","7","9","7","7","7","7","8","6","3","7","6","5","3","6","2","4","4","1","6","3","7","3","1","7","5","4","6","4","3","7","6","7","3","6","5","7","7","6","6","7","5","5","7","6","6","5","3","7","797763687048945665","杨","673","Male","[""好我"",""坏我"",""坏他"",""好他""]","[""强我"",""弱我"",""弱他"",""强他""]","","","","","","","","no","","","","","","","","","SRET","EW_formal","","key","f","16.6659069767442","683","380","自己","独断","Negative","ability","","","","","","","","","","",""
"989","","f","psychophysics","42","192363","0.0-7.0-3.0-0.28","6","5","7","6","6","4","5","4","4","4","5","-2","-2","0","2","-3","2","2","1","4","5","4","4","4","5","4","5","4","4","8","8","7","9","7","7","7","7","8","6","3","7","6","5","3","6","2","4","4","1","6","3","7","3","1","7","5","4","6","4","3","7","6","7","3","6","5","7","7","6","6","7","5","5","7","6","6","5","3","7","797763687048945665","杨","673","Male","[""好我"",""坏我"",""坏他"",""好他""]","[""强我"",""弱我"",""弱他"",""强他""]","","","","","","","","no","","","","","","","","","SRET","EW_formal","","key","f","16.806855932203412","683","380","朋友","窝囊","Negative","ability","","","","","","","","","","",""
"1097","","j","psychophysics","43","194467","0.0-7.0-3.0-0.29","6","5","7","6","6","4","5","4","4","4","5","-2","-2","0","2","-3","2","2","1","4","5","4","4","4","5","4","5","4","4","8","8","7","9","7","7","7","7","8","6","3","7","6","5","3","6","2","4","4","1","6","3","7","3","1","7","5","4","6","4","3","7","6","7","3","6","5","7","7","6","6","7","5","5","7","6","6","5","3","7","797763687048945665","杨","673","Male","[""好我"",""坏我"",""坏他"",""好他""]","[""强我"",""弱我"",""弱他"",""强他""]","","","","","","","","yes","","","","","","","","","SRET","EW_formal","","key","j","16.665928000000072","683","380","自己","利落","Positive","ability","","","","","","","","","","",""
"1024","","f","psychophysics","44","196499","0.0-7.0-3.0-0.30","6","5","7","6","6","4","5","4","4","4","5","-2","-2","0","2","-3","2","2","1","4","5","4","4","4","5","4","5","4","4","8","8","7","9","7","7","7","7","8","6","3","7","6","5","3","6","2","4","4","1","6","3","7","3","1","7","5","4","6","4","3","7","6","7","3","6","5","7","7","6","6","7","5","5","7","6","6","5","3","7","797763687048945665","杨","673","Male","[""好我"",""坏我"",""坏他"",""好他""]","[""强我"",""弱我"",""弱他"",""强他""]","","","","","","","","no","","","","","","","","","SRET","EW_formal","","key","f","16.665429752066053","683","380","朋友","废物","Negative","ability","","","","","","","","","","",""
"1373","","j","psychophysics","45","198880","0.0-7.0-3.0-0.31","6","5","7","6","6","4","5","4","4","4","5","-2","-2","0","2","-3","2","2","1","4","5","4","4","4","5","4","5","4","4","8","8","7","9","7","7","7","7","8","6","3","7","6","5","3","6","2","4","4","1","6","3","7","3","1","7","5","4","6","4","3","7","6","7","3","6","5","7","7","6","6","7","5","5","7","6","6","5","3","7","797763687048945665","杨","673","Male","[""好我"",""坏我"",""坏他"",""好他""]","[""强我"",""弱我"",""弱他"",""强他""]","","","","","","","","yes","","","","","","","","","SRET","EW_formal","","key","j","16.665992957746454","683","380","朋友","刚正","Positive","morality","","","","","","","","","","",""
"953","","j","psychophysics","46","200835","0.0-7.0-3.0-0.32","6","5","7","6","6","4","5","4","4","4","5","-2","-2","0","2","-3","2","2","1","4","5","4","4","4","5","4","5","4","4","8","8","7","9","7","7","7","7","8","6","3","7","6","5","3","6","2","4","4","1","6","3","7","3","1","7","5","4","6","4","3","7","6","7","3","6","5","7","7","6","6","7","5","5","7","6","6","5","3","7","797763687048945665","杨","673","Male","[""好我"",""坏我"",""坏他"",""好他""]","[""强我"",""弱我"",""弱他"",""强他""]","","","","","","","","yes","","","","","","","","","SRET","EW_formal","","key","j","16.66575862068968","683","380","朋友","仁厚","Positive","morality","","","","","","","","","","",""
"1224","","j","psychophysics","47","203068","0.0-7.0-3.0-0.33","6","5","7","6","6","4","5","4","4","4","5","-2","-2","0","2","-3","2","2","1","4","5","4","4","4","5","4","5","4","4","8","8","7","9","7","7","7","7","8","6","3","7","6","5","3","6","2","4","4","1","6","3","7","3","1","7","5","4","6","4","3","7","6","7","3","6","5","7","7","6","6","7","5","5","7","6","6","5","3","7","797763687048945665","杨","673","Male","[""好我"",""坏我"",""坏他"",""好他""]","[""强我"",""弱我"",""弱他"",""强他""]","","","","","","","","yes","","","","","","","","","SRET","EW_formal","","key","j","16.665443609022454","683","380","自己","敬业","Positive","morality","","","","","","","","","","",""
"1050","","j","psychophysics","48","205126","0.0-7.0-3.0-0.34","6","5","7","6","6","4","5","4","4","4","5","-2","-2","0","2","-3","2","2","1","4","5","4","4","4","5","4","5","4","4","8","8","7","9","7","7","7","7","8","6","3","7","6","5","3","6","2","4","4","1","6","3","7","3","1","7","5","4","6","4","3","7","6","7","3","6","5","7","7","6","6","7","5","5","7","6","6","5","3","7","797763687048945665","杨","673","Male","[""好我"",""坏我"",""坏他"",""好他""]","[""强我"",""弱我"",""弱他"",""强他""]","","","","","","","","yes","","","","","","","","","SRET","EW_formal","","key","j","16.666081967213014","683","380","朋友","敏捷","Positive","ability","","","","","","","","","","",""
"1155","","j","psychophysics","49","207294","0.0-7.0-3.0-0.35","6","5","7","6","6","4","5","4","4","4","5","-2","-2","0","2","-3","2","2","1","4","5","4","4","4","5","4","5","4","4","8","8","7","9","7","7","7","7","8","6","3","7","6","5","3","6","2","4","4","1","6","3","7","3","1","7","5","4","6","4","3","7","6","7","3","6","5","7","7","6","6","7","5","5","7","6","6","5","3","7","797763687048945665","杨","673","Male","[""好我"",""坏我"",""坏他"",""好他""]","[""强我"",""弱我"",""弱他"",""强他""]","","","","","","","","yes","","","","","","","","","SRET","EW_formal","","key","j","16.795542635658915","683","380","自己","中用","Positive","ability","","","","","","","","","","",""
"996","","j","psychophysics","50","209295","0.0-7.0-3.0-0.36","6","5","7","6","6","4","5","4","4","4","5","-2","-2","0","2","-3","2","2","1","4","5","4","4","4","5","4","5","4","4","8","8","7","9","7","7","7","7","8","6","3","7","6","5","3","6","2","4","4","1","6","3","7","3","1","7","5","4","6","4","3","7","6","7","3","6","5","7","7","6","6","7","5","5","7","6","6","5","3","7","797763687048945665","杨","673","Male","[""好我"",""坏我"",""坏他"",""好他""]","[""强我"",""弱我"",""弱他"",""强他""]","","","","","","","","yes","","","","","","","","","SRET","EW_formal","","key","j","16.665613445378263","683","380","自己","忠义","Positive","morality","","","","","","","","","","",""
"995","","f","psychophysics","51","211294","0.0-7.0-3.0-0.37","6","5","7","6","6","4","5","4","4","4","5","-2","-2","0","2","-3","2","2","1","4","5","4","4","4","5","4","5","4","4","8","8","7","9","7","7","7","7","8","6","3","7","6","5","3","6","2","4","4","1","6","3","7","3","1","7","5","4","6","4","3","7","6","7","3","6","5","7","7","6","6","7","5","5","7","6","6","5","3","7","797763687048945665","杨","673","Male","[""好我"",""坏我"",""坏他"",""好他""]","[""强我"",""弱我"",""弱他"",""强他""]","","","","","","","","no","","","","","","","","","SRET","EW_formal","","key","f","16.66566386554628","683","380","朋友","新手","Negative","ability","","","","","","","","","","",""
"1429","","j","psychophysics","52","213728","0.0-7.0-3.0-0.38","6","5","7","6","6","4","5","4","4","4","5","-2","-2","0","2","-3","2","2","1","4","5","4","4","4","5","4","5","4","4","8","8","7","9","7","7","7","7","8","6","3","7","6","5","3","6","2","4","4","1","6","3","7","3","1","7","5","4","6","4","3","7","6","7","3","6","5","7","7","6","6","7","5","5","7","6","6","5","3","7","797763687048945665","杨","673","Male","[""好我"",""坏我"",""坏他"",""好他""]","[""强我"",""弱我"",""弱他"",""强他""]","","","","","","","","yes","","","","","","","","","SRET","EW_formal","","key","j","16.6653931034482","683","380","自己","博学","Positive","ability","","","","","","","","","","",""
"1427","","f","psychophysics","53","216158","0.0-7.0-3.0-0.39","6","5","7","6","6","4","5","4","4","4","5","-2","-2","0","2","-3","2","2","1","4","5","4","4","4","5","4","5","4","4","8","8","7","9","7","7","7","7","8","6","3","7","6","5","3","6","2","4","4","1","6","3","7","3","1","7","5","4","6","4","3","7","6","7","3","6","5","7","7","6","6","7","5","5","7","6","6","5","3","7","797763687048945665","杨","673","Male","[""好我"",""坏我"",""坏他"",""好他""]","[""强我"",""弱我"",""弱他"",""强他""]","","","","","","","","no","","","","","","","","","SRET","EW_formal","","key","f","16.66570138888892","683","380","自己","怠惰","Negative","ability","","","","","","","","","","",""
"985","","f","psychophysics","54","218148","0.0-7.0-3.0-0.40","6","5","7","6","6","4","5","4","4","4","5","-2","-2","0","2","-3","2","2","1","4","5","4","4","4","5","4","5","4","4","8","8","7","9","7","7","7","7","8","6","3","7","6","5","3","6","2","4","4","1","6","3","7","3","1","7","5","4","6","4","3","7","6","7","3","6","5","7","7","6","6","7","5","5","7","6","6","5","3","7","797763687048945665","杨","673","Male","[""好我"",""坏我"",""坏他"",""好他""]","[""强我"",""弱我"",""弱他"",""强他""]","","","","","","","","no","","","","","","","","","SRET","EW_formal","","key","f","16.665621848739516","683","380","朋友","愚钝","Negative","ability","","","","","","","","","","",""
"1124","","j","psychophysics","55","220279","0.0-7.0-3.0-0.41","6","5","7","6","6","4","5","4","4","4","5","-2","-2","0","2","-3","2","2","1","4","5","4","4","4","5","4","5","4","4","8","8","7","9","7","7","7","7","8","6","3","7","6","5","3","6","2","4","4","1","6","3","7","3","1","7","5","4","6","4","3","7","6","7","3","6","5","7","7","6","6","7","5","5","7","6","6","5","3","7","797763687048945665","杨","673","Male","[""好我"",""坏我"",""坏他"",""好他""]","[""强我"",""弱我"",""弱他"",""强他""]","","","","","","","","yes","","","","","","","","","SRET","EW_formal","","key","j","16.666472440944823","683","380","自己","依靠","Negative","ability","","","","","","","","","","",""
"1017","","j","psychophysics","56","222300","0.0-7.0-3.0-0.42","6","5","7","6","6","4","5","4","4","4","5","-2","-2","0","2","-3","2","2","1","4","5","4","4","4","5","4","5","4","4","8","8","7","9","7","7","7","7","8","6","3","7","6","5","3","6","2","4","4","1","6","3","7","3","1","7","5","4","6","4","3","7","6","7","3","6","5","7","7","6","6","7","5","5","7","6","6","5","3","7","797763687048945665","杨","673","Male","[""好我"",""坏我"",""坏他"",""好他""]","[""强我"",""弱我"",""弱他"",""强他""]","","","","","","","","yes","","","","","","","","","SRET","EW_formal","","key","j","16.948194915254135","683","380","朋友","娴熟","Positive","ability","","","","","","","","","","",""
"987","","j","psychophysics","57","224294","0.0-7.0-3.0-0.43","6","5","7","6","6","4","5","4","4","4","5","-2","-2","0","2","-3","2","2","1","4","5","4","4","4","5","4","5","4","4","8","8","7","9","7","7","7","7","8","6","3","7","6","5","3","6","2","4","4","1","6","3","7","3","1","7","5","4","6","4","3","7","6","7","3","6","5","7","7","6","6","7","5","5","7","6","6","5","3","7","797763687048945665","杨","673","Male","[""好我"",""坏我"",""坏他"",""好他""]","[""强我"",""弱我"",""弱他"",""强他""]","","","","","","","","yes","","","","","","","","","SRET","EW_formal","","key","j","16.66566386554628","683","380","自己","奉献","Positive","morality","","","","","","","","","","",""
"896","","f","psychophysics","58","226195","0.0-7.0-3.0-0.44","6","5","7","6","6","4","5","4","4","4","5","-2","-2","0","2","-3","2","2","1","4","5","4","4","4","5","4","5","4","4","8","8","7","9","7","7","7","7","8","6","3","7","6","5","3","6","2","4","4","1","6","3","7","3","1","7","5","4","6","4","3","7","6","7","3","6","5","7","7","6","6","7","5","5","7","6","6","5","3","7","797763687048945665","杨","673","Male","[""好我"",""坏我"",""坏他"",""好他""]","[""强我"",""弱我"",""弱他"",""强他""]","","","","","","","","no","","","","","","","","","SRET","EW_formal","","key","f","16.81441964285711","683","380","自己","奸险","Negative","morality","","","","","","","","","","",""
"1322","","j","psychophysics","59","228525","0.0-7.0-3.0-0.45","6","5","7","6","6","4","5","4","4","4","5","-2","-2","0","2","-3","2","2","1","4","5","4","4","4","5","4","5","4","4","8","8","7","9","7","7","7","7","8","6","3","7","6","5","3","6","2","4","4","1","6","3","7","3","1","7","5","4","6","4","3","7","6","7","3","6","5","7","7","6","6","7","5","5","7","6","6","5","3","7","797763687048945665","杨","673","Male","[""好我"",""坏我"",""坏他"",""好他""]","[""强我"",""弱我"",""弱他"",""强他""]","","","","","","","","yes","","","","","","","","","SRET","EW_formal","","key","j","16.66539130434778","683","380","朋友","义气","Positive","morality","","","","","","","","","","",""
"867","","j","psychophysics","60","230396","0.0-7.0-3.0-0.46","6","5","7","6","6","4","5","4","4","4","5","-2","-2","0","2","-3","2","2","1","4","5","4","4","4","5","4","5","4","4","8","8","7","9","7","7","7","7","8","6","3","7","6","5","3","6","2","4","4","1","6","3","7","3","1","7","5","4","6","4","3","7","6","7","3","6","5","7","7","6","6","7","5","5","7","6","6","5","3","7","797763687048945665","杨","673","Male","[""好我"",""坏我"",""坏他"",""好他""]","[""强我"",""弱我"",""弱他"",""强他""]","","","","","","","","yes","","","","","","","","","SRET","EW_formal","","key","j","16.66572321428586","683","380","自己","努力","Positive","ability","","","","","","","","","","",""
"1097","","j","psychophysics","61","232499","0.0-7.0-3.0-0.47","6","5","7","6","6","4","5","4","4","4","5","-2","-2","0","2","-3","2","2","1","4","5","4","4","4","5","4","5","4","4","8","8","7","9","7","7","7","7","8","6","3","7","6","5","3","6","2","4","4","1","6","3","7","3","1","7","5","4","6","4","3","7","6","7","3","6","5","7","7","6","6","7","5","5","7","6","6","5","3","7","797763687048945665","杨","673","Male","[""好我"",""坏我"",""坏他"",""好他""]","[""强我"",""弱我"",""弱他"",""强他""]","","","","","","","","yes","","","","","","","","","SRET","EW_formal","","key","j","16.800483870967582","683","380","朋友","干练","Positive","ability","","","","","","","","","","",""
"1498","","f","psychophysics","62","235003","0.0-7.0-3.0-0.48","6","5","7","6","6","4","5","4","4","4","5","-2","-2","0","2","-3","2","2","1","4","5","4","4","4","5","4","5","4","4","8","8","7","9","7","7","7","7","8","6","3","7","6","5","3","6","2","4","4","1","6","3","7","3","1","7","5","4","6","4","3","7","6","7","3","6","5","7","7","6","6","7","5","5","7","6","6","5","3","7","797763687048945665","杨","673","Male","[""好我"",""坏我"",""坏他"",""好他""]","[""强我"",""弱我"",""弱他"",""强他""]","","","","","","","","no","","","","","","","","","SRET","EW_formal","","key","f","16.664979865771777","683","380","自己","屈才","Negative","ability","","","","","","","","","","",""
"982","","j","psychophysics","63","236989","0.0-7.0-3.0-0.49","6","5","7","6","6","4","5","4","4","4","5","-2","-2","0","2","-3","2","2","1","4","5","4","4","4","5","4","5","4","4","8","8","7","9","7","7","7","7","8","6","3","7","6","5","3","6","2","4","4","1","6","3","7","3","1","7","5","4","6","4","3","7","6","7","3","6","5","7","7","6","6","7","5","5","7","6","6","5","3","7","797763687048945665","杨","673","Male","[""好我"",""坏我"",""坏他"",""好他""]","[""强我"",""弱我"",""弱他"",""强他""]","","","","","","","","yes","","","","","","","","","SRET","EW_formal","","key","j","20.273876288659707","683","380","朋友","守信","Positive","morality","","","","","","","","","","",""
"1482","","j","psychophysics","64","239476","0.0-7.0-3.0-0.50","6","5","7","6","6","4","5","4","4","4","5","-2","-2","0","2","-3","2","2","1","4","5","4","4","4","5","4","5","4","4","8","8","7","9","7","7","7","7","8","6","3","7","6","5","3","6","2","4","4","1","6","3","7","3","1","7","5","4","6","4","3","7","6","7","3","6","5","7","7","6","6","7","5","5","7","6","6","5","3","7","797763687048945665","杨","673","Male","[""好我"",""坏我"",""坏他"",""好他""]","[""强我"",""弱我"",""弱他"",""强他""]","","","","","","","","yes","","","","","","","","","SRET","EW_formal","","key","j","16.665671140939583","683","380","自己","粗心","Negative","ability","","","","","","","","","","",""
"843","","j","psychophysics","65","241325","0.0-7.0-3.0-0.51","6","5","7","6","6","4","5","4","4","4","5","-2","-2","0","2","-3","2","2","1","4","5","4","4","4","5","4","5","4","4","8","8","7","9","7","7","7","7","8","6","3","7","6","5","3","6","2","4","4","1","6","3","7","3","1","7","5","4","6","4","3","7","6","7","3","6","5","7","7","6","6","7","5","5","7","6","6","5","3","7","797763687048945665","杨","673","Male","[""好我"",""坏我"",""坏他"",""好他""]","[""强我"",""弱我"",""弱他"",""强他""]","","","","","","","","yes","","","","","","","","","SRET","EW_formal","","key","j","16.665645454545633","683","380","朋友","侠义","Positive","morality","","","","","","","","","","",""
"1073","","j","psychophysics","66","243403","0.0-7.0-3.0-0.52","6","5","7","6","6","4","5","4","4","4","5","-2","-2","0","2","-3","2","2","1","4","5","4","4","4","5","4","5","4","4","8","8","7","9","7","7","7","7","8","6","3","7","6","5","3","6","2","4","4","1","6","3","7","3","1","7","5","4","6","4","3","7","6","7","3","6","5","7","7","6","6","7","5","5","7","6","6","5","3","7","797763687048945665","杨","673","Male","[""好我"",""坏我"",""坏他"",""好他""]","[""强我"",""弱我"",""弱他"",""强他""]","","","","","","","","yes","","","","","","","","","SRET","EW_formal","","key","j","16.665853658536538","683","380","朋友","善心","Positive","morality","","","","","","","","","","",""
"771","","f","psychophysics","67","245179","0.0-7.0-3.0-0.53","6","5","7","6","6","4","5","4","4","4","5","-2","-2","0","2","-3","2","2","1","4","5","4","4","4","5","4","5","4","4","8","8","7","9","7","7","7","7","8","6","3","7","6","5","3","6","2","4","4","1","6","3","7","3","1","7","5","4","6","4","3","7","6","7","3","6","5","7","7","6","6","7","5","5","7","6","6","5","3","7","797763687048945665","杨","673","Male","[""好我"",""坏我"",""坏他"",""好他""]","[""强我"",""弱我"",""弱他"",""强他""]","","","","","","","","no","","","","","","","","","SRET","EW_formal","","key","f","16.66493396226422","683","380","朋友","阴毒","Negative","morality","","","","","","","","","","",""
"1386","","f","psychophysics","68","247573","0.0-7.0-3.0-0.54","6","5","7","6","6","4","5","4","4","4","5","-2","-2","0","2","-3","2","2","1","4","5","4","4","4","5","4","5","4","4","8","8","7","9","7","7","7","7","8","6","3","7","6","5","3","6","2","4","4","1","6","3","7","3","1","7","5","4","6","4","3","7","6","7","3","6","5","7","7","6","6","7","5","5","7","6","6","5","3","7","797763687048945665","杨","673","Male","[""好我"",""坏我"",""坏他"",""好他""]","[""强我"",""弱我"",""弱他"",""强他""]","","","","","","","","no","","","","","","","","","SRET","EW_formal","","key","f","16.666042253521187","683","380","自己","背叛","Negative","morality","","","","","","","","","","",""
"1552","","j","psychophysics","69","250131","0.0-7.0-3.0-0.55","6","5","7","6","6","4","5","4","4","4","5","-2","-2","0","2","-3","2","2","1","4","5","4","4","4","5","4","5","4","4","8","8","7","9","7","7","7","7","8","6","3","7","6","5","3","6","2","4","4","1","6","3","7","3","1","7","5","4","6","4","3","7","6","7","3","6","5","7","7","6","6","7","5","5","7","6","6","5","3","7","797763687048945665","杨","673","Male","[""好我"",""坏我"",""坏他"",""好他""]","[""强我"",""弱我"",""弱他"",""强他""]","","","","","","","","yes","","","","","","","","","SRET","EW_formal","","key","j","16.665137254901982","683","380","自己","庸碌","Negative","ability","","","","","","","","","","",""
"1009","","j","psychophysics","70","252147","0.0-7.0-3.0-0.56","6","5","7","6","6","4","5","4","4","4","5","-2","-2","0","2","-3","2","2","1","4","5","4","4","4","5","4","5","4","4","8","8","7","9","7","7","7","7","8","6","3","7","6","5","3","6","2","4","4","1","6","3","7","3","1","7","5","4","6","4","3","7","6","7","3","6","5","7","7","6","6","7","5","5","7","6","6","5","3","7","797763687048945665","杨","673","Male","[""好我"",""坏我"",""坏他"",""好他""]","[""强我"",""弱我"",""弱他"",""强他""]","","","","","","","","yes","","","","","","","","","SRET","EW_formal","","key","j","16.665616666666512","683","380","朋友","廉明","Positive","morality","","","","","","","","","","",""
"870","","f","psychophysics","71","254027","0.0-7.0-3.0-0.57","6","5","7","6","6","4","5","4","4","4","5","-2","-2","0","2","-3","2","2","1","4","5","4","4","4","5","4","5","4","4","8","8","7","9","7","7","7","7","8","6","3","7","6","5","3","6","2","4","4","1","6","3","7","3","1","7","5","4","6","4","3","7","6","7","3","6","5","7","7","6","6","7","5","5","7","6","6","5","3","7","797763687048945665","杨","673","Male","[""好我"",""坏我"",""坏他"",""好他""]","[""强我"",""弱我"",""弱他"",""强他""]","","","","","","","","no","","","","","","","","","SRET","EW_formal","","key","f","16.81571171171166","683","380","自己","低劣","Negative","morality","","","","","","","","","","",""
"1008","","f","psychophysics","72","256043","0.0-7.0-3.0-0.58","6","5","7","6","6","4","5","4","4","4","5","-2","-2","0","2","-3","2","2","1","4","5","4","4","4","5","4","5","4","4","8","8","7","9","7","7","7","7","8","6","3","7","6","5","3","6","2","4","4","1","6","3","7","3","1","7","5","4","6","4","3","7","6","7","3","6","5","7","7","6","6","7","5","5","7","6","6","5","3","7","797763687048945665","杨","673","Male","[""好我"",""坏我"",""坏他"",""好他""]","[""强我"",""弱我"",""弱他"",""强他""]","","","","","","","","no","","","","","","","","","SRET","EW_formal","","key","f","16.66565833333322","683","380","自己","虚假","Negative","morality","","","","","","","","","","",""
"1264","","f","psychophysics","73","258315","0.0-7.0-3.0-0.59","6","5","7","6","6","4","5","4","4","4","5","-2","-2","0","2","-3","2","2","1","4","5","4","4","4","5","4","5","4","4","8","8","7","9","7","7","7","7","8","6","3","7","6","5","3","6","2","4","4","1","6","3","7","3","1","7","5","4","6","4","3","7","6","7","3","6","5","7","7","6","6","7","5","5","7","6","6","5","3","7","797763687048945665","杨","673","Male","[""好我"",""坏我"",""坏他"",""好他""]","[""强我"",""弱我"",""弱他"",""强他""]","","","","","","","","no","","","","","","","","","SRET","EW_formal","","key","f","16.666066666666627","683","380","朋友","偏私","Negative","morality","","","","","","","","","","",""
"1007","","j","psychophysics","74","260331","0.0-7.0-3.0-0.60","6","5","7","6","6","4","5","4","4","4","5","-2","-2","0","2","-3","2","2","1","4","5","4","4","4","5","4","5","4","4","8","8","7","9","7","7","7","7","8","6","3","7","6","5","3","6","2","4","4","1","6","3","7","3","1","7","5","4","6","4","3","7","6","7","3","6","5","7","7","6","6","7","5","5","7","6","6","5","3","7","797763687048945665","杨","673","Male","[""好我"",""坏我"",""坏他"",""好他""]","[""强我"",""弱我"",""弱他"",""强他""]","","","","","","","","yes","","","","","","","","","SRET","EW_formal","","key","j","16.665116666666776","683","380","自己","逞强","Negative","ability","","","","","","","","","","",""
"923","","f","psychophysics","75","262260","0.0-7.0-3.0-0.61","6","5","7","6","6","4","5","4","4","4","5","-2","-2","0","2","-3","2","2","1","4","5","4","4","4","5","4","5","4","4","8","8","7","9","7","7","7","7","8","6","3","7","6","5","3","6","2","4","4","1","6","3","7","3","1","7","5","4","6","4","3","7","6","7","3","6","5","7","7","6","6","7","5","5","7","6","6","5","3","7","797763687048945665","杨","673","Male","[""好我"",""坏我"",""坏他"",""好他""]","[""强我"",""弱我"",""弱他"",""强他""]","","","","","","","","no","","","","","","","","","SRET","EW_formal","","key","f","16.66563478260878","683","380","自己","罪恶","Negative","morality","","","","","","","","","","",""
"1153","","f","psychophysics","76","264420","0.0-7.0-3.0-0.62","6","5","7","6","6","4","5","4","4","4","5","-2","-2","0","2","-3","2","2","1","4","5","4","4","4","5","4","5","4","4","8","8","7","9","7","7","7","7","8","6","3","7","6","5","3","6","2","4","4","1","6","3","7","3","1","7","5","4","6","4","3","7","6","7","3","6","5","7","7","6","6","7","5","5","7","6","6","5","3","7","797763687048945665","杨","673","Male","[""好我"",""坏我"",""坏他"",""好他""]","[""强我"",""弱我"",""弱他"",""强他""]","","","","","","","","no","","","","","","","","","SRET","EW_formal","","key","f","16.796362204724687","683","380","自己","贪污","Negative","morality","","","","","","","","","","",""
"1409","","f","psychophysics","77","266835","0.0-7.0-3.0-0.63","6","5","7","6","6","4","5","4","4","4","5","-2","-2","0","2","-3","2","2","1","4","5","4","4","4","5","4","5","4","4","8","8","7","9","7","7","7","7","8","6","3","7","6","5","3","6","2","4","4","1","6","3","7","3","1","7","5","4","6","4","3","7","6","7","3","6","5","7","7","6","6","7","5","5","7","6","6","5","3","7","797763687048945665","杨","673","Male","[""好我"",""坏我"",""坏他"",""好他""]","[""强我"",""弱我"",""弱他"",""强他""]","","","","","","","","no","","","","","","","","","SRET","EW_formal","","key","f","16.665597222221955","683","380","自己","小人","Negative","morality","","","","","","","","","","",""
"1368","","f","psychophysics","78","269211","0.0-7.0-3.0-0.64","6","5","7","6","6","4","5","4","4","4","5","-2","-2","0","2","-3","2","2","1","4","5","4","4","4","5","4","5","4","4","8","8","7","9","7","7","7","7","8","6","3","7","6","5","3","6","2","4","4","1","6","3","7","3","1","7","5","4","6","4","3","7","6","7","3","6","5","7","7","6","6","7","5","5","7","6","6","5","3","7","797763687048945665","杨","673","Male","[""好我"",""坏我"",""坏他"",""好他""]","[""强我"",""弱我"",""弱他"",""强他""]","","","","","","","","no","","","","","","","","","SRET","EW_formal","","key","f","16.665471830986142","683","380","自己","盲目","Negative","ability","","","","","","","","","","",""
"992","","f","psychophysics","79","271211","0.0-7.0-3.0-0.65","6","5","7","6","6","4","5","4","4","4","5","-2","-2","0","2","-3","2","2","1","4","5","4","4","4","5","4","5","4","4","8","8","7","9","7","7","7","7","8","6","3","7","6","5","3","6","2","4","4","1","6","3","7","3","1","7","5","4","6","4","3","7","6","7","3","6","5","7","7","6","6","7","5","5","7","6","6","5","3","7","797763687048945665","杨","673","Male","[""好我"",""坏我"",""坏他"",""好他""]","[""强我"",""弱我"",""弱他"",""强他""]","","","","","","","","no","","","","","","","","","SRET","EW_formal","","key","f","16.95092307692334","683","380","朋友","无耻","Negative","morality","","","","","","","","","","",""
"1008","","j","psychophysics","80","273227","0.0-7.0-3.0-0.66","6","5","7","6","6","4","5","4","4","4","5","-2","-2","0","2","-3","2","2","1","4","5","4","4","4","5","4","5","4","4","8","8","7","9","7","7","7","7","8","6","3","7","6","5","3","6","2","4","4","1","6","3","7","3","1","7","5","4","6","4","3","7","6","7","3","6","5","7","7","6","6","7","5","5","7","6","6","5","3","7","797763687048945665","杨","673","Male","[""好我"",""坏我"",""坏他"",""好他""]","[""强我"",""弱我"",""弱他"",""强他""]","","","","","","","","yes","","","","","","","","","SRET","EW_formal","","key","j","16.665858333333258","683","380","自己","守法","Positive","morality","","","","","","","","","","",""
"1290","","f","psychophysics","81","275525","0.0-7.0-3.0-0.67","6","5","7","6","6","4","5","4","4","4","5","-2","-2","0","2","-3","2","2","1","4","5","4","4","4","5","4","5","4","4","8","8","7","9","7","7","7","7","8","6","3","7","6","5","3","6","2","4","4","1","6","3","7","3","1","7","5","4","6","4","3","7","6","7","3","6","5","7","7","6","6","7","5","5","7","6","6","5","3","7","797763687048945665","杨","673","Male","[""好我"",""坏我"",""坏他"",""好他""]","[""强我"",""弱我"",""弱他"",""强他""]","","","","","","","","no","","","","","","","","","SRET","EW_formal","","key","f","16.665817518248204","683","380","朋友","刻薄","Negative","morality","","","","","","","","","","",""
"896","","j","psychophysics","82","277427","0.0-7.0-3.0-0.68","6","5","7","6","6","4","5","4","4","4","5","-2","-2","0","2","-3","2","2","1","4","5","4","4","4","5","4","5","4","4","8","8","7","9","7","7","7","7","8","6","3","7","6","5","3","6","2","4","4","1","6","3","7","3","1","7","5","4","6","4","3","7","6","7","3","6","5","7","7","6","6","7","5","5","7","6","6","5","3","7","797763687048945665","杨","673","Male","[""好我"",""坏我"",""坏他"",""好他""]","[""强我"",""弱我"",""弱他"",""强他""]","","","","","","","","yes","","","","","","","","","SRET","EW_formal","","key","j","16.6658672566368","683","380","自己","热心","Positive","morality","","","","","","","","","","",""
"1170","","f","psychophysics","83","279606","0.0-7.0-3.0-0.69","6","5","7","6","6","4","5","4","4","4","5","-2","-2","0","2","-3","2","2","1","4","5","4","4","4","5","4","5","4","4","8","8","7","9","7","7","7","7","8","6","3","7","6","5","3","6","2","4","4","1","6","3","7","3","1","7","5","4","6","4","3","7","6","7","3","6","5","7","7","6","6","7","5","5","7","6","6","5","3","7","797763687048945665","杨","673","Male","[""好我"",""坏我"",""坏他"",""好他""]","[""强我"",""弱我"",""弱他"",""强他""]","","","","","","","","no","","","","","","","","","SRET","EW_formal","","key","f","16.664922480620337","683","380","自己","狡诈","Negative","morality","","","","","","","","","","",""
"832","","j","psychophysics","84","281443","0.0-7.0-3.0-0.70","6","5","7","6","6","4","5","4","4","4","5","-2","-2","0","2","-3","2","2","1","4","5","4","4","4","5","4","5","4","4","8","8","7","9","7","7","7","7","8","6","3","7","6","5","3","6","2","4","4","1","6","3","7","3","1","7","5","4","6","4","3","7","6","7","3","6","5","7","7","6","6","7","5","5","7","6","6","5","3","7","797763687048945665","杨","673","Male","[""好我"",""坏我"",""坏他"",""好他""]","[""强我"",""弱我"",""弱他"",""强他""]","","","","","","","","yes","","","","","","","","","SRET","EW_formal","","key","j","16.818330275229663","683","380","自己","忠诚","Positive","morality","","","","","","","","","","",""
"1127","","f","psychophysics","85","283579","0.0-7.0-3.0-0.71","6","5","7","6","6","4","5","4","4","4","5","-2","-2","0","2","-3","2","2","1","4","5","4","4","4","5","4","5","4","4","8","8","7","9","7","7","7","7","8","6","3","7","6","5","3","6","2","4","4","1","6","3","7","3","1","7","5","4","6","4","3","7","6","7","3","6","5","7","7","6","6","7","5","5","7","6","6","5","3","7","797763687048945665","杨","673","Male","[""好我"",""坏我"",""坏他"",""好他""]","[""强我"",""弱我"",""弱他"",""强他""]","","","","","","","","no","","","","","","","","","SRET","EW_formal","","key","f","16.932007999999914","683","380","朋友","卑鄙","Negative","morality","","","","","","","","","","",""
"846","","j","psychophysics","86","285437","0.0-7.0-3.0-0.72","6","5","7","6","6","4","5","4","4","4","5","-2","-2","0","2","-3","2","2","1","4","5","4","4","4","5","4","5","4","4","8","8","7","9","7","7","7","7","8","6","3","7","6","5","3","6","2","4","4","1","6","3","7","3","1","7","5","4","6","4","3","7","6","7","3","6","5","7","7","6","6","7","5","5","7","6","6","5","3","7","797763687048945665","杨","673","Male","[""好我"",""坏我"",""坏他"",""好他""]","[""强我"",""弱我"",""弱他"",""强他""]","","","","","","","","yes","","","","","","","","","SRET","EW_formal","","key","j","16.818532110091486","683","380","自己","能干","Positive","ability","","","","","","","","","","",""
"949","","j","psychophysics","87","287391","0.0-7.0-3.0-0.73","6","5","7","6","6","4","5","4","4","4","5","-2","-2","0","2","-3","2","2","1","4","5","4","4","4","5","4","5","4","4","8","8","7","9","7","7","7","7","8","6","3","7","6","5","3","6","2","4","4","1","6","3","7","3","1","7","5","4","6","4","3","7","6","7","3","6","5","7","7","6","6","7","5","5","7","6","6","5","3","7","797763687048945665","杨","673","Male","[""好我"",""坏我"",""坏他"",""好他""]","[""强我"",""弱我"",""弱他"",""强他""]","","","","","","","","yes","","","","","","","","","SRET","EW_formal","","key","j","16.665504273504286","683","380","自己","肯干","Positive","ability","","","","","","","","","","",""
"1025","","j","psychophysics","88","289420","0.0-7.0-3.0-0.74","6","5","7","6","6","4","5","4","4","4","5","-2","-2","0","2","-3","2","2","1","4","5","4","4","4","5","4","5","4","4","8","8","7","9","7","7","7","7","8","6","3","7","6","5","3","6","2","4","4","1","6","3","7","3","1","7","5","4","6","4","3","7","6","7","3","6","5","7","7","6","6","7","5","5","7","6","6","5","3","7","797763687048945665","杨","673","Male","[""好我"",""坏我"",""坏他"",""好他""]","[""强我"",""弱我"",""弱他"",""强他""]","","","","","","","","yes","","","","","","","","","SRET","EW_formal","","key","j","16.66604166666657","683","380","自己","忠勇","Positive","morality","","","","","","","","","","",""
"704","","j","psychophysics","89","291131","0.0-7.0-3.0-0.75","6","5","7","6","6","4","5","4","4","4","5","-2","-2","0","2","-3","2","2","1","4","5","4","4","4","5","4","5","4","4","8","8","7","9","7","7","7","7","8","6","3","7","6","5","3","6","2","4","4","1","6","3","7","3","1","7","5","4","6","4","3","7","6","7","3","6","5","7","7","6","6","7","5","5","7","6","6","5","3","7","797763687048945665","杨","673","Male","[""好我"",""坏我"",""坏他"",""好他""]","[""强我"",""弱我"",""弱他"",""强他""]","","","","","","","","yes","","","","","","","","","SRET","EW_formal","","key","j","16.665460784313517","683","380","朋友","慷慨","Positive","morality","","","","","","","","","","",""
"875","","f","psychophysics","90","293011","0.0-7.0-3.0-0.76","6","5","7","6","6","4","5","4","4","4","5","-2","-2","0","2","-3","2","2","1","4","5","4","4","4","5","4","5","4","4","8","8","7","9","7","7","7","7","8","6","3","7","6","5","3","6","2","4","4","1","6","3","7","3","1","7","5","4","6","4","3","7","6","7","3","6","5","7","7","6","6","7","5","5","7","6","6","5","3","7","797763687048945665","杨","673","Male","[""好我"",""坏我"",""坏他"",""好他""]","[""强我"",""弱我"",""弱他"",""强他""]","","","","","","","","no","","","","","","","","","SRET","EW_formal","","key","f","16.665464285714343","683","380","朋友","短浅","Negative","ability","","","","","","","","","","",""
"1253","","f","psychophysics","91","295274","0.0-7.0-3.0-0.77","6","5","7","6","6","4","5","4","4","4","5","-2","-2","0","2","-3","2","2","1","4","5","4","4","4","5","4","5","4","4","8","8","7","9","7","7","7","7","8","6","3","7","6","5","3","6","2","4","4","1","6","3","7","3","1","7","5","4","6","4","3","7","6","7","3","6","5","7","7","6","6","7","5","5","7","6","6","5","3","7","797763687048945665","杨","673","Male","[""好我"",""坏我"",""坏他"",""好他""]","[""强我"",""弱我"",""弱他"",""强他""]","","","","","","","","no","","","","","","","","","SRET","EW_formal","","key","f","16.665807407407556","683","380","朋友","贪腐","Negative","morality","","","","","","","","","","",""
"907","","f","psychophysics","92","297190","0.0-7.0-3.0-0.78","6","5","7","6","6","4","5","4","4","4","5","-2","-2","0","2","-3","2","2","1","4","5","4","4","4","5","4","5","4","4","8","8","7","9","7","7","7","7","8","6","3","7","6","5","3","6","2","4","4","1","6","3","7","3","1","7","5","4","6","4","3","7","6","7","3","6","5","7","7","6","6","7","5","5","7","6","6","5","3","7","797763687048945665","杨","673","Male","[""好我"",""坏我"",""坏他"",""好他""]","[""强我"",""弱我"",""弱他"",""强他""]","","","","","","","","no","","","","","","","","","SRET","EW_formal","","key","f","16.81338053097355","683","380","朋友","混账","Negative","morality","","","","","","","","","","",""
"945","","j","psychophysics","93","299141","0.0-7.0-3.0-0.79","6","5","7","6","6","4","5","4","4","4","5","-2","-2","0","2","-3","2","2","1","4","5","4","4","4","5","4","5","4","4","8","8","7","9","7","7","7","7","8","6","3","7","6","5","3","6","2","4","4","1","6","3","7","3","1","7","5","4","6","4","3","7","6","7","3","6","5","7","7","6","6","7","5","5","7","6","6","5","3","7","797763687048945665","杨","673","Male","[""好我"",""坏我"",""坏他"",""好他""]","[""强我"",""弱我"",""弱他"",""强他""]","","","","","","","","yes","","","","","","","","","SRET","EW_formal","","key","j","16.665939655172505","683","380","朋友","聪明","Positive","ability","","","","","","","","","","",""
"951","","f","psychophysics","94","301099","0.0-7.0-3.0-0.80","6","5","7","6","6","4","5","4","4","4","5","-2","-2","0","2","-3","2","2","1","4","5","4","4","4","5","4","5","4","4","8","8","7","9","7","7","7","7","8","6","3","7","6","5","3","6","2","4","4","1","6","3","7","3","1","7","5","4","6","4","3","7","6","7","3","6","5","7","7","6","6","7","5","5","7","6","6","5","3","7","797763687048945665","杨","673","Male","[""好我"",""坏我"",""坏他"",""好他""]","[""强我"",""弱我"",""弱他"",""强他""]","","","","","","","","no","","","","","","","","","SRET","EW_formal","","key","f","16.6653793103449","683","380","朋友","拖延","Negative","ability","","","","","","","","","","",""
"962","","j","psychophysics","95","303068","0.0-7.0-3.0-0.81","6","5","7","6","6","4","5","4","4","4","5","-2","-2","0","2","-3","2","2","1","4","5","4","4","4","5","4","5","4","4","8","8","7","9","7","7","7","7","8","6","3","7","6","5","3","6","2","4","4","1","6","3","7","3","1","7","5","4","6","4","3","7","6","7","3","6","5","7","7","6","6","7","5","5","7","6","6","5","3","7","797763687048945665","杨","673","Male","[""好我"",""坏我"",""坏他"",""好他""]","[""强我"",""弱我"",""弱他"",""强他""]","","","","","","","","yes","","","","","","","","","SRET","EW_formal","","key","j","16.6651025641029","683","380","自己","上进","Positive","ability","","","","","","","","","","",""
"887","","j","psychophysics","96","304964","0.0-7.0-3.0-0.82","6","5","7","6","6","4","5","4","4","4","5","-2","-2","0","2","-3","2","2","1","4","5","4","4","4","5","4","5","4","4","8","8","7","9","7","7","7","7","8","6","3","7","6","5","3","6","2","4","4","1","6","3","7","3","1","7","5","4","6","4","3","7","6","7","3","6","5","7","7","6","6","7","5","5","7","6","6","5","3","7","797763687048945665","杨","673","Male","[""好我"",""坏我"",""坏他"",""好他""]","[""强我"",""弱我"",""弱他"",""强他""]","","","","","","","","yes","","","","","","","","","SRET","EW_formal","","key","j","16.666123893805285","683","380","朋友","勤奋","Positive","ability","","","","","","","","","","",""
"805","","j","psychophysics","97","306775","0.0-7.0-3.0-0.83","6","5","7","6","6","4","5","4","4","4","5","-2","-2","0","2","-3","2","2","1","4","5","4","4","4","5","4","5","4","4","8","8","7","9","7","7","7","7","8","6","3","7","6","5","3","6","2","4","4","1","6","3","7","3","1","7","5","4","6","4","3","7","6","7","3","6","5","7","7","6","6","7","5","5","7","6","6","5","3","7","797763687048945665","杨","673","Male","[""好我"",""坏我"",""坏他"",""好他""]","[""强我"",""弱我"",""弱他"",""强他""]","","","","","","","","yes","","","","","","","","","SRET","EW_formal","","key","j","16.6655462962959","683","380","朋友","沉着","Positive","ability","","","","","","","","","","",""
"1320","","j","psychophysics","98","309100","0.0-7.0-3.0-0.84","6","5","7","6","6","4","5","4","4","4","5","-2","-2","0","2","-3","2","2","1","4","5","4","4","4","5","4","5","4","4","8","8","7","9","7","7","7","7","8","6","3","7","6","5","3","6","2","4","4","1","6","3","7","3","1","7","5","4","6","4","3","7","6","7","3","6","5","7","7","6","6","7","5","5","7","6","6","5","3","7","797763687048945665","杨","673","Male","[""好我"",""坏我"",""坏他"",""好他""]","[""强我"",""弱我"",""弱他"",""强他""]","","","","","","","","yes","","","","","","","","","SRET","EW_formal","","key","j","16.66608695652162","683","380","自己","主见","Positive","ability","","","","","","","","","","",""
"1288","","j","psychophysics","99","311390","0.0-7.0-3.0-0.85","6","5","7","6","6","4","5","4","4","4","5","-2","-2","0","2","-3","2","2","1","4","5","4","4","4","5","4","5","4","4","8","8","7","9","7","7","7","7","8","6","3","7","6","5","3","6","2","4","4","1","6","3","7","3","1","7","5","4","6","4","3","7","6","7","3","6","5","7","7","6","6","7","5","5","7","6","6","5","3","7","797763687048945665","杨","673","Male","[""好我"",""坏我"",""坏他"",""好他""]","[""强我"",""弱我"",""弱他"",""强他""]","","","","","","","","yes","","","","","","","","","SRET","EW_formal","","key","j","16.666043795620595","683","380","朋友","素养","Positive","morality","","","","","","","","","","",""
"1112","","f","psychophysics","100","313508","0.0-7.0-3.0-0.86","6","5","7","6","6","4","5","4","4","4","5","-2","-2","0","2","-3","2","2","1","4","5","4","4","4","5","4","5","4","4","8","8","7","9","7","7","7","7","8","6","3","7","6","5","3","6","2","4","4","1","6","3","7","3","1","7","5","4","6","4","3","7","6","7","3","6","5","7","7","6","6","7","5","5","7","6","6","5","3","7","797763687048945665","杨","673","Male","[""好我"",""坏我"",""坏他"",""好他""]","[""强我"",""弱我"",""弱他"",""强他""]","","","","","","","","no","","","","","","","","","SRET","EW_formal","","key","f","16.665595238095165","683","380","自己","缓慢","Negative","ability","","","","","","","","","","",""
"760","","f","psychophysics","101","315275","0.0-7.0-3.0-0.87","6","5","7","6","6","4","5","4","4","4","5","-2","-2","0","2","-3","2","2","1","4","5","4","4","4","5","4","5","4","4","8","8","7","9","7","7","7","7","8","6","3","7","6","5","3","6","2","4","4","1","6","3","7","3","1","7","5","4","6","4","3","7","6","7","3","6","5","7","7","6","6","7","5","5","7","6","6","5","3","7","797763687048945665","杨","673","Male","[""好我"",""坏我"",""坏他"",""好他""]","[""强我"",""弱我"",""弱他"",""强他""]","","","","","","","","no","","","","","","","","","SRET","EW_formal","","key","f","16.826980769230712","683","380","朋友","低俗","Negative","morality","","","","","","","","","","",""
"2792","
    <p><div style='color:white;font-size:35px; line-height:20px;'>计算任务</div></p><br>
    <p><div style='color:red;font-size:25px; line-height:20px;'>接下来，您将看到一些四则运算题，<b>请从键盘选择 0-9 进行反应。</b></div></p>
    <p><div style='color:red;font-size:25px; line-height:20px;'>请尽可能快地进行计算，计算的速度和正确率将影响报酬的发放。</div></p>
    <p><div class='footer' style='color:white;font-size:25px; line-height:20px;'>如果对本实验还有不清楚之处，请立即向实验员咨询。</p><p style='color:white;font-size:25px; line-height:20px;'>如果您明白了规则：</p><p style='color:white;font-size:22px; line-height:20px;'>请按 继续 进入练习</p>
    </div>
    ","0","html-button-response","102","318070","0.0-7.0-4.0","6","5","7","6","6","4","5","4","4","4","5","-2","-2","0","2","-3","2","2","1","4","5","4","4","4","5","4","5","4","4","8","8","7","9","7","7","7","7","8","6","3","7","6","5","3","6","2","4","4","1","6","3","7","3","1","7","5","4","6","4","3","7","6","7","3","6","5","7","7","6","6","7","5","5","7","6","6","5","3","7","797763687048945665","杨","673","Male","[""好我"",""坏我"",""坏他"",""好他""]","[""强我"",""弱我"",""弱他"",""强他""]","","","","","","","","","","","","","","","","","SRET_math","math_instructions","Sat Jan 20 2024 13:15:09 GMT+0800 (中国标准时间)","","","","","","","","","","","","","","","","","","","",""
"1845","","8","psychophysics","103","319923","0.0-7.0-5.0-0.0","6","5","7","6","6","4","5","4","4","4","5","-2","-2","0","2","-3","2","2","1","4","5","4","4","4","5","4","5","4","4","8","8","7","9","7","7","7","7","8","6","3","7","6","5","3","6","2","4","4","1","6","3","7","3","1","7","5","4","6","4","3","7","6","7","3","6","5","7","7","6","6","7","5","5","7","6","6","5","3","7","797763687048945665","杨","673","Male","[""好我"",""坏我"",""坏他"",""好他""]","[""强我"",""弱我"",""弱他"",""强他""]","","","","","","","","8","","","","","","","","","SRET","SRET_math_calculate","","key","8","16.66559459459454","683","380","","","","","9-1= ?","8","1","","","","","","","",""
"1934","","5","psychophysics","104","321859","0.0-7.0-5.0-0.1","6","5","7","6","6","4","5","4","4","4","5","-2","-2","0","2","-3","2","2","1","4","5","4","4","4","5","4","5","4","4","8","8","7","9","7","7","7","7","8","6","3","7","6","5","3","6","2","4","4","1","6","3","7","3","1","7","5","4","6","4","3","7","6","7","3","6","5","7","7","6","6","7","5","5","7","6","6","5","3","7","797763687048945665","杨","673","Male","[""好我"",""坏我"",""坏他"",""好他""]","[""强我"",""弱我"",""弱他"",""强他""]","","","","","","","","5","","","","","","","","","SRET","SRET_math_calculate","","key","5","16.665469565217222","683","380","","","","","5/1= ?","5","1","","","","","","","",""
"2078","","3","psychophysics","105","323939","0.0-7.0-5.0-0.2","6","5","7","6","6","4","5","4","4","4","5","-2","-2","0","2","-3","2","2","1","4","5","4","4","4","5","4","5","4","4","8","8","7","9","7","7","7","7","8","6","3","7","6","5","3","6","2","4","4","1","6","3","7","3","1","7","5","4","6","4","3","7","6","7","3","6","5","7","7","6","6","7","5","5","7","6","6","5","3","7","797763687048945665","杨","673","Male","[""好我"",""坏我"",""坏他"",""好他""]","[""强我"",""弱我"",""弱他"",""强他""]","","","","","","","","3","","","","","","","","","SRET","SRET_math_calculate","","key","3","16.666249999999923","683","380","","","","","6/2= ?","3","1","","","","","","","",""
"1880","","8","psychophysics","106","325821","0.0-7.0-5.0-0.3","6","5","7","6","6","4","5","4","4","4","5","-2","-2","0","2","-3","2","2","1","4","5","4","4","4","5","4","5","4","4","8","8","7","9","7","7","7","7","8","6","3","7","6","5","3","6","2","4","4","1","6","3","7","3","1","7","5","4","6","4","3","7","6","7","3","6","5","7","7","6","6","7","5","5","7","6","6","5","3","7","797763687048945665","杨","673","Male","[""好我"",""坏我"",""坏他"",""好他""]","[""强我"",""弱我"",""弱他"",""强他""]","","","","","","","","8","","","","","","","","","SRET","SRET_math_calculate","","key","8","16.66618750000011","683","380","","","","","7+1= ?","8","1","","","","","","","",""
"1949","","6","psychophysics","107","327773","0.0-7.0-5.0-0.4","6","5","7","6","6","4","5","4","4","4","5","-2","-2","0","2","-3","2","2","1","4","5","4","4","4","5","4","5","4","4","8","8","7","9","7","7","7","7","8","6","3","7","6","5","3","6","2","4","4","1","6","3","7","3","1","7","5","4","6","4","3","7","6","7","3","6","5","7","7","6","6","7","5","5","7","6","6","5","3","7","797763687048945665","杨","673","Male","[""好我"",""坏我"",""坏他"",""好他""]","[""强我"",""弱我"",""弱他"",""强他""]","","","","","","","","6","","","","","","","","","SRET","SRET_math_calculate","","key","6","16.665956896552135","683","380","","","","","3+3= ?","6","1","","","","","","","",""
"1867","","8","psychophysics","108","329643","0.0-7.0-5.0-0.5","6","5","7","6","6","4","5","4","4","4","5","-2","-2","0","2","-3","2","2","1","4","5","4","4","4","5","4","5","4","4","8","8","7","9","7","7","7","7","8","6","3","7","6","5","3","6","2","4","4","1","6","3","7","3","1","7","5","4","6","4","3","7","6","7","3","6","5","7","7","6","6","7","5","5","7","6","6","5","3","7","797763687048945665","杨","673","Male","[""好我"",""坏我"",""坏他"",""好他""]","[""强我"",""弱我"",""弱他"",""强他""]","","","","","","","","8","","","","","","","","","SRET","SRET_math_calculate","","key","8","16.6646216216215","683","380","","","","","5+3= ?","8","1","","","","","","","",""
"1846","","8","psychophysics","109","331491","0.0-7.0-5.0-0.6","6","5","7","6","6","4","5","4","4","4","5","-2","-2","0","2","-3","2","2","1","4","5","4","4","4","5","4","5","4","4","8","8","7","9","7","7","7","7","8","6","3","7","6","5","3","6","2","4","4","1","6","3","7","3","1","7","5","4","6","4","3","7","6","7","3","6","5","7","7","6","6","7","5","5","7","6","6","5","3","7","797763687048945665","杨","673","Male","[""好我"",""坏我"",""坏他"",""好他""]","[""强我"",""弱我"",""弱他"",""强他""]","","","","","","","","8","","","","","","","","","SRET","SRET_math_calculate","","key","8","16.666000000000086","683","380","","","","","2+6= ?","8","1","","","","","","","",""
"2166","","9","psychophysics","110","333659","0.0-7.0-5.0-0.7","6","5","7","6","6","4","5","4","4","4","5","-2","-2","0","2","-3","2","2","1","4","5","4","4","4","5","4","5","4","4","8","8","7","9","7","7","7","7","8","6","3","7","6","5","3","6","2","4","4","1","6","3","7","3","1","7","5","4","6","4","3","7","6","7","3","6","5","7","7","6","6","7","5","5","7","6","6","5","3","7","797763687048945665","杨","673","Male","[""好我"",""坏我"",""坏他"",""好他""]","[""强我"",""弱我"",""弱他"",""强他""]","","","","","","","","9","","","","","","","","","SRET","SRET_math_calculate","","key","9","16.665511627907165","683","380","","","","","18/2= ?","9","1","","","","","","","",""
"1870","","8","psychophysics","111","335531","0.0-7.0-5.0-0.8","6","5","7","6","6","4","5","4","4","4","5","-2","-2","0","2","-3","2","2","1","4","5","4","4","4","5","4","5","4","4","8","8","7","9","7","7","7","7","8","6","3","7","6","5","3","6","2","4","4","1","6","3","7","3","1","7","5","4","6","4","3","7","6","7","3","6","5","7","7","6","6","7","5","5","7","6","6","5","3","7","797763687048945665","杨","673","Male","[""好我"",""坏我"",""坏他"",""好他""]","[""强我"",""弱我"",""弱他"",""强他""]","","","","","","","","8","","","","","","","","","SRET","SRET_math_calculate","","key","8","16.665855855855625","683","380","","","","","4+4= ?","8","1","","","","","","","",""
"2081","","5","psychophysics","112","337620","0.0-7.0-5.0-0.9","6","5","7","6","6","4","5","4","4","4","5","-2","-2","0","2","-3","2","2","1","4","5","4","4","4","5","4","5","4","4","8","8","7","9","7","7","7","7","8","6","3","7","6","5","3","6","2","4","4","1","6","3","7","3","1","7","5","4","6","4","3","7","6","7","3","6","5","7","7","6","6","7","5","5","7","6","6","5","3","7","797763687048945665","杨","673","Male","[""好我"",""坏我"",""坏他"",""好他""]","[""强我"",""弱我"",""弱他"",""强他""]","","","","","","","","5","","","","","","","","","SRET","SRET_math_calculate","","key","5","16.665632000000215","683","380","","","","","9-4= ?","5","1","","","","","","","",""
"2156","","9","psychophysics","113","339779","0.0-7.0-5.0-0.10","6","5","7","6","6","4","5","4","4","4","5","-2","-2","0","2","-3","2","2","1","4","5","4","4","4","5","4","5","4","4","8","8","7","9","7","7","7","7","8","6","3","7","6","5","3","6","2","4","4","1","6","3","7","3","1","7","5","4","6","4","3","7","6","7","3","6","5","7","7","6","6","7","5","5","7","6","6","5","3","7","797763687048945665","杨","673","Male","[""好我"",""坏我"",""坏他"",""好他""]","[""强我"",""弱我"",""弱他"",""强他""]","","","","","","","","9","","","","","","","","","SRET","SRET_math_calculate","","key","9","16.665250000000015","683","380","","","","","2+7= ?","9","1","","","","","","","",""
"2049","","8","psychophysics","114","341838","0.0-7.0-5.0-0.11","6","5","7","6","6","4","5","4","4","4","5","-2","-2","0","2","-3","2","2","1","4","5","4","4","4","5","4","5","4","4","8","8","7","9","7","7","7","7","8","6","3","7","6","5","3","6","2","4","4","1","6","3","7","3","1","7","5","4","6","4","3","7","6","7","3","6","5","7","7","6","6","7","5","5","7","6","6","5","3","7","797763687048945665","杨","673","Male","[""好我"",""坏我"",""坏他"",""好他""]","[""强我"",""弱我"",""弱他"",""强他""]","","","","","","","","8","","","","","","","","","SRET","SRET_math_calculate","","key","8","16.665536585365654","683","380","","","","","1+7= ?","8","1","","","","","","","",""
"2035","","9","psychophysics","115","343875","0.0-7.0-5.0-0.12","6","5","7","6","6","4","5","4","4","4","5","-2","-2","0","2","-3","2","2","1","4","5","4","4","4","5","4","5","4","4","8","8","7","9","7","7","7","7","8","6","3","7","6","5","3","6","2","4","4","1","6","3","7","3","1","7","5","4","6","4","3","7","6","7","3","6","5","7","7","6","6","7","5","5","7","6","6","5","3","7","797763687048945665","杨","673","Male","[""好我"",""坏我"",""坏他"",""好他""]","[""强我"",""弱我"",""弱他"",""强他""]","","","","","","","","9","","","","","","","","","SRET","SRET_math_calculate","","key","9","16.805366666666426","683","380","","","","","32-23= ?","9","1","","","","","","","",""
"1990","","5","psychophysics","116","345869","0.0-7.0-5.0-0.13","6","5","7","6","6","4","5","4","4","4","5","-2","-2","0","2","-3","2","2","1","4","5","4","4","4","5","4","5","4","4","8","8","7","9","7","7","7","7","8","6","3","7","6","5","3","6","2","4","4","1","6","3","7","3","1","7","5","4","6","4","3","7","6","7","3","6","5","7","7","6","6","7","5","5","7","6","6","5","3","7","797763687048945665","杨","673","Male","[""好我"",""坏我"",""坏他"",""好他""]","[""强我"",""弱我"",""弱他"",""强他""]","","","","","","","","5","","","","","","","","","SRET","SRET_math_calculate","","key","5","16.66601694915276","683","380","","","","","15-10= ?","5","1","","","","","","","",""
"1976","","9","psychophysics","117","347853","0.0-7.0-5.0-0.14","6","5","7","6","6","4","5","4","4","4","5","-2","-2","0","2","-3","2","2","1","4","5","4","4","4","5","4","5","4","4","8","8","7","9","7","7","7","7","8","6","3","7","6","5","3","6","2","4","4","1","6","3","7","3","1","7","5","4","6","4","3","7","6","7","3","6","5","7","7","6","6","7","5","5","7","6","6","5","3","7","797763687048945665","杨","673","Male","[""好我"",""坏我"",""坏他"",""好他""]","[""强我"",""弱我"",""弱他"",""强他""]","","","","","","","","9","","","","","","","","","SRET","SRET_math_calculate","","key","9","16.66494915254219","683","380","","","","","7+2= ?","9","1","","","","","","","",""
"1887","","5","psychophysics","118","349778","0.0-7.0-5.0-0.15","6","5","7","6","6","4","5","4","4","4","5","-2","-2","0","2","-3","2","2","1","4","5","4","4","4","5","4","5","4","4","8","8","7","9","7","7","7","7","8","6","3","7","6","5","3","6","2","4","4","1","6","3","7","3","1","7","5","4","6","4","3","7","6","7","3","6","5","7","7","6","6","7","5","5","7","6","6","5","3","7","797763687048945665","杨","673","Male","[""好我"",""坏我"",""坏他"",""好他""]","[""强我"",""弱我"",""弱他"",""强他""]","","","","","","","","5","","","","","","","","","SRET","SRET_math_calculate","","key","5","16.81115789473692","683","380","","","","","8-3= ? ","5","1","","","","","","","",""
"2175","","9","psychophysics","119","351955","0.0-7.0-5.0-0.16","6","5","7","6","6","4","5","4","4","4","5","-2","-2","0","2","-3","2","2","1","4","5","4","4","4","5","4","5","4","4","8","8","7","9","7","7","7","7","8","6","3","7","6","5","3","6","2","4","4","1","6","3","7","3","1","7","5","4","6","4","3","7","6","7","3","6","5","7","7","6","6","7","5","5","7","6","6","5","3","7","797763687048945665","杨","673","Male","[""好我"",""坏我"",""坏他"",""好他""]","[""强我"",""弱我"",""弱他"",""强他""]","","","","","","","","9","","","","","","","","","SRET","SRET_math_calculate","","key","9","16.665430769230724","683","380","","","","","43-34= ?","9","1","","","","","","","",""
"2053","","2","psychophysics","120","354011","0.0-7.0-5.0-0.17","6","5","7","6","6","4","5","4","4","4","5","-2","-2","0","2","-3","2","2","1","4","5","4","4","4","5","4","5","4","4","8","8","7","9","7","7","7","7","8","6","3","7","6","5","3","6","2","4","4","1","6","3","7","3","1","7","5","4","6","4","3","7","6","7","3","6","5","7","7","6","6","7","5","5","7","6","6","5","3","7","797763687048945665","杨","673","Male","[""好我"",""坏我"",""坏他"",""好他""]","[""强我"",""弱我"",""弱他"",""强他""]","","","","","","","","2","","","","","","","","","SRET","SRET_math_calculate","","key","2","16.666008196721048","683","380","","","","","22/11= ?","2","1","","","","","","","",""
"1942","","8","psychophysics","121","355955","0.0-7.0-5.0-0.18","6","5","7","6","6","4","5","4","4","4","5","-2","-2","0","2","-3","2","2","1","4","5","4","4","4","5","4","5","4","4","8","8","7","9","7","7","7","7","8","6","3","7","6","5","3","6","2","4","4","1","6","3","7","3","1","7","5","4","6","4","3","7","6","7","3","6","5","7","7","6","6","7","5","5","7","6","6","5","3","7","797763687048945665","杨","673","Male","[""好我"",""坏我"",""坏他"",""好他""]","[""强我"",""弱我"",""弱他"",""强他""]","","","","","","","","8","","","","","","","","","SRET","SRET_math_calculate","","key","8","16.810304347826065","683","380","","","","","2*4= ?","8","1","","","","","","","",""
"1869","","6","psychophysics","122","357828","0.0-7.0-5.0-0.19","6","5","7","6","6","4","5","4","4","4","5","-2","-2","0","2","-3","2","2","1","4","5","4","4","4","5","4","5","4","4","8","8","7","9","7","7","7","7","8","6","3","7","6","5","3","6","2","4","4","1","6","3","7","3","1","7","5","4","6","4","3","7","6","7","3","6","5","7","7","6","6","7","5","5","7","6","6","5","3","7","797763687048945665","杨","673","Male","[""好我"",""坏我"",""坏他"",""好他""]","[""强我"",""弱我"",""弱他"",""强他""]","","","","","","","","6","","","","","","","","","SRET","SRET_math_calculate","","key","6","16.81687272727246","683","380","","","","","8-2= ?","6","1","","","","","","","",""
"1948","","2","psychophysics","123","359789","0.0-7.0-5.0-0.20","6","5","7","6","6","4","5","4","4","4","5","-2","-2","0","2","-3","2","2","1","4","5","4","4","4","5","4","5","4","4","8","8","7","9","7","7","7","7","8","6","3","7","6","5","3","6","2","4","4","1","6","3","7","3","1","7","5","4","6","4","3","7","6","7","3","6","5","7","7","6","6","7","5","5","7","6","6","5","3","7","797763687048945665","杨","673","Male","[""好我"",""坏我"",""坏他"",""好他""]","[""强我"",""弱我"",""弱他"",""强他""]","","","","","","","","2","","","","","","","","","SRET","SRET_math_calculate","","key","2","16.66571794871816","683","380","","","","","19-17= ?","2","1","","","","","","","",""
"2163","","7","psychophysics","124","361956","0.0-7.0-5.0-0.21","6","5","7","6","6","4","5","4","4","4","5","-2","-2","0","2","-3","2","2","1","4","5","4","4","4","5","4","5","4","4","8","8","7","9","7","7","7","7","8","6","3","7","6","5","3","6","2","4","4","1","6","3","7","3","1","7","5","4","6","4","3","7","6","7","3","6","5","7","7","6","6","7","5","5","7","6","6","5","3","7","797763687048945665","杨","673","Male","[""好我"",""坏我"",""坏他"",""好他""]","[""强我"",""弱我"",""弱他"",""强他""]","","","","","","","","7","","","","","","","","","SRET","SRET_math_calculate","","key","7","16.6659069767442","683","380","","","","","5+2= ?","7","1","","","","","","","",""
"2388","","6","psychophysics","125","364348","0.0-7.0-5.0-0.22","6","5","7","6","6","4","5","4","4","4","5","-2","-2","0","2","-3","2","2","1","4","5","4","4","4","5","4","5","4","4","8","8","7","9","7","7","7","7","8","6","3","7","6","5","3","6","2","4","4","1","6","3","7","3","1","7","5","4","6","4","3","7","6","7","3","6","5","7","7","6","6","7","5","5","7","6","6","5","3","7","797763687048945665","杨","673","Male","[""好我"",""坏我"",""坏他"",""好他""]","[""强我"",""弱我"",""弱他"",""强他""]","","","","","","","","6","","","","","","","","","SRET","SRET_math_calculate","","key","6","16.665640845070477","683","380","","","","","3*2= ?","6","1","","","","","","","",""
"1787","","8","psychophysics","126","366180","0.0-7.0-5.0-0.23","6","5","7","6","6","4","5","4","4","4","5","-2","-2","0","2","-3","2","2","1","4","5","4","4","4","5","4","5","4","4","8","8","7","9","7","7","7","7","8","6","3","7","6","5","3","6","2","4","4","1","6","3","7","3","1","7","5","4","6","4","3","7","6","7","3","6","5","7","7","6","6","7","5","5","7","6","6","5","3","7","797763687048945665","杨","673","Male","[""好我"",""坏我"",""坏他"",""好他""]","[""强我"",""弱我"",""弱他"",""强他""]","","","","","","","","8","","","","","","","","","SRET","SRET_math_calculate","","key","8","16.81974074074026","683","380","","","","","56/7= ?","8","1","","","","","","","",""
"2008","","7","psychophysics","127","368228","0.0-7.0-5.0-0.24","6","5","7","6","6","4","5","4","4","4","5","-2","-2","0","2","-3","2","2","1","4","5","4","4","4","5","4","5","4","4","8","8","7","9","7","7","7","7","8","6","3","7","6","5","3","6","2","4","4","1","6","3","7","3","1","7","5","4","6","4","3","7","6","7","3","6","5","7","7","6","6","7","5","5","7","6","6","5","3","7","797763687048945665","杨","673","Male","[""好我"",""坏我"",""坏他"",""好他""]","[""强我"",""弱我"",""弱他"",""强他""]","","","","","","","","7","","","","","","","","","SRET","SRET_math_calculate","","key","7","16.803099173553623","683","380","","","","","49/7 = ?","7","1","","","","","","","",""
"2022","","6","psychophysics","128","370253","0.0-7.0-5.0-0.25","6","5","7","6","6","4","5","4","4","4","5","-2","-2","0","2","-3","2","2","1","4","5","4","4","4","5","4","5","4","4","8","8","7","9","7","7","7","7","8","6","3","7","6","5","3","6","2","4","4","1","6","3","7","3","1","7","5","4","6","4","3","7","6","7","3","6","5","7","7","6","6","7","5","5","7","6","6","5","3","7","797763687048945665","杨","673","Male","[""好我"",""坏我"",""坏他"",""好他""]","[""强我"",""弱我"",""弱他"",""强他""]","","","","","","","","6","","","","","","","","","SRET","SRET_math_calculate","","key","6","16.665537190082876","683","380","","","","","4+2= ?","6","1","","","","","","","",""
"1859","","2","psychophysics","129","372118","0.0-7.0-5.0-0.26","6","5","7","6","6","4","5","4","4","4","5","-2","-2","0","2","-3","2","2","1","4","5","4","4","4","5","4","5","4","4","8","8","7","9","7","7","7","7","8","6","3","7","6","5","3","6","2","4","4","1","6","3","7","3","1","7","5","4","6","4","3","7","6","7","3","6","5","7","7","6","6","7","5","5","7","6","6","5","3","7","797763687048945665","杨","673","Male","[""好我"",""坏我"",""坏他"",""好他""]","[""强我"",""弱我"",""弱他"",""强他""]","","","","","","","","2","","","","","","","","","SRET","SRET_math_calculate","","key","2","16.665445454545658","683","380","","","","","5-3= ?","2","1","","","","","","","",""
"1837","","3","psychophysics","130","373963","0.0-7.0-5.0-0.27","6","5","7","6","6","4","5","4","4","4","5","-2","-2","0","2","-3","2","2","1","4","5","4","4","4","5","4","5","4","4","8","8","7","9","7","7","7","7","8","6","3","7","6","5","3","6","2","4","4","1","6","3","7","3","1","7","5","4","6","4","3","7","6","7","3","6","5","7","7","6","6","7","5","5","7","6","6","5","3","7","797763687048945665","杨","673","Male","[""好我"",""坏我"",""坏他"",""好他""]","[""强我"",""弱我"",""弱他"",""强他""]","","","","","","","","3","","","","","","","","","SRET","SRET_math_calculate","","key","3","16.818247706421605","683","380","","","","","12/4= ?","3","1","","","","","","","",""
"1824","","8","psychophysics","131","375796","0.0-7.0-5.0-0.28","6","5","7","6","6","4","5","4","4","4","5","-2","-2","0","2","-3","2","2","1","4","5","4","4","4","5","4","5","4","4","8","8","7","9","7","7","7","7","8","6","3","7","6","5","3","6","2","4","4","1","6","3","7","3","1","7","5","4","6","4","3","7","6","7","3","6","5","7","7","6","6","7","5","5","7","6","6","5","3","7","797763687048945665","杨","673","Male","[""好我"",""坏我"",""坏他"",""好他""]","[""强我"",""弱我"",""弱他"",""强他""]","","","","","","","","8","","","","","","","","","SRET","SRET_math_calculate","","key","8","16.66584403669716","683","380","","","","","11-3= ?","8","1","","","","","","","",""
"1947","","5","psychophysics","132","377747","0.0-7.0-5.0-0.29","6","5","7","6","6","4","5","4","4","4","5","-2","-2","0","2","-3","2","2","1","4","5","4","4","4","5","4","5","4","4","8","8","7","9","7","7","7","7","8","6","3","7","6","5","3","6","2","4","4","1","6","3","7","3","1","7","5","4","6","4","3","7","6","7","3","6","5","7","7","6","6","7","5","5","7","6","6","5","3","7","797763687048945665","杨","673","Male","[""好我"",""坏我"",""坏他"",""好他""]","[""强我"",""弱我"",""弱他"",""强他""]","","","","","","","","5","","","","","","","","","SRET","SRET_math_calculate","","key","5","16.665413793103653","683","380","","","","","16-11= ?","5","1","","","","","","","",""
"1866","","8","psychophysics","133","379620","0.0-7.0-5.0-0.30","6","5","7","6","6","4","5","4","4","4","5","-2","-2","0","2","-3","2","2","1","4","5","4","4","4","5","4","5","4","4","8","8","7","9","7","7","7","7","8","6","3","7","6","5","3","6","2","4","4","1","6","3","7","3","1","7","5","4","6","4","3","7","6","7","3","6","5","7","7","6","6","7","5","5","7","6","6","5","3","7","797763687048945665","杨","673","Male","[""好我"",""坏我"",""坏他"",""好他""]","[""强我"",""弱我"",""弱他"",""强他""]","","","","","","","","8","","","","","","","","","SRET","SRET_math_calculate","","key","8","16.666116071428405","683","380","","","","","13-5= ?","8","1","","","","","","","",""
"1912","","9","psychophysics","134","381535","0.0-7.0-5.0-0.31","6","5","7","6","6","4","5","4","4","4","5","-2","-2","0","2","-3","2","2","1","4","5","4","4","4","5","4","5","4","4","8","8","7","9","7","7","7","7","8","6","3","7","6","5","3","6","2","4","4","1","6","3","7","3","1","7","5","4","6","4","3","7","6","7","3","6","5","7","7","6","6","7","5","5","7","6","6","5","3","7","797763687048945665","杨","673","Male","[""好我"",""坏我"",""坏他"",""好他""]","[""强我"",""弱我"",""弱他"",""强他""]","","","","","","","","9","","","","","","","","","SRET","SRET_math_calculate","","key","9","16.66531858407064","683","380","","","","","32-32= ?","0","0","","","","","","","",""
"1886","","7","psychophysics","135","383427","0.0-7.0-5.0-0.32","6","5","7","6","6","4","5","4","4","4","5","-2","-2","0","2","-3","2","2","1","4","5","4","4","4","5","4","5","4","4","8","8","7","9","7","7","7","7","8","6","3","7","6","5","3","6","2","4","4","1","6","3","7","3","1","7","5","4","6","4","3","7","6","7","3","6","5","7","7","6","6","7","5","5","7","6","6","5","3","7","797763687048945665","杨","673","Male","[""好我"",""坏我"",""坏他"",""好他""]","[""强我"",""弱我"",""弱他"",""强他""]","","","","","","","","7","","","","","","","","","SRET","SRET_math_calculate","","key","7","16.665176991150258","683","380","","","","","2+5= ?","7","1","","","","","","","",""
"2224","","7","psychophysics","136","385653","0.0-7.0-5.0-0.33","6","5","7","6","6","4","5","4","4","4","5","-2","-2","0","2","-3","2","2","1","4","5","4","4","4","5","4","5","4","4","8","8","7","9","7","7","7","7","8","6","3","7","6","5","3","6","2","4","4","1","6","3","7","3","1","7","5","4","6","4","3","7","6","7","3","6","5","7","7","6","6","7","5","5","7","6","6","5","3","7","797763687048945665","杨","673","Male","[""好我"",""坏我"",""坏他"",""好他""]","[""强我"",""弱我"",""弱他"",""强他""]","","","","","","","","7","","","","","","","","","SRET","SRET_math_calculate","","key","7","16.666308270676737","683","380","","","","","13-6= ?","7","1","","","","","","","",""
"1988","","2","psychophysics","137","387644","0.0-7.0-5.0-0.34","6","5","7","6","6","4","5","4","4","4","5","-2","-2","0","2","-3","2","2","1","4","5","4","4","4","5","4","5","4","4","8","8","7","9","7","7","7","7","8","6","3","7","6","5","3","6","2","4","4","1","6","3","7","3","1","7","5","4","6","4","3","7","6","7","3","6","5","7","7","6","6","7","5","5","7","6","6","5","3","7","797763687048945665","杨","673","Male","[""好我"",""坏我"",""坏他"",""好他""]","[""强我"",""弱我"",""弱他"",""强他""]","","","","","","","","2","","","","","","","","","SRET","SRET_math_calculate","","key","2","16.808547008547308","683","380","","","","","8-6= ?","2","1","","","","","","","",""
"1872","","9","psychophysics","138","389519","0.0-7.0-5.0-0.35","6","5","7","6","6","4","5","4","4","4","5","-2","-2","0","2","-3","2","2","1","4","5","4","4","4","5","4","5","4","4","8","8","7","9","7","7","7","7","8","6","3","7","6","5","3","6","2","4","4","1","6","3","7","3","1","7","5","4","6","4","3","7","6","7","3","6","5","7","7","6","6","7","5","5","7","6","6","5","3","7","797763687048945665","杨","673","Male","[""好我"",""坏我"",""坏他"",""好他""]","[""强我"",""弱我"",""弱他"",""强他""]","","","","","","","","9","","","","","","","","","SRET","SRET_math_calculate","","key","9","16.665098214285536","683","380","","","","","1+8= ?","9","1","","","","","","","",""
"1786","","9","psychophysics","139","391308","0.0-7.0-5.0-0.36","6","5","7","6","6","4","5","4","4","4","5","-2","-2","0","2","-3","2","2","1","4","5","4","4","4","5","4","5","4","4","8","8","7","9","7","7","7","7","8","6","3","7","6","5","3","6","2","4","4","1","6","3","7","3","1","7","5","4","6","4","3","7","6","7","3","6","5","7","7","6","6","7","5","5","7","6","6","5","3","7","797763687048945665","杨","673","Male","[""好我"",""坏我"",""坏他"",""好他""]","[""强我"",""弱我"",""弱他"",""强他""]","","","","","","","","9","","","","","","","","","SRET","SRET_math_calculate","","key","9","16.665688679245505","683","380","","","","","1+8= ?","9","1","","","","","","","",""
"2084","","9","psychophysics","140","393395","0.0-7.0-5.0-0.37","6","5","7","6","6","4","5","4","4","4","5","-2","-2","0","2","-3","2","2","1","4","5","4","4","4","5","4","5","4","4","8","8","7","9","7","7","7","7","8","6","3","7","6","5","3","6","2","4","4","1","6","3","7","3","1","7","5","4","6","4","3","7","6","7","3","6","5","7","7","6","6","7","5","5","7","6","6","5","3","7","797763687048945665","杨","673","Male","[""好我"",""坏我"",""坏他"",""好他""]","[""强我"",""弱我"",""弱他"",""强他""]","","","","","","","","9","","","","","","","","","SRET","SRET_math_calculate","","key","9","16.665612903225515","683","380","","","","","72/9= ?","8","0","","","","","","","",""
"1935","","3","psychophysics","141","395363","0.0-7.0-5.0-0.38","6","5","7","6","6","4","5","4","4","4","5","-2","-2","0","2","-3","2","2","1","4","5","4","4","4","5","4","5","4","4","8","8","7","9","7","7","7","7","8","6","3","7","6","5","3","6","2","4","4","1","6","3","7","3","1","7","5","4","6","4","3","7","6","7","3","6","5","7","7","6","6","7","5","5","7","6","6","5","3","7","797763687048945665","杨","673","Male","[""好我"",""坏我"",""坏他"",""好他""]","[""强我"",""弱我"",""弱他"",""强他""]","","","","","","","","3","","","","","","","","","SRET","SRET_math_calculate","","key","3","16.66549572649583","683","380","","","","","1+2= ?","3","1","","","","","","","",""
"1931","","0","psychophysics","142","397302","0.0-7.0-5.0-0.39","6","5","7","6","6","4","5","4","4","4","5","-2","-2","0","2","-3","2","2","1","4","5","4","4","4","5","4","5","4","4","8","8","7","9","7","7","7","7","8","6","3","7","6","5","3","6","2","4","4","1","6","3","7","3","1","7","5","4","6","4","3","7","6","7","3","6","5","7","7","6","6","7","5","5","7","6","6","5","3","7","797763687048945665","杨","673","Male","[""好我"",""坏我"",""坏他"",""好他""]","[""强我"",""弱我"",""弱他"",""强他""]","","","","","","","","0","","","","","","","","","SRET","SRET_math_calculate","","key","0","16.666301724137657","683","380","","","","","22-22= ?","0","1","","","","","","","",""
