"rt","stimulus","response","trial_type","trial_index","time_elapsed","internal_node_id","swb_1","swb_2","swb_3","swb_4","swb_5","LOT_1","LOT_2","LOT_3","LOT_4","LOT_5","LOT_6","IPC_1","IPC_2","IPC_3","IPC_4","IPC_5","IPC_6","IPC_7","IPC_8","MorIden_1","MorIden_2","MorIden_3","MorIden_4","MorIden_5","MorIden_6","MorIden_7","MorIden_8","MorIden_9","MorIden_10","moralSeImag_1","moralSeImag_2","moralSeImag_3","moralSeImag_4","moralSeImag_5","moralSeImag_6","moralSeImag_7","moralSeImag_8","moralSeImag_9","sde_1","sde_2","sde_3","sde_4","sde_5","sde_6","sde_7","sde_8","sde_9","sde_10","trap2","sde_11","sde_12","sde_13","sde_14","sde_15","sde_16","sde_17","sde_18","sde_19","sde_20","IM_1","IM_2","IM_3","IM_4","IM_5","IM_6","IM_7","IM_8","IM_9","IM_10","IM_11","IM_12","IM_13","IM_14","IM_15","IM_16","IM_17","IM_18","IM_19","IM_20","subj_idx","friend_name","ParticipantID","Sex","Word","Word2","value","success","timeout","failed_images","failed_audio","failed_video","user_agent","responses","item_order","radio_event_ids","radio_event_times","key_event_times","mouse_event_times","straightlining","zigzagging","honeypot","view_history","response_type","key_press","avg_frame_time","center_x","center_y","correct_response","correct","identity","Image","word","condition","task_id","screen_id","time_stamp","person","valence","domain","math","status","duration","question_order","trap2_item"
"1418","
   <p><div style='color:white; font-size: 25px'>您好，欢迎参加本次实验。</div></p>
   <p><div style='color:white; font-size: 25px'>为充分保障您的权利，请确保您已经知晓并同意《参与实验同意书》以及《数据公开知情同意书》。</div></p>
   <p><div style='color:white; font-size: 25px'>如果您未见过上述内容，请咨询实验员。</div></p>
   <p style='color:white; font-size: 25px'>如果您选择继续实验，则表示您已经清楚两份知情同意书的内容并同意。</p>
   <p><div style = ""color: pink;font-size:30px;"">请确保您记得day0的实验编号，您将在本次实验输入该编号，若您忘记，请咨询实验员后作答。</div></p>
   <p><div style = ""color:lightblue;font-size:25px;"">请您尽可能认真地作答，我们将依据您在各问卷和按键任务中的作答质量发放报酬。</div></p>
   <p> <div style = ""color: green""><按空格键至下页></div> </p>
   "," ","html-keyboard-response","0","1425","0.0-0.0","7","5","7","5","6","5","2","5","4","5","4","-1","-2","1","2","0","2","1","2","5","4","5","4","4","5","5","4","5","4","7","8","9","7","8","9","7","8","6","6","7","6","6","7","7","5","7","5","6","1","6","7","3","7","5","6","7","7","5","7","2","7","3","6","6","5","7","6","7","7","5","6","7","2","5","7","6","5","7","7","633792084226080768","林","350","Male","[""好他"",""坏我"",""好我"",""坏他""]","[""强他"",""弱我"",""强我"",""弱他""]","","","","","","","","","","","","","","","","","","","","","","","","","","","","","","","","","","","","","","",""
"","","","call-function","1","1426","0.0-1.0-0.0","7","5","7","5","6","5","2","5","4","5","4","-1","-2","1","2","0","2","1","2","5","4","5","4","4","5","5","4","5","4","7","8","9","7","8","9","7","8","6","6","7","6","6","7","7","5","7","5","6","1","6","7","3","7","5","6","7","7","5","7","2","7","3","6","6","5","7","6","7","7","5","6","7","2","5","7","6","5","7","7","633792084226080768","林","350","Male","[""好他"",""坏我"",""好我"",""坏他""]","[""强他"",""弱我"",""强我"",""弱他""]","","","","","","","","","","","","","","","","","","","","","","","","","","","","","","","","","","","","","","",""
"91549","","[{""name"":""Sex"",""value"":""0""},{""name"":""friend_name"",""value"":""林""},{""name"":""ParticipantID"",""value"":""350""}]","survey-html-form","2","92977","0.0-1.0-1.0","7","5","7","5","6","5","2","5","4","5","4","-1","-2","1","2","0","2","1","2","5","4","5","4","4","5","5","4","5","4","7","8","9","7","8","9","7","8","6","6","7","6","6","7","7","5","7","5","6","1","6","7","3","7","5","6","7","7","5","7","2","7","3","6","6","5","7","6","7","7","5","6","7","2","5","7","6","5","7","7","633792084226080768","林","350","Male","[""好他"",""坏我"",""好我"",""坏他""]","[""强他"",""弱我"",""强我"",""弱他""]","","","","","","","","","","","","","","","","","","","","","","","","","","","","","","","","","","","","","","",""
"","","","preload","3","102733","0.0-2.0","7","5","7","5","6","5","2","5","4","5","4","-1","-2","1","2","0","2","1","2","5","4","5","4","4","5","5","4","5","4","7","8","9","7","8","9","7","8","6","6","7","6","6","7","7","5","7","5","6","1","6","7","3","7","5","6","7","7","5","7","2","7","3","6","6","5","7","6","7","7","5","6","7","2","5","7","6","5","7","7","633792084226080768","林","350","Male","[""好他"",""坏我"",""好我"",""坏他""]","[""强他"",""弱我"",""强我"",""弱他""]","","true","false","[]","[]","[]","","","","","","","","","","","","","","","","","","","","","","","","","","","","","","","","",""
"","","","fullscreen","4","106644","0.0-3.0","7","5","7","5","6","5","2","5","4","5","4","-1","-2","1","2","0","2","1","2","5","4","5","4","4","5","5","4","5","4","7","8","9","7","8","9","7","8","6","6","7","6","6","7","7","5","7","5","6","1","6","7","3","7","5","6","7","7","5","7","2","7","3","6","6","5","7","6","7","7","5","6","7","2","5","7","6","5","7","7","633792084226080768","林","350","Male","[""好他"",""坏我"",""好我"",""坏他""]","[""强他"",""弱我"",""强我"",""弱他""]","","true","","","","","{}","","","","","","","","","","","","","","","","","","","","","","","","","","","","","","","",""
"9708.5","","{""Q01"":""7"",""Q02"":""5"",""Q03"":""7"",""Q04"":""5"",""Q05"":""6""}","survey-template","5","116361","0.0-4.0","7","5","7","5","6","5","2","5","4","5","4","-1","-2","1","2","0","2","1","2","5","4","5","4","4","5","5","4","5","4","7","8","9","7","8","9","7","8","6","6","7","6","6","7","7","5","7","5","6","1","6","7","3","7","5","6","7","7","5","7","2","7","3","6","6","5","7","6","7","7","5","6","7","2","5","7","6","5","7","7","633792084226080768","林","350","Male","[""好他"",""坏我"",""好我"",""坏他""]","[""强他"",""弱我"",""强我"",""弱他""]","","","","","","","","{""Q01"":""7"",""Q02"":""5"",""Q03"":""7"",""Q04"":""5"",""Q05"":""6""}","[0,1,2,3,4]","[""Q01"",""Q02"",""Q03"",""Q04"",""Q05""]","[2146,3251.100000023842,6455.300000011921,7308.900000035763,8201.199999988079]","[]","[2146,3251.100000023842,3984.100000023842,5051,5697.100000023842,6455.300000011921,7308.900000035763,8201.199999988079,9707.300000011921]","0.4","0.25","0","","","","","","","","","","","","","","","","","","","","","","",""
"17008.100000023842","","{""Q01"":""5"",""Q02"":""2"",""Q03"":""5"",""Q04"":""4"",""Q05"":""5"",""Q06"":""4""}","survey-template","6","133374","0.0-5.0","7","5","7","5","6","5","2","5","4","5","4","-1","-2","1","2","0","2","1","2","5","4","5","4","4","5","5","4","5","4","7","8","9","7","8","9","7","8","6","6","7","6","6","7","7","5","7","5","6","1","6","7","3","7","5","6","7","7","5","7","2","7","3","6","6","5","7","6","7","7","5","6","7","2","5","7","6","5","7","7","633792084226080768","林","350","Male","[""好他"",""坏我"",""好我"",""坏他""]","[""强他"",""弱我"",""强我"",""弱他""]","","","","","","","","{""Q01"":""5"",""Q02"":""2"",""Q03"":""5"",""Q04"":""4"",""Q05"":""5"",""Q06"":""4""}","[0,1,2,3,4,5]","[""Q01"",""Q02"",""Q03"",""Q04"",""Q05"",""Q06""]","[5004.100000023842,5804.400000035763,8320.300000011921,9612.200000047684,10644.200000047684,13380.300000011921]","[]","[3014.100000023842,3828,4460.5,5004.100000023842,5804.400000035763,8320.300000011921,9612.200000047684,10644.200000047684,11860.200000047684,12316.400000035763,13079.600000023842,13380.300000011921,17007.30000001192]","0.3333333333333333","0.6","0","","","","","","","","","","","","","","","","","","","","","","",""
"44013.30000001192","","{""Q01"":""-1"",""Q02"":""-2"",""Q03"":""1"",""Q04"":""2"",""Q05"":""0"",""Q06"":""2"",""Q07"":""1"",""Q08"":""2""}","survey-template","7","177390","0.0-6.0","7","5","7","5","6","5","2","5","4","5","4","-1","-2","1","2","0","2","1","2","5","4","5","4","4","5","5","4","5","4","7","8","9","7","8","9","7","8","6","6","7","6","6","7","7","5","7","5","6","1","6","7","3","7","5","6","7","7","5","7","2","7","3","6","6","5","7","6","7","7","5","6","7","2","5","7","6","5","7","7","633792084226080768","林","350","Male","[""好他"",""坏我"",""好我"",""坏他""]","[""强他"",""弱我"",""强我"",""弱他""]","","","","","","","","{""Q01"":""-1"",""Q02"":""-2"",""Q03"":""1"",""Q04"":""2"",""Q05"":""0"",""Q06"":""2"",""Q07"":""1"",""Q08"":""2""}","[0,1,2,3,4,5,6,7]","[""Q01"",""Q02"",""Q02"",""Q03"",""Q04"",""Q05"",""Q06"",""Q05"",""Q07"",""Q08""]","[2244.300000011921,3058.400000035763,3956.600000023842,4964.900000035763,7632.400000035763,9130.400000035763,12726.400000035763,13450.100000023842,14750.300000011921,15956.600000023842]","[]","[2244.300000011921,3058.400000035763,3956.600000023842,4964.900000035763,7632.400000035763,9130.400000035763,11794.400000035763,12726.400000035763,13450.100000023842,14750.300000011921,15956.600000023842,44011.80000001192]","0.375","0.5714285714285714","0","","","","","","","","","","","","","","","","","","","","","","",""
"53932","","","instructions","8","231325","0.0-7.0","7","5","7","5","6","5","2","5","4","5","4","-1","-2","1","2","0","2","1","2","5","4","5","4","4","5","5","4","5","4","7","8","9","7","8","9","7","8","6","6","7","6","6","7","7","5","7","5","6","1","6","7","3","7","5","6","7","7","5","7","2","7","3","6","6","5","7","6","7","7","5","6","7","2","5","7","6","5","7","7","633792084226080768","林","350","Male","[""好他"",""坏我"",""好我"",""坏他""]","[""强他"",""弱我"",""强我"",""弱他""]","","","","","","","","","","","","","","","","","[{""page_index"":0,""viewing_time"":53931}]","","","","","","","","","","","","","","","","","","","","","",""
"94706","","","instructions","9","326034","0.0-8.0-1.0-0.0","7","5","7","5","6","5","2","5","4","5","4","-1","-2","1","2","0","2","1","2","5","4","5","4","4","5","5","4","5","4","7","8","9","7","8","9","7","8","6","6","7","6","6","7","7","5","7","5","6","1","6","7","3","7","5","6","7","7","5","7","2","7","3","6","6","5","7","6","7","7","5","6","7","2","5","7","6","5","7","7","633792084226080768","林","350","Male","[""好他"",""坏我"",""好我"",""坏他""]","[""强他"",""弱我"",""强我"",""弱他""]","","","","","","","","","","","","","","","","","[{""page_index"":0,""viewing_time"":1920},{""page_index"":1,""viewing_time"":90755},{""page_index"":2,""viewing_time"":1182},{""page_index"":3,""viewing_time"":848}]","","","","","","","","","","","","","","","","","","","","","",""
"745","","j","psychophysics","10","327812","0.0-8.0-1.0-1.0-0.0-0.0","7","5","7","5","6","5","2","5","4","5","4","-1","-2","1","2","0","2","1","2","5","4","5","4","4","5","5","4","5","4","7","8","9","7","8","9","7","8","6","6","7","6","6","7","7","5","7","5","6","1","6","7","3","7","5","6","7","7","5","7","2","7","3","6","6","5","7","6","7","7","5","6","7","2","5","7","6","5","7","7","633792084226080768","林","350","Male","[""好他"",""坏我"",""好我"",""坏他""]","[""强他"",""弱我"",""强我"",""弱他""]","","","","","","","","nonmatch","","","","","","","","","","key","j","16.653462264150875","710.7407909492769","395.92595389514173","j","true","nonmatch","img/pentagon.png","强他","弱我","prac_ALT2_ability","practice_ability","","","","","","","","",""
"null","<span style='color:GreenYellow; font-size: 70px;'>正确! </span>","null","html-keyboard-response","11","328315","0.0-8.0-1.0-1.0-0.0-1.0","7","5","7","5","6","5","2","5","4","5","4","-1","-2","1","2","0","2","1","2","5","4","5","4","4","5","5","4","5","4","7","8","9","7","8","9","7","8","6","6","7","6","6","7","7","5","7","5","6","1","6","7","3","7","5","6","7","7","5","7","2","7","3","6","6","5","7","6","7","7","5","6","7","2","5","7","6","5","7","7","633792084226080768","林","350","Male","[""好他"",""坏我"",""好我"",""坏他""]","[""强他"",""弱我"",""强我"",""弱他""]","","","","","","","","","","","","","","","","","","","","","","","","","","","","","","feedback_test","","","","","","","","",""
"719","","j","psychophysics","12","330036","0.0-8.0-1.0-1.0-0.0-0.1","7","5","7","5","6","5","2","5","4","5","4","-1","-2","1","2","0","2","1","2","5","4","5","4","4","5","5","4","5","4","7","8","9","7","8","9","7","8","6","6","7","6","6","7","7","5","7","5","6","1","6","7","3","7","5","6","7","7","5","7","2","7","3","6","6","5","7","6","7","7","5","6","7","2","5","7","6","5","7","7","633792084226080768","林","350","Male","[""好他"",""坏我"",""好我"",""坏他""]","[""强他"",""弱我"",""强我"",""弱他""]","","","","","","","","nonmatch","","","","","","","","","","key","j","16.653339805825187","710.7407909492769","395.92595389514173","j","true","nonmatch","img/triangle.png","强他","强我","prac_ALT2_ability","practice_ability","","","","","","","","",""
"null","<span style='color:GreenYellow; font-size: 70px;'>正确! </span>","null","html-keyboard-response","13","330540","0.0-8.0-1.0-1.0-0.0-1.1","7","5","7","5","6","5","2","5","4","5","4","-1","-2","1","2","0","2","1","2","5","4","5","4","4","5","5","4","5","4","7","8","9","7","8","9","7","8","6","6","7","6","6","7","7","5","7","5","6","1","6","7","3","7","5","6","7","7","5","7","2","7","3","6","6","5","7","6","7","7","5","6","7","2","5","7","6","5","7","7","633792084226080768","林","350","Male","[""好他"",""坏我"",""好我"",""坏他""]","[""强他"",""弱我"",""强我"",""弱他""]","","","","","","","","","","","","","","","","","","","","","","","","","","","","","","feedback_test","","","","","","","","",""
"1020","","f","psychophysics","14","332561","0.0-8.0-1.0-1.0-0.0-0.2","7","5","7","5","6","5","2","5","4","5","4","-1","-2","1","2","0","2","1","2","5","4","5","4","4","5","5","4","5","4","7","8","9","7","8","9","7","8","6","6","7","6","6","7","7","5","7","5","6","1","6","7","3","7","5","6","7","7","5","7","2","7","3","6","6","5","7","6","7","7","5","6","7","2","5","7","6","5","7","7","633792084226080768","林","350","Male","[""好他"",""坏我"",""好我"",""坏他""]","[""强他"",""弱我"",""强我"",""弱他""]","","","","","","","","match","","","","","","","","","","key","f","16.654266666666565","710.7407909492769","395.92595389514173","f","true","match","img/ellipse.png","弱他","弱他","prac_ALT2_ability","practice_ability","","","","","","","","",""
"null","<span style='color:GreenYellow; font-size: 70px;'>正确! </span>","null","html-keyboard-response","15","333064","0.0-8.0-1.0-1.0-0.0-1.2","7","5","7","5","6","5","2","5","4","5","4","-1","-2","1","2","0","2","1","2","5","4","5","4","4","5","5","4","5","4","7","8","9","7","8","9","7","8","6","6","7","6","6","7","7","5","7","5","6","1","6","7","3","7","5","6","7","7","5","7","2","7","3","6","6","5","7","6","7","7","5","6","7","2","5","7","6","5","7","7","633792084226080768","林","350","Male","[""好他"",""坏我"",""好我"",""坏他""]","[""强他"",""弱我"",""强我"",""弱他""]","","","","","","","","","","","","","","","","","","","","","","","","","","","","","","feedback_test","","","","","","","","",""
"773","","f","psychophysics","16","334839","0.0-8.0-1.0-1.0-0.0-0.3","7","5","7","5","6","5","2","5","4","5","4","-1","-2","1","2","0","2","1","2","5","4","5","4","4","5","5","4","5","4","7","8","9","7","8","9","7","8","6","6","7","6","6","7","7","5","7","5","6","1","6","7","3","7","5","6","7","7","5","7","2","7","3","6","6","5","7","6","7","7","5","6","7","2","5","7","6","5","7","7","633792084226080768","林","350","Male","[""好他"",""坏我"",""好我"",""坏他""]","[""强他"",""弱我"",""强我"",""弱他""]","","","","","","","","match","","","","","","","","","","key","f","16.65390476190507","710.7407909492769","395.92595389514173","f","true","match","img/triangle.png","强我","强我","prac_ALT2_ability","practice_ability","","","","","","","","",""
"null","<span style='color:GreenYellow; font-size: 70px;'>正确! </span>","null","html-keyboard-response","17","335341","0.0-8.0-1.0-1.0-0.0-1.3","7","5","7","5","6","5","2","5","4","5","4","-1","-2","1","2","0","2","1","2","5","4","5","4","4","5","5","4","5","4","7","8","9","7","8","9","7","8","6","6","7","6","6","7","7","5","7","5","6","1","6","7","3","7","5","6","7","7","5","7","2","7","3","6","6","5","7","6","7","7","5","6","7","2","5","7","6","5","7","7","633792084226080768","林","350","Male","[""好他"",""坏我"",""好我"",""坏他""]","[""强他"",""弱我"",""强我"",""弱他""]","","","","","","","","","","","","","","","","","","","","","","","","","","","","","","feedback_test","","","","","","","","",""
"775","","j","psychophysics","18","337118","0.0-8.0-1.0-1.0-0.0-0.4","7","5","7","5","6","5","2","5","4","5","4","-1","-2","1","2","0","2","1","2","5","4","5","4","4","5","5","4","5","4","7","8","9","7","8","9","7","8","6","6","7","6","6","7","7","5","7","5","6","1","6","7","3","7","5","6","7","7","5","7","2","7","3","6","6","5","7","6","7","7","5","6","7","2","5","7","6","5","7","7","633792084226080768","林","350","Male","[""好他"",""坏我"",""好我"",""坏他""]","[""强他"",""弱我"",""强我"",""弱他""]","","","","","","","","nonmatch","","","","","","","","","","key","j","16.65069811320743","710.7407909492769","395.92595389514173","j","true","nonmatch","img/pentagon.png","强我","弱我","prac_ALT2_ability","practice_ability","","","","","","","","",""
"null","<span style='color:GreenYellow; font-size: 70px;'>正确! </span>","null","html-keyboard-response","19","337620","0.0-8.0-1.0-1.0-0.0-1.4","7","5","7","5","6","5","2","5","4","5","4","-1","-2","1","2","0","2","1","2","5","4","5","4","4","5","5","4","5","4","7","8","9","7","8","9","7","8","6","6","7","6","6","7","7","5","7","5","6","1","6","7","3","7","5","6","7","7","5","7","2","7","3","6","6","5","7","6","7","7","5","6","7","2","5","7","6","5","7","7","633792084226080768","林","350","Male","[""好他"",""坏我"",""好我"",""坏他""]","[""强他"",""弱我"",""强我"",""弱他""]","","","","","","","","","","","","","","","","","","","","","","","","","","","","","","feedback_test","","","","","","","","",""
"961","","j","psychophysics","20","339583","0.0-8.0-1.0-1.0-0.0-0.5","7","5","7","5","6","5","2","5","4","5","4","-1","-2","1","2","0","2","1","2","5","4","5","4","4","5","5","4","5","4","7","8","9","7","8","9","7","8","6","6","7","6","6","7","7","5","7","5","6","1","6","7","3","7","5","6","7","7","5","7","2","7","3","6","6","5","7","6","7","7","5","6","7","2","5","7","6","5","7","7","633792084226080768","林","350","Male","[""好他"",""坏我"",""好我"",""坏他""]","[""强他"",""弱我"",""强我"",""弱他""]","","","","","","","","nonmatch","","","","","","","","","","key","j","16.653128205128432","710.7407909492769","395.92595389514173","j","true","nonmatch","img/ellipse.png","强他","弱他","prac_ALT2_ability","practice_ability","","","","","","","","",""
"null","<span style='color:GreenYellow; font-size: 70px;'>正确! </span>","null","html-keyboard-response","21","340084","0.0-8.0-1.0-1.0-0.0-1.5","7","5","7","5","6","5","2","5","4","5","4","-1","-2","1","2","0","2","1","2","5","4","5","4","4","5","5","4","5","4","7","8","9","7","8","9","7","8","6","6","7","6","6","7","7","5","7","5","6","1","6","7","3","7","5","6","7","7","5","7","2","7","3","6","6","5","7","6","7","7","5","6","7","2","5","7","6","5","7","7","633792084226080768","林","350","Male","[""好他"",""坏我"",""好我"",""坏他""]","[""强他"",""弱我"",""强我"",""弱他""]","","","","","","","","","","","","","","","","","","","","","","","","","","","","","","feedback_test","","","","","","","","",""
"786","","f","psychophysics","22","341871","0.0-8.0-1.0-1.0-0.0-0.6","7","5","7","5","6","5","2","5","4","5","4","-1","-2","1","2","0","2","1","2","5","4","5","4","4","5","5","4","5","4","7","8","9","7","8","9","7","8","6","6","7","6","6","7","7","5","7","5","6","1","6","7","3","7","5","6","7","7","5","7","2","7","3","6","6","5","7","6","7","7","5","6","7","2","5","7","6","5","7","7","633792084226080768","林","350","Male","[""好他"",""坏我"",""好我"",""坏他""]","[""强他"",""弱我"",""强我"",""弱他""]","","","","","","","","match","","","","","","","","","","key","f","16.65366981132121","710.7407909492769","395.92595389514173","f","true","match","img/trapezoid.png","强他","强他","prac_ALT2_ability","practice_ability","","","","","","","","",""
"null","<span style='color:GreenYellow; font-size: 70px;'>正确! </span>","null","html-keyboard-response","23","342372","0.0-8.0-1.0-1.0-0.0-1.6","7","5","7","5","6","5","2","5","4","5","4","-1","-2","1","2","0","2","1","2","5","4","5","4","4","5","5","4","5","4","7","8","9","7","8","9","7","8","6","6","7","6","6","7","7","5","7","5","6","1","6","7","3","7","5","6","7","7","5","7","2","7","3","6","6","5","7","6","7","7","5","6","7","2","5","7","6","5","7","7","633792084226080768","林","350","Male","[""好他"",""坏我"",""好我"",""坏他""]","[""强他"",""弱我"",""强我"",""弱他""]","","","","","","","","","","","","","","","","","","","","","","","","","","","","","","feedback_test","","","","","","","","",""
"856","","f","psychophysics","24","344230","0.0-8.0-1.0-1.0-0.0-0.7","7","5","7","5","6","5","2","5","4","5","4","-1","-2","1","2","0","2","1","2","5","4","5","4","4","5","5","4","5","4","7","8","9","7","8","9","7","8","6","6","7","6","6","7","7","5","7","5","6","1","6","7","3","7","5","6","7","7","5","7","2","7","3","6","6","5","7","6","7","7","5","6","7","2","5","7","6","5","7","7","633792084226080768","林","350","Male","[""好他"",""坏我"",""好我"",""坏他""]","[""强他"",""弱我"",""强我"",""弱他""]","","","","","","","","match","","","","","","","","","","key","f","16.64278181818134","710.7407909492769","395.92595389514173","f","true","match","img/triangle.png","强我","强我","prac_ALT2_ability","practice_ability","","","","","","","","",""
"null","<span style='color:GreenYellow; font-size: 70px;'>正确! </span>","null","html-keyboard-response","25","344731","0.0-8.0-1.0-1.0-0.0-1.7","7","5","7","5","6","5","2","5","4","5","4","-1","-2","1","2","0","2","1","2","5","4","5","4","4","5","5","4","5","4","7","8","9","7","8","9","7","8","6","6","7","6","6","7","7","5","7","5","6","1","6","7","3","7","5","6","7","7","5","7","2","7","3","6","6","5","7","6","7","7","5","6","7","2","5","7","6","5","7","7","633792084226080768","林","350","Male","[""好他"",""坏我"",""好我"",""坏他""]","[""强他"",""弱我"",""强我"",""弱他""]","","","","","","","","","","","","","","","","","","","","","","","","","","","","","","feedback_test","","","","","","","","",""
"790","","j","psychophysics","26","346523","0.0-8.0-1.0-1.0-0.0-0.8","7","5","7","5","6","5","2","5","4","5","4","-1","-2","1","2","0","2","1","2","5","4","5","4","4","5","5","4","5","4","7","8","9","7","8","9","7","8","6","6","7","6","6","7","7","5","7","5","6","1","6","7","3","7","5","6","7","7","5","7","2","7","3","6","6","5","7","6","7","7","5","6","7","2","5","7","6","5","7","7","633792084226080768","林","350","Male","[""好他"",""坏我"",""好我"",""坏他""]","[""强他"",""弱我"",""强我"",""弱他""]","","","","","","","","nonmatch","","","","","","","","","","key","j","16.653915887850307","710.7407909492769","395.92595389514173","j","true","nonmatch","img/trapezoid.png","弱他","强他","prac_ALT2_ability","practice_ability","","","","","","","","",""
"null","<span style='color:GreenYellow; font-size: 70px;'>正确! </span>","null","html-keyboard-response","27","347027","0.0-8.0-1.0-1.0-0.0-1.8","7","5","7","5","6","5","2","5","4","5","4","-1","-2","1","2","0","2","1","2","5","4","5","4","4","5","5","4","5","4","7","8","9","7","8","9","7","8","6","6","7","6","6","7","7","5","7","5","6","1","6","7","3","7","5","6","7","7","5","7","2","7","3","6","6","5","7","6","7","7","5","6","7","2","5","7","6","5","7","7","633792084226080768","林","350","Male","[""好他"",""坏我"",""好我"",""坏他""]","[""强他"",""弱我"",""强我"",""弱他""]","","","","","","","","","","","","","","","","","","","","","","","","","","","","","","feedback_test","","","","","","","","",""
"869","","f","psychophysics","28","348900","0.0-8.0-1.0-1.0-0.0-0.9","7","5","7","5","6","5","2","5","4","5","4","-1","-2","1","2","0","2","1","2","5","4","5","4","4","5","5","4","5","4","7","8","9","7","8","9","7","8","6","6","7","6","6","7","7","5","7","5","6","1","6","7","3","7","5","6","7","7","5","7","2","7","3","6","6","5","7","6","7","7","5","6","7","2","5","7","6","5","7","7","633792084226080768","林","350","Male","[""好他"",""坏我"",""好我"",""坏他""]","[""强他"",""弱我"",""强我"",""弱他""]","","","","","","","","match","","","","","","","","","","key","f","16.65484684684706","710.7407909492769","395.92595389514173","f","true","match","img/pentagon.png","弱我","弱我","prac_ALT2_ability","practice_ability","","","","","","","","",""
"null","<span style='color:GreenYellow; font-size: 70px;'>正确! </span>","null","html-keyboard-response","29","349401","0.0-8.0-1.0-1.0-0.0-1.9","7","5","7","5","6","5","2","5","4","5","4","-1","-2","1","2","0","2","1","2","5","4","5","4","4","5","5","4","5","4","7","8","9","7","8","9","7","8","6","6","7","6","6","7","7","5","7","5","6","1","6","7","3","7","5","6","7","7","5","7","2","7","3","6","6","5","7","6","7","7","5","6","7","2","5","7","6","5","7","7","633792084226080768","林","350","Male","[""好他"",""坏我"",""好我"",""坏他""]","[""强他"",""弱我"",""强我"",""弱他""]","","","","","","","","","","","","","","","","","","","","","","","","","","","","","","feedback_test","","","","","","","","",""
"833","","j","psychophysics","30","351237","0.0-8.0-1.0-1.0-0.0-0.10","7","5","7","5","6","5","2","5","4","5","4","-1","-2","1","2","0","2","1","2","5","4","5","4","4","5","5","4","5","4","7","8","9","7","8","9","7","8","6","6","7","6","6","7","7","5","7","5","6","1","6","7","3","7","5","6","7","7","5","7","2","7","3","6","6","5","7","6","7","7","5","6","7","2","5","7","6","5","7","7","633792084226080768","林","350","Male","[""好他"",""坏我"",""好我"",""坏他""]","[""强他"",""弱我"",""强我"",""弱他""]","","","","","","","","nonmatch","","","","","","","","","","key","j","16.653146788991087","710.7407909492769","395.92595389514173","j","true","nonmatch","img/trapezoid.png","弱我","强他","prac_ALT2_ability","practice_ability","","","","","","","","",""
"null","<span style='color:GreenYellow; font-size: 70px;'>正确! </span>","null","html-keyboard-response","31","351739","0.0-8.0-1.0-1.0-0.0-1.10","7","5","7","5","6","5","2","5","4","5","4","-1","-2","1","2","0","2","1","2","5","4","5","4","4","5","5","4","5","4","7","8","9","7","8","9","7","8","6","6","7","6","6","7","7","5","7","5","6","1","6","7","3","7","5","6","7","7","5","7","2","7","3","6","6","5","7","6","7","7","5","6","7","2","5","7","6","5","7","7","633792084226080768","林","350","Male","[""好他"",""坏我"",""好我"",""坏他""]","[""强他"",""弱我"",""强我"",""弱他""]","","","","","","","","","","","","","","","","","","","","","","","","","","","","","","feedback_test","","","","","","","","",""
"915","","f","psychophysics","32","353655","0.0-8.0-1.0-1.0-0.0-0.11","7","5","7","5","6","5","2","5","4","5","4","-1","-2","1","2","0","2","1","2","5","4","5","4","4","5","5","4","5","4","7","8","9","7","8","9","7","8","6","6","7","6","6","7","7","5","7","5","6","1","6","7","3","7","5","6","7","7","5","7","2","7","3","6","6","5","7","6","7","7","5","6","7","2","5","7","6","5","7","7","633792084226080768","林","350","Male","[""好他"",""坏我"",""好我"",""坏他""]","[""强他"",""弱我"",""强我"",""弱他""]","","","","","","","","match","","","","","","","","","","key","f","16.65404385964952","710.7407909492769","395.92595389514173","f","true","match","img/pentagon.png","弱我","弱我","prac_ALT2_ability","practice_ability","","","","","","","","",""
"null","<span style='color:GreenYellow; font-size: 70px;'>正确! </span>","null","html-keyboard-response","33","354157","0.0-8.0-1.0-1.0-0.0-1.11","7","5","7","5","6","5","2","5","4","5","4","-1","-2","1","2","0","2","1","2","5","4","5","4","4","5","5","4","5","4","7","8","9","7","8","9","7","8","6","6","7","6","6","7","7","5","7","5","6","1","6","7","3","7","5","6","7","7","5","7","2","7","3","6","6","5","7","6","7","7","5","6","7","2","5","7","6","5","7","7","633792084226080768","林","350","Male","[""好他"",""坏我"",""好我"",""坏他""]","[""强他"",""弱我"",""强我"",""弱他""]","","","","","","","","","","","","","","","","","","","","","","","","","","","","","","feedback_test","","","","","","","","",""
"853","","j","psychophysics","34","356013","0.0-8.0-1.0-1.0-0.0-0.12","7","5","7","5","6","5","2","5","4","5","4","-1","-2","1","2","0","2","1","2","5","4","5","4","4","5","5","4","5","4","7","8","9","7","8","9","7","8","6","6","7","6","6","7","7","5","7","5","6","1","6","7","3","7","5","6","7","7","5","7","2","7","3","6","6","5","7","6","7","7","5","6","7","2","5","7","6","5","7","7","633792084226080768","林","350","Male","[""好他"",""坏我"",""好我"",""坏他""]","[""强他"",""弱我"",""强我"",""弱他""]","","","","","","","","nonmatch","","","","","","","","","","key","j","16.65179999999977","710.7407909492769","395.92595389514173","j","true","nonmatch","img/ellipse.png","强我","弱他","prac_ALT2_ability","practice_ability","","","","","","","","",""
"null","<span style='color:GreenYellow; font-size: 70px;'>正确! </span>","null","html-keyboard-response","35","356514","0.0-8.0-1.0-1.0-0.0-1.12","7","5","7","5","6","5","2","5","4","5","4","-1","-2","1","2","0","2","1","2","5","4","5","4","4","5","5","4","5","4","7","8","9","7","8","9","7","8","6","6","7","6","6","7","7","5","7","5","6","1","6","7","3","7","5","6","7","7","5","7","2","7","3","6","6","5","7","6","7","7","5","6","7","2","5","7","6","5","7","7","633792084226080768","林","350","Male","[""好他"",""坏我"",""好我"",""坏他""]","[""强他"",""弱我"",""强我"",""弱他""]","","","","","","","","","","","","","","","","","","","","","","","","","","","","","","feedback_test","","","","","","","","",""
"751","","j","psychophysics","36","358268","0.0-8.0-1.0-1.0-0.0-0.13","7","5","7","5","6","5","2","5","4","5","4","-1","-2","1","2","0","2","1","2","5","4","5","4","4","5","5","4","5","4","7","8","9","7","8","9","7","8","6","6","7","6","6","7","7","5","7","5","6","1","6","7","3","7","5","6","7","7","5","7","2","7","3","6","6","5","7","6","7","7","5","6","7","2","5","7","6","5","7","7","633792084226080768","林","350","Male","[""好他"",""坏我"",""好我"",""坏他""]","[""强他"",""弱我"",""强我"",""弱他""]","","","","","","","","nonmatch","","","","","","","","","","key","j","16.653365384615498","710.7407909492769","395.92595389514173","j","true","nonmatch","img/ellipse.png","弱我","弱他","prac_ALT2_ability","practice_ability","","","","","","","","",""
"null","<span style='color:GreenYellow; font-size: 70px;'>正确! </span>","null","html-keyboard-response","37","358769","0.0-8.0-1.0-1.0-0.0-1.13","7","5","7","5","6","5","2","5","4","5","4","-1","-2","1","2","0","2","1","2","5","4","5","4","4","5","5","4","5","4","7","8","9","7","8","9","7","8","6","6","7","6","6","7","7","5","7","5","6","1","6","7","3","7","5","6","7","7","5","7","2","7","3","6","6","5","7","6","7","7","5","6","7","2","5","7","6","5","7","7","633792084226080768","林","350","Male","[""好他"",""坏我"",""好我"",""坏他""]","[""强他"",""弱我"",""强我"",""弱他""]","","","","","","","","","","","","","","","","","","","","","","","","","","","","","","feedback_test","","","","","","","","",""
"834","","j","psychophysics","38","360605","0.0-8.0-1.0-1.0-0.0-0.14","7","5","7","5","6","5","2","5","4","5","4","-1","-2","1","2","0","2","1","2","5","4","5","4","4","5","5","4","5","4","7","8","9","7","8","9","7","8","6","6","7","6","6","7","7","5","7","5","6","1","6","7","3","7","5","6","7","7","5","7","2","7","3","6","6","5","7","6","7","7","5","6","7","2","5","7","6","5","7","7","633792084226080768","林","350","Male","[""好他"",""坏我"",""好我"",""坏他""]","[""强他"",""弱我"",""强我"",""弱他""]","","","","","","","","nonmatch","","","","","","","","","","key","j","16.65090825688094","710.7407909492769","395.92595389514173","f","false","match","img/trapezoid.png","强他","强他","prac_ALT2_ability","practice_ability","","","","","","","","",""
"null","<span style='color:red; font-size: 70px;'>错误! </span>","null","html-keyboard-response","39","361107","0.0-8.0-1.0-1.0-0.0-1.14","7","5","7","5","6","5","2","5","4","5","4","-1","-2","1","2","0","2","1","2","5","4","5","4","4","5","5","4","5","4","7","8","9","7","8","9","7","8","6","6","7","6","6","7","7","5","7","5","6","1","6","7","3","7","5","6","7","7","5","7","2","7","3","6","6","5","7","6","7","7","5","6","7","2","5","7","6","5","7","7","633792084226080768","林","350","Male","[""好他"",""坏我"",""好我"",""坏他""]","[""强他"",""弱我"",""强我"",""弱他""]","","","","","","","","","","","","","","","","","","","","","","","","","","","","","","feedback_test","","","","","","","","",""
"989","","j","psychophysics","40","363097","0.0-8.0-1.0-1.0-0.0-0.15","7","5","7","5","6","5","2","5","4","5","4","-1","-2","1","2","0","2","1","2","5","4","5","4","4","5","5","4","5","4","7","8","9","7","8","9","7","8","6","6","7","6","6","7","7","5","7","5","6","1","6","7","3","7","5","6","7","7","5","7","2","7","3","6","6","5","7","6","7","7","5","6","7","2","5","7","6","5","7","7","633792084226080768","林","350","Male","[""好他"",""坏我"",""好我"",""坏他""]","[""强他"",""弱我"",""强我"",""弱他""]","","","","","","","","nonmatch","","","","","","","","","","key","j","16.64937288135584","710.7407909492769","395.92595389514173","j","true","nonmatch","img/pentagon.png","弱他","弱我","prac_ALT2_ability","practice_ability","","","","","","","","",""
"null","<span style='color:GreenYellow; font-size: 70px;'>正确! </span>","null","html-keyboard-response","41","363598","0.0-8.0-1.0-1.0-0.0-1.15","7","5","7","5","6","5","2","5","4","5","4","-1","-2","1","2","0","2","1","2","5","4","5","4","4","5","5","4","5","4","7","8","9","7","8","9","7","8","6","6","7","6","6","7","7","5","7","5","6","1","6","7","3","7","5","6","7","7","5","7","2","7","3","6","6","5","7","6","7","7","5","6","7","2","5","7","6","5","7","7","633792084226080768","林","350","Male","[""好他"",""坏我"",""好我"",""坏他""]","[""强他"",""弱我"",""强我"",""弱他""]","","","","","","","","","","","","","","","","","","","","","","","","","","","","","","feedback_test","","","","","","","","",""
"979","","j","psychophysics","42","365579","0.0-8.0-1.0-1.0-0.0-0.16","7","5","7","5","6","5","2","5","4","5","4","-1","-2","1","2","0","2","1","2","5","4","5","4","4","5","5","4","5","4","7","8","9","7","8","9","7","8","6","6","7","6","6","7","7","5","7","5","6","1","6","7","3","7","5","6","7","7","5","7","2","7","3","6","6","5","7","6","7","7","5","6","7","2","5","7","6","5","7","7","633792084226080768","林","350","Male","[""好他"",""坏我"",""好我"",""坏他""]","[""强他"",""弱我"",""强我"",""弱他""]","","","","","","","","nonmatch","","","","","","","","","","key","j","16.651279661017153","710.7407909492769","395.92595389514173","f","false","match","img/ellipse.png","弱他","弱他","prac_ALT2_ability","practice_ability","","","","","","","","",""
"null","<span style='color:red; font-size: 70px;'>错误! </span>","null","html-keyboard-response","43","366080","0.0-8.0-1.0-1.0-0.0-1.16","7","5","7","5","6","5","2","5","4","5","4","-1","-2","1","2","0","2","1","2","5","4","5","4","4","5","5","4","5","4","7","8","9","7","8","9","7","8","6","6","7","6","6","7","7","5","7","5","6","1","6","7","3","7","5","6","7","7","5","7","2","7","3","6","6","5","7","6","7","7","5","6","7","2","5","7","6","5","7","7","633792084226080768","林","350","Male","[""好他"",""坏我"",""好我"",""坏他""]","[""强他"",""弱我"",""强我"",""弱他""]","","","","","","","","","","","","","","","","","","","","","","","","","","","","","","feedback_test","","","","","","","","",""
"770","","j","psychophysics","44","367852","0.0-8.0-1.0-1.0-0.0-0.17","7","5","7","5","6","5","2","5","4","5","4","-1","-2","1","2","0","2","1","2","5","4","5","4","4","5","5","4","5","4","7","8","9","7","8","9","7","8","6","6","7","6","6","7","7","5","7","5","6","1","6","7","3","7","5","6","7","7","5","7","2","7","3","6","6","5","7","6","7","7","5","6","7","2","5","7","6","5","7","7","633792084226080768","林","350","Male","[""好他"",""坏我"",""好我"",""坏他""]","[""强他"",""弱我"",""强我"",""弱他""]","","","","","","","","nonmatch","","","","","","","","","","key","j","16.653800000000324","710.7407909492769","395.92595389514173","f","false","match","img/trapezoid.png","强他","强他","prac_ALT2_ability","practice_ability","","","","","","","","",""
"null","<span style='color:red; font-size: 70px;'>错误! </span>","null","html-keyboard-response","45","368353","0.0-8.0-1.0-1.0-0.0-1.17","7","5","7","5","6","5","2","5","4","5","4","-1","-2","1","2","0","2","1","2","5","4","5","4","4","5","5","4","5","4","7","8","9","7","8","9","7","8","6","6","7","6","6","7","7","5","7","5","6","1","6","7","3","7","5","6","7","7","5","7","2","7","3","6","6","5","7","6","7","7","5","6","7","2","5","7","6","5","7","7","633792084226080768","林","350","Male","[""好他"",""坏我"",""好我"",""坏他""]","[""强他"",""弱我"",""强我"",""弱他""]","","","","","","","","","","","","","","","","","","","","","","","","","","","","","","feedback_test","","","","","","","","",""
"967","","j","psychophysics","46","370322","0.0-8.0-1.0-1.0-0.0-0.18","7","5","7","5","6","5","2","5","4","5","4","-1","-2","1","2","0","2","1","2","5","4","5","4","4","5","5","4","5","4","7","8","9","7","8","9","7","8","6","6","7","6","6","7","7","5","7","5","6","1","6","7","3","7","5","6","7","7","5","7","2","7","3","6","6","5","7","6","7","7","5","6","7","2","5","7","6","5","7","7","633792084226080768","林","350","Male","[""好他"",""坏我"",""好我"",""坏他""]","[""强他"",""弱我"",""强我"",""弱他""]","","","","","","","","nonmatch","","","","","","","","","","key","j","16.654179487179398","710.7407909492769","395.92595389514173","j","true","nonmatch","img/triangle.png","弱我","强我","prac_ALT2_ability","practice_ability","","","","","","","","",""
"null","<span style='color:GreenYellow; font-size: 70px;'>正确! </span>","null","html-keyboard-response","47","370825","0.0-8.0-1.0-1.0-0.0-1.18","7","5","7","5","6","5","2","5","4","5","4","-1","-2","1","2","0","2","1","2","5","4","5","4","4","5","5","4","5","4","7","8","9","7","8","9","7","8","6","6","7","6","6","7","7","5","7","5","6","1","6","7","3","7","5","6","7","7","5","7","2","7","3","6","6","5","7","6","7","7","5","6","7","2","5","7","6","5","7","7","633792084226080768","林","350","Male","[""好他"",""坏我"",""好我"",""坏他""]","[""强他"",""弱我"",""强我"",""弱他""]","","","","","","","","","","","","","","","","","","","","","","","","","","","","","","feedback_test","","","","","","","","",""
"953","","j","psychophysics","48","372779","0.0-8.0-1.0-1.0-0.0-0.19","7","5","7","5","6","5","2","5","4","5","4","-1","-2","1","2","0","2","1","2","5","4","5","4","4","5","5","4","5","4","7","8","9","7","8","9","7","8","6","6","7","6","6","7","7","5","7","5","6","1","6","7","3","7","5","6","7","7","5","7","2","7","3","6","6","5","7","6","7","7","5","6","7","2","5","7","6","5","7","7","633792084226080768","林","350","Male","[""好他"",""坏我"",""好我"",""坏他""]","[""强他"",""弱我"",""强我"",""弱他""]","","","","","","","","nonmatch","","","","","","","","","","key","j","16.65247413793083","710.7407909492769","395.92595389514173","j","true","nonmatch","img/triangle.png","弱他","强我","prac_ALT2_ability","practice_ability","","","","","","","","",""
"null","<span style='color:GreenYellow; font-size: 70px;'>正确! </span>","null","html-keyboard-response","49","373281","0.0-8.0-1.0-1.0-0.0-1.19","7","5","7","5","6","5","2","5","4","5","4","-1","-2","1","2","0","2","1","2","5","4","5","4","4","5","5","4","5","4","7","8","9","7","8","9","7","8","6","6","7","6","6","7","7","5","7","5","6","1","6","7","3","7","5","6","7","7","5","7","2","7","3","6","6","5","7","6","7","7","5","6","7","2","5","7","6","5","7","7","633792084226080768","林","350","Male","[""好他"",""坏我"",""好我"",""坏他""]","[""强他"",""弱我"",""强我"",""弱他""]","","","","","","","","","","","","","","","","","","","","","","","","","","","","","","feedback_test","","","","","","","","",""
"970","","j","psychophysics","50","375253","0.0-8.0-1.0-1.0-0.0-0.20","7","5","7","5","6","5","2","5","4","5","4","-1","-2","1","2","0","2","1","2","5","4","5","4","4","5","5","4","5","4","7","8","9","7","8","9","7","8","6","6","7","6","6","7","7","5","7","5","6","1","6","7","3","7","5","6","7","7","5","7","2","7","3","6","6","5","7","6","7","7","5","6","7","2","5","7","6","5","7","7","633792084226080768","林","350","Male","[""好他"",""坏我"",""好我"",""坏他""]","[""强他"",""弱我"",""强我"",""弱他""]","","","","","","","","nonmatch","","","","","","","","","","key","j","16.649017094017076","710.7407909492769","395.92595389514173","j","true","nonmatch","img/trapezoid.png","强我","强他","prac_ALT2_ability","practice_ability","","","","","","","","",""
"null","<span style='color:GreenYellow; font-size: 70px;'>正确! </span>","null","html-keyboard-response","51","375754","0.0-8.0-1.0-1.0-0.0-1.20","7","5","7","5","6","5","2","5","4","5","4","-1","-2","1","2","0","2","1","2","5","4","5","4","4","5","5","4","5","4","7","8","9","7","8","9","7","8","6","6","7","6","6","7","7","5","7","5","6","1","6","7","3","7","5","6","7","7","5","7","2","7","3","6","6","5","7","6","7","7","5","6","7","2","5","7","6","5","7","7","633792084226080768","林","350","Male","[""好他"",""坏我"",""好我"",""坏他""]","[""强他"",""弱我"",""强我"",""弱他""]","","","","","","","","","","","","","","","","","","","","","","","","","","","","","","feedback_test","","","","","","","","",""
"682","","f","psychophysics","52","377437","0.0-8.0-1.0-1.0-0.0-0.21","7","5","7","5","6","5","2","5","4","5","4","-1","-2","1","2","0","2","1","2","5","4","5","4","4","5","5","4","5","4","7","8","9","7","8","9","7","8","6","6","7","6","6","7","7","5","7","5","6","1","6","7","3","7","5","6","7","7","5","7","2","7","3","6","6","5","7","6","7","7","5","6","7","2","5","7","6","5","7","7","633792084226080768","林","350","Male","[""好他"",""坏我"",""好我"",""坏他""]","[""强他"",""弱我"",""强我"",""弱他""]","","","","","","","","match","","","","","","","","","","key","f","16.654580000000422","710.7407909492769","395.92595389514173","f","true","match","img/triangle.png","强我","强我","prac_ALT2_ability","practice_ability","","","","","","","","",""
"null","<span style='color:GreenYellow; font-size: 70px;'>正确! </span>","null","html-keyboard-response","53","377938","0.0-8.0-1.0-1.0-0.0-1.21","7","5","7","5","6","5","2","5","4","5","4","-1","-2","1","2","0","2","1","2","5","4","5","4","4","5","5","4","5","4","7","8","9","7","8","9","7","8","6","6","7","6","6","7","7","5","7","5","6","1","6","7","3","7","5","6","7","7","5","7","2","7","3","6","6","5","7","6","7","7","5","6","7","2","5","7","6","5","7","7","633792084226080768","林","350","Male","[""好他"",""坏我"",""好我"",""坏他""]","[""强他"",""弱我"",""强我"",""弱他""]","","","","","","","","","","","","","","","","","","","","","","","","","","","","","","feedback_test","","","","","","","","",""
"783","","f","psychophysics","54","379724","0.0-8.0-1.0-1.0-0.0-0.22","7","5","7","5","6","5","2","5","4","5","4","-1","-2","1","2","0","2","1","2","5","4","5","4","4","5","5","4","5","4","7","8","9","7","8","9","7","8","6","6","7","6","6","7","7","5","7","5","6","1","6","7","3","7","5","6","7","7","5","7","2","7","3","6","6","5","7","6","7","7","5","6","7","2","5","7","6","5","7","7","633792084226080768","林","350","Male","[""好他"",""坏我"",""好我"",""坏他""]","[""强他"",""弱我"",""强我"",""弱他""]","","","","","","","","match","","","","","","","","","","key","f","16.653396226414632","710.7407909492769","395.92595389514173","f","true","match","img/ellipse.png","弱他","弱他","prac_ALT2_ability","practice_ability","","","","","","","","",""
"null","<span style='color:GreenYellow; font-size: 70px;'>正确! </span>","null","html-keyboard-response","55","380226","0.0-8.0-1.0-1.0-0.0-1.22","7","5","7","5","6","5","2","5","4","5","4","-1","-2","1","2","0","2","1","2","5","4","5","4","4","5","5","4","5","4","7","8","9","7","8","9","7","8","6","6","7","6","6","7","7","5","7","5","6","1","6","7","3","7","5","6","7","7","5","7","2","7","3","6","6","5","7","6","7","7","5","6","7","2","5","7","6","5","7","7","633792084226080768","林","350","Male","[""好他"",""坏我"",""好我"",""坏他""]","[""强他"",""弱我"",""强我"",""弱他""]","","","","","","","","","","","","","","","","","","","","","","","","","","","","","","feedback_test","","","","","","","","",""
"733","","f","psychophysics","56","381961","0.0-8.0-1.0-1.0-0.0-0.23","7","5","7","5","6","5","2","5","4","5","4","-1","-2","1","2","0","2","1","2","5","4","5","4","4","5","5","4","5","4","7","8","9","7","8","9","7","8","6","6","7","6","6","7","7","5","7","5","6","1","6","7","3","7","5","6","7","7","5","7","2","7","3","6","6","5","7","6","7","7","5","6","7","2","5","7","6","5","7","7","633792084226080768","林","350","Male","[""好他"",""坏我"",""好我"",""坏他""]","[""强他"",""弱我"",""强我"",""弱他""]","","","","","","","","match","","","","","","","","","","key","f","16.653572815533693","710.7407909492769","395.92595389514173","f","true","match","img/pentagon.png","弱我","弱我","prac_ALT2_ability","practice_ability","","","","","","","","",""
"null","<span style='color:GreenYellow; font-size: 70px;'>正确! </span>","null","html-keyboard-response","57","382464","0.0-8.0-1.0-1.0-0.0-1.23","7","5","7","5","6","5","2","5","4","5","4","-1","-2","1","2","0","2","1","2","5","4","5","4","4","5","5","4","5","4","7","8","9","7","8","9","7","8","6","6","7","6","6","7","7","5","7","5","6","1","6","7","3","7","5","6","7","7","5","7","2","7","3","6","6","5","7","6","7","7","5","6","7","2","5","7","6","5","7","7","633792084226080768","林","350","Male","[""好他"",""坏我"",""好我"",""坏他""]","[""强他"",""弱我"",""强我"",""弱他""]","","","","","","","","","","","","","","","","","","","","","","","","","","","","","","feedback_test","","","","","","","","",""
"736","","f","psychophysics","58","384203","0.0-8.0-1.0-1.0-0.0-0.24","7","5","7","5","6","5","2","5","4","5","4","-1","-2","1","2","0","2","1","2","5","4","5","4","4","5","5","4","5","4","7","8","9","7","8","9","7","8","6","6","7","6","6","7","7","5","7","5","6","1","6","7","3","7","5","6","7","7","5","7","2","7","3","6","6","5","7","6","7","7","5","6","7","2","5","7","6","5","7","7","633792084226080768","林","350","Male","[""好他"",""坏我"",""好我"",""坏他""]","[""强他"",""弱我"",""强我"",""弱他""]","","","","","","","","match","","","","","","","","","","key","f","16.653349514562947","710.7407909492769","395.92595389514173","j","false","nonmatch","img/triangle.png","强他","强我","prac_ALT2_ability","practice_ability","","","","","","","","",""
"null","<span style='color:red; font-size: 70px;'>错误! </span>","null","html-keyboard-response","59","384704","0.0-8.0-1.0-1.0-0.0-1.24","7","5","7","5","6","5","2","5","4","5","4","-1","-2","1","2","0","2","1","2","5","4","5","4","4","5","5","4","5","4","7","8","9","7","8","9","7","8","6","6","7","6","6","7","7","5","7","5","6","1","6","7","3","7","5","6","7","7","5","7","2","7","3","6","6","5","7","6","7","7","5","6","7","2","5","7","6","5","7","7","633792084226080768","林","350","Male","[""好他"",""坏我"",""好我"",""坏他""]","[""强他"",""弱我"",""强我"",""弱他""]","","","","","","","","","","","","","","","","","","","","","","","","","","","","","","feedback_test","","","","","","","","",""
"912","","j","psychophysics","60","386617","0.0-8.0-1.0-1.0-0.0-0.25","7","5","7","5","6","5","2","5","4","5","4","-1","-2","1","2","0","2","1","2","5","4","5","4","4","5","5","4","5","4","7","8","9","7","8","9","7","8","6","6","7","6","6","7","7","5","7","5","6","1","6","7","3","7","5","6","7","7","5","7","2","7","3","6","6","5","7","6","7","7","5","6","7","2","5","7","6","5","7","7","633792084226080768","林","350","Male","[""好他"",""坏我"",""好我"",""坏他""]","[""强他"",""弱我"",""强我"",""弱他""]","","","","","","","","nonmatch","","","","","","","","","","key","j","16.650495575221186","710.7407909492769","395.92595389514173","j","true","nonmatch","img/pentagon.png","弱他","弱我","prac_ALT2_ability","practice_ability","","","","","","","","",""
"null","<span style='color:GreenYellow; font-size: 70px;'>正确! </span>","null","html-keyboard-response","61","387119","0.0-8.0-1.0-1.0-0.0-1.25","7","5","7","5","6","5","2","5","4","5","4","-1","-2","1","2","0","2","1","2","5","4","5","4","4","5","5","4","5","4","7","8","9","7","8","9","7","8","6","6","7","6","6","7","7","5","7","5","6","1","6","7","3","7","5","6","7","7","5","7","2","7","3","6","6","5","7","6","7","7","5","6","7","2","5","7","6","5","7","7","633792084226080768","林","350","Male","[""好他"",""坏我"",""好我"",""坏他""]","[""强他"",""弱我"",""强我"",""弱他""]","","","","","","","","","","","","","","","","","","","","","","","","","","","","","","feedback_test","","","","","","","","",""
"837","","f","psychophysics","62","388958","0.0-8.0-1.0-1.0-0.0-0.26","7","5","7","5","6","5","2","5","4","5","4","-1","-2","1","2","0","2","1","2","5","4","5","4","4","5","5","4","5","4","7","8","9","7","8","9","7","8","6","6","7","6","6","7","7","5","7","5","6","1","6","7","3","7","5","6","7","7","5","7","2","7","3","6","6","5","7","6","7","7","5","6","7","2","5","7","6","5","7","7","633792084226080768","林","350","Male","[""好他"",""坏我"",""好我"",""坏他""]","[""强他"",""弱我"",""强我"",""弱他""]","","","","","","","","match","","","","","","","","","","key","f","16.64407339449566","710.7407909492769","395.92595389514173","f","true","match","img/pentagon.png","弱我","弱我","prac_ALT2_ability","practice_ability","","","","","","","","",""
"null","<span style='color:GreenYellow; font-size: 70px;'>正确! </span>","null","html-keyboard-response","63","389460","0.0-8.0-1.0-1.0-0.0-1.26","7","5","7","5","6","5","2","5","4","5","4","-1","-2","1","2","0","2","1","2","5","4","5","4","4","5","5","4","5","4","7","8","9","7","8","9","7","8","6","6","7","6","6","7","7","5","7","5","6","1","6","7","3","7","5","6","7","7","5","7","2","7","3","6","6","5","7","6","7","7","5","6","7","2","5","7","6","5","7","7","633792084226080768","林","350","Male","[""好他"",""坏我"",""好我"",""坏他""]","[""强他"",""弱我"",""强我"",""弱他""]","","","","","","","","","","","","","","","","","","","","","","","","","","","","","","feedback_test","","","","","","","","",""
"673","","f","psychophysics","64","391134","0.0-8.0-1.0-1.0-0.0-0.27","7","5","7","5","6","5","2","5","4","5","4","-1","-2","1","2","0","2","1","2","5","4","5","4","4","5","5","4","5","4","7","8","9","7","8","9","7","8","6","6","7","6","6","7","7","5","7","5","6","1","6","7","3","7","5","6","7","7","5","7","2","7","3","6","6","5","7","6","7","7","5","6","7","2","5","7","6","5","7","7","633792084226080768","林","350","Male","[""好他"",""坏我"",""好我"",""坏他""]","[""强他"",""弱我"",""强我"",""弱他""]","","","","","","","","match","","","","","","","","","","key","f","16.65205050505065","710.7407909492769","395.92595389514173","f","true","match","img/triangle.png","强我","强我","prac_ALT2_ability","practice_ability","","","","","","","","",""
"null","<span style='color:GreenYellow; font-size: 70px;'>正确! </span>","null","html-keyboard-response","65","391636","0.0-8.0-1.0-1.0-0.0-1.27","7","5","7","5","6","5","2","5","4","5","4","-1","-2","1","2","0","2","1","2","5","4","5","4","4","5","5","4","5","4","7","8","9","7","8","9","7","8","6","6","7","6","6","7","7","5","7","5","6","1","6","7","3","7","5","6","7","7","5","7","2","7","3","6","6","5","7","6","7","7","5","6","7","2","5","7","6","5","7","7","633792084226080768","林","350","Male","[""好他"",""坏我"",""好我"",""坏他""]","[""强他"",""弱我"",""强我"",""弱他""]","","","","","","","","","","","","","","","","","","","","","","","","","","","","","","feedback_test","","","","","","","","",""
"795","","j","psychophysics","66","393433","0.0-8.0-1.0-1.0-0.0-0.28","7","5","7","5","6","5","2","5","4","5","4","-1","-2","1","2","0","2","1","2","5","4","5","4","4","5","5","4","5","4","7","8","9","7","8","9","7","8","6","6","7","6","6","7","7","5","7","5","6","1","6","7","3","7","5","6","7","7","5","7","2","7","3","6","6","5","7","6","7","7","5","6","7","2","5","7","6","5","7","7","633792084226080768","林","350","Male","[""好他"",""坏我"",""好我"",""坏他""]","[""强他"",""弱我"",""强我"",""弱他""]","","","","","","","","nonmatch","","","","","","","","","","key","j","16.65281132075448","710.7407909492769","395.92595389514173","j","true","nonmatch","img/triangle.png","弱我","强我","prac_ALT2_ability","practice_ability","","","","","","","","",""
"null","<span style='color:GreenYellow; font-size: 70px;'>正确! </span>","null","html-keyboard-response","67","393935","0.0-8.0-1.0-1.0-0.0-1.28","7","5","7","5","6","5","2","5","4","5","4","-1","-2","1","2","0","2","1","2","5","4","5","4","4","5","5","4","5","4","7","8","9","7","8","9","7","8","6","6","7","6","6","7","7","5","7","5","6","1","6","7","3","7","5","6","7","7","5","7","2","7","3","6","6","5","7","6","7","7","5","6","7","2","5","7","6","5","7","7","633792084226080768","林","350","Male","[""好他"",""坏我"",""好我"",""坏他""]","[""强他"",""弱我"",""强我"",""弱他""]","","","","","","","","","","","","","","","","","","","","","","","","","","","","","","feedback_test","","","","","","","","",""
"694","","f","psychophysics","68","395630","0.0-8.0-1.0-1.0-0.0-0.29","7","5","7","5","6","5","2","5","4","5","4","-1","-2","1","2","0","2","1","2","5","4","5","4","4","5","5","4","5","4","7","8","9","7","8","9","7","8","6","6","7","6","6","7","7","5","7","5","6","1","6","7","3","7","5","6","7","7","5","7","2","7","3","6","6","5","7","6","7","7","5","6","7","2","5","7","6","5","7","7","633792084226080768","林","350","Male","[""好他"",""坏我"",""好我"",""坏他""]","[""强他"",""弱我"",""强我"",""弱他""]","","","","","","","","match","","","","","","","","","","key","f","16.653969999999973","710.7407909492769","395.92595389514173","f","true","match","img/pentagon.png","弱我","弱我","prac_ALT2_ability","practice_ability","","","","","","","","",""
"null","<span style='color:GreenYellow; font-size: 70px;'>正确! </span>","null","html-keyboard-response","69","396134","0.0-8.0-1.0-1.0-0.0-1.29","7","5","7","5","6","5","2","5","4","5","4","-1","-2","1","2","0","2","1","2","5","4","5","4","4","5","5","4","5","4","7","8","9","7","8","9","7","8","6","6","7","6","6","7","7","5","7","5","6","1","6","7","3","7","5","6","7","7","5","7","2","7","3","6","6","5","7","6","7","7","5","6","7","2","5","7","6","5","7","7","633792084226080768","林","350","Male","[""好他"",""坏我"",""好我"",""坏他""]","[""强他"",""弱我"",""强我"",""弱他""]","","","","","","","","","","","","","","","","","","","","","","","","","","","","","","feedback_test","","","","","","","","",""
"889","","j","psychophysics","70","398024","0.0-8.0-1.0-1.0-0.0-0.30","7","5","7","5","6","5","2","5","4","5","4","-1","-2","1","2","0","2","1","2","5","4","5","4","4","5","5","4","5","4","7","8","9","7","8","9","7","8","6","6","7","6","6","7","7","5","7","5","6","1","6","7","3","7","5","6","7","7","5","7","2","7","3","6","6","5","7","6","7","7","5","6","7","2","5","7","6","5","7","7","633792084226080768","林","350","Male","[""好他"",""坏我"",""好我"",""坏他""]","[""强他"",""弱我"",""强我"",""弱他""]","","","","","","","","nonmatch","","","","","","","","","","key","j","16.653928571428487","710.7407909492769","395.92595389514173","f","false","match","img/ellipse.png","弱他","弱他","prac_ALT2_ability","practice_ability","","","","","","","","",""
"null","<span style='color:red; font-size: 70px;'>错误! </span>","null","html-keyboard-response","71","398525","0.0-8.0-1.0-1.0-0.0-1.30","7","5","7","5","6","5","2","5","4","5","4","-1","-2","1","2","0","2","1","2","5","4","5","4","4","5","5","4","5","4","7","8","9","7","8","9","7","8","6","6","7","6","6","7","7","5","7","5","6","1","6","7","3","7","5","6","7","7","5","7","2","7","3","6","6","5","7","6","7","7","5","6","7","2","5","7","6","5","7","7","633792084226080768","林","350","Male","[""好他"",""坏我"",""好我"",""坏他""]","[""强他"",""弱我"",""强我"",""弱他""]","","","","","","","","","","","","","","","","","","","","","","","","","","","","","","feedback_test","","","","","","","","",""
"782","","f","psychophysics","72","400309","0.0-8.0-1.0-1.0-0.0-0.31","7","5","7","5","6","5","2","5","4","5","4","-1","-2","1","2","0","2","1","2","5","4","5","4","4","5","5","4","5","4","7","8","9","7","8","9","7","8","6","6","7","6","6","7","7","5","7","5","6","1","6","7","3","7","5","6","7","7","5","7","2","7","3","6","6","5","7","6","7","7","5","6","7","2","5","7","6","5","7","7","633792084226080768","林","350","Male","[""好他"",""坏我"",""好我"",""坏他""]","[""强他"",""弱我"",""强我"",""弱他""]","","","","","","","","match","","","","","","","","","","key","f","16.654254716980812","710.7407909492769","395.92595389514173","f","true","match","img/ellipse.png","弱他","弱他","prac_ALT2_ability","practice_ability","","","","","","","","",""
"null","<span style='color:GreenYellow; font-size: 70px;'>正确! </span>","null","html-keyboard-response","73","400811","0.0-8.0-1.0-1.0-0.0-1.31","7","5","7","5","6","5","2","5","4","5","4","-1","-2","1","2","0","2","1","2","5","4","5","4","4","5","5","4","5","4","7","8","9","7","8","9","7","8","6","6","7","6","6","7","7","5","7","5","6","1","6","7","3","7","5","6","7","7","5","7","2","7","3","6","6","5","7","6","7","7","5","6","7","2","5","7","6","5","7","7","633792084226080768","林","350","Male","[""好他"",""坏我"",""好我"",""坏他""]","[""强他"",""弱我"",""强我"",""弱他""]","","","","","","","","","","","","","","","","","","","","","","","","","","","","","","feedback_test","","","","","","","","",""
"778","","f","psychophysics","74","402592","0.0-8.0-1.0-1.0-0.0-0.32","7","5","7","5","6","5","2","5","4","5","4","-1","-2","1","2","0","2","1","2","5","4","5","4","4","5","5","4","5","4","7","8","9","7","8","9","7","8","6","6","7","6","6","7","7","5","7","5","6","1","6","7","3","7","5","6","7","7","5","7","2","7","3","6","6","5","7","6","7","7","5","6","7","2","5","7","6","5","7","7","633792084226080768","林","350","Male","[""好他"",""坏我"",""好我"",""坏他""]","[""强他"",""弱我"",""强我"",""弱他""]","","","","","","","","match","","","","","","","","","","key","f","16.653628571428513","710.7407909492769","395.92595389514173","f","true","match","img/trapezoid.png","强他","强他","prac_ALT2_ability","practice_ability","","","","","","","","",""
"null","<span style='color:GreenYellow; font-size: 70px;'>正确! </span>","null","html-keyboard-response","75","403094","0.0-8.0-1.0-1.0-0.0-1.32","7","5","7","5","6","5","2","5","4","5","4","-1","-2","1","2","0","2","1","2","5","4","5","4","4","5","5","4","5","4","7","8","9","7","8","9","7","8","6","6","7","6","6","7","7","5","7","5","6","1","6","7","3","7","5","6","7","7","5","7","2","7","3","6","6","5","7","6","7","7","5","6","7","2","5","7","6","5","7","7","633792084226080768","林","350","Male","[""好他"",""坏我"",""好我"",""坏他""]","[""强他"",""弱我"",""强我"",""弱他""]","","","","","","","","","","","","","","","","","","","","","","","","","","","","","","feedback_test","","","","","","","","",""
"778","","j","psychophysics","76","404875","0.0-8.0-1.0-1.0-0.0-0.33","7","5","7","5","6","5","2","5","4","5","4","-1","-2","1","2","0","2","1","2","5","4","5","4","4","5","5","4","5","4","7","8","9","7","8","9","7","8","6","6","7","6","6","7","7","5","7","5","6","1","6","7","3","7","5","6","7","7","5","7","2","7","3","6","6","5","7","6","7","7","5","6","7","2","5","7","6","5","7","7","633792084226080768","林","350","Male","[""好他"",""坏我"",""好我"",""坏他""]","[""强他"",""弱我"",""强我"",""弱他""]","","","","","","","","nonmatch","","","","","","","","","","key","j","16.65338679245247","710.7407909492769","395.92595389514173","j","true","nonmatch","img/trapezoid.png","弱我","强他","prac_ALT2_ability","practice_ability","","","","","","","","",""
"null","<span style='color:GreenYellow; font-size: 70px;'>正确! </span>","null","html-keyboard-response","77","405377","0.0-8.0-1.0-1.0-0.0-1.33","7","5","7","5","6","5","2","5","4","5","4","-1","-2","1","2","0","2","1","2","5","4","5","4","4","5","5","4","5","4","7","8","9","7","8","9","7","8","6","6","7","6","6","7","7","5","7","5","6","1","6","7","3","7","5","6","7","7","5","7","2","7","3","6","6","5","7","6","7","7","5","6","7","2","5","7","6","5","7","7","633792084226080768","林","350","Male","[""好他"",""坏我"",""好我"",""坏他""]","[""强他"",""弱我"",""强我"",""弱他""]","","","","","","","","","","","","","","","","","","","","","","","","","","","","","","feedback_test","","","","","","","","",""
"862","","j","psychophysics","78","407240","0.0-8.0-1.0-1.0-0.0-0.34","7","5","7","5","6","5","2","5","4","5","4","-1","-2","1","2","0","2","1","2","5","4","5","4","4","5","5","4","5","4","7","8","9","7","8","9","7","8","6","6","7","6","6","7","7","5","7","5","6","1","6","7","3","7","5","6","7","7","5","7","2","7","3","6","6","5","7","6","7","7","5","6","7","2","5","7","6","5","7","7","633792084226080768","林","350","Male","[""好他"",""坏我"",""好我"",""坏他""]","[""强他"",""弱我"",""强我"",""弱他""]","","","","","","","","nonmatch","","","","","","","","","","key","j","16.652459459459024","710.7407909492769","395.92595389514173","j","true","nonmatch","img/ellipse.png","弱我","弱他","prac_ALT2_ability","practice_ability","","","","","","","","",""
"null","<span style='color:GreenYellow; font-size: 70px;'>正确! </span>","null","html-keyboard-response","79","407741","0.0-8.0-1.0-1.0-0.0-1.34","7","5","7","5","6","5","2","5","4","5","4","-1","-2","1","2","0","2","1","2","5","4","5","4","4","5","5","4","5","4","7","8","9","7","8","9","7","8","6","6","7","6","6","7","7","5","7","5","6","1","6","7","3","7","5","6","7","7","5","7","2","7","3","6","6","5","7","6","7","7","5","6","7","2","5","7","6","5","7","7","633792084226080768","林","350","Male","[""好他"",""坏我"",""好我"",""坏他""]","[""强他"",""弱我"",""强我"",""弱他""]","","","","","","","","","","","","","","","","","","","","","","","","","","","","","","feedback_test","","","","","","","","",""
"795","","f","psychophysics","80","409538","0.0-8.0-1.0-1.0-0.0-0.35","7","5","7","5","6","5","2","5","4","5","4","-1","-2","1","2","0","2","1","2","5","4","5","4","4","5","5","4","5","4","7","8","9","7","8","9","7","8","6","6","7","6","6","7","7","5","7","5","6","1","6","7","3","7","5","6","7","7","5","7","2","7","3","6","6","5","7","6","7","7","5","6","7","2","5","7","6","5","7","7","633792084226080768","林","350","Male","[""好他"",""坏我"",""好我"",""坏他""]","[""强他"",""弱我"",""强我"",""弱他""]","","","","","","","","match","","","","","","","","","","key","f","16.65336448598107","710.7407909492769","395.92595389514173","f","true","match","img/pentagon.png","弱我","弱我","prac_ALT2_ability","practice_ability","","","","","","","","",""
"null","<span style='color:GreenYellow; font-size: 70px;'>正确! </span>","null","html-keyboard-response","81","410042","0.0-8.0-1.0-1.0-0.0-1.35","7","5","7","5","6","5","2","5","4","5","4","-1","-2","1","2","0","2","1","2","5","4","5","4","4","5","5","4","5","4","7","8","9","7","8","9","7","8","6","6","7","6","6","7","7","5","7","5","6","1","6","7","3","7","5","6","7","7","5","7","2","7","3","6","6","5","7","6","7","7","5","6","7","2","5","7","6","5","7","7","633792084226080768","林","350","Male","[""好他"",""坏我"",""好我"",""坏他""]","[""强他"",""弱我"",""强我"",""弱他""]","","","","","","","","","","","","","","","","","","","","","","","","","","","","","","feedback_test","","","","","","","","",""
"817","","j","psychophysics","82","411861","0.0-8.0-1.0-1.0-0.0-0.36","7","5","7","5","6","5","2","5","4","5","4","-1","-2","1","2","0","2","1","2","5","4","5","4","4","5","5","4","5","4","7","8","9","7","8","9","7","8","6","6","7","6","6","7","7","5","7","5","6","1","6","7","3","7","5","6","7","7","5","7","2","7","3","6","6","5","7","6","7","7","5","6","7","2","5","7","6","5","7","7","633792084226080768","林","350","Male","[""好他"",""坏我"",""好我"",""坏他""]","[""强他"",""弱我"",""强我"",""弱他""]","","","","","","","","nonmatch","","","","","","","","","","key","j","16.654712962963256","710.7407909492769","395.92595389514173","j","true","nonmatch","img/triangle.png","弱他","强我","prac_ALT2_ability","practice_ability","","","","","","","","",""
"null","<span style='color:GreenYellow; font-size: 70px;'>正确! </span>","null","html-keyboard-response","83","412369","0.0-8.0-1.0-1.0-0.0-1.36","7","5","7","5","6","5","2","5","4","5","4","-1","-2","1","2","0","2","1","2","5","4","5","4","4","5","5","4","5","4","7","8","9","7","8","9","7","8","6","6","7","6","6","7","7","5","7","5","6","1","6","7","3","7","5","6","7","7","5","7","2","7","3","6","6","5","7","6","7","7","5","6","7","2","5","7","6","5","7","7","633792084226080768","林","350","Male","[""好他"",""坏我"",""好我"",""坏他""]","[""强他"",""弱我"",""强我"",""弱他""]","","","","","","","","","","","","","","","","","","","","","","","","","","","","","","feedback_test","","","","","","","","",""
"883","","j","psychophysics","84","414254","0.0-8.0-1.0-1.0-0.0-0.37","7","5","7","5","6","5","2","5","4","5","4","-1","-2","1","2","0","2","1","2","5","4","5","4","4","5","5","4","5","4","7","8","9","7","8","9","7","8","6","6","7","6","6","7","7","5","7","5","6","1","6","7","3","7","5","6","7","7","5","7","2","7","3","6","6","5","7","6","7","7","5","6","7","2","5","7","6","5","7","7","633792084226080768","林","350","Male","[""好他"",""坏我"",""好我"",""坏他""]","[""强他"",""弱我"",""强我"",""弱他""]","","","","","","","","nonmatch","","","","","","","","","","key","j","16.653357142857462","710.7407909492769","395.92595389514173","j","true","nonmatch","img/ellipse.png","强他","弱他","prac_ALT2_ability","practice_ability","","","","","","","","",""
"null","<span style='color:GreenYellow; font-size: 70px;'>正确! </span>","null","html-keyboard-response","85","414756","0.0-8.0-1.0-1.0-0.0-1.37","7","5","7","5","6","5","2","5","4","5","4","-1","-2","1","2","0","2","1","2","5","4","5","4","4","5","5","4","5","4","7","8","9","7","8","9","7","8","6","6","7","6","6","7","7","5","7","5","6","1","6","7","3","7","5","6","7","7","5","7","2","7","3","6","6","5","7","6","7","7","5","6","7","2","5","7","6","5","7","7","633792084226080768","林","350","Male","[""好他"",""坏我"",""好我"",""坏他""]","[""强他"",""弱我"",""强我"",""弱他""]","","","","","","","","","","","","","","","","","","","","","","","","","","","","","","feedback_test","","","","","","","","",""
"744","","f","psychophysics","86","416502","0.0-8.0-1.0-1.0-0.0-0.38","7","5","7","5","6","5","2","5","4","5","4","-1","-2","1","2","0","2","1","2","5","4","5","4","4","5","5","4","5","4","7","8","9","7","8","9","7","8","6","6","7","6","6","7","7","5","7","5","6","1","6","7","3","7","5","6","7","7","5","7","2","7","3","6","6","5","7","6","7","7","5","6","7","2","5","7","6","5","7","7","633792084226080768","林","350","Male","[""好他"",""坏我"",""好我"",""坏他""]","[""强他"",""弱我"",""强我"",""弱他""]","","","","","","","","match","","","","","","","","","","key","f","16.650528846154113","710.7407909492769","395.92595389514173","f","true","match","img/ellipse.png","弱他","弱他","prac_ALT2_ability","practice_ability","","","","","","","","",""
"null","<span style='color:GreenYellow; font-size: 70px;'>正确! </span>","null","html-keyboard-response","87","417018","0.0-8.0-1.0-1.0-0.0-1.38","7","5","7","5","6","5","2","5","4","5","4","-1","-2","1","2","0","2","1","2","5","4","5","4","4","5","5","4","5","4","7","8","9","7","8","9","7","8","6","6","7","6","6","7","7","5","7","5","6","1","6","7","3","7","5","6","7","7","5","7","2","7","3","6","6","5","7","6","7","7","5","6","7","2","5","7","6","5","7","7","633792084226080768","林","350","Male","[""好他"",""坏我"",""好我"",""坏他""]","[""强他"",""弱我"",""强我"",""弱他""]","","","","","","","","","","","","","","","","","","","","","","","","","","","","","","feedback_test","","","","","","","","",""
"957","","j","psychophysics","88","418976","0.0-8.0-1.0-1.0-0.0-0.39","7","5","7","5","6","5","2","5","4","5","4","-1","-2","1","2","0","2","1","2","5","4","5","4","4","5","5","4","5","4","7","8","9","7","8","9","7","8","6","6","7","6","6","7","7","5","7","5","6","1","6","7","3","7","5","6","7","7","5","7","2","7","3","6","6","5","7","6","7","7","5","6","7","2","5","7","6","5","7","7","633792084226080768","林","350","Male","[""好他"",""坏我"",""好我"",""坏他""]","[""强他"",""弱我"",""强我"",""弱他""]","","","","","","","","nonmatch","","","","","","","","","","key","j","16.653379310344963","710.7407909492769","395.92595389514173","j","true","nonmatch","img/pentagon.png","强我","弱我","prac_ALT2_ability","practice_ability","","","","","","","","",""
"null","<span style='color:GreenYellow; font-size: 70px;'>正确! </span>","null","html-keyboard-response","89","419478","0.0-8.0-1.0-1.0-0.0-1.39","7","5","7","5","6","5","2","5","4","5","4","-1","-2","1","2","0","2","1","2","5","4","5","4","4","5","5","4","5","4","7","8","9","7","8","9","7","8","6","6","7","6","6","7","7","5","7","5","6","1","6","7","3","7","5","6","7","7","5","7","2","7","3","6","6","5","7","6","7","7","5","6","7","2","5","7","6","5","7","7","633792084226080768","林","350","Male","[""好他"",""坏我"",""好我"",""坏他""]","[""强他"",""弱我"",""强我"",""弱他""]","","","","","","","","","","","","","","","","","","","","","","","","","","","","","","feedback_test","","","","","","","","",""
"988","","j","psychophysics","90","421468","0.0-8.0-1.0-1.0-0.0-0.40","7","5","7","5","6","5","2","5","4","5","4","-1","-2","1","2","0","2","1","2","5","4","5","4","4","5","5","4","5","4","7","8","9","7","8","9","7","8","6","6","7","6","6","7","7","5","7","5","6","1","6","7","3","7","5","6","7","7","5","7","2","7","3","6","6","5","7","6","7","7","5","6","7","2","5","7","6","5","7","7","633792084226080768","林","350","Male","[""好他"",""坏我"",""好我"",""坏他""]","[""强他"",""弱我"",""强我"",""弱他""]","","","","","","","","nonmatch","","","","","","","","","","key","j","16.652220338983046","710.7407909492769","395.92595389514173","j","true","nonmatch","img/pentagon.png","强他","弱我","prac_ALT2_ability","practice_ability","","","","","","","","",""
"null","<span style='color:GreenYellow; font-size: 70px;'>正确! </span>","null","html-keyboard-response","91","421968","0.0-8.0-1.0-1.0-0.0-1.40","7","5","7","5","6","5","2","5","4","5","4","-1","-2","1","2","0","2","1","2","5","4","5","4","4","5","5","4","5","4","7","8","9","7","8","9","7","8","6","6","7","6","6","7","7","5","7","5","6","1","6","7","3","7","5","6","7","7","5","7","2","7","3","6","6","5","7","6","7","7","5","6","7","2","5","7","6","5","7","7","633792084226080768","林","350","Male","[""好他"",""坏我"",""好我"",""坏他""]","[""强他"",""弱我"",""强我"",""弱他""]","","","","","","","","","","","","","","","","","","","","","","","","","","","","","","feedback_test","","","","","","","","",""
"720","","j","psychophysics","92","423689","0.0-8.0-1.0-1.0-0.0-0.41","7","5","7","5","6","5","2","5","4","5","4","-1","-2","1","2","0","2","1","2","5","4","5","4","4","5","5","4","5","4","7","8","9","7","8","9","7","8","6","6","7","6","6","7","7","5","7","5","6","1","6","7","3","7","5","6","7","7","5","7","2","7","3","6","6","5","7","6","7","7","5","6","7","2","5","7","6","5","7","7","633792084226080768","林","350","Male","[""好他"",""坏我"",""好我"",""坏他""]","[""强他"",""弱我"",""强我"",""弱他""]","","","","","","","","nonmatch","","","","","","","","","","key","j","16.65027450980429","710.7407909492769","395.92595389514173","j","true","nonmatch","img/ellipse.png","强我","弱他","prac_ALT2_ability","practice_ability","","","","","","","","",""
"null","<span style='color:GreenYellow; font-size: 70px;'>正确! </span>","null","html-keyboard-response","93","424191","0.0-8.0-1.0-1.0-0.0-1.41","7","5","7","5","6","5","2","5","4","5","4","-1","-2","1","2","0","2","1","2","5","4","5","4","4","5","5","4","5","4","7","8","9","7","8","9","7","8","6","6","7","6","6","7","7","5","7","5","6","1","6","7","3","7","5","6","7","7","5","7","2","7","3","6","6","5","7","6","7","7","5","6","7","2","5","7","6","5","7","7","633792084226080768","林","350","Male","[""好他"",""坏我"",""好我"",""坏他""]","[""强他"",""弱我"",""强我"",""弱他""]","","","","","","","","","","","","","","","","","","","","","","","","","","","","","","feedback_test","","","","","","","","",""
"697","","f","psychophysics","94","425892","0.0-8.0-1.0-1.0-0.0-0.42","7","5","7","5","6","5","2","5","4","5","4","-1","-2","1","2","0","2","1","2","5","4","5","4","4","5","5","4","5","4","7","8","9","7","8","9","7","8","6","6","7","6","6","7","7","5","7","5","6","1","6","7","3","7","5","6","7","7","5","7","2","7","3","6","6","5","7","6","7","7","5","6","7","2","5","7","6","5","7","7","633792084226080768","林","350","Male","[""好他"",""坏我"",""好我"",""坏他""]","[""强他"",""弱我"",""强我"",""弱他""]","","","","","","","","match","","","","","","","","","","key","f","16.653712871286782","710.7407909492769","395.92595389514173","f","true","match","img/trapezoid.png","强他","强他","prac_ALT2_ability","practice_ability","","","","","","","","",""
"null","<span style='color:GreenYellow; font-size: 70px;'>正确! </span>","null","html-keyboard-response","95","426393","0.0-8.0-1.0-1.0-0.0-1.42","7","5","7","5","6","5","2","5","4","5","4","-1","-2","1","2","0","2","1","2","5","4","5","4","4","5","5","4","5","4","7","8","9","7","8","9","7","8","6","6","7","6","6","7","7","5","7","5","6","1","6","7","3","7","5","6","7","7","5","7","2","7","3","6","6","5","7","6","7","7","5","6","7","2","5","7","6","5","7","7","633792084226080768","林","350","Male","[""好他"",""坏我"",""好我"",""坏他""]","[""强他"",""弱我"",""强我"",""弱他""]","","","","","","","","","","","","","","","","","","","","","","","","","","","","","","feedback_test","","","","","","","","",""
"1108","","j","psychophysics","96","428503","0.0-8.0-1.0-1.0-0.0-0.43","7","5","7","5","6","5","2","5","4","5","4","-1","-2","1","2","0","2","1","2","5","4","5","4","4","5","5","4","5","4","7","8","9","7","8","9","7","8","6","6","7","6","6","7","7","5","7","5","6","1","6","7","3","7","5","6","7","7","5","7","2","7","3","6","6","5","7","6","7","7","5","6","7","2","5","7","6","5","7","7","633792084226080768","林","350","Male","[""好他"",""坏我"",""好我"",""坏他""]","[""强他"",""弱我"",""强我"",""弱他""]","","","","","","","","nonmatch","","","","","","","","","","key","j","16.653560000000056","710.7407909492769","395.92595389514173","j","true","nonmatch","img/trapezoid.png","强我","强他","prac_ALT2_ability","practice_ability","","","","","","","","",""
"null","<span style='color:GreenYellow; font-size: 70px;'>正确! </span>","null","html-keyboard-response","97","429005","0.0-8.0-1.0-1.0-0.0-1.43","7","5","7","5","6","5","2","5","4","5","4","-1","-2","1","2","0","2","1","2","5","4","5","4","4","5","5","4","5","4","7","8","9","7","8","9","7","8","6","6","7","6","6","7","7","5","7","5","6","1","6","7","3","7","5","6","7","7","5","7","2","7","3","6","6","5","7","6","7","7","5","6","7","2","5","7","6","5","7","7","633792084226080768","林","350","Male","[""好他"",""坏我"",""好我"",""坏他""]","[""强他"",""弱我"",""强我"",""弱他""]","","","","","","","","","","","","","","","","","","","","","","","","","","","","","","feedback_test","","","","","","","","",""
"690","","f","psychophysics","98","430698","0.0-8.0-1.0-1.0-0.0-0.44","7","5","7","5","6","5","2","5","4","5","4","-1","-2","1","2","0","2","1","2","5","4","5","4","4","5","5","4","5","4","7","8","9","7","8","9","7","8","6","6","7","6","6","7","7","5","7","5","6","1","6","7","3","7","5","6","7","7","5","7","2","7","3","6","6","5","7","6","7","7","5","6","7","2","5","7","6","5","7","7","633792084226080768","林","350","Male","[""好他"",""坏我"",""好我"",""坏他""]","[""强他"",""弱我"",""强我"",""弱他""]","","","","","","","","match","","","","","","","","","","key","f","16.655190000000292","710.7407909492769","395.92595389514173","f","true","match","img/trapezoid.png","强他","强他","prac_ALT2_ability","practice_ability","","","","","","","","",""
"null","<span style='color:GreenYellow; font-size: 70px;'>正确! </span>","null","html-keyboard-response","99","431198","0.0-8.0-1.0-1.0-0.0-1.44","7","5","7","5","6","5","2","5","4","5","4","-1","-2","1","2","0","2","1","2","5","4","5","4","4","5","5","4","5","4","7","8","9","7","8","9","7","8","6","6","7","6","6","7","7","5","7","5","6","1","6","7","3","7","5","6","7","7","5","7","2","7","3","6","6","5","7","6","7","7","5","6","7","2","5","7","6","5","7","7","633792084226080768","林","350","Male","[""好他"",""坏我"",""好我"",""坏他""]","[""强他"",""弱我"",""强我"",""弱他""]","","","","","","","","","","","","","","","","","","","","","","","","","","","","","","feedback_test","","","","","","","","",""
"878","","f","psychophysics","100","433080","0.0-8.0-1.0-1.0-0.0-0.45","7","5","7","5","6","5","2","5","4","5","4","-1","-2","1","2","0","2","1","2","5","4","5","4","4","5","5","4","5","4","7","8","9","7","8","9","7","8","6","6","7","6","6","7","7","5","7","5","6","1","6","7","3","7","5","6","7","7","5","7","2","7","3","6","6","5","7","6","7","7","5","6","7","2","5","7","6","5","7","7","633792084226080768","林","350","Male","[""好他"",""坏我"",""好我"",""坏他""]","[""强他"",""弱我"",""强我"",""弱他""]","","","","","","","","match","","","","","","","","","","key","f","16.653660714285383","710.7407909492769","395.92595389514173","f","true","match","img/triangle.png","强我","强我","prac_ALT2_ability","practice_ability","","","","","","","","",""
"null","<span style='color:GreenYellow; font-size: 70px;'>正确! </span>","null","html-keyboard-response","101","433581","0.0-8.0-1.0-1.0-0.0-1.45","7","5","7","5","6","5","2","5","4","5","4","-1","-2","1","2","0","2","1","2","5","4","5","4","4","5","5","4","5","4","7","8","9","7","8","9","7","8","6","6","7","6","6","7","7","5","7","5","6","1","6","7","3","7","5","6","7","7","5","7","2","7","3","6","6","5","7","6","7","7","5","6","7","2","5","7","6","5","7","7","633792084226080768","林","350","Male","[""好他"",""坏我"",""好我"",""坏他""]","[""强他"",""弱我"",""强我"",""弱他""]","","","","","","","","","","","","","","","","","","","","","","","","","","","","","","feedback_test","","","","","","","","",""
"789","","j","psychophysics","102","435373","0.0-8.0-1.0-1.0-0.0-0.46","7","5","7","5","6","5","2","5","4","5","4","-1","-2","1","2","0","2","1","2","5","4","5","4","4","5","5","4","5","4","7","8","9","7","8","9","7","8","6","6","7","6","6","7","7","5","7","5","6","1","6","7","3","7","5","6","7","7","5","7","2","7","3","6","6","5","7","6","7","7","5","6","7","2","5","7","6","5","7","7","633792084226080768","林","350","Male","[""好他"",""坏我"",""好我"",""坏他""]","[""强他"",""弱我"",""强我"",""弱他""]","","","","","","","","nonmatch","","","","","","","","","","key","j","16.650462264150605","710.7407909492769","395.92595389514173","j","true","nonmatch","img/trapezoid.png","弱他","强他","prac_ALT2_ability","practice_ability","","","","","","","","",""
"null","<span style='color:GreenYellow; font-size: 70px;'>正确! </span>","null","html-keyboard-response","103","435875","0.0-8.0-1.0-1.0-0.0-1.46","7","5","7","5","6","5","2","5","4","5","4","-1","-2","1","2","0","2","1","2","5","4","5","4","4","5","5","4","5","4","7","8","9","7","8","9","7","8","6","6","7","6","6","7","7","5","7","5","6","1","6","7","3","7","5","6","7","7","5","7","2","7","3","6","6","5","7","6","7","7","5","6","7","2","5","7","6","5","7","7","633792084226080768","林","350","Male","[""好他"",""坏我"",""好我"",""坏他""]","[""强他"",""弱我"",""强我"",""弱他""]","","","","","","","","","","","","","","","","","","","","","","","","","","","","","","feedback_test","","","","","","","","",""
"815","","f","psychophysics","104","437692","0.0-8.0-1.0-1.0-0.0-0.47","7","5","7","5","6","5","2","5","4","5","4","-1","-2","1","2","0","2","1","2","5","4","5","4","4","5","5","4","5","4","7","8","9","7","8","9","7","8","6","6","7","6","6","7","7","5","7","5","6","1","6","7","3","7","5","6","7","7","5","7","2","7","3","6","6","5","7","6","7","7","5","6","7","2","5","7","6","5","7","7","633792084226080768","林","350","Male","[""好他"",""坏我"",""好我"",""坏他""]","[""强他"",""弱我"",""强我"",""弱他""]","","","","","","","","match","","","","","","","","","","key","f","16.65453703703706","710.7407909492769","395.92595389514173","f","true","match","img/triangle.png","强我","强我","prac_ALT2_ability","practice_ability","","","","","","","","",""
"null","<span style='color:GreenYellow; font-size: 70px;'>正确! </span>","null","html-keyboard-response","105","438193","0.0-8.0-1.0-1.0-0.0-1.47","7","5","7","5","6","5","2","5","4","5","4","-1","-2","1","2","0","2","1","2","5","4","5","4","4","5","5","4","5","4","7","8","9","7","8","9","7","8","6","6","7","6","6","7","7","5","7","5","6","1","6","7","3","7","5","6","7","7","5","7","2","7","3","6","6","5","7","6","7","7","5","6","7","2","5","7","6","5","7","7","633792084226080768","林","350","Male","[""好他"",""坏我"",""好我"",""坏他""]","[""强他"",""弱我"",""强我"",""弱他""]","","","","","","","","","","","","","","","","","","","","","","","","","","","","","","feedback_test","","","","","","","","",""
"1365","<style>.context{color:white; font-size: 35px; line-height:40px}</style>                          <div><p class='context'>您正确回答了90% 的试次。</p><p class='context'>您的平均反应时为831毫秒。</p><p class='context'>恭喜您完成练习。按空格键进入正式实验。</p><p class='footer' style='color:white;font-size: 35px; line-height:40px;'>请在进入正式实验实验之前将您的<span style='color: lightgreen;'>食指</span>放在电脑键盘的相应键位上进行按键。</p>"," ","html-keyboard-response","106","439562","0.0-8.0-1.0-2.0","7","5","7","5","6","5","2","5","4","5","4","-1","-2","1","2","0","2","1","2","5","4","5","4","4","5","5","4","5","4","7","8","9","7","8","9","7","8","6","6","7","6","6","7","7","5","7","5","6","1","6","7","3","7","5","6","7","7","5","7","2","7","3","6","6","5","7","6","7","7","5","6","7","2","5","7","6","5","7","7","633792084226080768","林","350","Male","[""好他"",""坏我"",""好我"",""坏他""]","[""强他"",""弱我"",""强我"",""弱他""]","","","","","","","","","","","","","","","","","","","","","","","","","","","","","","","","","","","","","","",""
"436","
  <p style='color: white; font-size: 22px'>请您将手指放在按键上，准备进入正式的匹配任务。</p>
  <p> <div style = ""color: green""><按空格键进入下一阶段的匹配任务></div></p>
  "," ","html-keyboard-response","107","440004","0.0-8.0-1.0-3.0","7","5","7","5","6","5","2","5","4","5","4","-1","-2","1","2","0","2","1","2","5","4","5","4","4","5","5","4","5","4","7","8","9","7","8","9","7","8","6","6","7","6","6","7","7","5","7","5","6","1","6","7","3","7","5","6","7","7","5","7","2","7","3","6","6","5","7","6","7","7","5","6","7","2","5","7","6","5","7","7","633792084226080768","林","350","Male","[""好他"",""坏我"",""好我"",""坏他""]","[""强他"",""弱我"",""强我"",""弱他""]","","","","","","","","","","","","","","","","","","","","","","","","","","","","","","","","","","","","","","",""
"778","","f","psychophysics","108","441784","0.0-8.0-1.0-4.0-0.0-0.0","7","5","7","5","6","5","2","5","4","5","4","-1","-2","1","2","0","2","1","2","5","4","5","4","4","5","5","4","5","4","7","8","9","7","8","9","7","8","6","6","7","6","6","7","7","5","7","5","6","1","6","7","3","7","5","6","7","7","5","7","2","7","3","6","6","5","7","6","7","7","5","6","7","2","5","7","6","5","7","7","633792084226080768","林","350","Male","[""好他"",""坏我"",""好我"",""坏他""]","[""强他"",""弱我"",""强我"",""弱他""]","","","","","","","","match","","","","","","","","","","key","f","16.649433962263842","710.7407909492769","395.92595389514173","f","true","match","img/ellipse.png","弱他","弱他","ALT2","ability","","","","","","","","",""
"null","<span style='color:GreenYellow; font-size: 70px;'>正确! </span>","null","html-keyboard-response","109","442286","0.0-8.0-1.0-4.0-0.0-1.0","7","5","7","5","6","5","2","5","4","5","4","-1","-2","1","2","0","2","1","2","5","4","5","4","4","5","5","4","5","4","7","8","9","7","8","9","7","8","6","6","7","6","6","7","7","5","7","5","6","1","6","7","3","7","5","6","7","7","5","7","2","7","3","6","6","5","7","6","7","7","5","6","7","2","5","7","6","5","7","7","633792084226080768","林","350","Male","[""好他"",""坏我"",""好我"",""坏他""]","[""强他"",""弱我"",""强我"",""弱他""]","","","","","","","","","","","","","","","","","","","","","","","","","","","","","","feedback_test","","","","","","","","",""
"868","","j","psychophysics","110","444156","0.0-8.0-1.0-4.0-0.0-0.1","7","5","7","5","6","5","2","5","4","5","4","-1","-2","1","2","0","2","1","2","5","4","5","4","4","5","5","4","5","4","7","8","9","7","8","9","7","8","6","6","7","6","6","7","7","5","7","5","6","1","6","7","3","7","5","6","7","7","5","7","2","7","3","6","6","5","7","6","7","7","5","6","7","2","5","7","6","5","7","7","633792084226080768","林","350","Male","[""好他"",""坏我"",""好我"",""坏他""]","[""强他"",""弱我"",""强我"",""弱他""]","","","","","","","","nonmatch","","","","","","","","","","key","j","16.65366666666641","710.7407909492769","395.92595389514173","j","true","nonmatch","img/trapezoid.png","强我","强他","ALT2","ability","","","","","","","","",""
"null","<span style='color:GreenYellow; font-size: 70px;'>正确! </span>","null","html-keyboard-response","111","444656","0.0-8.0-1.0-4.0-0.0-1.1","7","5","7","5","6","5","2","5","4","5","4","-1","-2","1","2","0","2","1","2","5","4","5","4","4","5","5","4","5","4","7","8","9","7","8","9","7","8","6","6","7","6","6","7","7","5","7","5","6","1","6","7","3","7","5","6","7","7","5","7","2","7","3","6","6","5","7","6","7","7","5","6","7","2","5","7","6","5","7","7","633792084226080768","林","350","Male","[""好他"",""坏我"",""好我"",""坏他""]","[""强他"",""弱我"",""强我"",""弱他""]","","","","","","","","","","","","","","","","","","","","","","","","","","","","","","feedback_test","","","","","","","","",""
"779","","f","psychophysics","112","446438","0.0-8.0-1.0-4.0-0.0-0.2","7","5","7","5","6","5","2","5","4","5","4","-1","-2","1","2","0","2","1","2","5","4","5","4","4","5","5","4","5","4","7","8","9","7","8","9","7","8","6","6","7","6","6","7","7","5","7","5","6","1","6","7","3","7","5","6","7","7","5","7","2","7","3","6","6","5","7","6","7","7","5","6","7","2","5","7","6","5","7","7","633792084226080768","林","350","Male","[""好他"",""坏我"",""好我"",""坏他""]","[""强他"",""弱我"",""强我"",""弱他""]","","","","","","","","match","","","","","","","","","","key","f","16.65452380952359","710.7407909492769","395.92595389514173","f","true","match","img/pentagon.png","弱我","弱我","ALT2","ability","","","","","","","","",""
"null","<span style='color:GreenYellow; font-size: 70px;'>正确! </span>","null","html-keyboard-response","113","446939","0.0-8.0-1.0-4.0-0.0-1.2","7","5","7","5","6","5","2","5","4","5","4","-1","-2","1","2","0","2","1","2","5","4","5","4","4","5","5","4","5","4","7","8","9","7","8","9","7","8","6","6","7","6","6","7","7","5","7","5","6","1","6","7","3","7","5","6","7","7","5","7","2","7","3","6","6","5","7","6","7","7","5","6","7","2","5","7","6","5","7","7","633792084226080768","林","350","Male","[""好他"",""坏我"",""好我"",""坏他""]","[""强他"",""弱我"",""强我"",""弱他""]","","","","","","","","","","","","","","","","","","","","","","","","","","","","","","feedback_test","","","","","","","","",""
"791","","j","psychophysics","114","448733","0.0-8.0-1.0-4.0-0.0-0.3","7","5","7","5","6","5","2","5","4","5","4","-1","-2","1","2","0","2","1","2","5","4","5","4","4","5","5","4","5","4","7","8","9","7","8","9","7","8","6","6","7","6","6","7","7","5","7","5","6","1","6","7","3","7","5","6","7","7","5","7","2","7","3","6","6","5","7","6","7","7","5","6","7","2","5","7","6","5","7","7","633792084226080768","林","350","Male","[""好他"",""坏我"",""好我"",""坏他""]","[""强他"",""弱我"",""强我"",""弱他""]","","","","","","","","nonmatch","","","","","","","","","","key","j","16.653481132075747","710.7407909492769","395.92595389514173","j","true","nonmatch","img/trapezoid.png","弱他","强他","ALT2","ability","","","","","","","","",""
"null","<span style='color:GreenYellow; font-size: 70px;'>正确! </span>","null","html-keyboard-response","115","449234","0.0-8.0-1.0-4.0-0.0-1.3","7","5","7","5","6","5","2","5","4","5","4","-1","-2","1","2","0","2","1","2","5","4","5","4","4","5","5","4","5","4","7","8","9","7","8","9","7","8","6","6","7","6","6","7","7","5","7","5","6","1","6","7","3","7","5","6","7","7","5","7","2","7","3","6","6","5","7","6","7","7","5","6","7","2","5","7","6","5","7","7","633792084226080768","林","350","Male","[""好他"",""坏我"",""好我"",""坏他""]","[""强他"",""弱我"",""强我"",""弱他""]","","","","","","","","","","","","","","","","","","","","","","","","","","","","","","feedback_test","","","","","","","","",""
"924","","f","psychophysics","116","451162","0.0-8.0-1.0-4.0-0.0-0.4","7","5","7","5","6","5","2","5","4","5","4","-1","-2","1","2","0","2","1","2","5","4","5","4","4","5","5","4","5","4","7","8","9","7","8","9","7","8","6","6","7","6","6","7","7","5","7","5","6","1","6","7","3","7","5","6","7","7","5","7","2","7","3","6","6","5","7","6","7","7","5","6","7","2","5","7","6","5","7","7","633792084226080768","林","350","Male","[""好他"",""坏我"",""好我"",""坏他""]","[""强他"",""弱我"",""强我"",""弱他""]","","","","","","","","match","","","","","","","","","","key","f","16.653313043478207","710.7407909492769","395.92595389514173","j","false","nonmatch","img/pentagon.png","强我","弱我","ALT2","ability","","","","","","","","",""
"null","<span style='color:red; font-size: 70px;'>错误! </span>","null","html-keyboard-response","117","451663","0.0-8.0-1.0-4.0-0.0-1.4","7","5","7","5","6","5","2","5","4","5","4","-1","-2","1","2","0","2","1","2","5","4","5","4","4","5","5","4","5","4","7","8","9","7","8","9","7","8","6","6","7","6","6","7","7","5","7","5","6","1","6","7","3","7","5","6","7","7","5","7","2","7","3","6","6","5","7","6","7","7","5","6","7","2","5","7","6","5","7","7","633792084226080768","林","350","Male","[""好他"",""坏我"",""好我"",""坏他""]","[""强他"",""弱我"",""强我"",""弱他""]","","","","","","","","","","","","","","","","","","","","","","","","","","","","","","feedback_test","","","","","","","","",""
"724","","f","psychophysics","118","453389","0.0-8.0-1.0-4.0-0.0-0.5","7","5","7","5","6","5","2","5","4","5","4","-1","-2","1","2","0","2","1","2","5","4","5","4","4","5","5","4","5","4","7","8","9","7","8","9","7","8","6","6","7","6","6","7","7","5","7","5","6","1","6","7","3","7","5","6","7","7","5","7","2","7","3","6","6","5","7","6","7","7","5","6","7","2","5","7","6","5","7","7","633792084226080768","林","350","Male","[""好他"",""坏我"",""好我"",""坏他""]","[""强他"",""弱我"",""强我"",""弱他""]","","","","","","","","match","","","","","","","","","","key","f","16.653796116504434","710.7407909492769","395.92595389514173","f","true","match","img/ellipse.png","弱他","弱他","ALT2","ability","","","","","","","","",""
"null","<span style='color:GreenYellow; font-size: 70px;'>正确! </span>","null","html-keyboard-response","119","453891","0.0-8.0-1.0-4.0-0.0-1.5","7","5","7","5","6","5","2","5","4","5","4","-1","-2","1","2","0","2","1","2","5","4","5","4","4","5","5","4","5","4","7","8","9","7","8","9","7","8","6","6","7","6","6","7","7","5","7","5","6","1","6","7","3","7","5","6","7","7","5","7","2","7","3","6","6","5","7","6","7","7","5","6","7","2","5","7","6","5","7","7","633792084226080768","林","350","Male","[""好他"",""坏我"",""好我"",""坏他""]","[""强他"",""弱我"",""强我"",""弱他""]","","","","","","","","","","","","","","","","","","","","","","","","","","","","","","feedback_test","","","","","","","","",""
"1078","","f","psychophysics","120","455971","0.0-8.0-1.0-4.0-0.0-0.6","7","5","7","5","6","5","2","5","4","5","4","-1","-2","1","2","0","2","1","2","5","4","5","4","4","5","5","4","5","4","7","8","9","7","8","9","7","8","6","6","7","6","6","7","7","5","7","5","6","1","6","7","3","7","5","6","7","7","5","7","2","7","3","6","6","5","7","6","7","7","5","6","7","2","5","7","6","5","7","7","633792084226080768","林","350","Male","[""好他"",""坏我"",""好我"",""坏他""]","[""强他"",""弱我"",""强我"",""弱他""]","","","","","","","","match","","","","","","","","","","key","f","16.651685483870565","710.7407909492769","395.92595389514173","j","false","nonmatch","img/triangle.png","强他","强我","ALT2","ability","","","","","","","","",""
"null","<span style='color:red; font-size: 70px;'>错误! </span>","null","html-keyboard-response","121","456472","0.0-8.0-1.0-4.0-0.0-1.6","7","5","7","5","6","5","2","5","4","5","4","-1","-2","1","2","0","2","1","2","5","4","5","4","4","5","5","4","5","4","7","8","9","7","8","9","7","8","6","6","7","6","6","7","7","5","7","5","6","1","6","7","3","7","5","6","7","7","5","7","2","7","3","6","6","5","7","6","7","7","5","6","7","2","5","7","6","5","7","7","633792084226080768","林","350","Male","[""好他"",""坏我"",""好我"",""坏他""]","[""强他"",""弱我"",""强我"",""弱他""]","","","","","","","","","","","","","","","","","","","","","","","","","","","","","","feedback_test","","","","","","","","",""
"764","","j","psychophysics","122","458237","0.0-8.0-1.0-4.0-0.0-0.7","7","5","7","5","6","5","2","5","4","5","4","-1","-2","1","2","0","2","1","2","5","4","5","4","4","5","5","4","5","4","7","8","9","7","8","9","7","8","6","6","7","6","6","7","7","5","7","5","6","1","6","7","3","7","5","6","7","7","5","7","2","7","3","6","6","5","7","6","7","7","5","6","7","2","5","7","6","5","7","7","633792084226080768","林","350","Male","[""好他"",""坏我"",""好我"",""坏他""]","[""强他"",""弱我"",""强我"",""弱他""]","","","","","","","","nonmatch","","","","","","","","","","key","j","16.64806666666686","710.7407909492769","395.92595389514173","f","false","match","img/pentagon.png","弱我","弱我","ALT2","ability","","","","","","","","",""
"null","<span style='color:red; font-size: 70px;'>错误! </span>","null","html-keyboard-response","123","458739","0.0-8.0-1.0-4.0-0.0-1.7","7","5","7","5","6","5","2","5","4","5","4","-1","-2","1","2","0","2","1","2","5","4","5","4","4","5","5","4","5","4","7","8","9","7","8","9","7","8","6","6","7","6","6","7","7","5","7","5","6","1","6","7","3","7","5","6","7","7","5","7","2","7","3","6","6","5","7","6","7","7","5","6","7","2","5","7","6","5","7","7","633792084226080768","林","350","Male","[""好他"",""坏我"",""好我"",""坏他""]","[""强他"",""弱我"",""强我"",""弱他""]","","","","","","","","","","","","","","","","","","","","","","","","","","","","","","feedback_test","","","","","","","","",""
"993","","f","psychophysics","124","460734","0.0-8.0-1.0-4.0-0.0-0.8","7","5","7","5","6","5","2","5","4","5","4","-1","-2","1","2","0","2","1","2","5","4","5","4","4","5","5","4","5","4","7","8","9","7","8","9","7","8","6","6","7","6","6","7","7","5","7","5","6","1","6","7","3","7","5","6","7","7","5","7","2","7","3","6","6","5","7","6","7","7","5","6","7","2","5","7","6","5","7","7","633792084226080768","林","350","Male","[""好他"",""坏我"",""好我"",""坏他""]","[""强他"",""弱我"",""强我"",""弱他""]","","","","","","","","match","","","","","","","","","","key","f","16.652907563025177","710.7407909492769","395.92595389514173","f","true","match","img/pentagon.png","弱我","弱我","ALT2","ability","","","","","","","","",""
"null","<span style='color:GreenYellow; font-size: 70px;'>正确! </span>","null","html-keyboard-response","125","461236","0.0-8.0-1.0-4.0-0.0-1.8","7","5","7","5","6","5","2","5","4","5","4","-1","-2","1","2","0","2","1","2","5","4","5","4","4","5","5","4","5","4","7","8","9","7","8","9","7","8","6","6","7","6","6","7","7","5","7","5","6","1","6","7","3","7","5","6","7","7","5","7","2","7","3","6","6","5","7","6","7","7","5","6","7","2","5","7","6","5","7","7","633792084226080768","林","350","Male","[""好他"",""坏我"",""好我"",""坏他""]","[""强他"",""弱我"",""强我"",""弱他""]","","","","","","","","","","","","","","","","","","","","","","","","","","","","","","feedback_test","","","","","","","","",""
"728","","j","psychophysics","126","462965","0.0-8.0-1.0-4.0-0.0-0.9","7","5","7","5","6","5","2","5","4","5","4","-1","-2","1","2","0","2","1","2","5","4","5","4","4","5","5","4","5","4","7","8","9","7","8","9","7","8","6","6","7","6","6","7","7","5","7","5","6","1","6","7","3","7","5","6","7","7","5","7","2","7","3","6","6","5","7","6","7","7","5","6","7","2","5","7","6","5","7","7","633792084226080768","林","350","Male","[""好他"",""坏我"",""好我"",""坏他""]","[""强他"",""弱我"",""强我"",""弱他""]","","","","","","","","nonmatch","","","","","","","","","","key","j","16.654252427184808","710.7407909492769","395.92595389514173","j","true","nonmatch","img/ellipse.png","强我","弱他","ALT2","ability","","","","","","","","",""
"null","<span style='color:GreenYellow; font-size: 70px;'>正确! </span>","null","html-keyboard-response","127","463466","0.0-8.0-1.0-4.0-0.0-1.9","7","5","7","5","6","5","2","5","4","5","4","-1","-2","1","2","0","2","1","2","5","4","5","4","4","5","5","4","5","4","7","8","9","7","8","9","7","8","6","6","7","6","6","7","7","5","7","5","6","1","6","7","3","7","5","6","7","7","5","7","2","7","3","6","6","5","7","6","7","7","5","6","7","2","5","7","6","5","7","7","633792084226080768","林","350","Male","[""好他"",""坏我"",""好我"",""坏他""]","[""强他"",""弱我"",""强我"",""弱他""]","","","","","","","","","","","","","","","","","","","","","","","","","","","","","","feedback_test","","","","","","","","",""
"1002","","j","psychophysics","128","465469","0.0-8.0-1.0-4.0-0.0-0.10","7","5","7","5","6","5","2","5","4","5","4","-1","-2","1","2","0","2","1","2","5","4","5","4","4","5","5","4","5","4","7","8","9","7","8","9","7","8","6","6","7","6","6","7","7","5","7","5","6","1","6","7","3","7","5","6","7","7","5","7","2","7","3","6","6","5","7","6","7","7","5","6","7","2","5","7","6","5","7","7","633792084226080768","林","350","Male","[""好他"",""坏我"",""好我"",""坏他""]","[""强他"",""弱我"",""强我"",""弱他""]","","","","","","","","nonmatch","","","","","","","","","","key","j","16.653226890756276","710.7407909492769","395.92595389514173","j","true","nonmatch","img/triangle.png","弱我","强我","ALT2","ability","","","","","","","","",""
"null","<span style='color:GreenYellow; font-size: 70px;'>正确! </span>","null","html-keyboard-response","129","465969","0.0-8.0-1.0-4.0-0.0-1.10","7","5","7","5","6","5","2","5","4","5","4","-1","-2","1","2","0","2","1","2","5","4","5","4","4","5","5","4","5","4","7","8","9","7","8","9","7","8","6","6","7","6","6","7","7","5","7","5","6","1","6","7","3","7","5","6","7","7","5","7","2","7","3","6","6","5","7","6","7","7","5","6","7","2","5","7","6","5","7","7","633792084226080768","林","350","Male","[""好他"",""坏我"",""好我"",""坏他""]","[""强他"",""弱我"",""强我"",""弱他""]","","","","","","","","","","","","","","","","","","","","","","","","","","","","","","feedback_test","","","","","","","","",""
"840","","f","psychophysics","130","467811","0.0-8.0-1.0-4.0-0.0-0.11","7","5","7","5","6","5","2","5","4","5","4","-1","-2","1","2","0","2","1","2","5","4","5","4","4","5","5","4","5","4","7","8","9","7","8","9","7","8","6","6","7","6","6","7","7","5","7","5","6","1","6","7","3","7","5","6","7","7","5","7","2","7","3","6","6","5","7","6","7","7","5","6","7","2","5","7","6","5","7","7","633792084226080768","林","350","Male","[""好他"",""坏我"",""好我"",""坏他""]","[""强他"",""弱我"",""强我"",""弱他""]","","","","","","","","match","","","","","","","","","","key","f","16.65372727272704","710.7407909492769","395.92595389514173","f","true","match","img/ellipse.png","弱他","弱他","ALT2","ability","","","","","","","","",""
"null","<span style='color:GreenYellow; font-size: 70px;'>正确! </span>","null","html-keyboard-response","131","468312","0.0-8.0-1.0-4.0-0.0-1.11","7","5","7","5","6","5","2","5","4","5","4","-1","-2","1","2","0","2","1","2","5","4","5","4","4","5","5","4","5","4","7","8","9","7","8","9","7","8","6","6","7","6","6","7","7","5","7","5","6","1","6","7","3","7","5","6","7","7","5","7","2","7","3","6","6","5","7","6","7","7","5","6","7","2","5","7","6","5","7","7","633792084226080768","林","350","Male","[""好他"",""坏我"",""好我"",""坏他""]","[""强他"",""弱我"",""强我"",""弱他""]","","","","","","","","","","","","","","","","","","","","","","","","","","","","","","feedback_test","","","","","","","","",""
"720","","j","psychophysics","132","470033","0.0-8.0-1.0-4.0-0.0-0.12","7","5","7","5","6","5","2","5","4","5","4","-1","-2","1","2","0","2","1","2","5","4","5","4","4","5","5","4","5","4","7","8","9","7","8","9","7","8","6","6","7","6","6","7","7","5","7","5","6","1","6","7","3","7","5","6","7","7","5","7","2","7","3","6","6","5","7","6","7","7","5","6","7","2","5","7","6","5","7","7","633792084226080768","林","350","Male","[""好他"",""坏我"",""好我"",""坏他""]","[""强他"",""弱我"",""强我"",""弱他""]","","","","","","","","nonmatch","","","","","","","","","","key","j","16.649450980392217","710.7407909492769","395.92595389514173","j","true","nonmatch","img/trapezoid.png","弱我","强他","ALT2","ability","","","","","","","","",""
"null","<span style='color:GreenYellow; font-size: 70px;'>正确! </span>","null","html-keyboard-response","133","470535","0.0-8.0-1.0-4.0-0.0-1.12","7","5","7","5","6","5","2","5","4","5","4","-1","-2","1","2","0","2","1","2","5","4","5","4","4","5","5","4","5","4","7","8","9","7","8","9","7","8","6","6","7","6","6","7","7","5","7","5","6","1","6","7","3","7","5","6","7","7","5","7","2","7","3","6","6","5","7","6","7","7","5","6","7","2","5","7","6","5","7","7","633792084226080768","林","350","Male","[""好他"",""坏我"",""好我"",""坏他""]","[""强他"",""弱我"",""强我"",""弱他""]","","","","","","","","","","","","","","","","","","","","","","","","","","","","","","feedback_test","","","","","","","","",""
"706","","j","psychophysics","134","472242","0.0-8.0-1.0-4.0-0.0-0.13","7","5","7","5","6","5","2","5","4","5","4","-1","-2","1","2","0","2","1","2","5","4","5","4","4","5","5","4","5","4","7","8","9","7","8","9","7","8","6","6","7","6","6","7","7","5","7","5","6","1","6","7","3","7","5","6","7","7","5","7","2","7","3","6","6","5","7","6","7","7","5","6","7","2","5","7","6","5","7","7","633792084226080768","林","350","Male","[""好他"",""坏我"",""好我"",""坏他""]","[""强他"",""弱我"",""强我"",""弱他""]","","","","","","","","nonmatch","","","","","","","","","","key","j","16.653316831683608","710.7407909492769","395.92595389514173","j","true","nonmatch","img/ellipse.png","弱我","弱他","ALT2","ability","","","","","","","","",""
"null","<span style='color:GreenYellow; font-size: 70px;'>正确! </span>","null","html-keyboard-response","135","472744","0.0-8.0-1.0-4.0-0.0-1.13","7","5","7","5","6","5","2","5","4","5","4","-1","-2","1","2","0","2","1","2","5","4","5","4","4","5","5","4","5","4","7","8","9","7","8","9","7","8","6","6","7","6","6","7","7","5","7","5","6","1","6","7","3","7","5","6","7","7","5","7","2","7","3","6","6","5","7","6","7","7","5","6","7","2","5","7","6","5","7","7","633792084226080768","林","350","Male","[""好他"",""坏我"",""好我"",""坏他""]","[""强他"",""弱我"",""强我"",""弱他""]","","","","","","","","","","","","","","","","","","","","","","","","","","","","","","feedback_test","","","","","","","","",""
