"rt","stimulus","response","trial_type","trial_index","time_elapsed","internal_node_id","swb_1","swb_2","swb_3","swb_4","swb_5","LOT_1","LOT_2","LOT_3","LOT_4","LOT_5","LOT_6","IPC_1","IPC_2","IPC_3","IPC_4","IPC_5","IPC_6","IPC_7","IPC_8","MorIden_1","MorIden_2","MorIden_3","MorIden_4","MorIden_5","MorIden_6","MorIden_7","MorIden_8","MorIden_9","MorIden_10","moralSeImag_1","moralSeImag_2","moralSeImag_3","moralSeImag_4","moralSeImag_5","moralSeImag_6","moralSeImag_7","moralSeImag_8","moralSeImag_9","sde_1","sde_2","sde_3","sde_4","sde_5","sde_6","sde_7","sde_8","sde_9","sde_10","trap2","sde_11","sde_12","sde_13","sde_14","sde_15","sde_16","sde_17","sde_18","sde_19","sde_20","IM_1","IM_2","IM_3","IM_4","IM_5","IM_6","IM_7","IM_8","IM_9","IM_10","IM_11","IM_12","IM_13","IM_14","IM_15","IM_16","IM_17","IM_18","IM_19","IM_20","subj_idx","friend_name","ParticipantID","Sex","Word","Word2","value","success","timeout","failed_images","failed_audio","failed_video","user_agent","responses","item_order","radio_event_ids","radio_event_times","key_event_times","mouse_event_times","straightlining","zigzagging","honeypot","task_id","screen_id","time_stamp","response_type","key_press","avg_frame_time","center_x","center_y","person","word","valence","domain","math","correct_response","correct","status","view_history","identity","duration","Image","condition","question_order","trap2_item"
"7159","
   <p><div style='color:white; font-size: 25px'>您好，欢迎参加本次实验。</div></p>
   <p><div style='color:white; font-size: 25px'>为充分保障您的权利，请确保您已经知晓并同意《参与实验同意书》以及《数据公开知情同意书》。</div></p>
   <p><div style='color:white; font-size: 25px'>如果您未见过上述内容，请咨询实验员。</div></p>
   <p style='color:white; font-size: 25px'>如果您选择继续实验，则表示您已经清楚两份知情同意书的内容并同意。</p>
   <p><div style = ""color: pink;font-size:30px;"">请确保您记得day0的实验编号，您将在本次实验输入该编号，若您忘记，请咨询实验员后作答。</div></p>
   <p><div style = ""color:lightblue;font-size:25px;"">请您尽可能认真地作答，我们将依据您在各问卷和按键任务中的作答质量发放报酬。</div></p>
   <p> <div style = ""color: green""><按空格键至下页></div> </p>
   "," ","html-keyboard-response","0","7161","0.0-0.0","7","6","7","5","6","5","4","5","5","4","4","2","1","1","2","1","1","1","2","5","5","5","4","4","4","4","4","5","4","7","7","8","8","7","8","8","8","8","6","5","5","5","6","3","6","1","7","5","1","6","3","5","2","7","6","6","4","5","6","3","6","6","5","5","7","6","7","5","6","5","7","6","6","3","7","5","6","5","6","753363460917825537","杨","660","Female","[""好她"",""好我"",""坏我"",""坏她""]","[""强她"",""强我"",""弱我"",""弱她""]","","","","","","","","","","","","","","","","","","","","","","","","","","","","","","","","","","","","","","",""
"","","","call-function","1","7161","0.0-1.0-0.0","7","6","7","5","6","5","4","5","5","4","4","2","1","1","2","1","1","1","2","5","5","5","4","4","4","4","4","5","4","7","7","8","8","7","8","8","8","8","6","5","5","5","6","3","6","1","7","5","1","6","3","5","2","7","6","6","4","5","6","3","6","6","5","5","7","6","7","5","6","5","7","6","6","3","7","5","6","5","6","753363460917825537","杨","660","Female","[""好她"",""好我"",""坏我"",""坏她""]","[""强她"",""强我"",""弱我"",""弱她""]","","","","","","","","","","","","","","","","","","","","","","","","","","","","","","","","","","","","","","",""
"12079","","[{""name"":""Sex"",""value"":""1""},{""name"":""friend_name"",""value"":""杨""},{""name"":""ParticipantID"",""value"":""660""}]","survey-html-form","2","19241","0.0-1.0-1.0","7","6","7","5","6","5","4","5","5","4","4","2","1","1","2","1","1","1","2","5","5","5","4","4","4","4","4","5","4","7","7","8","8","7","8","8","8","8","6","5","5","5","6","3","6","1","7","5","1","6","3","5","2","7","6","6","4","5","6","3","6","6","5","5","7","6","7","5","6","5","7","6","6","3","7","5","6","5","6","753363460917825537","杨","660","Female","[""好她"",""好我"",""坏我"",""坏她""]","[""强她"",""强我"",""弱我"",""弱她""]","","","","","","","","","","","","","","","","","","","","","","","","","","","","","","","","","","","","","","",""
"","","","preload","3","20269","0.0-2.0","7","6","7","5","6","5","4","5","5","4","4","2","1","1","2","1","1","1","2","5","5","5","4","4","4","4","4","5","4","7","7","8","8","7","8","8","8","8","6","5","5","5","6","3","6","1","7","5","1","6","3","5","2","7","6","6","4","5","6","3","6","6","5","5","7","6","7","5","6","5","7","6","6","3","7","5","6","5","6","753363460917825537","杨","660","Female","[""好她"",""好我"",""坏我"",""坏她""]","[""强她"",""强我"",""弱我"",""弱她""]","","true","false","[]","[]","[]","","","","","","","","","","","","","","","","","","","","","","","","","","","","","","","","",""
"","","","fullscreen","4","23480","0.0-3.0","7","6","7","5","6","5","4","5","5","4","4","2","1","1","2","1","1","1","2","5","5","5","4","4","4","4","4","5","4","7","7","8","8","7","8","8","8","8","6","5","5","5","6","3","6","1","7","5","1","6","3","5","2","7","6","6","4","5","6","3","6","6","5","5","7","6","7","5","6","5","7","6","6","3","7","5","6","5","6","753363460917825537","杨","660","Female","[""好她"",""好我"",""坏我"",""坏她""]","[""强她"",""强我"",""弱我"",""弱她""]","","true","","","","","{}","","","","","","","","","","","","","","","","","","","","","","","","","","","","","","","",""
"23783.60000000149","","{""Q01"":""7"",""Q02"":""6"",""Q03"":""7"",""Q04"":""5"",""Q05"":""6""}","survey-template","5","47265","0.0-4.0","7","6","7","5","6","5","4","5","5","4","4","2","1","1","2","1","1","1","2","5","5","5","4","4","4","4","4","5","4","7","7","8","8","7","8","8","8","8","6","5","5","5","6","3","6","1","7","5","1","6","3","5","2","7","6","6","4","5","6","3","6","6","5","5","7","6","7","5","6","5","7","6","6","3","7","5","6","5","6","753363460917825537","杨","660","Female","[""好她"",""好我"",""坏我"",""坏她""]","[""强她"",""强我"",""弱我"",""弱她""]","","","","","","","","{""Q01"":""7"",""Q02"":""6"",""Q03"":""7"",""Q04"":""5"",""Q05"":""6""}","[0,1,2,3,4]","[""Q01"",""Q02"",""Q03"",""Q04"",""Q05""]","[1766.6000000014901,3294.5,4998.30000000447,7918.70000000298,17406.5]","[]","[1766.6000000014901,3294.5,4998.30000000447,7918.70000000298,9215,17406.5,23782.80000000447]","0.4","0.75","0","","","","","","","","","","","","","","","","","","","","","","",""
"27612.70000000298","","{""Q01"":""5"",""Q02"":""4"",""Q03"":""5"",""Q04"":""5"",""Q05"":""4"",""Q06"":""4""}","survey-template","6","74881","0.0-5.0","7","6","7","5","6","5","4","5","5","4","4","2","1","1","2","1","1","1","2","5","5","5","4","4","4","4","4","5","4","7","7","8","8","7","8","8","8","8","6","5","5","5","6","3","6","1","7","5","1","6","3","5","2","7","6","6","4","5","6","3","6","6","5","5","7","6","7","5","6","5","7","6","6","3","7","5","6","5","6","753363460917825537","杨","660","Female","[""好她"",""好我"",""坏我"",""坏她""]","[""强她"",""强我"",""弱我"",""弱她""]","","","","","","","","{""Q01"":""5"",""Q02"":""4"",""Q03"":""5"",""Q04"":""5"",""Q05"":""4"",""Q06"":""4""}","[0,1,2,3,4,5]","[""Q01"",""Q02"",""Q03"",""Q04"",""Q04"",""Q05"",""Q06""]","[3324.2000000029802,5580.5,11243.70000000298,15724.29999999702,17236,19107.79999999702,24396.29999999702]","[]","[3324.2000000029802,5580.5,11243.70000000298,15724.29999999702,17236,19107.79999999702,24396.29999999702,27612.10000000149]","0.3333333333333333","0.4","0","","","","","","","","","","","","","","","","","","","","","","",""
"33421.79999999702","","{""Q01"":""2"",""Q02"":""1"",""Q03"":""1"",""Q04"":""2"",""Q05"":""1"",""Q06"":""1"",""Q07"":""1"",""Q08"":""2""}","survey-template","7","108305","0.0-6.0","7","6","7","5","6","5","4","5","5","4","4","2","1","1","2","1","1","1","2","5","5","5","4","4","4","4","4","5","4","7","7","8","8","7","8","8","8","8","6","5","5","5","6","3","6","1","7","5","1","6","3","5","2","7","6","6","4","5","6","3","6","6","5","5","7","6","7","5","6","5","7","6","6","3","7","5","6","5","6","753363460917825537","杨","660","Female","[""好她"",""好我"",""坏我"",""坏她""]","[""强她"",""强我"",""弱我"",""弱她""]","","","","","","","","{""Q01"":""2"",""Q02"":""1"",""Q03"":""1"",""Q04"":""2"",""Q05"":""1"",""Q06"":""1"",""Q07"":""1"",""Q08"":""2""}","[0,1,2,3,4,5,6,7]","[""Q01"",""Q02"",""Q03"",""Q04"",""Q04"",""Q05"",""Q06"",""Q07"",""Q08"",""Q06""]","[2380.2999999970198,4173.69999999553,7093.0999999940395,8877.79999999702,9532.79999999702,11382.29999999702,12540.59999999404,15324.89999999851,18180.5,29965.79999999702]","[]","[2380.2999999970198,4173.69999999553,7093.0999999940395,8877.79999999702,9532.79999999702,11382.29999999702,12540.59999999404,15324.89999999851,16700.59999999404,17732.89999999851,18180.5,29965.79999999702,33420.89999999851]","0.625","0.5714285714285714","0","","","","","","","","","","","","","","","","","","","","","","",""
"23444","
    <p><div style='color:white;font-size:35px; line-height:20px;'>词汇评估任务</div></p><br>
    <p><div style='color:white;font-size:25px; line-height:20px;'>请再次回忆该亲密的朋友，你们至少2年前就认识了，并且最近2年经常见面。</div></p>
    <p><div style='color:white;font-size:25px; line-height:20px;'>在本实验中，您将会看到一些形容词。</div></p>
    <p><div style='color:yellow;font-size:25px; line-height:20px;'>您的任务是判断这些形容词是否符合对您自己或您的朋友的描述。</div></p><p style='font-size:35px'>符合按<span style=""color:lightgreen""> f 键</span>，不符合按<span style=""color:red""> j 键</span></p>","0","html-button-response","8","131752","0.0-7.0-0.0","7","6","7","5","6","5","4","5","5","4","4","2","1","1","2","1","1","1","2","5","5","5","4","4","4","4","4","5","4","7","7","8","8","7","8","8","8","8","6","5","5","5","6","3","6","1","7","5","1","6","3","5","2","7","6","6","4","5","6","3","6","6","5","5","7","6","7","5","6","5","7","6","6","3","7","5","6","5","6","753363460917825537","杨","660","Female","[""好她"",""好我"",""坏我"",""坏她""]","[""强她"",""强我"",""弱我"",""弱她""]","","","","","","","","","","","","","","","","","SRET_EW","EW_instructions","Sun Jan 21 2024 21:46:53 GMT+0800 (中国标准时间)","","","","","","","","","","","","","","","","","","","",""
"1532","","f","psychophysics","9","134289","0.0-7.0-1.0-0.0","7","6","7","5","6","5","4","5","5","4","4","2","1","1","2","1","1","1","2","5","5","5","4","4","4","4","4","5","4","7","7","8","8","7","8","8","8","8","6","5","5","5","6","3","6","1","7","5","1","6","3","5","2","7","6","6","4","5","6","3","6","6","5","5","7","6","7","5","6","5","7","6","6","3","7","5","6","5","6","753363460917825537","杨","660","Female","[""好她"",""好我"",""坏我"",""坏她""]","[""强她"",""强我"",""弱我"",""弱她""]","","","","","","","","yes","","","","","","","","","SRET_EW","EW_practice","","key","f","16.666447368421167","960","536","自己","严谨","Positive","ability","","","","","","","","","","",""
"1206","","j","psychophysics","10","136496","0.0-7.0-1.0-0.1","7","6","7","5","6","5","4","5","5","4","4","2","1","1","2","1","1","1","2","5","5","5","4","4","4","4","4","5","4","7","7","8","8","7","8","8","8","8","6","5","5","5","6","3","6","1","7","5","1","6","3","5","2","7","6","6","4","5","6","3","6","6","5","5","7","6","7","5","6","5","7","6","6","3","7","5","6","5","6","753363460917825537","杨","660","Female","[""好她"",""好我"",""坏我"",""坏她""]","[""强她"",""强我"",""弱我"",""弱她""]","","","","","","","","no","","","","","","","","","SRET_EW","EW_practice","","key","j","16.666666666666668","960","536","朋友","徇私","Negative","morality","","","","","","","","","","",""
"1095","","f","psychophysics","11","138593","0.0-7.0-1.0-0.2","7","6","7","5","6","5","4","5","5","4","4","2","1","1","2","1","1","1","2","5","5","5","4","4","4","4","4","5","4","7","7","8","8","7","8","8","8","8","6","5","5","5","6","3","6","1","7","5","1","6","3","5","2","7","6","6","4","5","6","3","6","6","5","5","7","6","7","5","6","5","7","6","6","3","7","5","6","5","6","753363460917825537","杨","660","Female","[""好她"",""好我"",""坏我"",""坏她""]","[""强她"",""强我"",""弱我"",""弱她""]","","","","","","","","yes","","","","","","","","","SRET_EW","EW_practice","","key","f","16.666129032258112","960","536","朋友","忠实","Positive","morality","","","","","","","","","","",""
"1789","","j","psychophysics","12","141384","0.0-7.0-1.0-0.3","7","6","7","5","6","5","4","5","5","4","4","2","1","1","2","1","1","1","2","5","5","5","4","4","4","4","4","5","4","7","7","8","8","7","8","8","8","8","6","5","5","5","6","3","6","1","7","5","1","6","3","5","2","7","6","6","4","5","6","3","6","6","5","5","7","6","7","5","6","5","7","6","6","3","7","5","6","5","6","753363460917825537","杨","660","Female","[""好她"",""好我"",""坏我"",""坏她""]","[""强她"",""强我"",""弱我"",""弱她""]","","","","","","","","no","","","","","","","","","SRET_EW","EW_practice","","key","j","16.665868263472948","960","536","自己","刻板","Negative","ability","","","","","","","","","","",""
"2655","
    <p><div style='color:white;font-size:35px; line-height:20px;'>请您再次阅读实验要求</div></p><br>
    <p><div style='color:white;font-size:25px; line-height:20px;'>请回忆某一个亲密的朋友，你们至少2年前就认识了，并且最近2年经常见面。</div></p>
    <p><div style='color:white;font-size:25px; line-height:20px;'>在本实验中，您将会看到一些形容词。</div></p>
    <p><div style='color:yellow;font-size:25px; line-height:20px;'>您的任务是判断这些形容词是否符合对您自己或您的朋友的描述。</div></p>
    <p><div class='footer' style='font-size:25px; line-height:20px;'>如果对本实验还有不清楚之处，请立即向实验员咨询。</p><p style='font-size:25px; line-height:20px;'>如果您明白了规则：</p><p style='font-size:22px; line-height:20px;'>请按 继续 进入正式实验</p>
    </div>
    <p style='font-size:35px'>符合按<span style=""color:lightgreen""> f 键</span>，不符合按<span style=""color:red""> j 键</span></p>","0","html-button-response","13","144040","0.0-7.0-2.0","7","6","7","5","6","5","4","5","5","4","4","2","1","1","2","1","1","1","2","5","5","5","4","4","4","4","4","5","4","7","7","8","8","7","8","8","8","8","6","5","5","5","6","3","6","1","7","5","1","6","3","5","2","7","6","6","4","5","6","3","6","6","5","5","7","6","7","5","6","5","7","6","6","3","7","5","6","5","6","753363460917825537","杨","660","Female","[""好她"",""好我"",""坏我"",""坏她""]","[""强她"",""强我"",""弱我"",""弱她""]","","","","","","","","","","","","","","","","","SRET_EW","prac_instructions","Sun Jan 21 2024 21:46:53 GMT+0800 (中国标准时间)","","","","","","","","","","","","","","","","","","","",""
"1198","","j","psychophysics","14","146240","0.0-7.0-3.0-0.0","7","6","7","5","6","5","4","5","5","4","4","2","1","1","2","1","1","1","2","5","5","5","4","4","4","4","4","5","4","7","7","8","8","7","8","8","8","8","6","5","5","5","6","3","6","1","7","5","1","6","3","5","2","7","6","6","4","5","6","3","6","6","5","5","7","6","7","5","6","5","7","6","6","3","7","5","6","5","6","753363460917825537","杨","660","Female","[""好她"",""好我"",""坏我"",""坏她""]","[""强她"",""强我"",""弱我"",""弱她""]","","","","","","","","no","","","","","","","","","SRET","EW_formal","","key","j","16.666666666666668","960","536","朋友","迷糊","Negative","ability","","","","","","","","","","",""
"1023","","f","psychophysics","15","148264","0.0-7.0-3.0-0.1","7","6","7","5","6","5","4","5","5","4","4","2","1","1","2","1","1","1","2","5","5","5","4","4","4","4","4","5","4","7","7","8","8","7","8","8","8","8","6","5","5","5","6","3","6","1","7","5","1","6","3","5","2","7","6","6","4","5","6","3","6","6","5","5","7","6","7","5","6","5","7","6","6","3","7","5","6","5","6","753363460917825537","杨","660","Female","[""好她"",""好我"",""坏我"",""坏她""]","[""强她"",""强我"",""弱我"",""弱她""]","","","","","","","","yes","","","","","","","","","SRET","EW_formal","","key","f","16.666115702479388","960","536","自己","坚贞","Positive","morality","","","","","","","","","","",""
"1054","","j","psychophysics","16","150320","0.0-7.0-3.0-0.2","7","6","7","5","6","5","4","5","5","4","4","2","1","1","2","1","1","1","2","5","5","5","4","4","4","4","4","5","4","7","7","8","8","7","8","8","8","8","6","5","5","5","6","3","6","1","7","5","1","6","3","5","2","7","6","6","4","5","6","3","6","6","5","5","7","6","7","5","6","5","7","6","6","3","7","5","6","5","6","753363460917825537","杨","660","Female","[""好她"",""好我"",""坏我"",""坏她""]","[""强她"",""强我"",""弱我"",""弱她""]","","","","","","","","no","","","","","","","","","SRET","EW_formal","","key","j","16.666393442623093","960","536","自己","说谎","Negative","morality","","","","","","","","","","",""
"903","","f","psychophysics","17","152225","0.0-7.0-3.0-0.3","7","6","7","5","6","5","4","5","5","4","4","2","1","1","2","1","1","1","2","5","5","5","4","4","4","4","4","5","4","7","7","8","8","7","8","8","8","8","6","5","5","5","6","3","6","1","7","5","1","6","3","5","2","7","6","6","4","5","6","3","6","6","5","5","7","6","7","5","6","5","7","6","6","3","7","5","6","5","6","753363460917825537","杨","660","Female","[""好她"",""好我"",""坏我"",""坏她""]","[""强她"",""强我"",""弱我"",""弱她""]","","","","","","","","yes","","","","","","","","","SRET","EW_formal","","key","f","16.66548672566382","960","536","朋友","务实","Positive","ability","","","","","","","","","","",""
"1006","","j","psychophysics","18","154233","0.0-7.0-3.0-0.4","7","6","7","5","6","5","4","5","5","4","4","2","1","1","2","1","1","1","2","5","5","5","4","4","4","4","4","5","4","7","7","8","8","7","8","8","8","8","6","5","5","5","6","3","6","1","7","5","1","6","3","5","2","7","6","6","4","5","6","3","6","6","5","5","7","6","7","5","6","5","7","6","6","3","7","5","6","5","6","753363460917825537","杨","660","Female","[""好她"",""好我"",""坏我"",""坏她""]","[""强她"",""强我"",""弱我"",""弱她""]","","","","","","","","no","","","","","","","","","SRET","EW_formal","","key","j","16.666666666666668","960","536","自己","慈悲","Positive","morality","","","","","","","","","","",""
"749","","f","psychophysics","19","155984","0.0-7.0-3.0-0.5","7","6","7","5","6","5","4","5","5","4","4","2","1","1","2","1","1","1","2","5","5","5","4","4","4","4","4","5","4","7","7","8","8","7","8","8","8","8","6","5","5","5","6","3","6","1","7","5","1","6","3","5","2","7","6","6","4","5","6","3","6","6","5","5","7","6","7","5","6","5","7","6","6","3","7","5","6","5","6","753363460917825537","杨","660","Female","[""好她"",""好我"",""坏我"",""坏她""]","[""强她"",""强我"",""弱我"",""弱她""]","","","","","","","","yes","","","","","","","","","SRET","EW_formal","","key","f","16.667307692307638","960","536","自己","刻苦","Positive","ability","","","","","","","","","","",""
"1063","","j","psychophysics","20","158048","0.0-7.0-3.0-0.6","7","6","7","5","6","5","4","5","5","4","4","2","1","1","2","1","1","1","2","5","5","5","4","4","4","4","4","5","4","7","7","8","8","7","8","8","8","8","6","5","5","5","6","3","6","1","7","5","1","6","3","5","2","7","6","6","4","5","6","3","6","6","5","5","7","6","7","5","6","5","7","6","6","3","7","5","6","5","6","753363460917825537","杨","660","Female","[""好她"",""好我"",""坏我"",""坏她""]","[""强她"",""强我"",""弱我"",""弱她""]","","","","","","","","no","","","","","","","","","SRET","EW_formal","","key","j","16.667479674796795","960","536","朋友","虚假","Negative","morality","","","","","","","","","","",""
"1359","","j","psychophysics","21","160409","0.0-7.0-3.0-0.7","7","6","7","5","6","5","4","5","5","4","4","2","1","1","2","1","1","1","2","5","5","5","4","4","4","4","4","5","4","7","7","8","8","7","8","8","8","8","6","5","5","5","6","3","6","1","7","5","1","6","3","5","2","7","6","6","4","5","6","3","6","6","5","5","7","6","7","5","6","5","7","6","6","3","7","5","6","5","6","753363460917825537","杨","660","Female","[""好她"",""好我"",""坏我"",""坏她""]","[""强她"",""强我"",""弱我"",""弱她""]","","","","","","","","no","","","","","","","","","SRET","EW_formal","","key","j","16.66571428571437","960","536","自己","独断","Negative","ability","","","","","","","","","","",""
"981","","f","psychophysics","22","162392","0.0-7.0-3.0-0.8","7","6","7","5","6","5","4","5","5","4","4","2","1","1","2","1","1","1","2","5","5","5","4","4","4","4","4","5","4","7","7","8","8","7","8","8","8","8","6","5","5","5","6","3","6","1","7","5","1","6","3","5","2","7","6","6","4","5","6","3","6","6","5","5","7","6","7","5","6","5","7","6","6","3","7","5","6","5","6","753363460917825537","杨","660","Female","[""好她"",""好我"",""坏我"",""坏她""]","[""强她"",""强我"",""弱我"",""弱她""]","","","","","","","","yes","","","","","","","","","SRET","EW_formal","","key","f","16.666101694915305","960","536","自己","依靠","Negative","ability","","","","","","","","","","",""
"1039","","f","psychophysics","23","164433","0.0-7.0-3.0-0.9","7","6","7","5","6","5","4","5","5","4","4","2","1","1","2","1","1","1","2","5","5","5","4","4","4","4","4","5","4","7","7","8","8","7","8","8","8","8","6","5","5","5","6","3","6","1","7","5","1","6","3","5","2","7","6","6","4","5","6","3","6","6","5","5","7","6","7","5","6","5","7","6","6","3","7","5","6","5","6","753363460917825537","杨","660","Female","[""好她"",""好我"",""坏我"",""坏她""]","[""强她"",""强我"",""弱我"",""弱她""]","","","","","","","","yes","","","","","","","","","SRET","EW_formal","","key","f","16.666393442622855","960","536","朋友","义气","Positive","morality","","","","","","","","","","",""
"1207","","f","psychophysics","24","166641","0.0-7.0-3.0-0.10","7","6","7","5","6","5","4","5","5","4","4","2","1","1","2","1","1","1","2","5","5","5","4","4","4","4","4","5","4","7","7","8","8","7","8","8","8","8","6","5","5","5","6","3","6","1","7","5","1","6","3","5","2","7","6","6","4","5","6","3","6","6","5","5","7","6","7","5","6","5","7","6","6","3","7","5","6","5","6","753363460917825537","杨","660","Female","[""好她"",""好我"",""坏我"",""坏她""]","[""强她"",""强我"",""弱我"",""弱她""]","","","","","","","","yes","","","","","","","","","SRET","EW_formal","","key","f","16.66641221374037","960","536","自己","君子","Positive","morality","","","","","","","","","","",""
"1086","","f","psychophysics","25","168729","0.0-7.0-3.0-0.11","7","6","7","5","6","5","4","5","5","4","4","2","1","1","2","1","1","1","2","5","5","5","4","4","4","4","4","5","4","7","7","8","8","7","8","8","8","8","6","5","5","5","6","3","6","1","7","5","1","6","3","5","2","7","6","6","4","5","6","3","6","6","5","5","7","6","7","5","6","5","7","6","6","3","7","5","6","5","6","753363460917825537","杨","660","Female","[""好她"",""好我"",""坏我"",""坏她""]","[""强她"",""强我"",""弱我"",""弱她""]","","","","","","","","yes","","","","","","","","","SRET","EW_formal","","key","f","16.667199999999955","960","536","朋友","爱国","Positive","morality","","","","","","","","","","",""
"974","","f","psychophysics","26","170704","0.0-7.0-3.0-0.12","7","6","7","5","6","5","4","5","5","4","4","2","1","1","2","1","1","1","2","5","5","5","4","4","4","4","4","5","4","7","7","8","8","7","8","8","8","8","6","5","5","5","6","3","6","1","7","5","1","6","3","5","2","7","6","6","4","5","6","3","6","6","5","5","7","6","7","5","6","5","7","6","6","3","7","5","6","5","6","753363460917825537","杨","660","Female","[""好她"",""好我"",""坏我"",""坏她""]","[""强她"",""强我"",""弱我"",""弱她""]","","","","","","","","yes","","","","","","","","","SRET","EW_formal","","key","f","16.667521367521417","960","536","自己","博学","Positive","ability","","","","","","","","","","",""
"1025","","j","psychophysics","27","172730","0.0-7.0-3.0-0.13","7","6","7","5","6","5","4","5","5","4","4","2","1","1","2","1","1","1","2","5","5","5","4","4","4","4","4","5","4","7","7","8","8","7","8","8","8","8","6","5","5","5","6","3","6","1","7","5","1","6","3","5","2","7","6","6","4","5","6","3","6","6","5","5","7","6","7","5","6","5","7","6","6","3","7","5","6","5","6","753363460917825537","杨","660","Female","[""好她"",""好我"",""坏我"",""坏她""]","[""强她"",""强我"",""弱我"",""弱她""]","","","","","","","","no","","","","","","","","","SRET","EW_formal","","key","j","16.666115702479388","960","536","自己","差生","Negative","ability","","","","","","","","","","",""
"1263","","j","psychophysics","28","174994","0.0-7.0-3.0-0.14","7","6","7","5","6","5","4","5","5","4","4","2","1","1","2","1","1","1","2","5","5","5","4","4","4","4","4","5","4","7","7","8","8","7","8","8","8","8","6","5","5","5","6","3","6","1","7","5","1","6","3","5","2","7","6","6","4","5","6","3","6","6","5","5","7","6","7","5","6","5","7","6","6","3","7","5","6","5","6","753363460917825537","杨","660","Female","[""好她"",""好我"",""坏我"",""坏她""]","[""强她"",""强我"",""弱我"",""弱她""]","","","","","","","","no","","","","","","","","","SRET","EW_formal","","key","j","16.665925925925883","960","536","朋友","愚痴","Negative","ability","","","","","","","","","","",""
"1455","","f","psychophysics","29","177456","0.0-7.0-3.0-0.15","7","6","7","5","6","5","4","5","5","4","4","2","1","1","2","1","1","1","2","5","5","5","4","4","4","4","4","5","4","7","7","8","8","7","8","8","8","8","6","5","5","5","6","3","6","1","7","5","1","6","3","5","2","7","6","6","4","5","6","3","6","6","5","5","7","6","7","5","6","5","7","6","6","3","7","5","6","5","6","753363460917825537","杨","660","Female","[""好她"",""好我"",""坏我"",""坏她""]","[""强她"",""强我"",""弱我"",""弱她""]","","","","","","","","yes","","","","","","","","","SRET","EW_formal","","key","f","16.66780821917808","960","536","自己","畏难","Negative","ability","","","","","","","","","","",""
"1206","","f","psychophysics","30","179664","0.0-7.0-3.0-0.16","7","6","7","5","6","5","4","5","5","4","4","2","1","1","2","1","1","1","2","5","5","5","4","4","4","4","4","5","4","7","7","8","8","7","8","8","8","8","6","5","5","5","6","3","6","1","7","5","1","6","3","5","2","7","6","6","4","5","6","3","6","6","5","5","7","6","7","5","6","5","7","6","6","3","7","5","6","5","6","753363460917825537","杨","660","Female","[""好她"",""好我"",""坏我"",""坏她""]","[""强她"",""强我"",""弱我"",""弱她""]","","","","","","","","yes","","","","","","","","","SRET","EW_formal","","key","f","16.667424242424286","960","536","自己","宽容","Positive","morality","","","","","","","","","","",""
"952","","f","psychophysics","31","181618","0.0-7.0-3.0-0.17","7","6","7","5","6","5","4","5","5","4","4","2","1","1","2","1","1","1","2","5","5","5","4","4","4","4","4","5","4","7","7","8","8","7","8","8","8","8","6","5","5","5","6","3","6","1","7","5","1","6","3","5","2","7","6","6","4","5","6","3","6","6","5","5","7","6","7","5","6","5","7","6","6","3","7","5","6","5","6","753363460917825537","杨","660","Female","[""好她"",""好我"",""坏我"",""坏她""]","[""强她"",""强我"",""弱我"",""弱她""]","","","","","","","","yes","","","","","","","","","SRET","EW_formal","","key","f","16.66810344827586","960","536","朋友","专注","Positive","ability","","","","","","","","","","",""
"1166","","j","psychophysics","32","183786","0.0-7.0-3.0-0.18","7","6","7","5","6","5","4","5","5","4","4","2","1","1","2","1","1","1","2","5","5","5","4","4","4","4","4","5","4","7","7","8","8","7","8","8","8","8","6","5","5","5","6","3","6","1","7","5","1","6","3","5","2","7","6","6","4","5","6","3","6","6","5","5","7","6","7","5","6","5","7","6","6","3","7","5","6","5","6","753363460917825537","杨","660","Female","[""好她"",""好我"",""坏我"",""坏她""]","[""强她"",""强我"",""弱我"",""弱她""]","","","","","","","","no","","","","","","","","","SRET","EW_formal","","key","j","16.66744186046516","960","536","朋友","恶劣","Negative","morality","","","","","","","","","","",""
"1340","","j","psychophysics","33","186128","0.0-7.0-3.0-0.19","7","6","7","5","6","5","4","5","5","4","4","2","1","1","2","1","1","1","2","5","5","5","4","4","4","4","4","5","4","7","7","8","8","7","8","8","8","8","6","5","5","5","6","3","6","1","7","5","1","6","3","5","2","7","6","6","4","5","6","3","6","6","5","5","7","6","7","5","6","5","7","6","6","3","7","5","6","5","6","753363460917825537","杨","660","Female","[""好她"",""好我"",""坏我"",""坏她""]","[""强她"",""强我"",""弱我"",""弱她""]","","","","","","","","no","","","","","","","","","SRET","EW_formal","","key","j","16.666428571428696","960","536","朋友","浅薄","Negative","ability","","","","","","","","","","",""
"767","","f","psychophysics","34","187897","0.0-7.0-3.0-0.20","7","6","7","5","6","5","4","5","5","4","4","2","1","1","2","1","1","1","2","5","5","5","4","4","4","4","4","5","4","7","7","8","8","7","8","8","8","8","6","5","5","5","6","3","6","1","7","5","1","6","3","5","2","7","6","6","4","5","6","3","6","6","5","5","7","6","7","5","6","5","7","6","6","3","7","5","6","5","6","753363460917825537","杨","660","Female","[""好她"",""好我"",""坏我"",""坏她""]","[""强她"",""强我"",""弱我"",""弱她""]","","","","","","","","yes","","","","","","","","","SRET","EW_formal","","key","f","16.6676190476191","960","536","自己","善良","Positive","morality","","","","","","","","","","",""
"1294","","f","psychophysics","35","190192","0.0-7.0-3.0-0.21","7","6","7","5","6","5","4","5","5","4","4","2","1","1","2","1","1","1","2","5","5","5","4","4","4","4","4","5","4","7","7","8","8","7","8","8","8","8","6","5","5","5","6","3","6","1","7","5","1","6","3","5","2","7","6","6","4","5","6","3","6","6","5","5","7","6","7","5","6","5","7","6","6","3","7","5","6","5","6","753363460917825537","杨","660","Female","[""好她"",""好我"",""坏我"",""坏她""]","[""强她"",""强我"",""弱我"",""弱她""]","","","","","","","","yes","","","","","","","","","SRET","EW_formal","","key","f","16.667647058823444","960","536","自己","无敌","Positive","ability","","","","","","","","","","",""
"687","","f","psychophysics","36","191880","0.0-7.0-3.0-0.22","7","6","7","5","6","5","4","5","5","4","4","2","1","1","2","1","1","1","2","5","5","5","4","4","4","4","4","5","4","7","7","8","8","7","8","8","8","8","6","5","5","5","6","3","6","1","7","5","1","6","3","5","2","7","6","6","4","5","6","3","6","6","5","5","7","6","7","5","6","5","7","6","6","3","7","5","6","5","6","753363460917825537","杨","660","Female","[""好她"",""好我"",""坏我"",""坏她""]","[""强她"",""强我"",""弱我"",""弱她""]","","","","","","","","yes","","","","","","","","","SRET","EW_formal","","key","f","16.66633663366354","960","536","自己","骁勇","Positive","ability","","","","","","","","","","",""
"1095","","j","psychophysics","37","193976","0.0-7.0-3.0-0.23","7","6","7","5","6","5","4","5","5","4","4","2","1","1","2","1","1","1","2","5","5","5","4","4","4","4","4","5","4","7","7","8","8","7","8","8","8","8","6","5","5","5","6","3","6","1","7","5","1","6","3","5","2","7","6","6","4","5","6","3","6","6","5","5","7","6","7","5","6","5","7","6","6","3","7","5","6","5","6","753363460917825537","杨","660","Female","[""好她"",""好我"",""坏我"",""坏她""]","[""强她"",""强我"",""弱我"",""弱她""]","","","","","","","","no","","","","","","","","","SRET","EW_formal","","key","j","16.666129032258112","960","536","朋友","毅力","Positive","ability","","","","","","","","","","",""
"1415","","f","psychophysics","38","196392","0.0-7.0-3.0-0.24","7","6","7","5","6","5","4","5","5","4","4","2","1","1","2","1","1","1","2","5","5","5","4","4","4","4","4","5","4","7","7","8","8","7","8","8","8","8","6","5","5","5","6","3","6","1","7","5","1","6","3","5","2","7","6","6","4","5","6","3","6","6","5","5","7","6","7","5","6","5","7","6","6","3","7","5","6","5","6","753363460917825537","杨","660","Female","[""好她"",""好我"",""坏我"",""坏她""]","[""强她"",""强我"",""弱我"",""弱她""]","","","","","","","","yes","","","","","","","","","SRET","EW_formal","","key","f","16.667361111111152","960","536","自己","好心","Positive","morality","","","","","","","","","","",""
"1222","","f","psychophysics","39","198616","0.0-7.0-3.0-0.25","7","6","7","5","6","5","4","5","5","4","4","2","1","1","2","1","1","1","2","5","5","5","4","4","4","4","4","5","4","7","7","8","8","7","8","8","8","8","6","5","5","5","6","3","6","1","7","5","1","6","3","5","2","7","6","6","4","5","6","3","6","6","5","5","7","6","7","5","6","5","7","6","6","3","7","5","6","5","6","753363460917825537","杨","660","Female","[""好她"",""好我"",""坏我"",""坏她""]","[""强她"",""强我"",""弱我"",""弱她""]","","","","","","","","yes","","","","","","","","","SRET","EW_formal","","key","f","16.666917293232952","960","536","朋友","廉明","Positive","morality","","","","","","","","","","",""
"1038","","j","psychophysics","40","200656","0.0-7.0-3.0-0.26","7","6","7","5","6","5","4","5","5","4","4","2","1","1","2","1","1","1","2","5","5","5","4","4","4","4","4","5","4","7","7","8","8","7","8","8","8","8","6","5","5","5","6","3","6","1","7","5","1","6","3","5","2","7","6","6","4","5","6","3","6","6","5","5","7","6","7","5","6","5","7","6","6","3","7","5","6","5","6","753363460917825537","杨","660","Female","[""好她"",""好我"",""坏我"",""坏她""]","[""强她"",""强我"",""弱我"",""弱她""]","","","","","","","","no","","","","","","","","","SRET","EW_formal","","key","j","16.666942148760427","960","536","自己","不端","Negative","morality","","","","","","","","","","",""
"1574","","j","psychophysics","41","203232","0.0-7.0-3.0-0.27","7","6","7","5","6","5","4","5","5","4","4","2","1","1","2","1","1","1","2","5","5","5","4","4","4","4","4","5","4","7","7","8","8","7","8","8","8","8","6","5","5","5","6","3","6","1","7","5","1","6","3","5","2","7","6","6","4","5","6","3","6","6","5","5","7","6","7","5","6","5","7","6","6","3","7","5","6","5","6","753363460917825537","杨","660","Female","[""好她"",""好我"",""坏我"",""坏她""]","[""强她"",""强我"",""弱我"",""弱她""]","","","","","","","","no","","","","","","","","","SRET","EW_formal","","key","j","16.66753246753258","960","536","自己","迟钝","Negative","ability","","","","","","","","","","",""
"904","","j","psychophysics","42","205138","0.0-7.0-3.0-0.28","7","6","7","5","6","5","4","5","5","4","4","2","1","1","2","1","1","1","2","5","5","5","4","4","4","4","4","5","4","7","7","8","8","7","8","8","8","8","6","5","5","5","6","3","6","1","7","5","1","6","3","5","2","7","6","6","4","5","6","3","6","6","5","5","7","6","7","5","6","5","7","6","6","3","7","5","6","5","6","753363460917825537","杨","660","Female","[""好她"",""好我"",""坏我"",""坏她""]","[""强她"",""强我"",""弱我"",""弱她""]","","","","","","","","no","","","","","","","","","SRET","EW_formal","","key","j","16.66725663716809","960","536","朋友","下流","Negative","morality","","","","","","","","","","",""
"1549","","f","psychophysics","43","207688","0.0-7.0-3.0-0.29","7","6","7","5","6","5","4","5","5","4","4","2","1","1","2","1","1","1","2","5","5","5","4","4","4","4","4","5","4","7","7","8","8","7","8","8","8","8","6","5","5","5","6","3","6","1","7","5","1","6","3","5","2","7","6","6","4","5","6","3","6","6","5","5","7","6","7","5","6","5","7","6","6","3","7","5","6","5","6","753363460917825537","杨","660","Female","[""好她"",""好我"",""坏我"",""坏她""]","[""强她"",""强我"",""弱我"",""弱她""]","","","","","","","","yes","","","","","","","","","SRET","EW_formal","","key","f","16.666447368420975","960","536","朋友","奉献","Positive","morality","","","","","","","","","","",""
"1423","","f","psychophysics","44","210112","0.0-7.0-3.0-0.30","7","6","7","5","6","5","4","5","5","4","4","2","1","1","2","1","1","1","2","5","5","5","4","4","4","4","4","5","4","7","7","8","8","7","8","8","8","8","6","5","5","5","6","3","6","1","7","5","1","6","3","5","2","7","6","6","4","5","6","3","6","6","5","5","7","6","7","5","6","5","7","6","6","3","7","5","6","5","6","753363460917825537","杨","660","Female","[""好她"",""好我"",""坏我"",""坏她""]","[""强她"",""强我"",""弱我"",""弱她""]","","","","","","","","yes","","","","","","","","","SRET","EW_formal","","key","f","16.666206896551763","960","536","朋友","诚信","Positive","morality","","","","","","","","","","",""
"1007","","j","psychophysics","45","212120","0.0-7.0-3.0-0.31","7","6","7","5","6","5","4","5","5","4","4","2","1","1","2","1","1","1","2","5","5","5","4","4","4","4","4","5","4","7","7","8","8","7","8","8","8","8","6","5","5","5","6","3","6","1","7","5","1","6","3","5","2","7","6","6","4","5","6","3","6","6","5","5","7","6","7","5","6","5","7","6","6","3","7","5","6","5","6","753363460917825537","杨","660","Female","[""好她"",""好我"",""坏我"",""坏她""]","[""强她"",""强我"",""弱我"",""弱她""]","","","","","","","","no","","","","","","","","","SRET","EW_formal","","key","j","16.667226890756254","960","536","自己","混账","Negative","morality","","","","","","","","","","",""
"1431","","j","psychophysics","46","214552","0.0-7.0-3.0-0.32","7","6","7","5","6","5","4","5","5","4","4","2","1","1","2","1","1","1","2","5","5","5","4","4","4","4","4","5","4","7","7","8","8","7","8","8","8","8","6","5","5","5","6","3","6","1","7","5","1","6","3","5","2","7","6","6","4","5","6","3","6","6","5","5","7","6","7","5","6","5","7","6","6","3","7","5","6","5","6","753363460917825537","杨","660","Female","[""好她"",""好我"",""坏我"",""坏她""]","[""强她"",""强我"",""弱我"",""弱她""]","","","","","","","","no","","","","","","","","","SRET","EW_formal","","key","j","16.666206896551763","960","536","朋友","笨蛋","Negative","ability","","","","","","","","","","",""
"886","","f","psychophysics","47","216440","0.0-7.0-3.0-0.33","7","6","7","5","6","5","4","5","5","4","4","2","1","1","2","1","1","1","2","5","5","5","4","4","4","4","4","5","4","7","7","8","8","7","8","8","8","8","6","5","5","5","6","3","6","1","7","5","1","6","3","5","2","7","6","6","4","5","6","3","6","6","5","5","7","6","7","5","6","5","7","6","6","3","7","5","6","5","6","753363460917825537","杨","660","Female","[""好她"",""好我"",""坏我"",""坏她""]","[""强她"",""强我"",""弱我"",""弱她""]","","","","","","","","yes","","","","","","","","","SRET","EW_formal","","key","f","16.66607142857122","960","536","自己","清廉","Positive","morality","","","","","","","","","","",""
"1487","","j","psychophysics","48","218928","0.0-7.0-3.0-0.34","7","6","7","5","6","5","4","5","5","4","4","2","1","1","2","1","1","1","2","5","5","5","4","4","4","4","4","5","4","7","7","8","8","7","8","8","8","8","6","5","5","5","6","3","6","1","7","5","1","6","3","5","2","7","6","6","4","5","6","3","6","6","5","5","7","6","7","5","6","5","7","6","6","3","7","5","6","5","6","753363460917825537","杨","660","Female","[""好她"",""好我"",""坏我"",""坏她""]","[""强她"",""强我"",""弱我"",""弱她""]","","","","","","","","no","","","","","","","","","SRET","EW_formal","","key","j","16.668456375838964","960","536","朋友","怠惰","Negative","ability","","","","","","","","","","",""
"966","","f","psychophysics","49","220896","0.0-7.0-3.0-0.35","7","6","7","5","6","5","4","5","5","4","4","2","1","1","2","1","1","1","2","5","5","5","4","4","4","4","4","5","4","7","7","8","8","7","8","8","8","8","6","5","5","5","6","3","6","1","7","5","1","6","3","5","2","7","6","6","4","5","6","3","6","6","5","5","7","6","7","5","6","5","7","6","6","3","7","5","6","5","6","753363460917825537","杨","660","Female","[""好她"",""好我"",""坏我"",""坏她""]","[""强她"",""强我"",""弱我"",""弱她""]","","","","","","","","yes","","","","","","","","","SRET","EW_formal","","key","f","16.66837606837617","960","536","自己","博识","Positive","ability","","","","","","","","","","",""
"null","","null","psychophysics","50","223897","0.0-7.0-3.0-0.36","7","6","7","5","6","5","4","5","5","4","4","2","1","1","2","1","1","1","2","5","5","5","4","4","4","4","4","5","4","7","7","8","8","7","8","8","8","8","6","5","5","5","6","3","6","1","7","5","1","6","3","5","2","7","6","6","4","5","6","3","6","6","5","5","7","6","7","5","6","5","7","6","6","3","7","5","6","5","6","753363460917825537","杨","660","Female","[""好她"",""好我"",""坏我"",""坏她""]","[""强她"",""强我"",""弱我"",""弱她""]","","","","","","","","","","","","","","","","","SRET","EW_formal","","key","null","16.66648044692731","960","536","朋友","屈才","Negative","ability","","","","","","","","","","",""
"null","","null","psychophysics","51","226900","0.0-7.0-3.0-0.37","7","6","7","5","6","5","4","5","5","4","4","2","1","1","2","1","1","1","2","5","5","5","4","4","4","4","4","5","4","7","7","8","8","7","8","8","8","8","6","5","5","5","6","3","6","1","7","5","1","6","3","5","2","7","6","6","4","5","6","3","6","6","5","5","7","6","7","5","6","5","7","6","6","3","7","5","6","5","6","753363460917825537","杨","660","Female","[""好她"",""好我"",""坏我"",""坏她""]","[""强她"",""强我"",""弱我"",""弱她""]","","","","","","","","","","","","","","","","","SRET","EW_formal","","key","null","16.66648044692731","960","536","朋友","失信","Negative","morality","","","","","","","","","","",""
"1196","","j","psychophysics","52","229097","0.0-7.0-3.0-0.38","7","6","7","5","6","5","4","5","5","4","4","2","1","1","2","1","1","1","2","5","5","5","4","4","4","4","4","5","4","7","7","8","8","7","8","8","8","8","6","5","5","5","6","3","6","1","7","5","1","6","3","5","2","7","6","6","4","5","6","3","6","6","5","5","7","6","7","5","6","5","7","6","6","3","7","5","6","5","6","753363460917825537","杨","660","Female","[""好她"",""好我"",""坏我"",""坏她""]","[""强她"",""强我"",""弱我"",""弱她""]","","","","","","","","no","","","","","","","","","SRET","EW_formal","","key","j","16.6656488549617","960","536","朋友","才尽","Negative","ability","","","","","","","","","","",""
"1598","","f","psychophysics","53","231696","0.0-7.0-3.0-0.39","7","6","7","5","6","5","4","5","5","4","4","2","1","1","2","1","1","1","2","5","5","5","4","4","4","4","4","5","4","7","7","8","8","7","8","8","8","8","6","5","5","5","6","3","6","1","7","5","1","6","3","5","2","7","6","6","4","5","6","3","6","6","5","5","7","6","7","5","6","5","7","6","6","3","7","5","6","5","6","753363460917825537","杨","660","Female","[""好她"",""好我"",""坏我"",""坏她""]","[""强她"",""强我"",""弱我"",""弱她""]","","","","","","","","yes","","","","","","","","","SRET","EW_formal","","key","f","16.66709677419351","960","536","朋友","刚正","Positive","morality","","","","","","","","","","",""
"1447","","j","psychophysics","54","234144","0.0-7.0-3.0-0.40","7","6","7","5","6","5","4","5","5","4","4","2","1","1","2","1","1","1","2","5","5","5","4","4","4","4","4","5","4","7","7","8","8","7","8","8","8","8","6","5","5","5","6","3","6","1","7","5","1","6","3","5","2","7","6","6","4","5","6","3","6","6","5","5","7","6","7","5","6","5","7","6","6","3","7","5","6","5","6","753363460917825537","杨","660","Female","[""好她"",""好我"",""坏我"",""坏她""]","[""强她"",""强我"",""弱我"",""弱她""]","","","","","","","","no","","","","","","","","","SRET","EW_formal","","key","j","16.667123287671192","960","536","自己","小人","Negative","morality","","","","","","","","","","",""
"999","","f","psychophysics","55","236144","0.0-7.0-3.0-0.41","7","6","7","5","6","5","4","5","5","4","4","2","1","1","2","1","1","1","2","5","5","5","4","4","4","4","4","5","4","7","7","8","8","7","8","8","8","8","6","5","5","5","6","3","6","1","7","5","1","6","3","5","2","7","6","6","4","5","6","3","6","6","5","5","7","6","7","5","6","5","7","6","6","3","7","5","6","5","6","753363460917825537","杨","660","Female","[""好她"",""好我"",""坏我"",""坏她""]","[""强她"",""强我"",""弱我"",""弱她""]","","","","","","","","yes","","","","","","","","","SRET","EW_formal","","key","f","16.668067226890756","960","536","朋友","勤恳","Positive","morality","","","","","","","","","","",""
"887","","f","psychophysics","56","238032","0.0-7.0-3.0-0.42","7","6","7","5","6","5","4","5","5","4","4","2","1","1","2","1","1","1","2","5","5","5","4","4","4","4","4","5","4","7","7","8","8","7","8","8","8","8","6","5","5","5","6","3","6","1","7","5","1","6","3","5","2","7","6","6","4","5","6","3","6","6","5","5","7","6","7","5","6","5","7","6","6","3","7","5","6","5","6","753363460917825537","杨","660","Female","[""好她"",""好我"",""坏我"",""坏她""]","[""强她"",""强我"",""弱我"",""弱她""]","","","","","","","","yes","","","","","","","","","SRET","EW_formal","","key","f","16.66696428571439","960","536","朋友","中用","Positive","ability","","","","","","","","","","",""
"886","","j","psychophysics","57","239920","0.0-7.0-3.0-0.43","7","6","7","5","6","5","4","5","5","4","4","2","1","1","2","1","1","1","2","5","5","5","4","4","4","4","4","5","4","7","7","8","8","7","8","8","8","8","6","5","5","5","6","3","6","1","7","5","1","6","3","5","2","7","6","6","4","5","6","3","6","6","5","5","7","6","7","5","6","5","7","6","6","3","7","5","6","5","6","753363460917825537","杨","660","Female","[""好她"",""好我"",""坏我"",""坏她""]","[""强她"",""强我"",""弱我"",""弱她""]","","","","","","","","no","","","","","","","","","SRET","EW_formal","","key","j","16.66696428571413","960","536","自己","不良","Negative","morality","","","","","","","","","","",""
"1328","","f","psychophysics","58","242249","0.0-7.0-3.0-0.44","7","6","7","5","6","5","4","5","5","4","4","2","1","1","2","1","1","1","2","5","5","5","4","4","4","4","4","5","4","7","7","8","8","7","8","8","8","8","6","5","5","5","6","3","6","1","7","5","1","6","3","5","2","7","6","6","4","5","6","3","6","6","5","5","7","6","7","5","6","5","7","6","6","3","7","5","6","5","6","753363460917825537","杨","660","Female","[""好她"",""好我"",""坏我"",""坏她""]","[""强她"",""强我"",""弱我"",""弱她""]","","","","","","","","yes","","","","","","","","","SRET","EW_formal","","key","f","16.66762589928049","960","536","自己","忠勇","Positive","morality","","","","","","","","","","",""
"830","","f","psychophysics","59","244080","0.0-7.0-3.0-0.45","7","6","7","5","6","5","4","5","5","4","4","2","1","1","2","1","1","1","2","5","5","5","4","4","4","4","4","5","4","7","7","8","8","7","8","8","8","8","6","5","5","5","6","3","6","1","7","5","1","6","3","5","2","7","6","6","4","5","6","3","6","6","5","5","7","6","7","5","6","5","7","6","6","3","7","5","6","5","6","753363460917825537","杨","660","Female","[""好她"",""好我"",""坏我"",""坏她""]","[""强她"",""强我"",""弱我"",""弱她""]","","","","","","","","yes","","","","","","","","","SRET","EW_formal","","key","f","16.666972477064327","960","536","自己","学霸","Positive","ability","","","","","","","","","","",""
"718","","f","psychophysics","60","245800","0.0-7.0-3.0-0.46","7","6","7","5","6","5","4","5","5","4","4","2","1","1","2","1","1","1","2","5","5","5","4","4","4","4","4","5","4","7","7","8","8","7","8","8","8","8","6","5","5","5","6","3","6","1","7","5","1","6","3","5","2","7","6","6","4","5","6","3","6","6","5","5","7","6","7","5","6","5","7","6","6","3","7","5","6","5","6","753363460917825537","杨","660","Female","[""好她"",""好我"",""坏我"",""坏她""]","[""强她"",""强我"",""弱我"",""弱她""]","","","","","","","","yes","","","","","","","","","SRET","EW_formal","","key","f","16.666666666666668","960","536","自己","礼貌","Positive","morality","","","","","","","","","","",""
"1078","","j","psychophysics","61","247880","0.0-7.0-3.0-0.47","7","6","7","5","6","5","4","5","5","4","4","2","1","1","2","1","1","1","2","5","5","5","4","4","4","4","4","5","4","7","7","8","8","7","8","8","8","8","6","5","5","5","6","3","6","1","7","5","1","6","3","5","2","7","6","6","4","5","6","3","6","6","5","5","7","6","7","5","6","5","7","6","6","3","7","5","6","5","6","753363460917825537","杨","660","Female","[""好她"",""好我"",""坏我"",""坏她""]","[""强她"",""强我"",""弱我"",""弱她""]","","","","","","","","no","","","","","","","","","SRET","EW_formal","","key","j","16.666935483870827","960","536","自己","迂拙","Negative","ability","","","","","","","","","","",""
"759","","j","psychophysics","62","249639","0.0-7.0-3.0-0.48","7","6","7","5","6","5","4","5","5","4","4","2","1","1","2","1","1","1","2","5","5","5","4","4","4","4","4","5","4","7","7","8","8","7","8","8","8","8","6","5","5","5","6","3","6","1","7","5","1","6","3","5","2","7","6","6","4","5","6","3","6","6","5","5","7","6","7","5","6","5","7","6","6","3","7","5","6","5","6","753363460917825537","杨","660","Female","[""好她"",""好我"",""坏我"",""坏她""]","[""强她"",""强我"",""弱我"",""弱她""]","","","","","","","","no","","","","","","","","","SRET","EW_formal","","key","j","16.665384615384447","960","536","朋友","背叛","Negative","morality","","","","","","","","","","",""
"871","","f","psychophysics","63","251511","0.0-7.0-3.0-0.49","7","6","7","5","6","5","4","5","5","4","4","2","1","1","2","1","1","1","2","5","5","5","4","4","4","4","4","5","4","7","7","8","8","7","8","8","8","8","6","5","5","5","6","3","6","1","7","5","1","6","3","5","2","7","6","6","4","5","6","3","6","6","5","5","7","6","7","5","6","5","7","6","6","3","7","5","6","5","6","753363460917825537","杨","660","Female","[""好她"",""好我"",""坏我"",""坏她""]","[""强她"",""强我"",""弱我"",""弱她""]","","","","","","","","yes","","","","","","","","","SRET","EW_formal","","key","f","16.66696428571439","960","536","朋友","果断","Positive","ability","","","","","","","","","","",""
"1095","","j","psychophysics","64","253608","0.0-7.0-3.0-0.50","7","6","7","5","6","5","4","5","5","4","4","2","1","1","2","1","1","1","2","5","5","5","4","4","4","4","4","5","4","7","7","8","8","7","8","8","8","8","6","5","5","5","6","3","6","1","7","5","1","6","3","5","2","7","6","6","4","5","6","3","6","6","5","5","7","6","7","5","6","5","7","6","6","3","7","5","6","5","6","753363460917825537","杨","660","Female","[""好她"",""好我"",""坏我"",""坏她""]","[""强她"",""强我"",""弱我"",""弱她""]","","","","","","","","no","","","","","","","","","SRET","EW_formal","","key","j","16.667741935484013","960","536","自己","不仁","Negative","morality","","","","","","","","","","",""
"855","","j","psychophysics","65","255464","0.0-7.0-3.0-0.51","7","6","7","5","6","5","4","5","5","4","4","2","1","1","2","1","1","1","2","5","5","5","4","4","4","4","4","5","4","7","7","8","8","7","8","8","8","8","6","5","5","5","6","3","6","1","7","5","1","6","3","5","2","7","6","6","4","5","6","3","6","6","5","5","7","6","7","5","6","5","7","6","6","3","7","5","6","5","6","753363460917825537","杨","660","Female","[""好她"",""好我"",""坏我"",""坏她""]","[""强她"",""强我"",""弱我"",""弱她""]","","","","","","","","no","","","","","","","","","SRET","EW_formal","","key","j","16.66756756756762","960","536","自己","无赖","Negative","morality","","","","","","","","","","",""
"1360","","j","psychophysics","66","257825","0.0-7.0-3.0-0.52","7","6","7","5","6","5","4","5","5","4","4","2","1","1","2","1","1","1","2","5","5","5","4","4","4","4","4","5","4","7","7","8","8","7","8","8","8","8","6","5","5","5","6","3","6","1","7","5","1","6","3","5","2","7","6","6","4","5","6","3","6","6","5","5","7","6","7","5","6","5","7","6","6","3","7","5","6","5","6","753363460917825537","杨","660","Female","[""好她"",""好我"",""坏我"",""坏她""]","[""强她"",""强我"",""弱我"",""弱她""]","","","","","","","","no","","","","","","","","","SRET","EW_formal","","key","j","16.665957446808676","960","536","朋友","逞能","Negative","ability","","","","","","","","","","",""
"1166","","f","psychophysics","67","259992","0.0-7.0-3.0-0.53","7","6","7","5","6","5","4","5","5","4","4","2","1","1","2","1","1","1","2","5","5","5","4","4","4","4","4","5","4","7","7","8","8","7","8","8","8","8","6","5","5","5","6","3","6","1","7","5","1","6","3","5","2","7","6","6","4","5","6","3","6","6","5","5","7","6","7","5","6","5","7","6","6","3","7","5","6","5","6","753363460917825537","杨","660","Female","[""好她"",""好我"",""坏我"",""坏她""]","[""强她"",""强我"",""弱我"",""弱她""]","","","","","","","","yes","","","","","","","","","SRET","EW_formal","","key","f","16.66666666666689","960","536","自己","远见","Positive","ability","","","","","","","","","","",""
"814","","f","psychophysics","68","261808","0.0-7.0-3.0-0.54","7","6","7","5","6","5","4","5","5","4","4","2","1","1","2","1","1","1","2","5","5","5","4","4","4","4","4","5","4","7","7","8","8","7","8","8","8","8","6","5","5","5","6","3","6","1","7","5","1","6","3","5","2","7","6","6","4","5","6","3","6","6","5","5","7","6","7","5","6","5","7","6","6","3","7","5","6","5","6","753363460917825537","杨","660","Female","[""好她"",""好我"",""坏我"",""坏她""]","[""强她"",""强我"",""弱我"",""弱她""]","","","","","","","","yes","","","","","","","","","SRET","EW_formal","","key","f","16.665420560747773","960","536","自己","仁爱","Positive","morality","","","","","","","","","","",""
"792","","f","psychophysics","69","263601","0.0-7.0-3.0-0.55","7","6","7","5","6","5","4","5","5","4","4","2","1","1","2","1","1","1","2","5","5","5","4","4","4","4","4","5","4","7","7","8","8","7","8","8","8","8","6","5","5","5","6","3","6","1","7","5","1","6","3","5","2","7","6","6","4","5","6","3","6","6","5","5","7","6","7","5","6","5","7","6","6","3","7","5","6","5","6","753363460917825537","杨","660","Female","[""好她"",""好我"",""坏我"",""坏她""]","[""强她"",""强我"",""弱我"",""弱她""]","","","","","","","","yes","","","","","","","","","SRET","EW_formal","","key","f","16.66822429906542","960","536","朋友","沉着","Positive","ability","","","","","","","","","","",""
"670","","f","psychophysics","70","265272","0.0-7.0-3.0-0.56","7","6","7","5","6","5","4","5","5","4","4","2","1","1","2","1","1","1","2","5","5","5","4","4","4","4","4","5","4","7","7","8","8","7","8","8","8","8","6","5","5","5","6","3","6","1","7","5","1","6","3","5","2","7","6","6","4","5","6","3","6","6","5","5","7","6","7","5","6","5","7","6","6","3","7","5","6","5","6","753363460917825537","杨","660","Female","[""好她"",""好我"",""坏我"",""坏她""]","[""强她"",""强我"",""弱我"",""弱她""]","","","","","","","","yes","","","","","","","","","SRET","EW_formal","","key","f","16.667676767676532","960","536","朋友","细心","Positive","ability","","","","","","","","","","",""
"1039","","j","psychophysics","71","267312","0.0-7.0-3.0-0.57","7","6","7","5","6","5","4","5","5","4","4","2","1","1","2","1","1","1","2","5","5","5","4","4","4","4","4","5","4","7","7","8","8","7","8","8","8","8","6","5","5","5","6","3","6","1","7","5","1","6","3","5","2","7","6","6","4","5","6","3","6","6","5","5","7","6","7","5","6","5","7","6","6","3","7","5","6","5","6","753363460917825537","杨","660","Female","[""好她"",""好我"",""坏我"",""坏她""]","[""强她"",""强我"",""弱我"",""弱她""]","","","","","","","","no","","","","","","","","","SRET","EW_formal","","key","j","16.668032786885245","960","536","朋友","拖延","Negative","ability","","","","","","","","","","",""
"816","","f","psychophysics","72","269128","0.0-7.0-3.0-0.58","7","6","7","5","6","5","4","5","5","4","4","2","1","1","2","1","1","1","2","5","5","5","4","4","4","4","4","5","4","7","7","8","8","7","8","8","8","8","6","5","5","5","6","3","6","1","7","5","1","6","3","5","2","7","6","6","4","5","6","3","6","6","5","5","7","6","7","5","6","5","7","6","6","3","7","5","6","5","6","753363460917825537","杨","660","Female","[""好她"",""好我"",""坏我"",""坏她""]","[""强她"",""强我"",""弱我"",""弱她""]","","","","","","","","yes","","","","","","","","","SRET","EW_formal","","key","f","16.667592592592378","960","536","朋友","高效","Positive","ability","","","","","","","","","","",""
"1718","","j","psychophysics","73","271847","0.0-7.0-3.0-0.59","7","6","7","5","6","5","4","5","5","4","4","2","1","1","2","1","1","1","2","5","5","5","4","4","4","4","4","5","4","7","7","8","8","7","8","8","8","8","6","5","5","5","6","3","6","1","7","5","1","6","3","5","2","7","6","6","4","5","6","3","6","6","5","5","7","6","7","5","6","5","7","6","6","3","7","5","6","5","6","753363460917825537","杨","660","Female","[""好她"",""好我"",""坏我"",""坏她""]","[""强她"",""强我"",""弱我"",""弱她""]","","","","","","","","no","","","","","","","","","SRET","EW_formal","","key","j","16.66543209876536","960","536","自己","逞强","Negative","ability","","","","","","","","","","",""
"1328","","j","psychophysics","74","274176","0.0-7.0-3.0-0.60","7","6","7","5","6","5","4","5","5","4","4","2","1","1","2","1","1","1","2","5","5","5","4","4","4","4","4","5","4","7","7","8","8","7","8","8","8","8","6","5","5","5","6","3","6","1","7","5","1","6","3","5","2","7","6","6","4","5","6","3","6","6","5","5","7","6","7","5","6","5","7","6","6","3","7","5","6","5","6","753363460917825537","杨","660","Female","[""好她"",""好我"",""坏我"",""坏她""]","[""强她"",""强我"",""弱我"",""弱她""]","","","","","","","","no","","","","","","","","","SRET","EW_formal","","key","j","16.66762589928049","960","536","自己","卑鄙","Negative","morality","","","","","","","","","","",""
"919","","f","psychophysics","75","276096","0.0-7.0-3.0-0.61","7","6","7","5","6","5","4","5","5","4","4","2","1","1","2","1","1","1","2","5","5","5","4","4","4","4","4","5","4","7","7","8","8","7","8","8","8","8","6","5","5","5","6","3","6","1","7","5","1","6","3","5","2","7","6","6","4","5","6","3","6","6","5","5","7","6","7","5","6","5","7","6","6","3","7","5","6","5","6","753363460917825537","杨","660","Female","[""好她"",""好我"",""坏我"",""坏她""]","[""强她"",""强我"",""弱我"",""弱她""]","","","","","","","","yes","","","","","","","","","SRET","EW_formal","","key","f","16.666666666666668","960","536","朋友","文明","Positive","morality","","","","","","","","","","",""
"1071","","j","psychophysics","76","278168","0.0-7.0-3.0-0.62","7","6","7","5","6","5","4","5","5","4","4","2","1","1","2","1","1","1","2","5","5","5","4","4","4","4","4","5","4","7","7","8","8","7","8","8","8","8","6","5","5","5","6","3","6","1","7","5","1","6","3","5","2","7","6","6","4","5","6","3","6","6","5","5","7","6","7","5","6","5","7","6","6","3","7","5","6","5","6","753363460917825537","杨","660","Female","[""好她"",""好我"",""坏我"",""坏她""]","[""强她"",""强我"",""弱我"",""弱她""]","","","","","","","","no","","","","","","","","","SRET","EW_formal","","key","j","16.666666666666668","960","536","朋友","愚钝","Negative","ability","","","","","","","","","","",""
"911","","j","psychophysics","77","280080","0.0-7.0-3.0-0.63","7","6","7","5","6","5","4","5","5","4","4","2","1","1","2","1","1","1","2","5","5","5","4","4","4","4","4","5","4","7","7","8","8","7","8","8","8","8","6","5","5","5","6","3","6","1","7","5","1","6","3","5","2","7","6","6","4","5","6","3","6","6","5","5","7","6","7","5","6","5","7","6","6","3","7","5","6","5","6","753363460917825537","杨","660","Female","[""好她"",""好我"",""坏我"",""坏她""]","[""强她"",""强我"",""弱我"",""弱她""]","","","","","","","","no","","","","","","","","","SRET","EW_formal","","key","j","16.665789473684416","960","536","自己","窝囊","Negative","ability","","","","","","","","","","",""
"912","","f","psychophysics","78","281992","0.0-7.0-3.0-0.64","7","6","7","5","6","5","4","5","5","4","4","2","1","1","2","1","1","1","2","5","5","5","4","4","4","4","4","5","4","7","7","8","8","7","8","8","8","8","6","5","5","5","6","3","6","1","7","5","1","6","3","5","2","7","6","6","4","5","6","3","6","6","5","5","7","6","7","5","6","5","7","6","6","3","7","5","6","5","6","753363460917825537","杨","660","Female","[""好她"",""好我"",""坏我"",""坏她""]","[""强她"",""强我"",""弱我"",""弱她""]","","","","","","","","yes","","","","","","","","","SRET","EW_formal","","key","f","16.66754385964892","960","536","自己","高明","Positive","ability","","","","","","","","","","",""
"1335","","j","psychophysics","79","284327","0.0-7.0-3.0-0.65","7","6","7","5","6","5","4","5","5","4","4","2","1","1","2","1","1","1","2","5","5","5","4","4","4","4","4","5","4","7","7","8","8","7","8","8","8","8","6","5","5","5","6","3","6","1","7","5","1","6","3","5","2","7","6","6","4","5","6","3","6","6","5","5","7","6","7","5","6","5","7","6","6","3","7","5","6","5","6","753363460917825537","杨","660","Female","[""好她"",""好我"",""坏我"",""坏她""]","[""强她"",""强我"",""弱我"",""弱她""]","","","","","","","","no","","","","","","","","","SRET","EW_formal","","key","j","16.666187050359543","960","536","朋友","黑心","Negative","morality","","","","","","","","","","",""
"1271","","f","psychophysics","80","286600","0.0-7.0-3.0-0.66","7","6","7","5","6","5","4","5","5","4","4","2","1","1","2","1","1","1","2","5","5","5","4","4","4","4","4","5","4","7","7","8","8","7","8","8","8","8","6","5","5","5","6","3","6","1","7","5","1","6","3","5","2","7","6","6","4","5","6","3","6","6","5","5","7","6","7","5","6","5","7","6","6","3","7","5","6","5","6","753363460917825537","杨","660","Female","[""好她"",""好我"",""坏我"",""坏她""]","[""强她"",""强我"",""弱我"",""弱她""]","","","","","","","","yes","","","","","","","","","SRET","EW_formal","","key","f","16.668148148148234","960","536","自己","业余","Negative","ability","","","","","","","","","","",""
"1135","","j","psychophysics","81","288735","0.0-7.0-3.0-0.67","7","6","7","5","6","5","4","5","5","4","4","2","1","1","2","1","1","1","2","5","5","5","4","4","4","4","4","5","4","7","7","8","8","7","8","8","8","8","6","5","5","5","6","3","6","1","7","5","1","6","3","5","2","7","6","6","4","5","6","3","6","6","5","5","7","6","7","5","6","5","7","6","6","3","7","5","6","5","6","753363460917825537","杨","660","Female","[""好她"",""好我"",""坏我"",""坏她""]","[""强她"",""强我"",""弱我"",""弱她""]","","","","","","","","no","","","","","","","","","SRET","EW_formal","","key","j","16.66692913385836","960","536","自己","偏私","Negative","morality","","","","","","","","","","",""
"752","","f","psychophysics","82","290488","0.0-7.0-3.0-0.68","7","6","7","5","6","5","4","5","5","4","4","2","1","1","2","1","1","1","2","5","5","5","4","4","4","4","4","5","4","7","7","8","8","7","8","8","8","8","6","5","5","5","6","3","6","1","7","5","1","6","3","5","2","7","6","6","4","5","6","3","6","6","5","5","7","6","7","5","6","5","7","6","6","3","7","5","6","5","6","753363460917825537","杨","660","Female","[""好她"",""好我"",""坏我"",""坏她""]","[""强她"",""强我"",""弱我"",""弱她""]","","","","","","","","yes","","","","","","","","","SRET","EW_formal","","key","f","16.6663461538466","960","536","朋友","自律","Positive","ability","","","","","","","","","","",""
"1223","","j","psychophysics","83","292712","0.0-7.0-3.0-0.69","7","6","7","5","6","5","4","5","5","4","4","2","1","1","2","1","1","1","2","5","5","5","4","4","4","4","4","5","4","7","7","8","8","7","8","8","8","8","6","5","5","5","6","3","6","1","7","5","1","6","3","5","2","7","6","6","4","5","6","3","6","6","5","5","7","6","7","5","6","5","7","6","6","3","7","5","6","5","6","753363460917825537","杨","660","Female","[""好她"",""好我"",""坏我"",""坏她""]","[""强她"",""强我"",""弱我"",""弱她""]","","","","","","","","no","","","","","","","","","SRET","EW_formal","","key","j","16.66691729323317","960","536","朋友","伪善","Negative","morality","","","","","","","","","","",""
"951","","f","psychophysics","84","294664","0.0-7.0-3.0-0.70","7","6","7","5","6","5","4","5","5","4","4","2","1","1","2","1","1","1","2","5","5","5","4","4","4","4","4","5","4","7","7","8","8","7","8","8","8","8","6","5","5","5","6","3","6","1","7","5","1","6","3","5","2","7","6","6","4","5","6","3","6","6","5","5","7","6","7","5","6","5","7","6","6","3","7","5","6","5","6","753363460917825537","杨","660","Female","[""好她"",""好我"",""坏我"",""坏她""]","[""强她"",""强我"",""弱我"",""弱她""]","","","","","","","","yes","","","","","","","","","SRET","EW_formal","","key","f","16.66810344827586","960","536","朋友","守法","Positive","morality","","","","","","","","","","",""
"830","","j","psychophysics","85","296496","0.0-7.0-3.0-0.71","7","6","7","5","6","5","4","5","5","4","4","2","1","1","2","1","1","1","2","5","5","5","4","4","4","4","4","5","4","7","7","8","8","7","8","8","8","8","6","5","5","5","6","3","6","1","7","5","1","6","3","5","2","7","6","6","4","5","6","3","6","6","5","5","7","6","7","5","6","5","7","6","6","3","7","5","6","5","6","753363460917825537","杨","660","Female","[""好她"",""好我"",""坏我"",""坏她""]","[""强她"",""强我"",""弱我"",""弱她""]","","","","","","","","no","","","","","","","","","SRET","EW_formal","","key","j","16.666055045871346","960","536","朋友","蛇蝎","Negative","morality","","","","","","","","","","",""
"1040","","j","psychophysics","86","298536","0.0-7.0-3.0-0.72","7","6","7","5","6","5","4","5","5","4","4","2","1","1","2","1","1","1","2","5","5","5","4","4","4","4","4","5","4","7","7","8","8","7","8","8","8","8","6","5","5","5","6","3","6","1","7","5","1","6","3","5","2","7","6","6","4","5","6","3","6","6","5","5","7","6","7","5","6","5","7","6","6","3","7","5","6","5","6","753363460917825537","杨","660","Female","[""好她"",""好我"",""坏我"",""坏她""]","[""强她"",""强我"",""弱我"",""弱她""]","","","","","","","","no","","","","","","","","","SRET","EW_formal","","key","j","16.668595041322508","960","536","朋友","思辨","Positive","ability","","","","","","","","","","",""
"753","","j","psychophysics","87","300290","0.0-7.0-3.0-0.73","7","6","7","5","6","5","4","5","5","4","4","2","1","1","2","1","1","1","2","5","5","5","4","4","4","4","4","5","4","7","7","8","8","7","8","8","8","8","6","5","5","5","6","3","6","1","7","5","1","6","3","5","2","7","6","6","4","5","6","3","6","6","5","5","7","6","7","5","6","5","7","6","6","3","7","5","6","5","6","753363460917825537","杨","660","Female","[""好她"",""好我"",""坏我"",""坏她""]","[""强她"",""强我"",""弱我"",""弱她""]","","","","","","","","no","","","","","","","","","SRET","EW_formal","","key","j","16.666346153846042","960","536","朋友","虚伪","Negative","morality","","","","","","","","","","",""
"868","","f","psychophysics","88","302159","0.0-7.0-3.0-0.74","7","6","7","5","6","5","4","5","5","4","4","2","1","1","2","1","1","1","2","5","5","5","4","4","4","4","4","5","4","7","7","8","8","7","8","8","8","8","6","5","5","5","6","3","6","1","7","5","1","6","3","5","2","7","6","6","4","5","6","3","6","6","5","5","7","6","7","5","6","5","7","6","6","3","7","5","6","5","6","753363460917825537","杨","660","Female","[""好她"",""好我"",""坏我"",""坏她""]","[""强她"",""强我"",""弱我"",""弱她""]","","","","","","","","yes","","","","","","","","","SRET","EW_formal","","key","f","16.66607142857174","960","536","自己","聪明","Positive","ability","","","","","","","","","","",""
"1152","","f","psychophysics","89","304312","0.0-7.0-3.0-0.75","7","6","7","5","6","5","4","5","5","4","4","2","1","1","2","1","1","1","2","5","5","5","4","4","4","4","4","5","4","7","7","8","8","7","8","8","8","8","6","5","5","5","6","3","6","1","7","5","1","6","3","5","2","7","6","6","4","5","6","3","6","6","5","5","7","6","7","5","6","5","7","6","6","3","7","5","6","5","6","753363460917825537","杨","660","Female","[""好她"",""好我"",""坏我"",""坏她""]","[""强她"",""强我"",""弱我"",""弱她""]","","","","","","","","yes","","","","","","","","","SRET","EW_formal","","key","f","16.667187500000182","960","536","自己","外行","Negative","ability","","","","","","","","","","",""
"1526","","j","psychophysics","90","306839","0.0-7.0-3.0-0.76","7","6","7","5","6","5","4","5","5","4","4","2","1","1","2","1","1","1","2","5","5","5","4","4","4","4","4","5","4","7","7","8","8","7","8","8","8","8","6","5","5","5","6","3","6","1","7","5","1","6","3","5","2","7","6","6","4","5","6","3","6","6","5","5","7","6","7","5","6","5","7","6","6","3","7","5","6","5","6","753363460917825537","杨","660","Female","[""好她"",""好我"",""坏我"",""坏她""]","[""强她"",""强我"",""弱我"",""弱她""]","","","","","","","","no","","","","","","","","","SRET","EW_formal","","key","j","16.667333333333566","960","536","自己","诡诈","Negative","morality","","","","","","","","","","",""
"1505","","j","psychophysics","91","309345","0.0-7.0-3.0-0.77","7","6","7","5","6","5","4","5","5","4","4","2","1","1","2","1","1","1","2","5","5","5","4","4","4","4","4","5","4","7","7","8","8","7","8","8","8","8","6","5","5","5","6","3","6","1","7","5","1","6","3","5","2","7","6","6","4","5","6","3","6","6","5","5","7","6","7","5","6","5","7","6","6","3","7","5","6","5","6","753363460917825537","杨","660","Female","[""好她"",""好我"",""坏我"",""坏她""]","[""强她"",""强我"",""弱我"",""弱她""]","","","","","","","","no","","","","","","","","","SRET","EW_formal","","key","j","16.666000000000157","960","536","朋友","缺德","Negative","morality","","","","","","","","","","",""
"1021","","f","psychophysics","92","311368","0.0-7.0-3.0-0.78","7","6","7","5","6","5","4","5","5","4","4","2","1","1","2","1","1","1","2","5","5","5","4","4","4","4","4","5","4","7","7","8","8","7","8","8","8","8","6","5","5","5","6","3","6","1","7","5","1","6","3","5","2","7","6","6","4","5","6","3","6","6","5","5","7","6","7","5","6","5","7","6","6","3","7","5","6","5","6","753363460917825537","杨","660","Female","[""好她"",""好我"",""坏我"",""坏她""]","[""强她"",""强我"",""弱我"",""弱她""]","","","","","","","","yes","","","","","","","","","SRET","EW_formal","","key","f","16.665833333333044","960","536","朋友","智慧","Positive","ability","","","","","","","","","","",""
"743","","f","psychophysics","93","313112","0.0-7.0-3.0-0.79","7","6","7","5","6","5","4","5","5","4","4","2","1","1","2","1","1","1","2","5","5","5","4","4","4","4","4","5","4","7","7","8","8","7","8","8","8","8","6","5","5","5","6","3","6","1","7","5","1","6","3","5","2","7","6","6","4","5","6","3","6","6","5","5","7","6","7","5","6","5","7","6","6","3","7","5","6","5","6","753363460917825537","杨","660","Female","[""好她"",""好我"",""坏我"",""坏她""]","[""强她"",""强我"",""弱我"",""弱她""]","","","","","","","","yes","","","","","","","","","SRET","EW_formal","","key","f","16.667307692307915","960","536","朋友","侠义","Positive","morality","","","","","","","","","","",""
"1431","","f","psychophysics","94","315543","0.0-7.0-3.0-0.80","7","6","7","5","6","5","4","5","5","4","4","2","1","1","2","1","1","1","2","5","5","5","4","4","4","4","4","5","4","7","7","8","8","7","8","8","8","8","6","5","5","5","6","3","6","1","7","5","1","6","3","5","2","7","6","6","4","5","6","3","6","6","5","5","7","6","7","5","6","5","7","6","6","3","7","5","6","5","6","753363460917825537","杨","660","Female","[""好她"",""好我"",""坏我"",""坏她""]","[""强她"",""强我"",""弱我"",""弱她""]","","","","","","","","yes","","","","","","","","","SRET","EW_formal","","key","f","16.666206896551564","960","536","朋友","马虎","Negative","ability","","","","","","","","","","",""
"999","","f","psychophysics","95","317544","0.0-7.0-3.0-0.81","7","6","7","5","6","5","4","5","5","4","4","2","1","1","2","1","1","1","2","5","5","5","4","4","4","4","4","5","4","7","7","8","8","7","8","8","8","8","6","5","5","5","6","3","6","1","7","5","1","6","3","5","2","7","6","6","4","5","6","3","6","6","5","5","7","6","7","5","6","5","7","6","6","3","7","5","6","5","6","753363460917825537","杨","660","Female","[""好她"",""好我"",""坏我"",""坏她""]","[""强她"",""强我"",""弱我"",""弱她""]","","","","","","","","yes","","","","","","","","","SRET","EW_formal","","key","f","16.666386554621752","960","536","自己","变通","Positive","ability","","","","","","","","","","",""
"872","","f","psychophysics","96","319416","0.0-7.0-3.0-0.82","7","6","7","5","6","5","4","5","5","4","4","2","1","1","2","1","1","1","2","5","5","5","4","4","4","4","4","5","4","7","7","8","8","7","8","8","8","8","6","5","5","5","6","3","6","1","7","5","1","6","3","5","2","7","6","6","4","5","6","3","6","6","5","5","7","6","7","5","6","5","7","6","6","3","7","5","6","5","6","753363460917825537","杨","660","Female","[""好她"",""好我"",""坏我"",""坏她""]","[""强她"",""强我"",""弱我"",""弱她""]","","","","","","","","yes","","","","","","","","","SRET","EW_formal","","key","f","16.668468468468575","960","536","自己","正气","Positive","morality","","","","","","","","","","",""
"990","","j","psychophysics","97","321408","0.0-7.0-3.0-0.83","7","6","7","5","6","5","4","5","5","4","4","2","1","1","2","1","1","1","2","5","5","5","4","4","4","4","4","5","4","7","7","8","8","7","8","8","8","8","6","5","5","5","6","3","6","1","7","5","1","6","3","5","2","7","6","6","4","5","6","3","6","6","5","5","7","6","7","5","6","5","7","6","6","3","7","5","6","5","6","753363460917825537","杨","660","Female","[""好她"",""好我"",""坏我"",""坏她""]","[""强她"",""强我"",""弱我"",""弱她""]","","","","","","","","no","","","","","","","","","SRET","EW_formal","","key","j","16.666949152542472","960","536","自己","奸险","Negative","morality","","","","","","","","","","",""
"840","","f","psychophysics","98","323248","0.0-7.0-3.0-0.84","7","6","7","5","6","5","4","5","5","4","4","2","1","1","2","1","1","1","2","5","5","5","4","4","4","4","4","5","4","7","7","8","8","7","8","8","8","8","6","5","5","5","6","3","6","1","7","5","1","6","3","5","2","7","6","6","4","5","6","3","6","6","5","5","7","6","7","5","6","5","7","6","6","3","7","5","6","5","6","753363460917825537","杨","660","Female","[""好她"",""好我"",""坏我"",""坏她""]","[""强她"",""强我"",""弱我"",""弱她""]","","","","","","","","yes","","","","","","","","","SRET","EW_formal","","key","f","16.66636363636353","960","536","朋友","素养","Positive","morality","","","","","","","","","","",""
"1855","","f","psychophysics","99","326104","0.0-7.0-3.0-0.85","7","6","7","5","6","5","4","5","5","4","4","2","1","1","2","1","1","1","2","5","5","5","4","4","4","4","4","5","4","7","7","8","8","7","8","8","8","8","6","5","5","5","6","3","6","1","7","5","1","6","3","5","2","7","6","6","4","5","6","3","6","6","5","5","7","6","7","5","6","5","7","6","6","3","7","5","6","5","6","753363460917825537","杨","660","Female","[""好她"",""好我"",""坏我"",""坏她""]","[""强她"",""强我"",""弱我"",""弱她""]","","","","","","","","yes","","","","","","","","","SRET","EW_formal","","key","f","16.666470588235224","960","536","自己","缓慢","Negative","ability","","","","","","","","","","",""
"1582","","j","psychophysics","100","328687","0.0-7.0-3.0-0.86","7","6","7","5","6","5","4","5","5","4","4","2","1","1","2","1","1","1","2","5","5","5","4","4","4","4","4","5","4","7","7","8","8","7","8","8","8","8","6","5","5","5","6","3","6","1","7","5","1","6","3","5","2","7","6","6","4","5","6","3","6","6","5","5","7","6","7","5","6","5","7","6","6","3","7","5","6","5","6","753363460917825537","杨","660","Female","[""好她"",""好我"",""坏我"",""坏她""]","[""强她"",""强我"",""弱我"",""弱她""]","","","","","","","","no","","","","","","","","","SRET","EW_formal","","key","j","16.66688311688319","960","536","朋友","低俗","Negative","morality","","","","","","","","","","",""
"1088","","f","psychophysics","101","330776","0.0-7.0-3.0-0.87","7","6","7","5","6","5","4","5","5","4","4","2","1","1","2","1","1","1","2","5","5","5","4","4","4","4","4","5","4","7","7","8","8","7","8","8","8","8","6","5","5","5","6","3","6","1","7","5","1","6","3","5","2","7","6","6","4","5","6","3","6","6","5","5","7","6","7","5","6","5","7","6","6","3","7","5","6","5","6","753363460917825537","杨","660","Female","[""好她"",""好我"",""坏我"",""坏她""]","[""强她"",""强我"",""弱我"",""弱她""]","","","","","","","","yes","","","","","","","","","SRET","EW_formal","","key","f","16.666399999999907","960","536","自己","主见","Positive","ability","","","","","","","","","","",""
"10746","
    <p><div style='color:white;font-size:35px; line-height:20px;'>计算任务</div></p><br>
    <p><div style='color:red;font-size:25px; line-height:20px;'>接下来，您将看到一些四则运算题，<b>请从键盘选择 0-9 进行反应。</b></div></p>
    <p><div style='color:red;font-size:25px; line-height:20px;'>请尽可能快地进行计算，计算的速度和正确率将影响报酬的发放。</div></p>
    <p><div class='footer' style='color:white;font-size:25px; line-height:20px;'>如果对本实验还有不清楚之处，请立即向实验员咨询。</p><p style='color:white;font-size:25px; line-height:20px;'>如果您明白了规则：</p><p style='color:white;font-size:22px; line-height:20px;'>请按 继续 进入练习</p>
    </div>
    ","0","html-button-response","102","341522","0.0-7.0-4.0","7","6","7","5","6","5","4","5","5","4","4","2","1","1","2","1","1","1","2","5","5","5","4","4","4","4","4","5","4","7","7","8","8","7","8","8","8","8","6","5","5","5","6","3","6","1","7","5","1","6","3","5","2","7","6","6","4","5","6","3","6","6","5","5","7","6","7","5","6","5","7","6","6","3","7","5","6","5","6","753363460917825537","杨","660","Female","[""好她"",""好我"",""坏我"",""坏她""]","[""强她"",""强我"",""弱我"",""弱她""]","","","","","","","","","","","","","","","","","SRET_math","math_instructions","Sun Jan 21 2024 21:46:53 GMT+0800 (中国标准时间)","","","","","","","","","","","","","","","","","","","",""
"1925","","8","psychophysics","103","343448","0.0-7.0-5.0-0.0","7","6","7","5","6","5","4","5","5","4","4","2","1","1","2","1","1","1","2","5","5","5","4","4","4","4","4","5","4","7","7","8","8","7","8","8","8","8","6","5","5","5","6","3","6","1","7","5","1","6","3","5","2","7","6","6","4","5","6","3","6","6","5","5","7","6","7","5","6","5","7","6","6","3","7","5","6","5","6","753363460917825537","杨","660","Female","[""好她"",""好我"",""坏我"",""坏她""]","[""强她"",""强我"",""弱我"",""弱她""]","","","","","","","","8","","","","","","","","","SRET","SRET_math_calculate","","key","8","16.66521739130435","960","536","","","","","2+4= ?","6","0","","","","","","","",""
"4359","","5","psychophysics","104","347808","0.0-7.0-5.0-0.1","7","6","7","5","6","5","4","5","5","4","4","2","1","1","2","1","1","1","2","5","5","5","4","4","4","4","4","5","4","7","7","8","8","7","8","8","8","8","6","5","5","5","6","3","6","1","7","5","1","6","3","5","2","7","6","6","4","5","6","3","6","6","5","5","7","6","7","5","6","5","7","6","6","3","7","5","6","5","6","753363460917825537","杨","660","Female","[""好她"",""好我"",""坏我"",""坏她""]","[""强她"",""强我"",""弱我"",""弱她""]","","","","","","","","5","","","","","","","","","SRET","SRET_math_calculate","","key","5","16.66704980842903","960","536","","","","","5*0= ?","0","0","","","","","","","",""
"2007","","5","psychophysics","105","349816","0.0-7.0-5.0-0.2","7","6","7","5","6","5","4","5","5","4","4","2","1","1","2","1","1","1","2","5","5","5","4","4","4","4","4","5","4","7","7","8","8","7","8","8","8","8","6","5","5","5","6","3","6","1","7","5","1","6","3","5","2","7","6","6","4","5","6","3","6","6","5","5","7","6","7","5","6","5","7","6","6","3","7","5","6","5","6","753363460917825537","杨","660","Female","[""好她"",""好我"",""坏我"",""坏她""]","[""强她"",""强我"",""弱我"",""弱她""]","","","","","","","","5","","","","","","","","","SRET","SRET_math_calculate","","key","5","16.666386554621752","960","536","","","","","15-10= ?","5","1","","","","","","","",""
"2103","","7","psychophysics","106","351920","0.0-7.0-5.0-0.3","7","6","7","5","6","5","4","5","5","4","4","2","1","1","2","1","1","1","2","5","5","5","4","4","4","4","4","5","4","7","7","8","8","7","8","8","8","8","6","5","5","5","6","3","6","1","7","5","1","6","3","5","2","7","6","6","4","5","6","3","6","6","5","5","7","6","7","5","6","5","7","6","6","3","7","5","6","5","6","753363460917825537","杨","660","Female","[""好她"",""好我"",""坏我"",""坏她""]","[""强她"",""强我"",""弱我"",""弱她""]","","","","","","","","7","","","","","","","","","SRET","SRET_math_calculate","","key","7","16.66719999999972","960","536","","","","","8-1= ?","7","1","","","","","","","",""
"2247","","9","psychophysics","107","354168","0.0-7.0-5.0-0.4","7","6","7","5","6","5","4","5","5","4","4","2","1","1","2","1","1","1","2","5","5","5","4","4","4","4","4","5","4","7","7","8","8","7","8","8","8","8","6","5","5","5","6","3","6","1","7","5","1","6","3","5","2","7","6","6","4","5","6","3","6","6","5","5","7","6","7","5","6","5","7","6","6","3","7","5","6","5","6","753363460917825537","杨","660","Female","[""好她"",""好我"",""坏我"",""坏她""]","[""强她"",""强我"",""弱我"",""弱她""]","","","","","","","","9","","","","","","","","","SRET","SRET_math_calculate","","key","9","16.667164179104653","960","536","","","","","18/2= ?","9","1","","","","","","","",""
"3879","","7","psychophysics","108","358048","0.0-7.0-5.0-0.5","7","6","7","5","6","5","4","5","5","4","4","2","1","1","2","1","1","1","2","5","5","5","4","4","4","4","4","5","4","7","7","8","8","7","8","8","8","8","6","5","5","5","6","3","6","1","7","5","1","6","3","5","2","7","6","6","4","5","6","3","6","6","5","5","7","6","7","5","6","5","7","6","6","3","7","5","6","5","6","753363460917825537","杨","660","Female","[""好她"",""好我"",""坏我"",""坏她""]","[""强她"",""强我"",""弱我"",""弱她""]","","","","","","","","7","","","","","","","","","SRET","SRET_math_calculate","","key","7","16.666810344827386","960","536","","","","","7*0= ?","0","0","","","","","","","",""
"2047","","9","psychophysics","109","360096","0.0-7.0-5.0-0.6","7","6","7","5","6","5","4","5","5","4","4","2","1","1","2","1","1","1","2","5","5","5","4","4","4","4","4","5","4","7","7","8","8","7","8","8","8","8","6","5","5","5","6","3","6","1","7","5","1","6","3","5","2","7","6","6","4","5","6","3","6","6","5","5","7","6","7","5","6","5","7","6","6","3","7","5","6","5","6","753363460917825537","杨","660","Female","[""好她"",""好我"",""坏我"",""坏她""]","[""强她"",""强我"",""弱我"",""弱她""]","","","","","","","","9","","","","","","","","","SRET","SRET_math_calculate","","key","9","16.667213114753814","960","536","","","","","1+8= ?","9","1","","","","","","","",""
"2935","","5","psychophysics","110","363032","0.0-7.0-5.0-0.7","7","6","7","5","6","5","4","5","5","4","4","2","1","1","2","1","1","1","2","5","5","5","4","4","4","4","4","5","4","7","7","8","8","7","8","8","8","8","6","5","5","5","6","3","6","1","7","5","1","6","3","5","2","7","6","6","4","5","6","3","6","6","5","5","7","6","7","5","6","5","7","6","6","3","7","5","6","5","6","753363460917825537","杨","660","Female","[""好她"",""好我"",""坏我"",""坏她""]","[""强她"",""强我"",""弱我"",""弱她""]","","","","","","","","5","","","","","","","","","SRET","SRET_math_calculate","","key","5","16.66685714285721","960","536","","","","","5-3= ?","2","0","","","","","","","",""
"4663","","9","psychophysics","111","367696","0.0-7.0-5.0-0.8","7","6","7","5","6","5","4","5","5","4","4","2","1","1","2","1","1","1","2","5","5","5","4","4","4","4","4","5","4","7","7","8","8","7","8","8","8","8","6","5","5","5","6","3","6","1","7","5","1","6","3","5","2","7","6","6","4","5","6","3","6","6","5","5","7","6","7","5","6","5","7","6","6","3","7","5","6","5","6","753363460917825537","杨","660","Female","[""好她"",""好我"",""坏我"",""坏她""]","[""强她"",""强我"",""弱我"",""弱她""]","","","","","","","","9","","","","","","","","","SRET","SRET_math_calculate","","key","9","16.66630824372768","960","536","","","","","21/3= ? ","7","0","","","","","","","",""
"1958","","8","psychophysics","112","369655","0.0-7.0-5.0-0.9","7","6","7","5","6","5","4","5","5","4","4","2","1","1","2","1","1","1","2","5","5","5","4","4","4","4","4","5","4","7","7","8","8","7","8","8","8","8","6","5","5","5","6","3","6","1","7","5","1","6","3","5","2","7","6","6","4","5","6","3","6","6","5","5","7","6","7","5","6","5","7","6","6","3","7","5","6","5","6","753363460917825537","杨","660","Female","[""好她"",""好我"",""坏我"",""坏她""]","[""强她"",""强我"",""弱我"",""弱她""]","","","","","","","","8","","","","","","","","","SRET","SRET_math_calculate","","key","8","16.667241379310546","960","536","","","","","3+5= ?","8","1","","","","","","","",""
"2351","","9","psychophysics","113","372007","0.0-7.0-5.0-0.10","7","6","7","5","6","5","4","5","5","4","4","2","1","1","2","1","1","1","2","5","5","5","4","4","4","4","4","5","4","7","7","8","8","7","8","8","8","8","6","5","5","5","6","3","6","1","7","5","1","6","3","5","2","7","6","6","4","5","6","3","6","6","5","5","7","6","7","5","6","5","7","6","6","3","7","5","6","5","6","753363460917825537","杨","660","Female","[""好她"",""好我"",""坏我"",""坏她""]","[""强她"",""强我"",""弱我"",""弱她""]","","","","","","","","9","","","","","","","","","SRET","SRET_math_calculate","","key","9","16.665957446808676","960","536","","","","","3*3= ?","9","1","","","","","","","",""
"2416","","8","psychophysics","114","374424","0.0-7.0-5.0-0.11","7","6","7","5","6","5","4","5","5","4","4","2","1","1","2","1","1","1","2","5","5","5","4","4","4","4","4","5","4","7","7","8","8","7","8","8","8","8","6","5","5","5","6","3","6","1","7","5","1","6","3","5","2","7","6","6","4","5","6","3","6","6","5","5","7","6","7","5","6","5","7","6","6","3","7","5","6","5","6","753363460917825537","杨","660","Female","[""好她"",""好我"",""坏我"",""坏她""]","[""强她"",""强我"",""弱我"",""弱她""]","","","","","","","","8","","","","","","","","","SRET","SRET_math_calculate","","key","8","16.66597222222198","960","536","","","","","1*8= ?","8","1","","","","","","","",""
"3199","","4","psychophysics","115","377624","0.0-7.0-5.0-0.12","7","6","7","5","6","5","4","5","5","4","4","2","1","1","2","1","1","1","2","5","5","5","4","4","4","4","4","5","4","7","7","8","8","7","8","8","8","8","6","5","5","5","6","3","6","1","7","5","1","6","3","5","2","7","6","6","4","5","6","3","6","6","5","5","7","6","7","5","6","5","7","6","6","3","7","5","6","5","6","753363460917825537","杨","660","Female","[""好她"",""好我"",""坏我"",""坏她""]","[""强她"",""强我"",""弱我"",""弱她""]","","","","","","","","4","","","","","","","","","SRET","SRET_math_calculate","","key","4","16.66544502617789","960","536","","","","","20/5= ?","4","1","","","","","","","",""
"1975","","3","psychophysics","116","379600","0.0-7.0-5.0-0.13","7","6","7","5","6","5","4","5","5","4","4","2","1","1","2","1","1","1","2","5","5","5","4","4","4","4","4","5","4","7","7","8","8","7","8","8","8","8","6","5","5","5","6","3","6","1","7","5","1","6","3","5","2","7","6","6","4","5","6","3","6","6","5","5","7","6","7","5","6","5","7","6","6","3","7","5","6","5","6","753363460917825537","杨","660","Female","[""好她"",""好我"",""坏我"",""坏她""]","[""强她"",""强我"",""弱我"",""弱她""]","","","","","","","","3","","","","","","","","","SRET","SRET_math_calculate","","key","3","16.665811965811667","960","536","","","","","1+2= ?","3","1","","","","","","","",""
"1895","","8","psychophysics","117","381496","0.0-7.0-5.0-0.14","7","6","7","5","6","5","4","5","5","4","4","2","1","1","2","1","1","1","2","5","5","5","4","4","4","4","4","5","4","7","7","8","8","7","8","8","8","8","6","5","5","5","6","3","6","1","7","5","1","6","3","5","2","7","6","6","4","5","6","3","6","6","5","5","7","6","7","5","6","5","7","6","6","3","7","5","6","5","6","753363460917825537","杨","660","Female","[""好她"",""好我"",""坏我"",""坏她""]","[""强她"",""强我"",""弱我"",""弱她""]","","","","","","","","8","","","","","","","","","SRET","SRET_math_calculate","","key","8","16.667256637168347","960","536","","","","","5+3= ?","8","1","","","","","","","",""
"2728","","6","psychophysics","118","384224","0.0-7.0-5.0-0.15","7","6","7","5","6","5","4","5","5","4","4","2","1","1","2","1","1","1","2","5","5","5","4","4","4","4","4","5","4","7","7","8","8","7","8","8","8","8","6","5","5","5","6","3","6","1","7","5","1","6","3","5","2","7","6","6","4","5","6","3","6","6","5","5","7","6","7","5","6","5","7","6","6","3","7","5","6","5","6","753363460917825537","杨","660","Female","[""好她"",""好我"",""坏我"",""坏她""]","[""强她"",""强我"",""弱我"",""弱她""]","","","","","","","","6","","","","","","","","","SRET","SRET_math_calculate","","key","6","16.66503067484677","960","536","","","","","8-2= ?","6","1","","","","","","","",""
"7023","","8","psychophysics","119","391249","0.0-7.0-5.0-0.16","7","6","7","5","6","5","4","5","5","4","4","2","1","1","2","1","1","1","2","5","5","5","4","4","4","4","4","5","4","7","7","8","8","7","8","8","8","8","6","5","5","5","6","3","6","1","7","5","1","6","3","5","2","7","6","6","4","5","6","3","6","6","5","5","7","6","7","5","6","5","7","6","6","3","7","5","6","5","6","753363460917825537","杨","660","Female","[""好她"",""好我"",""坏我"",""坏她""]","[""强她"",""强我"",""弱我"",""弱她""]","","","","","","","","8","","","","","","","","","SRET","SRET_math_calculate","","key","8","16.666428571428625","960","536","","","","","56/7= ?","8","1","","","","","","","",""
"1958","","9","psychophysics","120","393208","0.0-7.0-5.0-0.17","7","6","7","5","6","5","4","5","5","4","4","2","1","1","2","1","1","1","2","5","5","5","4","4","4","4","4","5","4","7","7","8","8","7","8","8","8","8","6","5","5","5","6","3","6","1","7","5","1","6","3","5","2","7","6","6","4","5","6","3","6","6","5","5","7","6","7","5","6","5","7","6","6","3","7","5","6","5","6","753363460917825537","杨","660","Female","[""好她"",""好我"",""坏我"",""坏她""]","[""强她"",""强我"",""弱我"",""弱她""]","","","","","","","","9","","","","","","","","","SRET","SRET_math_calculate","","key","9","16.66837606837617","960","536","","","","","8+1= ?","9","1","","","","","","","",""
"2847","","7","psychophysics","121","396056","0.0-7.0-5.0-0.18","7","6","7","5","6","5","4","5","5","4","4","2","1","1","2","1","1","1","2","5","5","5","4","4","4","4","4","5","4","7","7","8","8","7","8","8","8","8","6","5","5","5","6","3","6","1","7","5","1","6","3","5","2","7","6","6","4","5","6","3","6","6","5","5","7","6","7","5","6","5","7","6","6","3","7","5","6","5","6","753363460917825537","杨","660","Female","[""好她"",""好我"",""坏我"",""坏她""]","[""强她"",""强我"",""弱我"",""弱她""]","","","","","","","","7","","","","","","","","","SRET","SRET_math_calculate","","key","7","16.66568047337278","960","536","","","","","12-5= ?","7","1","","","","","","","",""
"1845","","5","psychophysics","122","397903","0.0-7.0-5.0-0.19","7","6","7","5","6","5","4","5","5","4","4","2","1","1","2","1","1","1","2","5","5","5","4","4","4","4","4","5","4","7","7","8","8","7","8","8","8","8","6","5","5","5","6","3","6","1","7","5","1","6","3","5","2","7","6","6","4","5","6","3","6","6","5","5","7","6","7","5","6","5","7","6","6","3","7","5","6","5","6","753363460917825537","杨","660","Female","[""好她"",""好我"",""坏我"",""坏她""]","[""强她"",""强我"",""弱我"",""弱她""]","","","","","","","","5","","","","","","","","","SRET","SRET_math_calculate","","key","5","16.668181818181818","960","536","","","","","4+1= ?","5","1","","","","","","","",""
"4255","","0","psychophysics","123","402160","0.0-7.0-5.0-0.20","7","6","7","5","6","5","4","5","5","4","4","2","1","1","2","1","1","1","2","5","5","5","4","4","4","4","4","5","4","7","7","8","8","7","8","8","8","8","6","5","5","5","6","3","6","1","7","5","1","6","3","5","2","7","6","6","4","5","6","3","6","6","5","5","7","6","7","5","6","5","7","6","6","3","7","5","6","5","6","753363460917825537","杨","660","Female","[""好她"",""好我"",""坏我"",""坏她""]","[""强她"",""强我"",""弱我"",""弱她""]","","","","","","","","0","","","","","","","","","SRET","SRET_math_calculate","","key","0","16.666666666666668","960","536","","","","","6*0= ?","0","1","","","","","","","",""
"1856","","0","psychophysics","124","404016","0.0-7.0-5.0-0.21","7","6","7","5","6","5","4","5","5","4","4","2","1","1","2","1","1","1","2","5","5","5","4","4","4","4","4","5","4","7","7","8","8","7","8","8","8","8","6","5","5","5","6","3","6","1","7","5","1","6","3","5","2","7","6","6","4","5","6","3","6","6","5","5","7","6","7","5","6","5","7","6","6","3","7","5","6","5","6","753363460917825537","杨","660","Female","[""好她"",""好我"",""坏我"",""坏她""]","[""强她"",""强我"",""弱我"",""弱她""]","","","","","","","","0","","","","","","","","","SRET","SRET_math_calculate","","key","0","16.670909090908985","960","536","","","","","12-12= ?","0","1","","","","","","","",""
"1832","","2","psychophysics","125","405848","0.0-7.0-5.0-0.22","7","6","7","5","6","5","4","5","5","4","4","2","1","1","2","1","1","1","2","5","5","5","4","4","4","4","4","5","4","7","7","8","8","7","8","8","8","8","6","5","5","5","6","3","6","1","7","5","1","6","3","5","2","7","6","6","4","5","6","3","6","6","5","5","7","6","7","5","6","5","7","6","6","3","7","5","6","5","6","753363460917825537","杨","660","Female","[""好她"",""好我"",""坏我"",""坏她""]","[""强她"",""强我"",""弱我"",""弱她""]","","","","","","","","2","","","","","","","","","SRET","SRET_math_calculate","","key","2","16.666972477064327","960","536","","","","","1+1= ?","2","1","","","","","","","",""
"1983","","6","psychophysics","126","407832","0.0-7.0-5.0-0.23","7","6","7","5","6","5","4","5","5","4","4","2","1","1","2","1","1","1","2","5","5","5","4","4","4","4","4","5","4","7","7","8","8","7","8","8","8","8","6","5","5","5","6","3","6","1","7","5","1","6","3","5","2","7","6","6","4","5","6","3","6","6","5","5","7","6","7","5","6","5","7","6","6","3","7","5","6","5","6","753363460917825537","杨","660","Female","[""好她"",""好我"",""坏我"",""坏她""]","[""强她"",""强我"",""弱我"",""弱她""]","","","","","","","","6","","","","","","","","","SRET","SRET_math_calculate","","key","6","16.666949152542472","960","536","","","","","3+3= ?","6","1","","","","","","","",""
"3807","","2","psychophysics","127","411640","0.0-7.0-5.0-0.24","7","6","7","5","6","5","4","5","5","4","4","2","1","1","2","1","1","1","2","5","5","5","4","4","4","4","4","5","4","7","7","8","8","7","8","8","8","8","6","5","5","5","6","3","6","1","7","5","1","6","3","5","2","7","6","6","4","5","6","3","6","6","5","5","7","6","7","5","6","5","7","6","6","3","7","5","6","5","6","753363460917825537","杨","660","Female","[""好她"",""好我"",""坏我"",""坏她""]","[""强她"",""强我"",""弱我"",""弱她""]","","","","","","","","2","","","","","","","","","SRET","SRET_math_calculate","","key","2","16.666079295154237","960","536","","","","","19-17= ?","2","1","","","","","","","",""
"1839","","8","psychophysics","128","413480","0.0-7.0-5.0-0.25","7","6","7","5","6","5","4","5","5","4","4","2","1","1","2","1","1","1","2","5","5","5","4","4","4","4","4","5","4","7","7","8","8","7","8","8","8","8","6","5","5","5","6","3","6","1","7","5","1","6","3","5","2","7","6","6","4","5","6","3","6","6","5","5","7","6","7","5","6","5","7","6","6","3","7","5","6","5","6","753363460917825537","杨","660","Female","[""好她"",""好我"",""坏我"",""坏她""]","[""强她"",""强我"",""弱我"",""弱她""]","","","","","","","","8","","","","","","","","","SRET","SRET_math_calculate","","key","8","16.66636363636353","960","536","","","","","4+4= ?","8","1","","","","","","","",""
"2934","","2","psychophysics","129","416416","0.0-7.0-5.0-0.26","7","6","7","5","6","5","4","5","5","4","4","2","1","1","2","1","1","1","2","5","5","5","4","4","4","4","4","5","4","7","7","8","8","7","8","8","8","8","6","5","5","5","6","3","6","1","7","5","1","6","3","5","2","7","6","6","4","5","6","3","6","6","5","5","7","6","7","5","6","5","7","6","6","3","7","5","6","5","6","753363460917825537","杨","660","Female","[""好她"",""好我"",""坏我"",""坏她""]","[""强她"",""强我"",""弱我"",""弱她""]","","","","","","","","2","","","","","","","","","SRET","SRET_math_calculate","","key","2","16.666285714285582","960","536","","","","","12/6= ?","2","1","","","","","","","",""
"12168","","9","psychophysics","130","428584","0.0-7.0-5.0-0.27","7","6","7","5","6","5","4","5","5","4","4","2","1","1","2","1","1","1","2","5","5","5","4","4","4","4","4","5","4","7","7","8","8","7","8","8","8","8","6","5","5","5","6","3","6","1","7","5","1","6","3","5","2","7","6","6","4","5","6","3","6","6","5","5","7","6","7","5","6","5","7","6","6","3","7","5","6","5","6","753363460917825537","杨","660","Female","[""好她"",""好我"",""坏我"",""坏她""]","[""强她"",""强我"",""弱我"",""弱她""]","","","","","","","","9","","","","","","","","","SRET","SRET_math_calculate","","key","9","16.666666666666668","960","536","","","","","32-23= ?","9","1","","","","","","","",""
"2111","","5","psychophysics","131","430696","0.0-7.0-5.0-0.28","7","6","7","5","6","5","4","5","5","4","4","2","1","1","2","1","1","1","2","5","5","5","4","4","4","4","4","5","4","7","7","8","8","7","8","8","8","8","6","5","5","5","6","3","6","1","7","5","1","6","3","5","2","7","6","6","4","5","6","3","6","6","5","5","7","6","7","5","6","5","7","6","6","3","7","5","6","5","6","753363460917825537","杨","660","Female","[""好她"",""好我"",""坏我"",""坏她""]","[""强她"",""强我"",""弱我"",""弱她""]","","","","","","","","5","","","","","","","","","SRET","SRET_math_calculate","","key","5","16.667460317460595","960","536","","","","","8-3= ? ","5","1","","","","","","","",""
"2023","","4","psychophysics","132","432720","0.0-7.0-5.0-0.29","7","6","7","5","6","5","4","5","5","4","4","2","1","1","2","1","1","1","2","5","5","5","4","4","4","4","4","5","4","7","7","8","8","7","8","8","8","8","6","5","5","5","6","3","6","1","7","5","1","6","3","5","2","7","6","6","4","5","6","3","6","6","5","5","7","6","7","5","6","5","7","6","6","3","7","5","6","5","6","753363460917825537","杨","660","Female","[""好她"",""好我"",""坏我"",""坏她""]","[""强她"",""强我"",""弱我"",""弱她""]","","","","","","","","4","","","","","","","","","SRET","SRET_math_calculate","","key","4","16.667499999999805","960","536","","","","","3+1= ?","4","1","","","","","","","",""
"2392","","5","psychophysics","133","435112","0.0-7.0-5.0-0.30","7","6","7","5","6","5","4","5","5","4","4","2","1","1","2","1","1","1","2","5","5","5","4","4","4","4","4","5","4","7","7","8","8","7","8","8","8","8","6","5","5","5","6","3","6","1","7","5","1","6","3","5","2","7","6","6","4","5","6","3","6","6","5","5","7","6","7","5","6","5","7","6","6","3","7","5","6","5","6","753363460917825537","杨","660","Female","[""好她"",""好我"",""坏我"",""坏她""]","[""强她"",""强我"",""弱我"",""弱她""]","","","","","","","","5","","","","","","","","","SRET","SRET_math_calculate","","key","5","16.665734265734347","960","536","","","","","16-11= ?","5","1","","","","","","","",""
"2247","","6","psychophysics","134","437360","0.0-7.0-5.0-0.31","7","6","7","5","6","5","4","5","5","4","4","2","1","1","2","1","1","1","2","5","5","5","4","4","4","4","4","5","4","7","7","8","8","7","8","8","8","8","6","5","5","5","6","3","6","1","7","5","1","6","3","5","2","7","6","6","4","5","6","3","6","6","5","5","7","6","7","5","6","5","7","6","6","3","7","5","6","5","6","753363460917825537","杨","660","Female","[""好她"",""好我"",""坏我"",""坏她""]","[""强她"",""强我"",""弱我"",""弱她""]","","","","","","","","6","","","","","","","","","SRET","SRET_math_calculate","","key","6","16.667164179104216","960","536","","","","","11-5= ?","6","1","","","","","","","",""
"1895","","3","psychophysics","135","439256","0.0-7.0-5.0-0.32","7","6","7","5","6","5","4","5","5","4","4","2","1","1","2","1","1","1","2","5","5","5","4","4","4","4","4","5","4","7","7","8","8","7","8","8","8","8","6","5","5","5","6","3","6","1","7","5","1","6","3","5","2","7","6","6","4","5","6","3","6","6","5","5","7","6","7","5","6","5","7","6","6","3","7","5","6","5","6","753363460917825537","杨","660","Female","[""好她"",""好我"",""坏我"",""坏她""]","[""强她"",""强我"",""弱我"",""弱她""]","","","","","","","","3","","","","","","","","","SRET","SRET_math_calculate","","key","3","16.66607142857122","960","536","","","","","2+1= ?","3","1","","","","","","","",""
"3446","","7","psychophysics","136","442704","0.0-7.0-5.0-0.33","7","6","7","5","6","5","4","5","5","4","4","2","1","1","2","1","1","1","2","5","5","5","4","4","4","4","4","5","4","7","7","8","8","7","8","8","8","8","6","5","5","5","6","3","6","1","7","5","1","6","3","5","2","7","6","6","4","5","6","3","6","6","5","5","7","6","7","5","6","5","7","6","6","3","7","5","6","5","6","753363460917825537","杨","660","Female","[""好她"",""好我"",""坏我"",""坏她""]","[""强她"",""强我"",""弱我"",""弱她""]","","","","","","","","7","","","","","","","","","SRET","SRET_math_calculate","","key","7","16.66553398058241","960","536","","","","","13-6= ?","7","1","","","","","","","",""
"2031","","9","psychophysics","137","444736","0.0-7.0-5.0-0.34","7","6","7","5","6","5","4","5","5","4","4","2","1","1","2","1","1","1","2","5","5","5","4","4","4","4","4","5","4","7","7","8","8","7","8","8","8","8","6","5","5","5","6","3","6","1","7","5","1","6","3","5","2","7","6","6","4","5","6","3","6","6","5","5","7","6","7","5","6","5","7","6","6","3","7","5","6","5","6","753363460917825537","杨","660","Female","[""好她"",""好我"",""坏我"",""坏她""]","[""强她"",""强我"",""弱我"",""弱她""]","","","","","","","","9","","","","","","","","","SRET","SRET_math_calculate","","key","9","16.667768595041707","960","536","","","","","2+7= ?","9","1","","","","","","","",""
"2199","","8","psychophysics","138","446936","0.0-7.0-5.0-0.35","7","6","7","5","6","5","4","5","5","4","4","2","1","1","2","1","1","1","2","5","5","5","4","4","4","4","4","5","4","7","7","8","8","7","8","8","8","8","6","5","5","5","6","3","6","1","7","5","1","6","3","5","2","7","6","6","4","5","6","3","6","6","5","5","7","6","7","5","6","5","7","6","6","3","7","5","6","5","6","753363460917825537","杨","660","Female","[""好她"",""好我"",""坏我"",""坏她""]","[""强她"",""强我"",""弱我"",""弱她""]","","","","","","","","8","","","","","","","","","SRET","SRET_math_calculate","","key","8","16.66717557251882","960","536","","","","","2*4= ?","8","1","","","","","","","",""
"2534","","3","psychophysics","139","449471","0.0-7.0-5.0-0.36","7","6","7","5","6","5","4","5","5","4","4","2","1","1","2","1","1","1","2","5","5","5","4","4","4","4","4","5","4","7","7","8","8","7","8","8","8","8","6","5","5","5","6","3","6","1","7","5","1","6","3","5","2","7","6","6","4","5","6","3","6","6","5","5","7","6","7","5","6","5","7","6","6","3","7","5","6","5","6","753363460917825537","杨","660","Female","[""好她"",""好我"",""坏我"",""坏她""]","[""强她"",""强我"",""弱我"",""弱她""]","","","","","","","","3","","","","","","","","","SRET","SRET_math_calculate","","key","3","16.666225165563144","960","536","","","","","29-27= ?","2","0","","","","","","","",""
"1854","","8","psychophysics","140","451327","0.0-7.0-5.0-0.37","7","6","7","5","6","5","4","5","5","4","4","2","1","1","2","1","1","1","2","5","5","5","4","4","4","4","4","5","4","7","7","8","8","7","8","8","8","8","6","5","5","5","6","3","6","1","7","5","1","6","3","5","2","7","6","6","4","5","6","3","6","6","5","5","7","6","7","5","6","5","7","6","6","3","7","5","6","5","6","753363460917825537","杨","660","Female","[""好她"",""好我"",""坏我"",""坏她""]","[""强她"",""强我"",""弱我"",""弱她""]","","","","","","","","8","","","","","","","","","SRET","SRET_math_calculate","","key","8","16.668468468468575","960","536","","","","","7+1= ?","8","1","","","","","","","",""
"2232","","1","psychophysics","141","453560","0.0-7.0-5.0-0.38","7","6","7","5","6","5","4","5","5","4","4","2","1","1","2","1","1","1","2","5","5","5","4","4","4","4","4","5","4","7","7","8","8","7","8","8","8","8","6","5","5","5","6","3","6","1","7","5","1","6","3","5","2","7","6","6","4","5","6","3","6","6","5","5","7","6","7","5","6","5","7","6","6","3","7","5","6","5","6","753363460917825537","杨","660","Female","[""好她"",""好我"",""坏我"",""坏她""]","[""强她"",""强我"",""弱我"",""弱她""]","","","","","","","","1","","","","","","","","","SRET","SRET_math_calculate","","key","1","16.664661654135077","960","536","","","","","10-9= ?","1","1","","","","","","","",""
"2774","","3","psychophysics","142","456336","0.0-7.0-5.0-0.39","7","6","7","5","6","5","4","5","5","4","4","2","1","1","2","1","1","1","2","5","5","5","4","4","4","4","4","5","4","7","7","8","8","7","8","8","8","8","6","5","5","5","6","3","6","1","7","5","1","6","3","5","2","7","6","6","4","5","6","3","6","6","5","5","7","6","7","5","6","5","7","6","6","3","7","5","6","5","6","753363460917825537","杨","660","Female","[""好她"",""好我"",""坏我"",""坏她""]","[""强她"",""强我"",""弱我"",""弱她""]","","","","","","","","3","","","","","","","","","SRET","SRET_math_calculate","","key","3","16.665454545454473","960","536","","","","","21/7=  ?","3","1","","","","","","","",""
