"rt","stimulus","response","trial_type","trial_index","time_elapsed","internal_node_id","swb_1","swb_2","swb_3","swb_4","swb_5","LOT_1","LOT_2","LOT_3","LOT_4","LOT_5","LOT_6","IPC_1","IPC_2","IPC_3","IPC_4","IPC_5","IPC_6","IPC_7","IPC_8","MorIden_1","MorIden_2","MorIden_3","MorIden_4","MorIden_5","MorIden_6","MorIden_7","MorIden_8","MorIden_9","MorIden_10","moralSeImag_1","moralSeImag_2","moralSeImag_3","moralSeImag_4","moralSeImag_5","moralSeImag_6","moralSeImag_7","moralSeImag_8","moralSeImag_9","sde_1","sde_2","sde_3","sde_4","sde_5","sde_6","sde_7","sde_8","sde_9","sde_10","trap2","sde_11","sde_12","sde_13","sde_14","sde_15","sde_16","sde_17","sde_18","sde_19","sde_20","IM_1","IM_2","IM_3","IM_4","IM_5","IM_6","IM_7","IM_8","IM_9","IM_10","IM_11","IM_12","IM_13","IM_14","IM_15","IM_16","IM_17","IM_18","IM_19","IM_20","subj_idx","friend_name","ParticipantID","Sex","Word","Word2","value","success","timeout","failed_images","failed_audio","failed_video","user_agent","responses","item_order","radio_event_ids","radio_event_times","key_event_times","mouse_event_times","straightlining","zigzagging","honeypot","task_id","screen_id","time_stamp","response_type","key_press","avg_frame_time","center_x","center_y","person","word","valence","domain","math","correct_response","correct","status","identity","view_history","duration","Image","condition","question_order","trap2_item"
"1839","
   <p><div style='color:white; font-size: 25px'>您好，欢迎参加本次实验。</div></p>
   <p><div style='color:white; font-size: 25px'>为充分保障您的权利，请确保您已经知晓并同意《参与实验同意书》以及《数据公开知情同意书》。</div></p>
   <p><div style='color:white; font-size: 25px'>如果您未见过上述内容，请咨询实验员。</div></p>
   <p style='color:white; font-size: 25px'>如果您选择继续实验，则表示您已经清楚两份知情同意书的内容并同意。</p>
   <p><div style = ""color: pink;font-size:30px;"">请确保您记得day0的实验编号，您将在本次实验输入该编号，若您忘记，请咨询实验员后作答。</div></p>
   <p><div style = ""color:lightblue;font-size:25px;"">请您尽可能认真地作答，我们将依据您在各问卷和按键任务中的作答质量发放报酬。</div></p>
   <p> <div style = ""color: green""><按空格键至下页></div> </p>
   "," ","html-keyboard-response","0","1842","0.0-0.0","6","5","5","5","2","4","3","4","4","4","4","0","-2","0","1","0","1","1","1","4","3","4","2","3","3","4","2","2","4","6","7","5","5","4","6","6","6","5","6","5","5","5","5","2","4","5","6","4","1","3","2","7","3","2","5","5","4","5","5","2","3","3","3","2","5","6","4","3","7","4","3","6","3","2","4","6","4","2","5","780195301624647681","杨","358","Female","[""坏她"",""好她"",""好我"",""坏我""]","[""弱她"",""强她"",""强我"",""弱我""]","","","","","","","","","","","","","","","","","","","","","","","","","","","","","","","","","","","","","","",""
"","","","call-function","1","1843","0.0-1.0-0.0","6","5","5","5","2","4","3","4","4","4","4","0","-2","0","1","0","1","1","1","4","3","4","2","3","3","4","2","2","4","6","7","5","5","4","6","6","6","5","6","5","5","5","5","2","4","5","6","4","1","3","2","7","3","2","5","5","4","5","5","2","3","3","3","2","5","6","4","3","7","4","3","6","3","2","4","6","4","2","5","780195301624647681","杨","358","Female","[""坏她"",""好她"",""好我"",""坏我""]","[""弱她"",""强她"",""强我"",""弱我""]","","","","","","","","","","","","","","","","","","","","","","","","","","","","","","","","","","","","","","",""
"10161","","[{""name"":""Sex"",""value"":""1""},{""name"":""friend_name"",""value"":""杨""},{""name"":""ParticipantID"",""value"":""358""}]","survey-html-form","2","12004","0.0-1.0-1.0","6","5","5","5","2","4","3","4","4","4","4","0","-2","0","1","0","1","1","1","4","3","4","2","3","3","4","2","2","4","6","7","5","5","4","6","6","6","5","6","5","5","5","5","2","4","5","6","4","1","3","2","7","3","2","5","5","4","5","5","2","3","3","3","2","5","6","4","3","7","4","3","6","3","2","4","6","4","2","5","780195301624647681","杨","358","Female","[""坏她"",""好她"",""好我"",""坏我""]","[""弱她"",""强她"",""强我"",""弱我""]","","","","","","","","","","","","","","","","","","","","","","","","","","","","","","","","","","","","","","",""
"","","","preload","3","12212","0.0-2.0","6","5","5","5","2","4","3","4","4","4","4","0","-2","0","1","0","1","1","1","4","3","4","2","3","3","4","2","2","4","6","7","5","5","4","6","6","6","5","6","5","5","5","5","2","4","5","6","4","1","3","2","7","3","2","5","5","4","5","5","2","3","3","3","2","5","6","4","3","7","4","3","6","3","2","4","6","4","2","5","780195301624647681","杨","358","Female","[""坏她"",""好她"",""好我"",""坏我""]","[""弱她"",""强她"",""强我"",""弱我""]","","true","false","[]","[]","[]","","","","","","","","","","","","","","","","","","","","","","","","","","","","","","","","",""
"","","","fullscreen","4","13885","0.0-3.0","6","5","5","5","2","4","3","4","4","4","4","0","-2","0","1","0","1","1","1","4","3","4","2","3","3","4","2","2","4","6","7","5","5","4","6","6","6","5","6","5","5","5","5","2","4","5","6","4","1","3","2","7","3","2","5","5","4","5","5","2","3","3","3","2","5","6","4","3","7","4","3","6","3","2","4","6","4","2","5","780195301624647681","杨","358","Female","[""坏她"",""好她"",""好我"",""坏我""]","[""弱她"",""强她"",""强我"",""弱我""]","","true","","","","","{}","","","","","","","","","","","","","","","","","","","","","","","","","","","","","","","",""
"15435.399999976158","","{""Q01"":""6"",""Q02"":""5"",""Q03"":""5"",""Q04"":""5"",""Q05"":""2""}","survey-template","5","29323","0.0-4.0","6","5","5","5","2","4","3","4","4","4","4","0","-2","0","1","0","1","1","1","4","3","4","2","3","3","4","2","2","4","6","7","5","5","4","6","6","6","5","6","5","5","5","5","2","4","5","6","4","1","3","2","7","3","2","5","5","4","5","5","2","3","3","3","2","5","6","4","3","7","4","3","6","3","2","4","6","4","2","5","780195301624647681","杨","358","Female","[""坏她"",""好她"",""好我"",""坏我""]","[""弱她"",""强她"",""强我"",""弱我""]","","","","","","","","{""Q01"":""6"",""Q02"":""5"",""Q03"":""5"",""Q04"":""5"",""Q05"":""2""}","[0,1,2,3,4]","[""Q01"",""Q02"",""Q03"",""Q04"",""Q05"",""Q04""]","[2191.399999976158,3144.300000011921,4413.699999988079,7888.199999988079,9530.800000011921,11975.899999976158]","[]","[2191.399999976158,3144.300000011921,4413.699999988079,7888.199999988079,9530.800000011921,11975.899999976158,15434]","0.6","0.25","0","","","","","","","","","","","","","","","","","","","","","","",""
"13727.899999976158","","{""Q01"":""4"",""Q02"":""3"",""Q03"":""4"",""Q04"":""4"",""Q05"":""4"",""Q06"":""4""}","survey-template","6","43057","0.0-5.0","6","5","5","5","2","4","3","4","4","4","4","0","-2","0","1","0","1","1","1","4","3","4","2","3","3","4","2","2","4","6","7","5","5","4","6","6","6","5","6","5","5","5","5","2","4","5","6","4","1","3","2","7","3","2","5","5","4","5","5","2","3","3","3","2","5","6","4","3","7","4","3","6","3","2","4","6","4","2","5","780195301624647681","杨","358","Female","[""坏她"",""好她"",""好我"",""坏我""]","[""弱她"",""强她"",""强我"",""弱我""]","","","","","","","","{""Q01"":""4"",""Q02"":""3"",""Q03"":""4"",""Q04"":""4"",""Q05"":""4"",""Q06"":""4""}","[0,1,2,3,4,5]","[""Q01"",""Q02"",""Q03"",""Q04"",""Q05"",""Q06""]","[4421.300000011921,6841.899999976158,8091.899999976158,10224.899999976158,11331.899999976158,13062.699999988079]","[]","[2506,4421.300000011921,6841.899999976158,8091.899999976158,10224.899999976158,11331.899999976158,13062.699999988079,13726.899999976158]","0.5","0.4","0","","","","","","","","","","","","","","","","","","","","","","",""
"12537.400000035763","","{""Q01"":""0"",""Q02"":""-2"",""Q03"":""0"",""Q04"":""1"",""Q05"":""0"",""Q06"":""1"",""Q07"":""1"",""Q08"":""1""}","survey-template","7","55598","0.0-6.0","6","5","5","5","2","4","3","4","4","4","4","0","-2","0","1","0","1","1","1","4","3","4","2","3","3","4","2","2","4","6","7","5","5","4","6","6","6","5","6","5","5","5","5","2","4","5","6","4","1","3","2","7","3","2","5","5","4","5","5","2","3","3","3","2","5","6","4","3","7","4","3","6","3","2","4","6","4","2","5","780195301624647681","杨","358","Female","[""坏她"",""好她"",""好我"",""坏我""]","[""弱她"",""强她"",""强我"",""弱我""]","","","","","","","","{""Q01"":""0"",""Q02"":""-2"",""Q03"":""0"",""Q04"":""1"",""Q05"":""0"",""Q06"":""1"",""Q07"":""1"",""Q08"":""1""}","[0,1,2,3,4,5,6,7]","[""Q01"",""Q02"",""Q03"",""Q04"",""Q05"",""Q06"",""Q07"",""Q08""]","[2349.400000035763,3650.100000023842,5144.5,6965.199999988079,8341.5,9337.699999988079,10649.900000035763,11643.5]","[]","[2349.400000035763,3650.100000023842,5144.5,6965.199999988079,8341.5,9337.699999988079,10649.900000035763,11643.5,12535.800000011921]","0.5","0.42857142857142855","0","","","","","","","","","","","","","","","","","","","","","","",""
"2766","
    <p><div style='color:white;font-size:35px; line-height:20px;'>词汇评估任务</div></p><br>
    <p><div style='color:white;font-size:25px; line-height:20px;'>请再次回忆该亲密的朋友，你们至少2年前就认识了，并且最近2年经常见面。</div></p>
    <p><div style='color:white;font-size:25px; line-height:20px;'>在本实验中，您将会看到一些形容词。</div></p>
    <p><div style='color:yellow;font-size:25px; line-height:20px;'>您的任务是判断这些形容词是否符合对您自己或您的朋友的描述。</div></p><p style='font-size:35px'>符合按<span style=""color:lightgreen""> f 键</span>，不符合按<span style=""color:red""> j 键</span></p>","0","html-button-response","8","58368","0.0-7.0-0.0","6","5","5","5","2","4","3","4","4","4","4","0","-2","0","1","0","1","1","1","4","3","4","2","3","3","4","2","2","4","6","7","5","5","4","6","6","6","5","6","5","5","5","5","2","4","5","6","4","1","3","2","7","3","2","5","5","4","5","5","2","3","3","3","2","5","6","4","3","7","4","3","6","3","2","4","6","4","2","5","780195301624647681","杨","358","Female","[""坏她"",""好她"",""好我"",""坏我""]","[""弱她"",""强她"",""强我"",""弱我""]","","","","","","","","","","","","","","","","","SRET_EW","EW_instructions","Sun Jan 21 2024 21:21:05 GMT+0800 (中国标准时间)","","","","","","","","","","","","","","","","","","","",""
"null","","null","psychophysics","9","61388","0.0-7.0-1.0-0.0","6","5","5","5","2","4","3","4","4","4","4","0","-2","0","1","0","1","1","1","4","3","4","2","3","3","4","2","2","4","6","7","5","5","4","6","6","6","5","6","5","5","5","5","2","4","5","6","4","1","3","2","7","3","2","5","5","4","5","5","2","3","3","3","2","5","6","4","3","7","4","3","6","3","2","4","6","4","2","5","780195301624647681","杨","358","Female","[""坏她"",""好她"",""好我"",""坏我""]","[""弱她"",""强她"",""强我"",""弱我""]","","","","","","","","","","","","","","","","","SRET_EW","EW_practice","","key","null","16.66611111111108","720","446","自己","严谨","Positive","ability","","","","","","","","","","",""
"1395","","j","psychophysics","10","63785","0.0-7.0-1.0-0.1","6","5","5","5","2","4","3","4","4","4","4","0","-2","0","1","0","1","1","1","4","3","4","2","3","3","4","2","2","4","6","7","5","5","4","6","6","6","5","6","5","5","5","5","2","4","5","6","4","1","3","2","7","3","2","5","5","4","5","5","2","3","3","3","2","5","6","4","3","7","4","3","6","3","2","4","6","4","2","5","780195301624647681","杨","358","Female","[""坏她"",""好她"",""好我"",""坏我""]","[""弱她"",""强她"",""强我"",""弱我""]","","","","","","","","no","","","","","","","","","SRET_EW","EW_practice","","key","j","16.666433566433536","720","446","朋友","忠实","Positive","morality","","","","","","","","","","",""
"1669","","j","psychophysics","11","66457","0.0-7.0-1.0-0.2","6","5","5","5","2","4","3","4","4","4","4","0","-2","0","1","0","1","1","1","4","3","4","2","3","3","4","2","2","4","6","7","5","5","4","6","6","6","5","6","5","5","5","5","2","4","5","6","4","1","3","2","7","3","2","5","5","4","5","5","2","3","3","3","2","5","6","4","3","7","4","3","6","3","2","4","6","4","2","5","780195301624647681","杨","358","Female","[""坏她"",""好她"",""好我"",""坏我""]","[""弱她"",""强她"",""强我"",""弱我""]","","","","","","","","no","","","","","","","","","SRET_EW","EW_practice","","key","j","16.667500000000018","720","446","自己","刻板","Negative","ability","","","","","","","","","","",""
"1031","","f","psychophysics","12","68489","0.0-7.0-1.0-0.3","6","5","5","5","2","4","3","4","4","4","4","0","-2","0","1","0","1","1","1","4","3","4","2","3","3","4","2","2","4","6","7","5","5","4","6","6","6","5","6","5","5","5","5","2","4","5","6","4","1","3","2","7","3","2","5","5","4","5","5","2","3","3","3","2","5","6","4","3","7","4","3","6","3","2","4","6","4","2","5","780195301624647681","杨","358","Female","[""坏她"",""好她"",""好我"",""坏我""]","[""弱她"",""强她"",""强我"",""弱我""]","","","","","","","","yes","","","","","","","","","SRET_EW","EW_practice","","key","f","16.665833333333286","720","446","朋友","徇私","Negative","morality","","","","","","","","","","",""
"13668","
    <p><div style='color:white;font-size:35px; line-height:20px;'>请您再次阅读实验要求</div></p><br>
    <p><div style='color:white;font-size:25px; line-height:20px;'>请回忆某一个亲密的朋友，你们至少2年前就认识了，并且最近2年经常见面。</div></p>
    <p><div style='color:white;font-size:25px; line-height:20px;'>在本实验中，您将会看到一些形容词。</div></p>
    <p><div style='color:yellow;font-size:25px; line-height:20px;'>您的任务是判断这些形容词是否符合对您自己或您的朋友的描述。</div></p>
    <p><div class='footer' style='font-size:25px; line-height:20px;'>如果对本实验还有不清楚之处，请立即向实验员咨询。</p><p style='font-size:25px; line-height:20px;'>如果您明白了规则：</p><p style='font-size:22px; line-height:20px;'>请按 继续 进入正式实验</p>
    </div>
    <p style='font-size:35px'>符合按<span style=""color:lightgreen""> f 键</span>，不符合按<span style=""color:red""> j 键</span></p>","0","html-button-response","13","82158","0.0-7.0-2.0","6","5","5","5","2","4","3","4","4","4","4","0","-2","0","1","0","1","1","1","4","3","4","2","3","3","4","2","2","4","6","7","5","5","4","6","6","6","5","6","5","5","5","5","2","4","5","6","4","1","3","2","7","3","2","5","5","4","5","5","2","3","3","3","2","5","6","4","3","7","4","3","6","3","2","4","6","4","2","5","780195301624647681","杨","358","Female","[""坏她"",""好她"",""好我"",""坏我""]","[""弱她"",""强她"",""强我"",""弱我""]","","","","","","","","","","","","","","","","","SRET_EW","prac_instructions","Sun Jan 21 2024 21:21:05 GMT+0800 (中国标准时间)","","","","","","","","","","","","","","","","","","","",""
"891","","j","psychophysics","14","84050","0.0-7.0-3.0-0.0","6","5","5","5","2","4","3","4","4","4","4","0","-2","0","1","0","1","1","1","4","3","4","2","3","3","4","2","2","4","6","7","5","5","4","6","6","6","5","6","5","5","5","5","2","4","5","6","4","1","3","2","7","3","2","5","5","4","5","5","2","3","3","3","2","5","6","4","3","7","4","3","6","3","2","4","6","4","2","5","780195301624647681","杨","358","Female","[""坏她"",""好她"",""好我"",""坏我""]","[""弱她"",""强她"",""强我"",""弱我""]","","","","","","","","no","","","","","","","","","SRET","EW_formal","","key","j","16.51769911504425","720","446","自己","说谎","Negative","morality","","","","","","","","","","",""
"1549","","f","psychophysics","15","86600","0.0-7.0-3.0-0.1","6","5","5","5","2","4","3","4","4","4","4","0","-2","0","1","0","1","1","1","4","3","4","2","3","3","4","2","2","4","6","7","5","5","4","6","6","6","5","6","5","5","5","5","2","4","5","6","4","1","3","2","7","3","2","5","5","4","5","5","2","3","3","3","2","5","6","4","3","7","4","3","6","3","2","4","6","4","2","5","780195301624647681","杨","358","Female","[""坏她"",""好她"",""好我"",""坏我""]","[""弱她"",""强她"",""强我"",""弱我""]","","","","","","","","yes","","","","","","","","","SRET","EW_formal","","key","f","16.667763157894736","720","446","朋友","务实","Positive","ability","","","","","","","","","","",""
"1563","","f","psychophysics","16","89164","0.0-7.0-3.0-0.2","6","5","5","5","2","4","3","4","4","4","4","0","-2","0","1","0","1","1","1","4","3","4","2","3","3","4","2","2","4","6","7","5","5","4","6","6","6","5","6","5","5","5","5","2","4","5","6","4","1","3","2","7","3","2","5","5","4","5","5","2","3","3","3","2","5","6","4","3","7","4","3","6","3","2","4","6","4","2","5","780195301624647681","杨","358","Female","[""坏她"",""好她"",""好我"",""坏我""]","[""弱她"",""强她"",""强我"",""弱我""]","","","","","","","","yes","","","","","","","","","SRET","EW_formal","","key","f","16.66601307189548","720","446","朋友","迷糊","Negative","ability","","","","","","","","","","",""
"1015","","f","psychophysics","17","91181","0.0-7.0-3.0-0.3","6","5","5","5","2","4","3","4","4","4","4","0","-2","0","1","0","1","1","1","4","3","4","2","3","3","4","2","2","4","6","7","5","5","4","6","6","6","5","6","5","5","5","5","2","4","5","6","4","1","3","2","7","3","2","5","5","4","5","5","2","3","3","3","2","5","6","4","3","7","4","3","6","3","2","4","6","4","2","5","780195301624647681","杨","358","Female","[""坏她"",""好她"",""好我"",""坏我""]","[""弱她"",""强她"",""强我"",""弱我""]","","","","","","","","yes","","","","","","","","","SRET","EW_formal","","key","f","16.666666666666668","720","446","自己","坚贞","Positive","morality","","","","","","","","","","",""
"875","","f","psychophysics","18","93059","0.0-7.0-3.0-0.4","6","5","5","5","2","4","3","4","4","4","4","0","-2","0","1","0","1","1","1","4","3","4","2","3","3","4","2","2","4","6","7","5","5","4","6","6","6","5","6","5","5","5","5","2","4","5","6","4","1","3","2","7","3","2","5","5","4","5","5","2","3","3","3","2","5","6","4","3","7","4","3","6","3","2","4","6","4","2","5","780195301624647681","杨","358","Female","[""坏她"",""好她"",""好我"",""坏我""]","[""弱她"",""强她"",""强我"",""弱我""]","","","","","","","","yes","","","","","","","","","SRET","EW_formal","","key","f","16.66607142857148","720","446","朋友","忠诚","Positive","morality","","","","","","","","","","",""
"821","","j","psychophysics","19","94881","0.0-7.0-3.0-0.5","6","5","5","5","2","4","3","4","4","4","4","0","-2","0","1","0","1","1","1","4","3","4","2","3","3","4","2","2","4","6","7","5","5","4","6","6","6","5","6","5","5","5","5","2","4","5","6","4","1","3","2","7","3","2","5","5","4","5","5","2","3","3","3","2","5","6","4","3","7","4","3","6","3","2","4","6","4","2","5","780195301624647681","杨","358","Female","[""坏她"",""好她"",""好我"",""坏我""]","[""弱她"",""强她"",""强我"",""弱我""]","","","","","","","","no","","","","","","","","","SRET","EW_formal","","key","j","16.669444444444473","720","446","自己","狡诈","Negative","morality","","","","","","","","","","",""
"728","","f","psychophysics","20","96612","0.0-7.0-3.0-0.6","6","5","5","5","2","4","3","4","4","4","4","0","-2","0","1","0","1","1","1","4","3","4","2","3","3","4","2","2","4","6","7","5","5","4","6","6","6","5","6","5","5","5","5","2","4","5","6","4","1","3","2","7","3","2","5","5","4","5","5","2","3","3","3","2","5","6","4","3","7","4","3","6","3","2","4","6","4","2","5","780195301624647681","杨","358","Female","[""坏她"",""好她"",""好我"",""坏我""]","[""弱她"",""强她"",""强我"",""弱我""]","","","","","","","","yes","","","","","","","","","SRET","EW_formal","","key","f","16.666019417475642","720","446","自己","智慧","Positive","ability","","","","","","","","","","",""
"836","","j","psychophysics","21","98450","0.0-7.0-3.0-0.7","6","5","5","5","2","4","3","4","4","4","4","0","-2","0","1","0","1","1","1","4","3","4","2","3","3","4","2","2","4","6","7","5","5","4","6","6","6","5","6","5","5","5","5","2","4","5","6","4","1","3","2","7","3","2","5","5","4","5","5","2","3","3","3","2","5","6","4","3","7","4","3","6","3","2","4","6","4","2","5","780195301624647681","杨","358","Female","[""坏她"",""好她"",""好我"",""坏我""]","[""弱她"",""强她"",""强我"",""弱我""]","","","","","","","","no","","","","","","","","","SRET","EW_formal","","key","j","16.666055045871612","720","446","自己","邪恶","Negative","morality","","","","","","","","","","",""
"693","","f","psychophysics","22","100145","0.0-7.0-3.0-0.8","6","5","5","5","2","4","3","4","4","4","4","0","-2","0","1","0","1","1","1","4","3","4","2","3","3","4","2","2","4","6","7","5","5","4","6","6","6","5","6","5","5","5","5","2","4","5","6","4","1","3","2","7","3","2","5","5","4","5","5","2","3","3","3","2","5","6","4","3","7","4","3","6","3","2","4","6","4","2","5","780195301624647681","杨","358","Female","[""坏她"",""好她"",""好我"",""坏我""]","[""弱她"",""强她"",""强我"",""弱我""]","","","","","","","","yes","","","","","","","","","SRET","EW_formal","","key","f","16.666336633663253","720","446","自己","忠勇","Positive","morality","","","","","","","","","","",""
"1023","","f","psychophysics","23","102170","0.0-7.0-3.0-0.9","6","5","5","5","2","4","3","4","4","4","4","0","-2","0","1","0","1","1","1","4","3","4","2","3","3","4","2","2","4","6","7","5","5","4","6","6","6","5","6","5","5","5","5","2","4","5","6","4","1","3","2","7","3","2","5","5","4","5","5","2","3","3","3","2","5","6","4","3","7","4","3","6","3","2","4","6","4","2","5","780195301624647681","杨","358","Female","[""坏她"",""好她"",""好我"",""坏我""]","[""弱她"",""强她"",""强我"",""弱我""]","","","","","","","","yes","","","","","","","","","SRET","EW_formal","","key","f","16.666666666666668","720","446","朋友","沉着","Positive","ability","","","","","","","","","","",""
"896","","f","psychophysics","24","104068","0.0-7.0-3.0-0.10","6","5","5","5","2","4","3","4","4","4","4","0","-2","0","1","0","1","1","1","4","3","4","2","3","3","4","2","2","4","6","7","5","5","4","6","6","6","5","6","5","5","5","5","2","4","5","6","4","1","3","2","7","3","2","5","5","4","5","5","2","3","3","3","2","5","6","4","3","7","4","3","6","3","2","4","6","4","2","5","780195301624647681","杨","358","Female","[""坏她"",""好她"",""好我"",""坏我""]","[""弱她"",""强她"",""强我"",""弱我""]","","","","","","","","yes","","","","","","","","","SRET","EW_formal","","key","f","16.666371681415825","720","446","朋友","高明","Positive","ability","","","","","","","","","","",""
"803","","j","psychophysics","25","105872","0.0-7.0-3.0-0.11","6","5","5","5","2","4","3","4","4","4","4","0","-2","0","1","0","1","1","1","4","3","4","2","3","3","4","2","2","4","6","7","5","5","4","6","6","6","5","6","5","5","5","5","2","4","5","6","4","1","3","2","7","3","2","5","5","4","5","5","2","3","3","3","2","5","6","4","3","7","4","3","6","3","2","4","6","4","2","5","780195301624647681","杨","358","Female","[""坏她"",""好她"",""好我"",""坏我""]","[""弱她"",""强她"",""强我"",""弱我""]","","","","","","","","no","","","","","","","","","SRET","EW_formal","","key","j","16.66822429906542","720","446","朋友","罪恶","Negative","morality","","","","","","","","","","",""
"1176","","j","psychophysics","26","108049","0.0-7.0-3.0-0.12","6","5","5","5","2","4","3","4","4","4","4","0","-2","0","1","0","1","1","1","4","3","4","2","3","3","4","2","2","4","6","7","5","5","4","6","6","6","5","6","5","5","5","5","2","4","5","6","4","1","3","2","7","3","2","5","5","4","5","5","2","3","3","3","2","5","6","4","3","7","4","3","6","3","2","4","6","4","2","5","780195301624647681","杨","358","Female","[""坏她"",""好她"",""好我"",""坏我""]","[""弱她"",""强她"",""强我"",""弱我""]","","","","","","","","no","","","","","","","","","SRET","EW_formal","","key","j","16.66615384615378","720","446","自己","短浅","Negative","ability","","","","","","","","","","",""
"623","","f","psychophysics","27","109673","0.0-7.0-3.0-0.13","6","5","5","5","2","4","3","4","4","4","4","0","-2","0","1","0","1","1","1","4","3","4","2","3","3","4","2","2","4","6","7","5","5","4","6","6","6","5","6","5","5","5","5","2","4","5","6","4","1","3","2","7","3","2","5","5","4","5","5","2","3","3","3","2","5","6","4","3","7","4","3","6","3","2","4","6","4","2","5","780195301624647681","杨","358","Female","[""坏她"",""好她"",""好我"",""坏我""]","[""弱她"",""强她"",""强我"",""弱我""]","","","","","","","","yes","","","","","","","","","SRET","EW_formal","","key","f","16.665624999999938","720","446","自己","高尚","Positive","morality","","","","","","","","","","",""
"589","","f","psychophysics","28","111265","0.0-7.0-3.0-0.14","6","5","5","5","2","4","3","4","4","4","4","0","-2","0","1","0","1","1","1","4","3","4","2","3","3","4","2","2","4","6","7","5","5","4","6","6","6","5","6","5","5","5","5","2","4","5","6","4","1","3","2","7","3","2","5","5","4","5","5","2","3","3","3","2","5","6","4","3","7","4","3","6","3","2","4","6","4","2","5","780195301624647681","杨","358","Female","[""坏她"",""好她"",""好我"",""坏我""]","[""弱她"",""强她"",""强我"",""弱我""]","","","","","","","","yes","","","","","","","","","SRET","EW_formal","","key","f","16.66631578947356","720","446","自己","扎实","Positive","ability","","","","","","","","","","",""
"867","","j","psychophysics","29","113133","0.0-7.0-3.0-0.15","6","5","5","5","2","4","3","4","4","4","4","0","-2","0","1","0","1","1","1","4","3","4","2","3","3","4","2","2","4","6","7","5","5","4","6","6","6","5","6","5","5","5","5","2","4","5","6","4","1","3","2","7","3","2","5","5","4","5","5","2","3","3","3","2","5","6","4","3","7","4","3","6","3","2","4","6","4","2","5","780195301624647681","杨","358","Female","[""坏她"",""好她"",""好我"",""坏我""]","[""弱她"",""强她"",""强我"",""弱我""]","","","","","","","","no","","","","","","","","","SRET","EW_formal","","key","j","16.665765765765713","720","446","自己","迂拙","Negative","ability","","","","","","","","","","",""
"1168","","f","psychophysics","30","115302","0.0-7.0-3.0-0.16","6","5","5","5","2","4","3","4","4","4","4","0","-2","0","1","0","1","1","1","4","3","4","2","3","3","4","2","2","4","6","7","5","5","4","6","6","6","5","6","5","5","5","5","2","4","5","6","4","1","3","2","7","3","2","5","5","4","5","5","2","3","3","3","2","5","6","4","3","7","4","3","6","3","2","4","6","4","2","5","780195301624647681","杨","358","Female","[""坏她"",""好她"",""好我"",""坏我""]","[""弱她"",""强她"",""强我"",""弱我""]","","","","","","","","yes","","","","","","","","","SRET","EW_formal","","key","f","16.66744186046516","720","446","自己","守信","Positive","morality","","","","","","","","","","",""
"null","","null","psychophysics","31","118321","0.0-7.0-3.0-0.17","6","5","5","5","2","4","3","4","4","4","4","0","-2","0","1","0","1","1","1","4","3","4","2","3","3","4","2","2","4","6","7","5","5","4","6","6","6","5","6","5","5","5","5","2","4","5","6","4","1","3","2","7","3","2","5","5","4","5","5","2","3","3","3","2","5","6","4","3","7","4","3","6","3","2","4","6","4","2","5","780195301624647681","杨","358","Female","[""坏她"",""好她"",""好我"",""坏我""]","[""弱她"",""强她"",""强我"",""弱我""]","","","","","","","","","","","","","","","","","SRET","EW_formal","","key","null","16.66611111111108","720","446","朋友","坚持","Positive","ability","","","","","","","","","","",""
"1073","","j","psychophysics","32","120396","0.0-7.0-3.0-0.18","6","5","5","5","2","4","3","4","4","4","4","0","-2","0","1","0","1","1","1","4","3","4","2","3","3","4","2","2","4","6","7","5","5","4","6","6","6","5","6","5","5","5","5","2","4","5","6","4","1","3","2","7","3","2","5","5","4","5","5","2","3","3","3","2","5","6","4","3","7","4","3","6","3","2","4","6","4","2","5","780195301624647681","杨","358","Female","[""坏她"",""好她"",""好我"",""坏我""]","[""弱她"",""强她"",""强我"",""弱我""]","","","","","","","","no","","","","","","","","","SRET","EW_formal","","key","j","16.666129032258112","720","446","朋友","差生","Negative","ability","","","","","","","","","","",""
"656","","f","psychophysics","33","122055","0.0-7.0-3.0-0.19","6","5","5","5","2","4","3","4","4","4","4","0","-2","0","1","0","1","1","1","4","3","4","2","3","3","4","2","2","4","6","7","5","5","4","6","6","6","5","6","5","5","5","5","2","4","5","6","4","1","3","2","7","3","2","5","5","4","5","5","2","3","3","3","2","5","6","4","3","7","4","3","6","3","2","4","6","4","2","5","780195301624647681","杨","358","Female","[""坏她"",""好她"",""好我"",""坏我""]","[""弱她"",""强她"",""强我"",""弱我""]","","","","","","","","yes","","","","","","","","","SRET","EW_formal","","key","f","16.66530612244895","720","446","朋友","诚信","Positive","morality","","","","","","","","","","",""
"948","","j","psychophysics","34","124004","0.0-7.0-3.0-0.20","6","5","5","5","2","4","3","4","4","4","4","0","-2","0","1","0","1","1","1","4","3","4","2","3","3","4","2","2","4","6","7","5","5","4","6","6","6","5","6","5","5","5","5","2","4","5","6","4","1","3","2","7","3","2","5","5","4","5","5","2","3","3","3","2","5","6","4","3","7","4","3","6","3","2","4","6","4","2","5","780195301624647681","杨","358","Female","[""坏她"",""好她"",""好我"",""坏我""]","[""弱她"",""强她"",""强我"",""弱我""]","","","","","","","","no","","","","","","","","","SRET","EW_formal","","key","j","16.66637931034485","720","446","自己","愚蠢","Negative","ability","","","","","","","","","","",""
"1258","","j","psychophysics","35","126265","0.0-7.0-3.0-0.21","6","5","5","5","2","4","3","4","4","4","4","0","-2","0","1","0","1","1","1","4","3","4","2","3","3","4","2","2","4","6","7","5","5","4","6","6","6","5","6","5","5","5","5","2","4","5","6","4","1","3","2","7","3","2","5","5","4","5","5","2","3","3","3","2","5","6","4","3","7","4","3","6","3","2","4","6","4","2","5","780195301624647681","杨","358","Female","[""坏她"",""好她"",""好我"",""坏我""]","[""弱她"",""强她"",""强我"",""弱我""]","","","","","","","","no","","","","","","","","","SRET","EW_formal","","key","j","16.668148148148127","720","446","朋友","昏庸","Negative","ability","","","","","","","","","","",""
"883","","f","psychophysics","36","128150","0.0-7.0-3.0-0.22","6","5","5","5","2","4","3","4","4","4","4","0","-2","0","1","0","1","1","1","4","3","4","2","3","3","4","2","2","4","6","7","5","5","4","6","6","6","5","6","5","5","5","5","2","4","5","6","4","1","3","2","7","3","2","5","5","4","5","5","2","3","3","3","2","5","6","4","3","7","4","3","6","3","2","4","6","4","2","5","780195301624647681","杨","358","Female","[""坏她"",""好她"",""好我"",""坏我""]","[""弱她"",""强她"",""强我"",""弱我""]","","","","","","","","yes","","","","","","","","","SRET","EW_formal","","key","f","16.66696428571439","720","446","朋友","学霸","Positive","ability","","","","","","","","","","",""
"1849","","f","psychophysics","37","131001","0.0-7.0-3.0-0.23","6","5","5","5","2","4","3","4","4","4","4","0","-2","0","1","0","1","1","1","4","3","4","2","3","3","4","2","2","4","6","7","5","5","4","6","6","6","5","6","5","5","5","5","2","4","5","6","4","1","3","2","7","3","2","5","5","4","5","5","2","3","3","3","2","5","6","4","3","7","4","3","6","3","2","4","6","4","2","5","780195301624647681","杨","358","Female","[""坏她"",""好她"",""好我"",""坏我""]","[""弱她"",""强她"",""强我"",""弱我""]","","","","","","","","yes","","","","","","","","","SRET","EW_formal","","key","f","16.66588235294116","720","446","朋友","仗义","Positive","morality","","","","","","","","","","",""
"621","","j","psychophysics","38","132623","0.0-7.0-3.0-0.24","6","5","5","5","2","4","3","4","4","4","4","0","-2","0","1","0","1","1","1","4","3","4","2","3","3","4","2","2","4","6","7","5","5","4","6","6","6","5","6","5","5","5","5","2","4","5","6","4","1","3","2","7","3","2","5","5","4","5","5","2","3","3","3","2","5","6","4","3","7","4","3","6","3","2","4","6","4","2","5","780195301624647681","杨","358","Female","[""坏她"",""好她"",""好我"",""坏我""]","[""弱她"",""强她"",""强我"",""弱我""]","","","","","","","","no","","","","","","","","","SRET","EW_formal","","key","j","16.666666666666668","720","446","自己","奸险","Negative","morality","","","","","","","","","","",""
"757","","j","psychophysics","39","134382","0.0-7.0-3.0-0.25","6","5","5","5","2","4","3","4","4","4","4","0","-2","0","1","0","1","1","1","4","3","4","2","3","3","4","2","2","4","6","7","5","5","4","6","6","6","5","6","5","5","5","5","2","4","5","6","4","1","3","2","7","3","2","5","5","4","5","5","2","3","3","3","2","5","6","4","3","7","4","3","6","3","2","4","6","4","2","5","780195301624647681","杨","358","Female","[""坏她"",""好她"",""好我"",""坏我""]","[""弱她"",""强她"",""强我"",""弱我""]","","","","","","","","no","","","","","","","","","SRET","EW_formal","","key","j","16.66571428571423","720","446","朋友","无为","Negative","ability","","","","","","","","","","",""
"1072","","j","psychophysics","40","136455","0.0-7.0-3.0-0.26","6","5","5","5","2","4","3","4","4","4","4","0","-2","0","1","0","1","1","1","4","3","4","2","3","3","4","2","2","4","6","7","5","5","4","6","6","6","5","6","5","5","5","5","2","4","5","6","4","1","3","2","7","3","2","5","5","4","5","5","2","3","3","3","2","5","6","4","3","7","4","3","6","3","2","4","6","4","2","5","780195301624647681","杨","358","Female","[""坏她"",""好她"",""好我"",""坏我""]","[""弱她"",""强她"",""强我"",""弱我""]","","","","","","","","no","","","","","","","","","SRET","EW_formal","","key","j","16.668292682926925","720","446","自己","龌龊","Negative","morality","","","","","","","","","","",""
"675","","f","psychophysics","41","138133","0.0-7.0-3.0-0.27","6","5","5","5","2","4","3","4","4","4","4","0","-2","0","1","0","1","1","1","4","3","4","2","3","3","4","2","2","4","6","7","5","5","4","6","6","6","5","6","5","5","5","5","2","4","5","6","4","1","3","2","7","3","2","5","5","4","5","5","2","3","3","3","2","5","6","4","3","7","4","3","6","3","2","4","6","4","2","5","780195301624647681","杨","358","Female","[""坏她"",""好她"",""好我"",""坏我""]","[""弱她"",""强她"",""强我"",""弱我""]","","","","","","","","yes","","","","","","","","","SRET","EW_formal","","key","f","16.665999999999766","720","446","自己","刚正","Positive","morality","","","","","","","","","","",""
"1048","","f","psychophysics","42","140182","0.0-7.0-3.0-0.28","6","5","5","5","2","4","3","4","4","4","4","0","-2","0","1","0","1","1","1","4","3","4","2","3","3","4","2","2","4","6","7","5","5","4","6","6","6","5","6","5","5","5","5","2","4","5","6","4","1","3","2","7","3","2","5","5","4","5","5","2","3","3","3","2","5","6","4","3","7","4","3","6","3","2","4","6","4","2","5","780195301624647681","杨","358","Female","[""坏她"",""好她"",""好我"",""坏我""]","[""弱她"",""强她"",""强我"",""弱我""]","","","","","","","","yes","","","","","","","","","SRET","EW_formal","","key","f","16.6655737704919","720","446","朋友","高效","Positive","ability","","","","","","","","","","",""
"921","","j","psychophysics","43","142105","0.0-7.0-3.0-0.29","6","5","5","5","2","4","3","4","4","4","4","0","-2","0","1","0","1","1","1","4","3","4","2","3","3","4","2","2","4","6","7","5","5","4","6","6","6","5","6","5","5","5","5","2","4","5","6","4","1","3","2","7","3","2","5","5","4","5","5","2","3","3","3","2","5","6","4","3","7","4","3","6","3","2","4","6","4","2","5","780195301624647681","杨","358","Female","[""坏她"",""好她"",""好我"",""坏我""]","[""弱她"",""强她"",""强我"",""弱我""]","","","","","","","","no","","","","","","","","","SRET","EW_formal","","key","j","16.666666666666668","720","446","自己","无助","Negative","ability","","","","","","","","","","",""
"563","","f","psychophysics","44","143669","0.0-7.0-3.0-0.30","6","5","5","5","2","4","3","4","4","4","4","0","-2","0","1","0","1","1","1","4","3","4","2","3","3","4","2","2","4","6","7","5","5","4","6","6","6","5","6","5","5","5","5","2","4","5","6","4","1","3","2","7","3","2","5","5","4","5","5","2","3","3","3","2","5","6","4","3","7","4","3","6","3","2","4","6","4","2","5","780195301624647681","杨","358","Female","[""坏她"",""好她"",""好我"",""坏我""]","[""弱她"",""强她"",""强我"",""弱我""]","","","","","","","","yes","","","","","","","","","SRET","EW_formal","","key","f","16.6655913978494","720","446","自己","上进","Positive","ability","","","","","","","","","","",""
"697","","j","psychophysics","45","145367","0.0-7.0-3.0-0.31","6","5","5","5","2","4","3","4","4","4","4","0","-2","0","1","0","1","1","1","4","3","4","2","3","3","4","2","2","4","6","7","5","5","4","6","6","6","5","6","5","5","5","5","2","4","5","6","4","1","3","2","7","3","2","5","5","4","5","5","2","3","3","3","2","5","6","4","3","7","4","3","6","3","2","4","6","4","2","5","780195301624647681","杨","358","Female","[""坏她"",""好她"",""好我"",""坏我""]","[""弱她"",""强她"",""强我"",""弱我""]","","","","","","","","no","","","","","","","","","SRET","EW_formal","","key","j","16.668316831683168","720","446","朋友","腐败","Negative","morality","","","","","","","","","","",""
"843","","f","psychophysics","46","147212","0.0-7.0-3.0-0.32","6","5","5","5","2","4","3","4","4","4","4","0","-2","0","1","0","1","1","1","4","3","4","2","3","3","4","2","2","4","6","7","5","5","4","6","6","6","5","6","5","5","5","5","2","4","5","6","4","1","3","2","7","3","2","5","5","4","5","5","2","3","3","3","2","5","6","4","3","7","4","3","6","3","2","4","6","4","2","5","780195301624647681","杨","358","Female","[""坏她"",""好她"",""好我"",""坏我""]","[""弱她"",""强她"",""强我"",""弱我""]","","","","","","","","yes","","","","","","","","","SRET","EW_formal","","key","f","16.66545454545465","720","446","自己","顶事","Positive","ability","","","","","","","","","","",""
"1480","","f","psychophysics","47","149695","0.0-7.0-3.0-0.33","6","5","5","5","2","4","3","4","4","4","4","0","-2","0","1","0","1","1","1","4","3","4","2","3","3","4","2","2","4","6","7","5","5","4","6","6","6","5","6","5","5","5","5","2","4","5","6","4","1","3","2","7","3","2","5","5","4","5","5","2","3","3","3","2","5","6","4","3","7","4","3","6","3","2","4","6","4","2","5","780195301624647681","杨","358","Female","[""坏她"",""好她"",""好我"",""坏我""]","[""弱她"",""强她"",""强我"",""弱我""]","","","","","","","","yes","","","","","","","","","SRET","EW_formal","","key","f","16.66554054054054","720","446","自己","博识","Positive","ability","","","","","","","","","","",""
"855","","f","psychophysics","48","151552","0.0-7.0-3.0-0.34","6","5","5","5","2","4","3","4","4","4","4","0","-2","0","1","0","1","1","1","4","3","4","2","3","3","4","2","2","4","6","7","5","5","4","6","6","6","5","6","5","5","5","5","2","4","5","6","4","1","3","2","7","3","2","5","5","4","5","5","2","3","3","3","2","5","6","4","3","7","4","3","6","3","2","4","6","4","2","5","780195301624647681","杨","358","Female","[""坏她"",""好她"",""好我"",""坏我""]","[""弱她"",""强她"",""强我"",""弱我""]","","","","","","","","yes","","","","","","","","","SRET","EW_formal","","key","f","16.666363636363794","720","446","自己","无敌","Positive","ability","","","","","","","","","","",""
"631","","f","psychophysics","49","153184","0.0-7.0-3.0-0.35","6","5","5","5","2","4","3","4","4","4","4","0","-2","0","1","0","1","1","1","4","3","4","2","3","3","4","2","2","4","6","7","5","5","4","6","6","6","5","6","5","5","5","5","2","4","5","6","4","1","3","2","7","3","2","5","5","4","5","5","2","3","3","3","2","5","6","4","3","7","4","3","6","3","2","4","6","4","2","5","780195301624647681","杨","358","Female","[""坏她"",""好她"",""好我"",""坏我""]","[""弱她"",""强她"",""强我"",""弱我""]","","","","","","","","yes","","","","","","","","","SRET","EW_formal","","key","f","16.66597938144336","720","446","朋友","爱国","Positive","morality","","","","","","","","","","",""
"1204","","f","psychophysics","50","155390","0.0-7.0-3.0-0.36","6","5","5","5","2","4","3","4","4","4","4","0","-2","0","1","0","1","1","1","4","3","4","2","3","3","4","2","2","4","6","7","5","5","4","6","6","6","5","6","5","5","5","5","2","4","5","6","4","1","3","2","7","3","2","5","5","4","5","5","2","3","3","3","2","5","6","4","3","7","4","3","6","3","2","4","6","4","2","5","780195301624647681","杨","358","Female","[""坏她"",""好她"",""好我"",""坏我""]","[""弱她"",""强她"",""强我"",""弱我""]","","","","","","","","yes","","","","","","","","","SRET","EW_formal","","key","f","16.66870229007638","720","446","朋友","独立","Positive","ability","","","","","","","","","","",""
"1694","","j","psychophysics","51","158085","0.0-7.0-3.0-0.37","6","5","5","5","2","4","3","4","4","4","4","0","-2","0","1","0","1","1","1","4","3","4","2","3","3","4","2","2","4","6","7","5","5","4","6","6","6","5","6","5","5","5","5","2","4","5","6","4","1","3","2","7","3","2","5","5","4","5","5","2","3","3","3","2","5","6","4","3","7","4","3","6","3","2","4","6","4","2","5","780195301624647681","杨","358","Female","[""坏她"",""好她"",""好我"",""坏我""]","[""弱她"",""强她"",""强我"",""弱我""]","","","","","","","","no","","","","","","","","","SRET","EW_formal","","key","j","16.665838509316842","720","446","朋友","无能","Negative","ability","","","","","","","","","","",""
"1048","","f","psychophysics","52","160134","0.0-7.0-3.0-0.38","6","5","5","5","2","4","3","4","4","4","4","0","-2","0","1","0","1","1","1","4","3","4","2","3","3","4","2","2","4","6","7","5","5","4","6","6","6","5","6","5","5","5","5","2","4","5","6","4","1","3","2","7","3","2","5","5","4","5","5","2","3","3","3","2","5","6","4","3","7","4","3","6","3","2","4","6","4","2","5","780195301624647681","杨","358","Female","[""坏她"",""好她"",""好我"",""坏我""]","[""弱她"",""强她"",""强我"",""弱我""]","","","","","","","","yes","","","","","","","","","SRET","EW_formal","","key","f","16.66557377049166","720","446","朋友","粗心","Negative","ability","","","","","","","","","","",""
"664","","f","psychophysics","53","161800","0.0-7.0-3.0-0.39","6","5","5","5","2","4","3","4","4","4","4","0","-2","0","1","0","1","1","1","4","3","4","2","3","3","4","2","2","4","6","7","5","5","4","6","6","6","5","6","5","5","5","5","2","4","5","6","4","1","3","2","7","3","2","5","5","4","5","5","2","3","3","3","2","5","6","4","3","7","4","3","6","3","2","4","6","4","2","5","780195301624647681","杨","358","Female","[""坏她"",""好她"",""好我"",""坏我""]","[""弱她"",""强她"",""强我"",""弱我""]","","","","","","","","yes","","","","","","","","","SRET","EW_formal","","key","f","16.66565656565651","720","446","自己","奉献","Positive","morality","","","","","","","","","","",""
"815","","f","psychophysics","54","163616","0.0-7.0-3.0-0.40","6","5","5","5","2","4","3","4","4","4","4","0","-2","0","1","0","1","1","1","4","3","4","2","3","3","4","2","2","4","6","7","5","5","4","6","6","6","5","6","5","5","5","5","2","4","5","6","4","1","3","2","7","3","2","5","5","4","5","5","2","3","3","3","2","5","6","4","3","7","4","3","6","3","2","4","6","4","2","5","780195301624647681","杨","358","Female","[""坏她"",""好她"",""好我"",""坏我""]","[""弱她"",""强她"",""强我"",""弱我""]","","","","","","","","yes","","","","","","","","","SRET","EW_formal","","key","f","16.665740740740688","720","446","自己","君子","Positive","morality","","","","","","","","","","",""
"1179","","j","psychophysics","55","165797","0.0-7.0-3.0-0.41","6","5","5","5","2","4","3","4","4","4","4","0","-2","0","1","0","1","1","1","4","3","4","2","3","3","4","2","2","4","6","7","5","5","4","6","6","6","5","6","5","5","5","5","2","4","5","6","4","1","3","2","7","3","2","5","5","4","5","5","2","3","3","3","2","5","6","4","3","7","4","3","6","3","2","4","6","4","2","5","780195301624647681","杨","358","Female","[""坏她"",""好她"",""好我"",""坏我""]","[""弱她"",""强她"",""强我"",""弱我""]","","","","","","","","no","","","","","","","","","SRET","EW_formal","","key","j","16.66769230769244","720","446","朋友","专注","Positive","ability","","","","","","","","","","",""
"775","","j","psychophysics","56","167574","0.0-7.0-3.0-0.42","6","5","5","5","2","4","3","4","4","4","4","0","-2","0","1","0","1","1","1","4","3","4","2","3","3","4","2","2","4","6","7","5","5","4","6","6","6","5","6","5","5","5","5","2","4","5","6","4","1","3","2","7","3","2","5","5","4","5","5","2","3","3","3","2","5","6","4","3","7","4","3","6","3","2","4","6","4","2","5","780195301624647681","杨","358","Female","[""坏她"",""好她"",""好我"",""坏我""]","[""弱她"",""强她"",""强我"",""弱我""]","","","","","","","","no","","","","","","","","","SRET","EW_formal","","key","j","16.666037735848835","720","446","朋友","低劣","Negative","morality","","","","","","","","","","",""
"767","","f","psychophysics","57","169343","0.0-7.0-3.0-0.43","6","5","5","5","2","4","3","4","4","4","4","0","-2","0","1","0","1","1","1","4","3","4","2","3","3","4","2","2","4","6","7","5","5","4","6","6","6","5","6","5","5","5","5","2","4","5","6","4","1","3","2","7","3","2","5","5","4","5","5","2","3","3","3","2","5","6","4","3","7","4","3","6","3","2","4","6","4","2","5","780195301624647681","杨","358","Female","[""坏她"",""好她"",""好我"",""坏我""]","[""弱她"",""强她"",""强我"",""弱我""]","","","","","","","","yes","","","","","","","","","SRET","EW_formal","","key","f","16.666666666666668","720","446","自己","精干","Positive","ability","","","","","","","","","","",""
"848","","j","psychophysics","58","171195","0.0-7.0-3.0-0.44","6","5","5","5","2","4","3","4","4","4","4","0","-2","0","1","0","1","1","1","4","3","4","2","3","3","4","2","2","4","6","7","5","5","4","6","6","6","5","6","5","5","5","5","2","4","5","6","4","1","3","2","7","3","2","5","5","4","5","5","2","3","3","3","2","5","6","4","3","7","4","3","6","3","2","4","6","4","2","5","780195301624647681","杨","358","Female","[""坏她"",""好她"",""好我"",""坏我""]","[""弱她"",""强她"",""强我"",""弱我""]","","","","","","","","no","","","","","","","","","SRET","EW_formal","","key","j","16.66636363636353","720","446","朋友","伪善","Negative","morality","","","","","","","","","","",""
"1010","","f","psychophysics","59","173208","0.0-7.0-3.0-0.45","6","5","5","5","2","4","3","4","4","4","4","0","-2","0","1","0","1","1","1","4","3","4","2","3","3","4","2","2","4","6","7","5","5","4","6","6","6","5","6","5","5","5","5","2","4","5","6","4","1","3","2","7","3","2","5","5","4","5","5","2","3","3","3","2","5","6","4","3","7","4","3","6","3","2","4","6","4","2","5","780195301624647681","杨","358","Female","[""坏她"",""好她"",""好我"",""坏我""]","[""弱她"",""强她"",""强我"",""弱我""]","","","","","","","","yes","","","","","","","","","SRET","EW_formal","","key","f","16.665833333333286","720","446","朋友","敏捷","Positive","ability","","","","","","","","","","",""
"1289","","f","psychophysics","60","175500","0.0-7.0-3.0-0.46","6","5","5","5","2","4","3","4","4","4","4","0","-2","0","1","0","1","1","1","4","3","4","2","3","3","4","2","2","4","6","7","5","5","4","6","6","6","5","6","5","5","5","5","2","4","5","6","4","1","3","2","7","3","2","5","5","4","5","5","2","3","3","3","2","5","6","4","3","7","4","3","6","3","2","4","6","4","2","5","780195301624647681","杨","358","Female","[""坏她"",""好她"",""好我"",""坏我""]","[""弱她"",""强她"",""强我"",""弱我""]","","","","","","","","yes","","","","","","","","","SRET","EW_formal","","key","f","16.668382352941133","720","446","自己","远见","Positive","ability","","","","","","","","","","",""
"1677","","f","psychophysics","61","178178","0.0-7.0-3.0-0.47","6","5","5","5","2","4","3","4","4","4","4","0","-2","0","1","0","1","1","1","4","3","4","2","3","3","4","2","2","4","6","7","5","5","4","6","6","6","5","6","5","5","5","5","2","4","5","6","4","1","3","2","7","3","2","5","5","4","5","5","2","3","3","3","2","5","6","4","3","7","4","3","6","3","2","4","6","4","2","5","780195301624647681","杨","358","Female","[""坏她"",""好她"",""好我"",""坏我""]","[""弱她"",""强她"",""强我"",""弱我""]","","","","","","","","yes","","","","","","","","","SRET","EW_formal","","key","f","16.665625","720","446","朋友","肯干","Positive","ability","","","","","","","","","","",""
"851","","f","psychophysics","62","180033","0.0-7.0-3.0-0.48","6","5","5","5","2","4","3","4","4","4","4","0","-2","0","1","0","1","1","1","4","3","4","2","3","3","4","2","2","4","6","7","5","5","4","6","6","6","5","6","5","5","5","5","2","4","5","6","4","1","3","2","7","3","2","5","5","4","5","5","2","3","3","3","2","5","6","4","3","7","4","3","6","3","2","4","6","4","2","5","780195301624647681","杨","358","Female","[""坏她"",""好她"",""好我"",""坏我""]","[""弱她"",""强她"",""强我"",""弱我""]","","","","","","","","yes","","","","","","","","","SRET","EW_formal","","key","f","16.667272727272938","720","446","自己","全才","Positive","ability","","","","","","","","","","",""
"772","","j","psychophysics","63","181805","0.0-7.0-3.0-0.49","6","5","5","5","2","4","3","4","4","4","4","0","-2","0","1","0","1","1","1","4","3","4","2","3","3","4","2","2","4","6","7","5","5","4","6","6","6","5","6","5","5","5","5","2","4","5","6","4","1","3","2","7","3","2","5","5","4","5","5","2","3","3","3","2","5","6","4","3","7","4","3","6","3","2","4","6","4","2","5","780195301624647681","杨","358","Female","[""坏她"",""好她"",""好我"",""坏我""]","[""弱她"",""强她"",""强我"",""弱我""]","","","","","","","","no","","","","","","","","","SRET","EW_formal","","key","j","16.666666666666668","720","446","自己","狡狯","Negative","morality","","","","","","","","","","",""
"728","","f","psychophysics","64","183534","0.0-7.0-3.0-0.50","6","5","5","5","2","4","3","4","4","4","4","0","-2","0","1","0","1","1","1","4","3","4","2","3","3","4","2","2","4","6","7","5","5","4","6","6","6","5","6","5","5","5","5","2","4","5","6","4","1","3","2","7","3","2","5","5","4","5","5","2","3","3","3","2","5","6","4","3","7","4","3","6","3","2","4","6","4","2","5","780195301624647681","杨","358","Female","[""坏她"",""好她"",""好我"",""坏我""]","[""弱她"",""强她"",""强我"",""弱我""]","","","","","","","","yes","","","","","","","","","SRET","EW_formal","","key","f","16.666019417475784","720","446","朋友","廉明","Positive","morality","","","","","","","","","","",""
"1045","","f","psychophysics","65","185582","0.0-7.0-3.0-0.51","6","5","5","5","2","4","3","4","4","4","4","0","-2","0","1","0","1","1","1","4","3","4","2","3","3","4","2","2","4","6","7","5","5","4","6","6","6","5","6","5","5","5","5","2","4","5","6","4","1","3","2","7","3","2","5","5","4","5","5","2","3","3","3","2","5","6","4","3","7","4","3","6","3","2","4","6","4","2","5","780195301624647681","杨","358","Female","[""坏她"",""好她"",""好我"",""坏我""]","[""弱她"",""强她"",""强我"",""弱我""]","","","","","","","","yes","","","","","","","","","SRET","EW_formal","","key","f","16.668852459016442","720","446","自己","逞能","Negative","ability","","","","","","","","","","",""
"970","","f","psychophysics","66","187553","0.0-7.0-3.0-0.52","6","5","5","5","2","4","3","4","4","4","4","0","-2","0","1","0","1","1","1","4","3","4","2","3","3","4","2","2","4","6","7","5","5","4","6","6","6","5","6","5","5","5","5","2","4","5","6","4","1","3","2","7","3","2","5","5","4","5","5","2","3","3","3","2","5","6","4","3","7","4","3","6","3","2","4","6","4","2","5","780195301624647681","杨","358","Female","[""坏她"",""好她"",""好我"",""坏我""]","[""弱她"",""强她"",""强我"",""弱我""]","","","","","","","","yes","","","","","","","","","SRET","EW_formal","","key","f","16.666666666666668","720","446","朋友","依靠","Negative","ability","","","","","","","","","","",""
"974","","f","psychophysics","67","189529","0.0-7.0-3.0-0.53","6","5","5","5","2","4","3","4","4","4","4","0","-2","0","1","0","1","1","1","4","3","4","2","3","3","4","2","2","4","6","7","5","5","4","6","6","6","5","6","5","5","5","5","2","4","5","6","4","1","3","2","7","3","2","5","5","4","5","5","2","3","3","3","2","5","6","4","3","7","4","3","6","3","2","4","6","4","2","5","780195301624647681","杨","358","Female","[""坏她"",""好她"",""好我"",""坏我""]","[""弱她"",""强她"",""强我"",""弱我""]","","","","","","","","yes","","","","","","","","","SRET","EW_formal","","key","f","16.666101694915305","720","446","自己","新手","Negative","ability","","","","","","","","","","",""
"824","","f","psychophysics","68","191353","0.0-7.0-3.0-0.54","6","5","5","5","2","4","3","4","4","4","4","0","-2","0","1","0","1","1","1","4","3","4","2","3","3","4","2","2","4","6","7","5","5","4","6","6","6","5","6","5","5","5","5","2","4","5","6","4","1","3","2","7","3","2","5","5","4","5","5","2","3","3","3","2","5","6","4","3","7","4","3","6","3","2","4","6","4","2","5","780195301624647681","杨","358","Female","[""坏她"",""好她"",""好我"",""坏我""]","[""弱她"",""强她"",""强我"",""弱我""]","","","","","","","","yes","","","","","","","","","SRET","EW_formal","","key","f","16.665740740740688","720","446","自己","利己","Negative","morality","","","","","","","","","","",""
"1005","","j","psychophysics","69","193361","0.0-7.0-3.0-0.55","6","5","5","5","2","4","3","4","4","4","4","0","-2","0","1","0","1","1","1","4","3","4","2","3","3","4","2","2","4","6","7","5","5","4","6","6","6","5","6","5","5","5","5","2","4","5","6","4","1","3","2","7","3","2","5","5","4","5","5","2","3","3","3","2","5","6","4","3","7","4","3","6","3","2","4","6","4","2","5","780195301624647681","杨","358","Female","[""坏她"",""好她"",""好我"",""坏我""]","[""弱她"",""强她"",""强我"",""弱我""]","","","","","","","","no","","","","","","","","","SRET","EW_formal","","key","j","16.665833333333527","720","446","朋友","背叛","Negative","morality","","","","","","","","","","",""
"688","","f","psychophysics","70","195050","0.0-7.0-3.0-0.56","6","5","5","5","2","4","3","4","4","4","4","0","-2","0","1","0","1","1","1","4","3","4","2","3","3","4","2","2","4","6","7","5","5","4","6","6","6","5","6","5","5","5","5","2","4","5","6","4","1","3","2","7","3","2","5","5","4","5","5","2","3","3","3","2","5","6","4","3","7","4","3","6","3","2","4","6","4","2","5","780195301624647681","杨","358","Female","[""坏她"",""好她"",""好我"",""坏我""]","[""弱她"",""强她"",""强我"",""弱我""]","","","","","","","","yes","","","","","","","","","SRET","EW_formal","","key","f","16.666000000000057","720","446","朋友","谦逊","Positive","morality","","","","","","","","","","",""
"733","","f","psychophysics","71","196784","0.0-7.0-3.0-0.57","6","5","5","5","2","4","3","4","4","4","4","0","-2","0","1","0","1","1","1","4","3","4","2","3","3","4","2","2","4","6","7","5","5","4","6","6","6","5","6","5","5","5","5","2","4","5","6","4","1","3","2","7","3","2","5","5","4","5","5","2","3","3","3","2","5","6","4","3","7","4","3","6","3","2","4","6","4","2","5","780195301624647681","杨","358","Female","[""坏她"",""好她"",""好我"",""坏我""]","[""弱她"",""强她"",""强我"",""弱我""]","","","","","","","","yes","","","","","","","","","SRET","EW_formal","","key","f","16.667961165048432","720","446","朋友","善心","Positive","morality","","","","","","","","","","",""
"640","","f","psychophysics","72","198426","0.0-7.0-3.0-0.58","6","5","5","5","2","4","3","4","4","4","4","0","-2","0","1","0","1","1","1","4","3","4","2","3","3","4","2","2","4","6","7","5","5","4","6","6","6","5","6","5","5","5","5","2","4","5","6","4","1","3","2","7","3","2","5","5","4","5","5","2","3","3","3","2","5","6","4","3","7","4","3","6","3","2","4","6","4","2","5","780195301624647681","杨","358","Female","[""坏她"",""好她"",""好我"",""坏我""]","[""弱她"",""强她"",""强我"",""弱我""]","","","","","","","","yes","","","","","","","","","SRET","EW_formal","","key","f","16.6653061224488","720","446","朋友","拜金","Negative","morality","","","","","","","","","","",""
"812","","j","psychophysics","73","200241","0.0-7.0-3.0-0.59","6","5","5","5","2","4","3","4","4","4","4","0","-2","0","1","0","1","1","1","4","3","4","2","3","3","4","2","2","4","6","7","5","5","4","6","6","6","5","6","5","5","5","5","2","4","5","6","4","1","3","2","7","3","2","5","5","4","5","5","2","3","3","3","2","5","6","4","3","7","4","3","6","3","2","4","6","4","2","5","780195301624647681","杨","358","Female","[""坏她"",""好她"",""好我"",""坏我""]","[""弱她"",""强她"",""强我"",""弱我""]","","","","","","","","no","","","","","","","","","SRET","EW_formal","","key","j","16.665740740740688","720","446","朋友","无耻","Negative","morality","","","","","","","","","","",""
"1556","","f","psychophysics","74","202799","0.0-7.0-3.0-0.60","6","5","5","5","2","4","3","4","4","4","4","0","-2","0","1","0","1","1","1","4","3","4","2","3","3","4","2","2","4","6","7","5","5","4","6","6","6","5","6","5","5","5","5","2","4","5","6","4","1","3","2","7","3","2","5","5","4","5","5","2","3","3","3","2","5","6","4","3","7","4","3","6","3","2","4","6","4","2","5","780195301624647681","杨","358","Female","[""坏她"",""好她"",""好我"",""坏我""]","[""弱她"",""强她"",""强我"",""弱我""]","","","","","","","","yes","","","","","","","","","SRET","EW_formal","","key","f","16.665789473684097","720","446","朋友","贪腐","Negative","morality","","","","","","","","","","",""
"593","","f","psychophysics","75","204394","0.0-7.0-3.0-0.61","6","5","5","5","2","4","3","4","4","4","4","0","-2","0","1","0","1","1","1","4","3","4","2","3","3","4","2","2","4","6","7","5","5","4","6","6","6","5","6","5","5","5","5","2","4","5","6","4","1","3","2","7","3","2","5","5","4","5","5","2","3","3","3","2","5","6","4","3","7","4","3","6","3","2","4","6","4","2","5","780195301624647681","杨","358","Female","[""坏她"",""好她"",""好我"",""坏我""]","[""弱她"",""强她"",""强我"",""弱我""]","","","","","","","","yes","","","","","","","","","SRET","EW_formal","","key","f","16.66631578947356","720","446","朋友","干练","Positive","ability","","","","","","","","","","",""
"821","","f","psychophysics","76","206217","0.0-7.0-3.0-0.62","6","5","5","5","2","4","3","4","4","4","4","0","-2","0","1","0","1","1","1","4","3","4","2","3","3","4","2","2","4","6","7","5","5","4","6","6","6","5","6","5","5","5","5","2","4","5","6","4","1","3","2","7","3","2","5","5","4","5","5","2","3","3","3","2","5","6","4","3","7","4","3","6","3","2","4","6","4","2","5","780195301624647681","杨","358","Female","[""坏她"",""好她"",""好我"",""坏我""]","[""弱她"",""强她"",""强我"",""弱我""]","","","","","","","","yes","","","","","","","","","SRET","EW_formal","","key","f","16.668518518518628","720","446","自己","坦荡","Positive","morality","","","","","","","","","","",""
"670","","j","psychophysics","77","207889","0.0-7.0-3.0-0.63","6","5","5","5","2","4","3","4","4","4","4","0","-2","0","1","0","1","1","1","4","3","4","2","3","3","4","2","2","4","6","7","5","5","4","6","6","6","5","6","5","5","5","5","2","4","5","6","4","1","3","2","7","3","2","5","5","4","5","5","2","3","3","3","2","5","6","4","3","7","4","3","6","3","2","4","6","4","2","5","780195301624647681","杨","358","Female","[""坏她"",""好她"",""好我"",""坏我""]","[""弱她"",""强她"",""强我"",""弱我""]","","","","","","","","no","","","","","","","","","SRET","EW_formal","","key","j","16.66565656565651","720","446","自己","浅薄","Negative","ability","","","","","","","","","","",""
"778","","j","psychophysics","78","209670","0.0-7.0-3.0-0.64","6","5","5","5","2","4","3","4","4","4","4","0","-2","0","1","0","1","1","1","4","3","4","2","3","3","4","2","2","4","6","7","5","5","4","6","6","6","5","6","5","5","5","5","2","4","5","6","4","1","3","2","7","3","2","5","5","4","5","5","2","3","3","3","2","5","6","4","3","7","4","3","6","3","2","4","6","4","2","5","780195301624647681","杨","358","Female","[""坏她"",""好她"",""好我"",""坏我""]","[""弱她"",""强她"",""强我"",""弱我""]","","","","","","","","no","","","","","","","","","SRET","EW_formal","","key","j","16.666037735849113","720","446","自己","势利","Negative","morality","","","","","","","","","","",""
"785","","f","psychophysics","79","211456","0.0-7.0-3.0-0.65","6","5","5","5","2","4","3","4","4","4","4","0","-2","0","1","0","1","1","1","4","3","4","2","3","3","4","2","2","4","6","7","5","5","4","6","6","6","5","6","5","5","5","5","2","4","5","6","4","1","3","2","7","3","2","5","5","4","5","5","2","3","3","3","2","5","6","4","3","7","4","3","6","3","2","4","6","4","2","5","780195301624647681","杨","358","Female","[""坏她"",""好她"",""好我"",""坏我""]","[""弱她"",""强她"",""强我"",""弱我""]","","","","","","","","yes","","","","","","","","","SRET","EW_formal","","key","f","16.666981132075307","720","446","朋友","逞强","Negative","ability","","","","","","","","","","",""
"633","","f","psychophysics","80","213091","0.0-7.0-3.0-0.66","6","5","5","5","2","4","3","4","4","4","4","0","-2","0","1","0","1","1","1","4","3","4","2","3","3","4","2","2","4","6","7","5","5","4","6","6","6","5","6","5","5","5","5","2","4","5","6","4","1","3","2","7","3","2","5","5","4","5","5","2","3","3","3","2","5","6","4","3","7","4","3","6","3","2","4","6","4","2","5","780195301624647681","杨","358","Female","[""坏她"",""好她"",""好我"",""坏我""]","[""弱她"",""强她"",""强我"",""弱我""]","","","","","","","","yes","","","","","","","","","SRET","EW_formal","","key","f","16.664285714285775","720","446","朋友","忠义","Positive","morality","","","","","","","","","","",""
"525","","f","psychophysics","81","214618","0.0-7.0-3.0-0.67","6","5","5","5","2","4","3","4","4","4","4","0","-2","0","1","0","1","1","1","4","3","4","2","3","3","4","2","2","4","6","7","5","5","4","6","6","6","5","6","5","5","5","5","2","4","5","6","4","1","3","2","7","3","2","5","5","4","5","5","2","3","3","3","2","5","6","4","3","7","4","3","6","3","2","4","6","4","2","5","780195301624647681","杨","358","Female","[""坏她"",""好她"",""好我"",""坏我""]","[""弱她"",""强她"",""强我"",""弱我""]","","","","","","","","yes","","","","","","","","","SRET","EW_formal","","key","f","16.664444444444314","720","446","自己","能干","Positive","ability","","","","","","","","","","",""
"764","","j","psychophysics","82","216384","0.0-7.0-3.0-0.68","6","5","5","5","2","4","3","4","4","4","4","0","-2","0","1","0","1","1","1","4","3","4","2","3","3","4","2","2","4","6","7","5","5","4","6","6","6","5","6","5","5","5","5","2","4","5","6","4","1","3","2","7","3","2","5","5","4","5","5","2","3","3","3","2","5","6","4","3","7","4","3","6","3","2","4","6","4","2","5","780195301624647681","杨","358","Female","[""坏她"",""好她"",""好我"",""坏我""]","[""弱她"",""强她"",""强我"",""弱我""]","","","","","","","","no","","","","","","","","","SRET","EW_formal","","key","j","16.6695238095237","720","446","朋友","混账","Negative","morality","","","","","","","","","","",""
"707","","j","psychophysics","83","218092","0.0-7.0-3.0-0.69","6","5","5","5","2","4","3","4","4","4","4","0","-2","0","1","0","1","1","1","4","3","4","2","3","3","4","2","2","4","6","7","5","5","4","6","6","6","5","6","5","5","5","5","2","4","5","6","4","1","3","2","7","3","2","5","5","4","5","5","2","3","3","3","2","5","6","4","3","7","4","3","6","3","2","4","6","4","2","5","780195301624647681","杨","358","Female","[""坏她"",""好她"",""好我"",""坏我""]","[""弱她"",""强她"",""强我"",""弱我""]","","","","","","","","no","","","","","","","","","SRET","EW_formal","","key","j","16.665686274509746","720","446","朋友","迟钝","Negative","ability","","","","","","","","","","",""
"973","","j","psychophysics","84","220067","0.0-7.0-3.0-0.70","6","5","5","5","2","4","3","4","4","4","4","0","-2","0","1","0","1","1","1","4","3","4","2","3","3","4","2","2","4","6","7","5","5","4","6","6","6","5","6","5","5","5","5","2","4","5","6","4","1","3","2","7","3","2","5","5","4","5","5","2","3","3","3","2","5","6","4","3","7","4","3","6","3","2","4","6","4","2","5","780195301624647681","杨","358","Female","[""坏她"",""好她"",""好我"",""坏我""]","[""弱她"",""强她"",""强我"",""弱我""]","","","","","","","","no","","","","","","","","","SRET","EW_formal","","key","j","16.665811965811915","720","446","自己","不孝","Negative","morality","","","","","","","","","","",""
"1185","","j","psychophysics","85","222254","0.0-7.0-3.0-0.71","6","5","5","5","2","4","3","4","4","4","4","0","-2","0","1","0","1","1","1","4","3","4","2","3","3","4","2","2","4","6","7","5","5","4","6","6","6","5","6","5","5","5","5","2","4","5","6","4","1","3","2","7","3","2","5","5","4","5","5","2","3","3","3","2","5","6","4","3","7","4","3","6","3","2","4","6","4","2","5","780195301624647681","杨","358","Female","[""坏她"",""好她"",""好我"",""坏我""]","[""弱她"",""强她"",""强我"",""弱我""]","","","","","","","","no","","","","","","","","","SRET","EW_formal","","key","j","16.66615384615389","720","446","朋友","歹毒","Negative","morality","","","","","","","","","","",""
"621","","f","psychophysics","86","223876","0.0-7.0-3.0-0.72","6","5","5","5","2","4","3","4","4","4","4","0","-2","0","1","0","1","1","1","4","3","4","2","3","3","4","2","2","4","6","7","5","5","4","6","6","6","5","6","5","5","5","5","2","4","5","6","4","1","3","2","7","3","2","5","5","4","5","5","2","3","3","3","2","5","6","4","3","7","4","3","6","3","2","4","6","4","2","5","780195301624647681","杨","358","Female","[""坏她"",""好她"",""好我"",""坏我""]","[""弱她"",""强她"",""强我"",""弱我""]","","","","","","","","yes","","","","","","","","","SRET","EW_formal","","key","f","16.66597938144336","720","446","自己","义气","Positive","morality","","","","","","","","","","",""
"911","","j","psychophysics","87","225790","0.0-7.0-3.0-0.73","6","5","5","5","2","4","3","4","4","4","4","0","-2","0","1","0","1","1","1","4","3","4","2","3","3","4","2","2","4","6","7","5","5","4","6","6","6","5","6","5","5","5","5","2","4","5","6","4","1","3","2","7","3","2","5","5","4","5","5","2","3","3","3","2","5","6","4","3","7","4","3","6","3","2","4","6","4","2","5","780195301624647681","杨","358","Female","[""坏她"",""好她"",""好我"",""坏我""]","[""弱她"",""强她"",""强我"",""弱我""]","","","","","","","","no","","","","","","","","","SRET","EW_formal","","key","j","16.668141592920353","720","446","自己","草率","Negative","ability","","","","","","","","","","",""
"1061","","f","psychophysics","88","227852","0.0-7.0-3.0-0.74","6","5","5","5","2","4","3","4","4","4","4","0","-2","0","1","0","1","1","1","4","3","4","2","3","3","4","2","2","4","6","7","5","5","4","6","6","6","5","6","5","5","5","5","2","4","5","6","4","1","3","2","7","3","2","5","5","4","5","5","2","3","3","3","2","5","6","4","3","7","4","3","6","3","2","4","6","4","2","5","780195301624647681","杨","358","Female","[""坏她"",""好她"",""好我"",""坏我""]","[""弱她"",""强她"",""强我"",""弱我""]","","","","","","","","yes","","","","","","","","","SRET","EW_formal","","key","f","16.665853658536776","720","446","朋友","笨蛋","Negative","ability","","","","","","","","","","",""
"675","","f","psychophysics","89","229529","0.0-7.0-3.0-0.75","6","5","5","5","2","4","3","4","4","4","4","0","-2","0","1","0","1","1","1","4","3","4","2","3","3","4","2","2","4","6","7","5","5","4","6","6","6","5","6","5","5","5","5","2","4","5","6","4","1","3","2","7","3","2","5","5","4","5","5","2","3","3","3","2","5","6","4","3","7","4","3","6","3","2","4","6","4","2","5","780195301624647681","杨","358","Female","[""坏她"",""好她"",""好我"",""坏我""]","[""弱她"",""强她"",""强我"",""弱我""]","","","","","","","","yes","","","","","","","","","SRET","EW_formal","","key","f","16.666000000000057","720","446","自己","庸碌","Negative","ability","","","","","","","","","","",""
"931","","f","psychophysics","90","231462","0.0-7.0-3.0-0.76","6","5","5","5","2","4","3","4","4","4","4","0","-2","0","1","0","1","1","1","4","3","4","2","3","3","4","2","2","4","6","7","5","5","4","6","6","6","5","6","5","5","5","5","2","4","5","6","4","1","3","2","7","3","2","5","5","4","5","5","2","3","3","3","2","5","6","4","3","7","4","3","6","3","2","4","6","4","2","5","780195301624647681","杨","358","Female","[""坏她"",""好她"",""好我"",""坏我""]","[""弱她"",""强她"",""强我"",""弱我""]","","","","","","","","yes","","","","","","","","","SRET","EW_formal","","key","f","16.66521739130435","720","446","自己","自私","Negative","morality","","","","","","","","","","",""
"728","","f","psychophysics","91","233193","0.0-7.0-3.0-0.77","6","5","5","5","2","4","3","4","4","4","4","0","-2","0","1","0","1","1","1","4","3","4","2","3","3","4","2","2","4","6","7","5","5","4","6","6","6","5","6","5","5","5","5","2","4","5","6","4","1","3","2","7","3","2","5","5","4","5","5","2","3","3","3","2","5","6","4","3","7","4","3","6","3","2","4","6","4","2","5","780195301624647681","杨","358","Female","[""坏她"",""好她"",""好我"",""坏我""]","[""弱她"",""强她"",""强我"",""弱我""]","","","","","","","","yes","","","","","","","","","SRET","EW_formal","","key","f","16.666019417475784","720","446","朋友","仁爱","Positive","morality","","","","","","","","","","",""
"876","","f","psychophysics","92","235072","0.0-7.0-3.0-0.78","6","5","5","5","2","4","3","4","4","4","4","0","-2","0","1","0","1","1","1","4","3","4","2","3","3","4","2","2","4","6","7","5","5","4","6","6","6","5","6","5","5","5","5","2","4","5","6","4","1","3","2","7","3","2","5","5","4","5","5","2","3","3","3","2","5","6","4","3","7","4","3","6","3","2","4","6","4","2","5","780195301624647681","杨","358","Female","[""坏她"",""好她"",""好我"",""坏我""]","[""弱她"",""强她"",""强我"",""弱我""]","","","","","","","","yes","","","","","","","","","SRET","EW_formal","","key","f","16.665765765765713","720","446","自己","奸诈","Negative","morality","","","","","","","","","","",""
"683","","f","psychophysics","93","236757","0.0-7.0-3.0-0.79","6","5","5","5","2","4","3","4","4","4","4","0","-2","0","1","0","1","1","1","4","3","4","2","3","3","4","2","2","4","6","7","5","5","4","6","6","6","5","6","5","5","5","5","2","4","5","6","4","1","3","2","7","3","2","5","5","4","5","5","2","3","3","3","2","5","6","4","3","7","4","3","6","3","2","4","6","4","2","5","780195301624647681","杨","358","Female","[""坏她"",""好她"",""好我"",""坏我""]","[""弱她"",""强她"",""强我"",""弱我""]","","","","","","","","yes","","","","","","","","","SRET","EW_formal","","key","f","16.66899999999994","720","446","自己","守法","Positive","morality","","","","","","","","","","",""
"659","","j","psychophysics","94","238417","0.0-7.0-3.0-0.80","6","5","5","5","2","4","3","4","4","4","4","0","-2","0","1","0","1","1","1","4","3","4","2","3","3","4","2","2","4","6","7","5","5","4","6","6","6","5","6","5","5","5","5","2","4","5","6","4","1","3","2","7","3","2","5","5","4","5","5","2","3","3","3","2","5","6","4","3","7","4","3","6","3","2","4","6","4","2","5","780195301624647681","杨","358","Female","[""坏她"",""好她"",""好我"",""坏我""]","[""弱她"",""强她"",""强我"",""弱我""]","","","","","","","","no","","","","","","","","","SRET","EW_formal","","key","j","16.6656565656568","720","446","朋友","拖延","Negative","ability","","","","","","","","","","",""
"585","","f","psychophysics","95","240003","0.0-7.0-3.0-0.81","6","5","5","5","2","4","3","4","4","4","4","0","-2","0","1","0","1","1","1","4","3","4","2","3","3","4","2","2","4","6","7","5","5","4","6","6","6","5","6","5","5","5","5","2","4","5","6","4","1","3","2","7","3","2","5","5","4","5","5","2","3","3","3","2","5","6","4","3","7","4","3","6","3","2","4","6","4","2","5","780195301624647681","杨","358","Female","[""坏她"",""好她"",""好我"",""坏我""]","[""弱她"",""强她"",""强我"",""弱我""]","","","","","","","","yes","","","","","","","","","SRET","EW_formal","","key","f","16.665957446808573","720","446","自己","侠义","Positive","morality","","","","","","","","","","",""
"976","","f","psychophysics","96","241981","0.0-7.0-3.0-0.82","6","5","5","5","2","4","3","4","4","4","4","0","-2","0","1","0","1","1","1","4","3","4","2","3","3","4","2","2","4","6","7","5","5","4","6","6","6","5","6","5","5","5","5","2","4","5","6","4","1","3","2","7","3","2","5","5","4","5","5","2","3","3","3","2","5","6","4","3","7","4","3","6","3","2","4","6","4","2","5","780195301624647681","杨","358","Female","[""坏她"",""好她"",""好我"",""坏我""]","[""弱她"",""强她"",""强我"",""弱我""]","","","","","","","","yes","","","","","","","","","SRET","EW_formal","","key","f","16.666949152542227","720","446","朋友","守时","Positive","morality","","","","","","","","","","",""
"1113","","f","psychophysics","97","244094","0.0-7.0-3.0-0.83","6","5","5","5","2","4","3","4","4","4","4","0","-2","0","1","0","1","1","1","4","3","4","2","3","3","4","2","2","4","6","7","5","5","4","6","6","6","5","6","5","5","5","5","2","4","5","6","4","1","3","2","7","3","2","5","5","4","5","5","2","3","3","3","2","5","6","4","3","7","4","3","6","3","2","4","6","4","2","5","780195301624647681","杨","358","Female","[""坏她"",""好她"",""好我"",""坏我""]","[""弱她"",""强她"",""强我"",""弱我""]","","","","","","","","yes","","","","","","","","","SRET","EW_formal","","key","f","16.665873015872968","720","446","自己","业余","Negative","ability","","","","","","","","","","",""
"705","","f","psychophysics","98","245802","0.0-7.0-3.0-0.84","6","5","5","5","2","4","3","4","4","4","4","0","-2","0","1","0","1","1","1","4","3","4","2","3","3","4","2","2","4","6","7","5","5","4","6","6","6","5","6","5","5","5","5","2","4","5","6","4","1","3","2","7","3","2","5","5","4","5","5","2","3","3","3","2","5","6","4","3","7","4","3","6","3","2","4","6","4","2","5","780195301624647681","杨","358","Female","[""坏她"",""好她"",""好我"",""坏我""]","[""弱她"",""强她"",""强我"",""弱我""]","","","","","","","","yes","","","","","","","","","SRET","EW_formal","","key","f","16.668316831683168","720","446","自己","缓慢","Negative","ability","","","","","","","","","","",""
"757","","f","psychophysics","99","247560","0.0-7.0-3.0-0.85","6","5","5","5","2","4","3","4","4","4","4","0","-2","0","1","0","1","1","1","4","3","4","2","3","3","4","2","2","4","6","7","5","5","4","6","6","6","5","6","5","5","5","5","2","4","5","6","4","1","3","2","7","3","2","5","5","4","5","5","2","3","3","3","2","5","6","4","3","7","4","3","6","3","2","4","6","4","2","5","780195301624647681","杨","358","Female","[""坏她"",""好她"",""好我"",""坏我""]","[""弱她"",""强她"",""强我"",""弱我""]","","","","","","","","yes","","","","","","","","","SRET","EW_formal","","key","f","16.66571428571423","720","446","朋友","素养","Positive","morality","","","","","","","","","","",""
"958","","f","psychophysics","100","249520","0.0-7.0-3.0-0.86","6","5","5","5","2","4","3","4","4","4","4","0","-2","0","1","0","1","1","1","4","3","4","2","3","3","4","2","2","4","6","7","5","5","4","6","6","6","5","6","5","5","5","5","2","4","5","6","4","1","3","2","7","3","2","5","5","4","5","5","2","3","3","3","2","5","6","4","3","7","4","3","6","3","2","4","6","4","2","5","780195301624647681","杨","358","Female","[""坏她"",""好她"",""好我"",""坏我""]","[""弱她"",""强她"",""强我"",""弱我""]","","","","","","","","yes","","","","","","","","","SRET","EW_formal","","key","f","16.665517241379412","720","446","朋友","低俗","Negative","morality","","","","","","","","","","",""
"731","","f","psychophysics","101","251253","0.0-7.0-3.0-0.87","6","5","5","5","2","4","3","4","4","4","4","0","-2","0","1","0","1","1","1","4","3","4","2","3","3","4","2","2","4","6","7","5","5","4","6","6","6","5","6","5","5","5","5","2","4","5","6","4","1","3","2","7","3","2","5","5","4","5","5","2","3","3","3","2","5","6","4","3","7","4","3","6","3","2","4","6","4","2","5","780195301624647681","杨","358","Female","[""坏她"",""好她"",""好我"",""坏我""]","[""弱她"",""强她"",""强我"",""弱我""]","","","","","","","","yes","","","","","","","","","SRET","EW_formal","","key","f","16.666019417475503","720","446","自己","主见","Positive","ability","","","","","","","","","","",""
"3129","
    <p><div style='color:white;font-size:35px; line-height:20px;'>计算任务</div></p><br>
    <p><div style='color:red;font-size:25px; line-height:20px;'>接下来，您将看到一些四则运算题，<b>请从键盘选择 0-9 进行反应。</b></div></p>
    <p><div style='color:red;font-size:25px; line-height:20px;'>请尽可能快地进行计算，计算的速度和正确率将影响报酬的发放。</div></p>
    <p><div class='footer' style='color:white;font-size:25px; line-height:20px;'>如果对本实验还有不清楚之处，请立即向实验员咨询。</p><p style='color:white;font-size:25px; line-height:20px;'>如果您明白了规则：</p><p style='color:white;font-size:22px; line-height:20px;'>请按 继续 进入练习</p>
    </div>
    ","0","html-button-response","102","254383","0.0-7.0-4.0","6","5","5","5","2","4","3","4","4","4","4","0","-2","0","1","0","1","1","1","4","3","4","2","3","3","4","2","2","4","6","7","5","5","4","6","6","6","5","6","5","5","5","5","2","4","5","6","4","1","3","2","7","3","2","5","5","4","5","5","2","3","3","3","2","5","6","4","3","7","4","3","6","3","2","4","6","4","2","5","780195301624647681","杨","358","Female","[""坏她"",""好她"",""好我"",""坏我""]","[""弱她"",""强她"",""强我"",""弱我""]","","","","","","","","","","","","","","","","","SRET_math","math_instructions","Sun Jan 21 2024 21:21:05 GMT+0800 (中国标准时间)","","","","","","","","","","","","","","","","","","","",""
"2488","","8","psychophysics","103","256874","0.0-7.0-5.0-0.0","6","5","5","5","2","4","3","4","4","4","4","0","-2","0","1","0","1","1","1","4","3","4","2","3","3","4","2","2","4","6","7","5","5","4","6","6","6","5","6","5","5","5","5","2","4","5","6","4","1","3","2","7","3","2","5","5","4","5","5","2","3","3","3","2","5","6","4","3","7","4","3","6","3","2","4","6","4","2","5","780195301624647681","杨","358","Female","[""坏她"",""好她"",""好我"",""坏我""]","[""弱她"",""强她"",""强我"",""弱我""]","","","","","","","","8","","","","","","","","","SRET","SRET_math_calculate","","key","8","16.66778523489933","720","446","","","","","4*2= ?","8","1","","","","","","","",""
"3000","","0","psychophysics","104","259893","0.0-7.0-5.0-0.1","6","5","5","5","2","4","3","4","4","4","4","0","-2","0","1","0","1","1","1","4","3","4","2","3","3","4","2","2","4","6","7","5","5","4","6","6","6","5","6","5","5","5","5","2","4","5","6","4","1","3","2","7","3","2","5","5","4","5","5","2","3","3","3","2","5","6","4","3","7","4","3","6","3","2","4","6","4","2","5","780195301624647681","杨","358","Female","[""坏她"",""好她"",""好我"",""坏我""]","[""弱她"",""强她"",""强我"",""弱我""]","","","","","","","","0","","","","","","","","","SRET","SRET_math_calculate","","key","0","16.665745856353592","720","446","","","","","7*0= ?","0","1","","","","","","","",""
"2194","","4","psychophysics","105","262108","0.0-7.0-5.0-0.2","6","5","5","5","2","4","3","4","4","4","4","0","-2","0","1","0","1","1","1","4","3","4","2","3","3","4","2","2","4","6","7","5","5","4","6","6","6","5","6","5","5","5","5","2","4","5","6","4","1","3","2","7","3","2","5","5","4","5","5","2","3","3","3","2","5","6","4","3","7","4","3","6","3","2","4","6","4","2","5","780195301624647681","杨","358","Female","[""坏她"",""好她"",""好我"",""坏我""]","[""弱她"",""强她"",""强我"",""弱我""]","","","","","","","","4","","","","","","","","","SRET","SRET_math_calculate","","key","4","16.66515151515165","720","446","","","","","3+1= ?","4","1","","","","","","","",""
"2763","","5","psychophysics","106","264891","0.0-7.0-5.0-0.3","6","5","5","5","2","4","3","4","4","4","4","0","-2","0","1","0","1","1","1","4","3","4","2","3","3","4","2","2","4","6","7","5","5","4","6","6","6","5","6","5","5","5","5","2","4","5","6","4","1","3","2","7","3","2","5","5","4","5","5","2","3","3","3","2","5","6","4","3","7","4","3","6","3","2","4","6","4","2","5","780195301624647681","杨","358","Female","[""坏她"",""好她"",""好我"",""坏我""]","[""弱她"",""强她"",""强我"",""弱我""]","","","","","","","","5","","","","","","","","","SRET","SRET_math_calculate","","key","5","16.66566265060241","720","446","","","","","8-3= ? ","5","1","","","","","","","",""
"2301","","0","psychophysics","107","267213","0.0-7.0-5.0-0.4","6","5","5","5","2","4","3","4","4","4","4","0","-2","0","1","0","1","1","1","4","3","4","2","3","3","4","2","2","4","6","7","5","5","4","6","6","6","5","6","5","5","5","5","2","4","5","6","4","1","3","2","7","3","2","5","5","4","5","5","2","3","3","3","2","5","6","4","3","7","4","3","6","3","2","4","6","4","2","5","780195301624647681","杨","358","Female","[""坏她"",""好她"",""好我"",""坏我""]","[""弱她"",""强她"",""强我"",""弱我""]","","","","","","","","0","","","","","","","","","SRET","SRET_math_calculate","","key","0","16.667391304347657","720","446","","","","","1-1= ?","0","1","","","","","","","",""
"1944","","3","psychophysics","108","269178","0.0-7.0-5.0-0.5","6","5","5","5","2","4","3","4","4","4","4","0","-2","0","1","0","1","1","1","4","3","4","2","3","3","4","2","2","4","6","7","5","5","4","6","6","6","5","6","5","5","5","5","2","4","5","6","4","1","3","2","7","3","2","5","5","4","5","5","2","3","3","3","2","5","6","4","3","7","4","3","6","3","2","4","6","4","2","5","780195301624647681","杨","358","Female","[""坏她"",""好她"",""好我"",""坏我""]","[""弱她"",""强她"",""强我"",""弱我""]","","","","","","","","3","","","","","","","","","SRET","SRET_math_calculate","","key","3","16.665811965812164","720","446","","","","","2+1= ?","3","1","","","","","","","",""
"2007","","8","psychophysics","109","271206","0.0-7.0-5.0-0.6","6","5","5","5","2","4","3","4","4","4","4","0","-2","0","1","0","1","1","1","4","3","4","2","3","3","4","2","2","4","6","7","5","5","4","6","6","6","5","6","5","5","5","5","2","4","5","6","4","1","3","2","7","3","2","5","5","4","5","5","2","3","3","3","2","5","6","4","3","7","4","3","6","3","2","4","6","4","2","5","780195301624647681","杨","358","Female","[""坏她"",""好她"",""好我"",""坏我""]","[""弱她"",""强她"",""强我"",""弱我""]","","","","","","","","8","","","","","","","","","SRET","SRET_math_calculate","","key","8","16.665833333333527","720","446","","","","","1+7= ?","8","1","","","","","","","",""
"1831","","8","psychophysics","110","273057","0.0-7.0-5.0-0.7","6","5","5","5","2","4","3","4","4","4","4","0","-2","0","1","0","1","1","1","4","3","4","2","3","3","4","2","2","4","6","7","5","5","4","6","6","6","5","6","5","5","5","5","2","4","5","6","4","1","3","2","7","3","2","5","5","4","5","5","2","3","3","3","2","5","6","4","3","7","4","3","6","3","2","4","6","4","2","5","780195301624647681","杨","358","Female","[""坏她"",""好她"",""好我"",""坏我""]","[""弱她"",""强她"",""强我"",""弱我""]","","","","","","","","8","","","","","","","","","SRET","SRET_math_calculate","","key","8","16.66636363636353","720","446","","","","","5+3= ?","8","1","","","","","","","",""
"2668","","2","psychophysics","111","275728","0.0-7.0-5.0-0.8","6","5","5","5","2","4","3","4","4","4","4","0","-2","0","1","0","1","1","1","4","3","4","2","3","3","4","2","2","4","6","7","5","5","4","6","6","6","5","6","5","5","5","5","2","4","5","6","4","1","3","2","7","3","2","5","5","4","5","5","2","3","3","3","2","5","6","4","3","7","4","3","6","3","2","4","6","4","2","5","780195301624647681","杨","358","Female","[""坏她"",""好她"",""好我"",""坏我""]","[""弱她"",""强她"",""强我"",""弱我""]","","","","","","","","2","","","","","","","","","SRET","SRET_math_calculate","","key","2","16.668125000000146","720","446","","","","","19-17= ?","2","1","","","","","","","",""
"2243","","2","psychophysics","112","277991","0.0-7.0-5.0-0.9","6","5","5","5","2","4","3","4","4","4","4","0","-2","0","1","0","1","1","1","4","3","4","2","3","3","4","2","2","4","6","7","5","5","4","6","6","6","5","6","5","5","5","5","2","4","5","6","4","1","3","2","7","3","2","5","5","4","5","5","2","3","3","3","2","5","6","4","3","7","4","3","6","3","2","4","6","4","2","5","780195301624647681","杨","358","Female","[""坏她"",""好她"",""好我"",""坏我""]","[""弱她"",""强她"",""强我"",""弱我""]","","","","","","","","2","","","","","","","","","SRET","SRET_math_calculate","","key","2","16.6651851851851","720","446","","","","","90/45= ?","2","1","","","","","","","",""
"1748","","2","psychophysics","113","279760","0.0-7.0-5.0-0.10","6","5","5","5","2","4","3","4","4","4","4","0","-2","0","1","0","1","1","1","4","3","4","2","3","3","4","2","2","4","6","7","5","5","4","6","6","6","5","6","5","5","5","5","2","4","5","6","4","1","3","2","7","3","2","5","5","4","5","5","2","3","3","3","2","5","6","4","3","7","4","3","6","3","2","4","6","4","2","5","780195301624647681","杨","358","Female","[""坏她"",""好她"",""好我"",""坏我""]","[""弱她"",""强她"",""强我"",""弱我""]","","","","","","","","2","","","","","","","","","SRET","SRET_math_calculate","","key","2","16.665714285713953","720","446","","","","","8-6= ?","2","1","","","","","","","",""
"2087","","8","psychophysics","114","281868","0.0-7.0-5.0-0.11","6","5","5","5","2","4","3","4","4","4","4","0","-2","0","1","0","1","1","1","4","3","4","2","3","3","4","2","2","4","6","7","5","5","4","6","6","6","5","6","5","5","5","5","2","4","5","6","4","1","3","2","7","3","2","5","5","4","5","5","2","3","3","3","2","5","6","4","3","7","4","3","6","3","2","4","6","4","2","5","780195301624647681","杨","358","Female","[""坏她"",""好她"",""好我"",""坏我""]","[""弱她"",""强她"",""强我"",""弱我""]","","","","","","","","8","","","","","","","","","SRET","SRET_math_calculate","","key","8","16.665600000000094","720","446","","","","","2+6= ?","8","1","","","","","","","",""
"2059","","5","psychophysics","115","283949","0.0-7.0-5.0-0.12","6","5","5","5","2","4","3","4","4","4","4","0","-2","0","1","0","1","1","1","4","3","4","2","3","3","4","2","2","4","6","7","5","5","4","6","6","6","5","6","5","5","5","5","2","4","5","6","4","1","3","2","7","3","2","5","5","4","5","5","2","3","3","3","2","5","6","4","3","7","4","3","6","3","2","4","6","4","2","5","780195301624647681","杨","358","Female","[""坏她"",""好她"",""好我"",""坏我""]","[""弱她"",""强她"",""强我"",""弱我""]","","","","","","","","5","","","","","","","","","SRET","SRET_math_calculate","","key","5","16.666129032257878","720","446","","","","","3+2= ?","5","1","","","","","","","",""
"2119","","0","psychophysics","116","286090","0.0-7.0-5.0-0.13","6","5","5","5","2","4","3","4","4","4","4","0","-2","0","1","0","1","1","1","4","3","4","2","3","3","4","2","2","4","6","7","5","5","4","6","6","6","5","6","5","5","5","5","2","4","5","6","4","1","3","2","7","3","2","5","5","4","5","5","2","3","3","3","2","5","6","4","3","7","4","3","6","3","2","4","6","4","2","5","780195301624647681","杨","358","Female","[""坏她"",""好她"",""好我"",""坏我""]","[""弱她"",""强她"",""强我"",""弱我""]","","","","","","","","0","","","","","","","","","SRET","SRET_math_calculate","","key","0","16.6685039370076","720","446","","","","","32-32= ?","0","1","","","","","","","",""
"2166","","3","psychophysics","117","288276","0.0-7.0-5.0-0.14","6","5","5","5","2","4","3","4","4","4","4","0","-2","0","1","0","1","1","1","4","3","4","2","3","3","4","2","2","4","6","7","5","5","4","6","6","6","5","6","5","5","5","5","2","4","5","6","4","1","3","2","7","3","2","5","5","4","5","5","2","3","3","3","2","5","6","4","3","7","4","3","6","3","2","4","6","4","2","5","780195301624647681","杨","358","Female","[""坏她"",""好她"",""好我"",""坏我""]","[""弱她"",""强她"",""强我"",""弱我""]","","","","","","","","3","","","","","","","","","SRET","SRET_math_calculate","","key","3","16.665648854961923","720","446","","","","","6/2= ?","3","1","","","","","","","",""
"2103","","5","psychophysics","118","290399","0.0-7.0-5.0-0.15","6","5","5","5","2","4","3","4","4","4","4","0","-2","0","1","0","1","1","1","4","3","4","2","3","3","4","2","2","4","6","7","5","5","4","6","6","6","5","6","5","5","5","5","2","4","5","6","4","1","3","2","7","3","2","5","5","4","5","5","2","3","3","3","2","5","6","4","3","7","4","3","6","3","2","4","6","4","2","5","780195301624647681","杨","358","Female","[""坏她"",""好她"",""好我"",""坏我""]","[""弱她"",""强她"",""强我"",""弱我""]","","","","","","","","5","","","","","","","","","SRET","SRET_math_calculate","","key","5","16.665873015872737","720","446","","","","","17-12= ? ","5","1","","","","","","","",""
"1869","","0","psychophysics","119","292291","0.0-7.0-5.0-0.16","6","5","5","5","2","4","3","4","4","4","4","0","-2","0","1","0","1","1","1","4","3","4","2","3","3","4","2","2","4","6","7","5","5","4","6","6","6","5","6","5","5","5","5","2","4","5","6","4","1","3","2","7","3","2","5","5","4","5","5","2","3","3","3","2","5","6","4","3","7","4","3","6","3","2","4","6","4","2","5","780195301624647681","杨","358","Female","[""坏她"",""好她"",""好我"",""坏我""]","[""弱她"",""强她"",""强我"",""弱我""]","","","","","","","","0","","","","","","","","","SRET","SRET_math_calculate","","key","0","16.66548672566382","720","446","","","","","22-22= ?","0","1","","","","","","","",""
"1992","","0","psychophysics","120","294304","0.0-7.0-5.0-0.17","6","5","5","5","2","4","3","4","4","4","4","0","-2","0","1","0","1","1","1","4","3","4","2","3","3","4","2","2","4","6","7","5","5","4","6","6","6","5","6","5","5","5","5","2","4","5","6","4","1","3","2","7","3","2","5","5","4","5","5","2","3","3","3","2","5","6","4","3","7","4","3","6","3","2","4","6","4","2","5","780195301624647681","杨","358","Female","[""坏她"",""好她"",""好我"",""坏我""]","[""弱她"",""强她"",""强我"",""弱我""]","","","","","","","","0","","","","","","","","","SRET","SRET_math_calculate","","key","0","16.665546218487005","720","446","","","","","5*0= ?","0","1","","","","","","","",""
"2029","","6","psychophysics","121","296351","0.0-7.0-5.0-0.18","6","5","5","5","2","4","3","4","4","4","4","0","-2","0","1","0","1","1","1","4","3","4","2","3","3","4","2","2","4","6","7","5","5","4","6","6","6","5","6","5","5","5","5","2","4","5","6","4","1","3","2","7","3","2","5","5","4","5","5","2","3","3","3","2","5","6","4","3","7","4","3","6","3","2","4","6","4","2","5","780195301624647681","杨","358","Female","[""坏她"",""好她"",""好我"",""坏我""]","[""弱她"",""强她"",""强我"",""弱我""]","","","","","","","","6","","","","","","","","","SRET","SRET_math_calculate","","key","6","16.668032786885245","720","446","","","","","5+1= ?","6","1","","","","","","","",""
"1615","","6","psychophysics","122","297985","0.0-7.0-5.0-0.19","6","5","5","5","2","4","3","4","4","4","4","0","-2","0","1","0","1","1","1","4","3","4","2","3","3","4","2","2","4","6","7","5","5","4","6","6","6","5","6","5","5","5","5","2","4","5","6","4","1","3","2","7","3","2","5","5","4","5","5","2","3","3","3","2","5","6","4","3","7","4","3","6","3","2","4","6","4","2","5","780195301624647681","杨","358","Female","[""坏她"",""好她"",""好我"",""坏我""]","[""弱她"",""强她"",""强我"",""弱我""]","","","","","","","","6","","","","","","","","","SRET","SRET_math_calculate","","key","6","16.66701030927787","720","446","","","","","2+4= ?","6","1","","","","","","","",""
"1886","","7","psychophysics","123","299890","0.0-7.0-5.0-0.20","6","5","5","5","2","4","3","4","4","4","4","0","-2","0","1","0","1","1","1","4","3","4","2","3","3","4","2","2","4","6","7","5","5","4","6","6","6","5","6","5","5","5","5","2","4","5","6","4","1","3","2","7","3","2","5","5","4","5","5","2","3","3","3","2","5","6","4","3","7","4","3","6","3","2","4","6","4","2","5","780195301624647681","杨","358","Female","[""坏她"",""好她"",""好我"",""坏我""]","[""弱她"",""强她"",""强我"",""弱我""]","","","","","","","","7","","","","","","","","","SRET","SRET_math_calculate","","key","7","16.66548672566382","720","446","","","","","2+5= ?","7","1","","","","","","","",""
"3115","","8","psychophysics","124","303022","0.0-7.0-5.0-0.21","6","5","5","5","2","4","3","4","4","4","4","0","-2","0","1","0","1","1","1","4","3","4","2","3","3","4","2","2","4","6","7","5","5","4","6","6","6","5","6","5","5","5","5","2","4","5","6","4","1","3","2","7","3","2","5","5","4","5","5","2","3","3","3","2","5","6","4","3","7","4","3","6","3","2","4","6","4","2","5","780195301624647681","杨","358","Female","[""坏她"",""好她"",""好我"",""坏我""]","[""弱她"",""强她"",""强我"",""弱我""]","","","","","","","","8","","","","","","","","","SRET","SRET_math_calculate","","key","8","16.665775401069517","720","446","","","","","56/7= ?","8","1","","","","","","","",""
"1874","","9","psychophysics","125","304918","0.0-7.0-5.0-0.22","6","5","5","5","2","4","3","4","4","4","4","0","-2","0","1","0","1","1","1","4","3","4","2","3","3","4","2","2","4","6","7","5","5","4","6","6","6","5","6","5","5","5","5","2","4","5","6","4","1","3","2","7","3","2","5","5","4","5","5","2","3","3","3","2","5","6","4","3","7","4","3","6","3","2","4","6","4","2","5","780195301624647681","杨","358","Female","[""坏她"",""好她"",""好我"",""坏我""]","[""弱她"",""强她"",""强我"",""弱我""]","","","","","","","","9","","","","","","","","","SRET","SRET_math_calculate","","key","9","16.667256637168347","720","446","","","","","4+5= ?","9","1","","","","","","","",""
"2655","","5","psychophysics","126","307593","0.0-7.0-5.0-0.23","6","5","5","5","2","4","3","4","4","4","4","0","-2","0","1","0","1","1","1","4","3","4","2","3","3","4","2","2","4","6","7","5","5","4","6","6","6","5","6","5","5","5","5","2","4","5","6","4","1","3","2","7","3","2","5","5","4","5","5","2","3","3","3","2","5","6","4","3","7","4","3","6","3","2","4","6","4","2","5","780195301624647681","杨","358","Female","[""坏她"",""好她"",""好我"",""坏我""]","[""弱她"",""强她"",""强我"",""弱我""]","","","","","","","","5","","","","","","","","","SRET","SRET_math_calculate","","key","5","16.668125000000146","720","446","","","","","14-9= ?","5","1","","","","","","","",""
"1958","","5","psychophysics","127","309572","0.0-7.0-5.0-0.24","6","5","5","5","2","4","3","4","4","4","4","0","-2","0","1","0","1","1","1","4","3","4","2","3","3","4","2","2","4","6","7","5","5","4","6","6","6","5","6","5","5","5","5","2","4","5","6","4","1","3","2","7","3","2","5","5","4","5","5","2","3","3","3","2","5","6","4","3","7","4","3","6","3","2","4","6","4","2","5","780195301624647681","杨","358","Female","[""坏她"",""好她"",""好我"",""坏我""]","[""弱她"",""强她"",""强我"",""弱我""]","","","","","","","","5","","","","","","","","","SRET","SRET_math_calculate","","key","5","16.665811965812164","720","446","","","","","12-7= ?","5","1","","","","","","","",""
"2553","","7","psychophysics","128","312142","0.0-7.0-5.0-0.25","6","5","5","5","2","4","3","4","4","4","4","0","-2","0","1","0","1","1","1","4","3","4","2","3","3","4","2","2","4","6","7","5","5","4","6","6","6","5","6","5","5","5","5","2","4","5","6","4","1","3","2","7","3","2","5","5","4","5","5","2","3","3","3","2","5","6","4","3","7","4","3","6","3","2","4","6","4","2","5","780195301624647681","杨","358","Female","[""坏她"",""好她"",""好我"",""坏我""]","[""弱她"",""强她"",""强我"",""弱我""]","","","","","","","","7","","","","","","","","","SRET","SRET_math_calculate","","key","7","16.666233766233614","720","446","","","","","8-1= ?","7","1","","","","","","","",""
"1980","","1","psychophysics","129","314141","0.0-7.0-5.0-0.26","6","5","5","5","2","4","3","4","4","4","4","0","-2","0","1","0","1","1","1","4","3","4","2","3","3","4","2","2","4","6","7","5","5","4","6","6","6","5","6","5","5","5","5","2","4","5","6","4","1","3","2","7","3","2","5","5","4","5","5","2","3","3","3","2","5","6","4","3","7","4","3","6","3","2","4","6","4","2","5","780195301624647681","杨","358","Female","[""坏她"",""好她"",""好我"",""坏我""]","[""弱她"",""强她"",""强我"",""弱我""]","","","","","","","","1","","","","","","","","","SRET","SRET_math_calculate","","key","1","16.66638655462224","720","446","","","","","10-9= ?","1","1","","","","","","","",""
"1687","","1","psychophysics","130","315849","0.0-7.0-5.0-0.27","6","5","5","5","2","4","3","4","4","4","4","0","-2","0","1","0","1","1","1","4","3","4","2","3","3","4","2","2","4","6","7","5","5","4","6","6","6","5","6","5","5","5","5","2","4","5","6","4","1","3","2","7","3","2","5","5","4","5","5","2","3","3","3","2","5","6","4","3","7","4","3","6","3","2","4","6","4","2","5","780195301624647681","杨","358","Female","[""坏她"",""好她"",""好我"",""坏我""]","[""弱她"",""强她"",""强我"",""弱我""]","","","","","","","","1","","","","","","","","","SRET","SRET_math_calculate","","key","1","16.669306930692837","720","446","","","","","9-8= ?","1","1","","","","","","","",""
"1969","","9","psychophysics","131","317842","0.0-7.0-5.0-0.28","6","5","5","5","2","4","3","4","4","4","4","0","-2","0","1","0","1","1","1","4","3","4","2","3","3","4","2","2","4","6","7","5","5","4","6","6","6","5","6","5","5","5","5","2","4","5","6","4","1","3","2","7","3","2","5","5","4","5","5","2","3","3","3","2","5","6","4","3","7","4","3","6","3","2","4","6","4","2","5","780195301624647681","杨","358","Female","[""坏她"",""好她"",""好我"",""坏我""]","[""弱她"",""强她"",""强我"",""弱我""]","","","","","","","","9","","","","","","","","","SRET","SRET_math_calculate","","key","9","16.665546218487492","720","446","","","","","2+7= ?","9","1","","","","","","","",""
"2169","","8","psychophysics","132","320033","0.0-7.0-5.0-0.29","6","5","5","5","2","4","3","4","4","4","4","0","-2","0","1","0","1","1","1","4","3","4","2","3","3","4","2","2","4","6","7","5","5","4","6","6","6","5","6","5","5","5","5","2","4","5","6","4","1","3","2","7","3","2","5","5","4","5","5","2","3","3","3","2","5","6","4","3","7","4","3","6","3","2","4","6","4","2","5","780195301624647681","杨","358","Female","[""坏她"",""好她"",""好我"",""坏我""]","[""弱她"",""强她"",""强我"",""弱我""]","","","","","","","","8","","","","","","","","","SRET","SRET_math_calculate","","key","8","16.666153846154113","720","446","","","","","2*4= ?","8","1","","","","","","","",""
"2064","","2","psychophysics","133","322116","0.0-7.0-5.0-0.30","6","5","5","5","2","4","3","4","4","4","4","0","-2","0","1","0","1","1","1","4","3","4","2","3","3","4","2","2","4","6","7","5","5","4","6","6","6","5","6","5","5","5","5","2","4","5","6","4","1","3","2","7","3","2","5","5","4","5","5","2","3","3","3","2","5","6","4","3","7","4","3","6","3","2","4","6","4","2","5","780195301624647681","杨","358","Female","[""坏她"",""好她"",""好我"",""坏我""]","[""弱她"",""强她"",""强我"",""弱我""]","","","","","","","","2","","","","","","","","","SRET","SRET_math_calculate","","key","2","16.66693548387106","720","446","","","","","18/9= ?","2","1","","","","","","","",""
"1949","","8","psychophysics","134","324067","0.0-7.0-5.0-0.31","6","5","5","5","2","4","3","4","4","4","4","0","-2","0","1","0","1","1","1","4","3","4","2","3","3","4","2","2","4","6","7","5","5","4","6","6","6","5","6","5","5","5","5","2","4","5","6","4","1","3","2","7","3","2","5","5","4","5","5","2","3","3","3","2","5","6","4","3","7","4","3","6","3","2","4","6","4","2","5","780195301624647681","杨","358","Female","[""坏她"",""好她"",""好我"",""坏我""]","[""弱她"",""强她"",""强我"",""弱我""]","","","","","","","","8","","","","","","","","","SRET","SRET_math_calculate","","key","8","16.664655172413593","720","446","","","","","4+4= ?","8","1","","","","","","","",""
"1892","","3","psychophysics","135","325979","0.0-7.0-5.0-0.32","6","5","5","5","2","4","3","4","4","4","4","0","-2","0","1","0","1","1","1","4","3","4","2","3","3","4","2","2","4","6","7","5","5","4","6","6","6","5","6","5","5","5","5","2","4","5","6","4","1","3","2","7","3","2","5","5","4","5","5","2","3","3","3","2","5","6","4","3","7","4","3","6","3","2","4","6","4","2","5","780195301624647681","杨","358","Female","[""坏她"",""好她"",""好我"",""坏我""]","[""弱她"",""强她"",""强我"",""弱我""]","","","","","","","","3","","","","","","","","","SRET","SRET_math_calculate","","key","3","16.667543859649427","720","446","","","","","1+2= ?","3","1","","","","","","","",""
"2610","","9","psychophysics","136","328609","0.0-7.0-5.0-0.33","6","5","5","5","2","4","3","4","4","4","4","0","-2","0","1","0","1","1","1","4","3","4","2","3","3","4","2","2","4","6","7","5","5","4","6","6","6","5","6","5","5","5","5","2","4","5","6","4","1","3","2","7","3","2","5","5","4","5","5","2","3","3","3","2","5","6","4","3","7","4","3","6","3","2","4","6","4","2","5","780195301624647681","杨","358","Female","[""坏她"",""好她"",""好我"",""坏我""]","[""弱她"",""强她"",""强我"",""弱我""]","","","","","","","","9","","","","","","","","","SRET","SRET_math_calculate","","key","9","16.666242038216414","720","446","","","","","18/2= ?","9","1","","","","","","","",""
"2065","","7","psychophysics","137","330691","0.0-7.0-5.0-0.34","6","5","5","5","2","4","3","4","4","4","4","0","-2","0","1","0","1","1","1","4","3","4","2","3","3","4","2","2","4","6","7","5","5","4","6","6","6","5","6","5","5","5","5","2","4","5","6","4","1","3","2","7","3","2","5","5","4","5","5","2","3","3","3","2","5","6","4","3","7","4","3","6","3","2","4","6","4","2","5","780195301624647681","杨","358","Female","[""坏她"",""好她"",""好我"",""坏我""]","[""弱她"",""强她"",""强我"",""弱我""]","","","","","","","","7","","","","","","","","","SRET","SRET_math_calculate","","key","7","16.666129032258347","720","446","","","","","1+6= ?","7","1","","","","","","","",""
"1875","","4","psychophysics","138","332589","0.0-7.0-5.0-0.35","6","5","5","5","2","4","3","4","4","4","4","0","-2","0","1","0","1","1","1","4","3","4","2","3","3","4","2","2","4","6","7","5","5","4","6","6","6","5","6","5","5","5","5","2","4","5","6","4","1","3","2","7","3","2","5","5","4","5","5","2","3","3","3","2","5","6","4","3","7","4","3","6","3","2","4","6","4","2","5","780195301624647681","杨","358","Female","[""坏她"",""好她"",""好我"",""坏我""]","[""弱她"",""强她"",""强我"",""弱我""]","","","","","","","","4","","","","","","","","","SRET","SRET_math_calculate","","key","4","16.66607142857122","720","446","","","","","2+2= ?","4","1","","","","","","","",""
"2120","","0","psychophysics","139","334727","0.0-7.0-5.0-0.36","6","5","5","5","2","4","3","4","4","4","4","0","-2","0","1","0","1","1","1","4","3","4","2","3","3","4","2","2","4","6","7","5","5","4","6","6","6","5","6","5","5","5","5","2","4","5","6","4","1","3","2","7","3","2","5","5","4","5","5","2","3","3","3","2","5","6","4","3","7","4","3","6","3","2","4","6","4","2","5","780195301624647681","杨","358","Female","[""坏她"",""好她"",""好我"",""坏我""]","[""弱她"",""强她"",""强我"",""弱我""]","","","","","","","","0","","","","","","","","","SRET","SRET_math_calculate","","key","0","16.666406250000364","720","446","","","","","9-9= ?","0","1","","","","","","","",""
"1788","","0","psychophysics","140","336535","0.0-7.0-5.0-0.37","6","5","5","5","2","4","3","4","4","4","4","0","-2","0","1","0","1","1","1","4","3","4","2","3","3","4","2","2","4","6","7","5","5","4","6","6","6","5","6","5","5","5","5","2","4","5","6","4","1","3","2","7","3","2","5","5","4","5","5","2","3","3","3","2","5","6","4","3","7","4","3","6","3","2","4","6","4","2","5","780195301624647681","杨","358","Female","[""坏她"",""好她"",""好我"",""坏我""]","[""弱她"",""强她"",""强我"",""弱我""]","","","","","","","","0","","","","","","","","","SRET","SRET_math_calculate","","key","0","16.66822429906542","720","446","","","","","12-12= ?","0","1","","","","","","","",""
"2012","","7","psychophysics","141","338566","0.0-7.0-5.0-0.38","6","5","5","5","2","4","3","4","4","4","4","0","-2","0","1","0","1","1","1","4","3","4","2","3","3","4","2","2","4","6","7","5","5","4","6","6","6","5","6","5","5","5","5","2","4","5","6","4","1","3","2","7","3","2","5","5","4","5","5","2","3","3","3","2","5","6","4","3","7","4","3","6","3","2","4","6","4","2","5","780195301624647681","杨","358","Female","[""坏她"",""好她"",""好我"",""坏我""]","[""弱她"",""强她"",""强我"",""弱我""]","","","","","","","","7","","","","","","","","","SRET","SRET_math_calculate","","key","7","16.666942148760427","720","446","","","","","3+4= ?","7","1","","","","","","","",""
"2112","","3","psychophysics","142","340679","0.0-7.0-5.0-0.39","6","5","5","5","2","4","3","4","4","4","4","0","-2","0","1","0","1","1","1","4","3","4","2","3","3","4","2","2","4","6","7","5","5","4","6","6","6","5","6","5","5","5","5","2","4","5","6","4","1","3","2","7","3","2","5","5","4","5","5","2","3","3","3","2","5","6","4","3","7","4","3","6","3","2","4","6","4","2","5","780195301624647681","杨","358","Female","[""坏她"",""好她"",""好我"",""坏我""]","[""弱她"",""强她"",""强我"",""弱我""]","","","","","","","","3","","","","","","","","","SRET","SRET_math_calculate","","key","3","16.799200000000187","720","446","","","","","9-6= ?","3","1","","","","","","","",""
