"rt","stimulus","response","trial_type","trial_index","time_elapsed","internal_node_id","swb_1","swb_2","swb_3","swb_4","swb_5","LOT_1","LOT_2","LOT_3","LOT_4","LOT_5","LOT_6","IPC_1","IPC_2","IPC_3","IPC_4","IPC_5","IPC_6","IPC_7","IPC_8","MorIden_1","MorIden_2","MorIden_3","MorIden_4","MorIden_5","MorIden_6","MorIden_7","MorIden_8","MorIden_9","MorIden_10","moralSeImag_1","moralSeImag_2","moralSeImag_3","moralSeImag_4","moralSeImag_5","moralSeImag_6","moralSeImag_7","moralSeImag_8","moralSeImag_9","sde_1","sde_2","sde_3","sde_4","sde_5","sde_6","sde_7","sde_8","sde_9","sde_10","trap2","sde_11","sde_12","sde_13","sde_14","sde_15","sde_16","sde_17","sde_18","sde_19","sde_20","IM_1","IM_2","IM_3","IM_4","IM_5","IM_6","IM_7","IM_8","IM_9","IM_10","IM_11","IM_12","IM_13","IM_14","IM_15","IM_16","IM_17","IM_18","IM_19","IM_20","subj_idx","friend_name","ParticipantID","Sex","Word","Word2","value","success","timeout","failed_images","failed_audio","failed_video","user_agent","responses","item_order","radio_event_ids","radio_event_times","key_event_times","mouse_event_times","straightlining","zigzagging","honeypot","view_history","response_type","key_press","avg_frame_time","center_x","center_y","correct_response","correct","identity","Image","word","condition","task_id","screen_id","time_stamp","person","valence","domain","math","status","duration","question_order","trap2_item"
"8475","
   <p><div style='color:white; font-size: 25px'>您好，欢迎参加本次实验。</div></p>
   <p><div style='color:white; font-size: 25px'>为充分保障您的权利，请确保您已经知晓并同意《参与实验同意书》以及《数据公开知情同意书》。</div></p>
   <p><div style='color:white; font-size: 25px'>如果您未见过上述内容，请咨询实验员。</div></p>
   <p style='color:white; font-size: 25px'>如果您选择继续实验，则表示您已经清楚两份知情同意书的内容并同意。</p>
   <p><div style = ""color: pink;font-size:30px;"">请确保您记得day0的实验编号，您将在本次实验输入该编号，若您忘记，请咨询实验员后作答。</div></p>
   <p><div style = ""color:lightblue;font-size:25px;"">请您尽可能认真地作答，我们将依据您在各问卷和按键任务中的作答质量发放报酬。</div></p>
   <p> <div style = ""color: green""><按空格键至下页></div> </p>
   "," ","html-keyboard-response","0","8478","0.0-0.0","7","7","7","7","7","5","5","5","5","5","5","2","1","2","1","2","2","2","2","5","5","5","5","5","5","5","5","5","5","7","8","8","8","8","7","7","9","7","7","7","7","7","7","7","7","1","7","7","1","7","7","7","7","7","7","7","7","7","7","7","7","7","7","7","7","7","7","7","7","7","6","7","7","7","7","7","7","7","7","633753940910931968","付","330","Male","[""坏他"",""好我"",""坏我"",""好他""]","[""弱他"",""强我"",""弱我"",""强他""]","","","","","","","","","","","","","","","","","","","","","","","","","","","","","","","","","","","","","","",""
"","","","call-function","1","8478","0.0-1.0-0.0","7","7","7","7","7","5","5","5","5","5","5","2","1","2","1","2","2","2","2","5","5","5","5","5","5","5","5","5","5","7","8","8","8","8","7","7","9","7","7","7","7","7","7","7","7","1","7","7","1","7","7","7","7","7","7","7","7","7","7","7","7","7","7","7","7","7","7","7","7","7","6","7","7","7","7","7","7","7","7","633753940910931968","付","330","Male","[""坏他"",""好我"",""坏我"",""好他""]","[""弱他"",""强我"",""弱我"",""强他""]","","","","","","","","","","","","","","","","","","","","","","","","","","","","","","","","","","","","","","",""
"13317","","[{""name"":""Sex"",""value"":""0""},{""name"":""friend_name"",""value"":""付""},{""name"":""ParticipantID"",""value"":""330""}]","survey-html-form","2","21796","0.0-1.0-1.0","7","7","7","7","7","5","5","5","5","5","5","2","1","2","1","2","2","2","2","5","5","5","5","5","5","5","5","5","5","7","8","8","8","8","7","7","9","7","7","7","7","7","7","7","7","1","7","7","1","7","7","7","7","7","7","7","7","7","7","7","7","7","7","7","7","7","7","7","7","7","6","7","7","7","7","7","7","7","7","633753940910931968","付","330","Male","[""坏他"",""好我"",""坏我"",""好他""]","[""弱他"",""强我"",""弱我"",""强他""]","","","","","","","","","","","","","","","","","","","","","","","","","","","","","","","","","","","","","","",""
"","","","preload","3","22169","0.0-2.0","7","7","7","7","7","5","5","5","5","5","5","2","1","2","1","2","2","2","2","5","5","5","5","5","5","5","5","5","5","7","8","8","8","8","7","7","9","7","7","7","7","7","7","7","7","1","7","7","1","7","7","7","7","7","7","7","7","7","7","7","7","7","7","7","7","7","7","7","7","7","6","7","7","7","7","7","7","7","7","633753940910931968","付","330","Male","[""坏他"",""好我"",""坏我"",""好他""]","[""弱他"",""强我"",""弱我"",""强他""]","","true","false","[]","[]","[]","","","","","","","","","","","","","","","","","","","","","","","","","","","","","","","","",""
"","","","fullscreen","4","23250","0.0-3.0","7","7","7","7","7","5","5","5","5","5","5","2","1","2","1","2","2","2","2","5","5","5","5","5","5","5","5","5","5","7","8","8","8","8","7","7","9","7","7","7","7","7","7","7","7","1","7","7","1","7","7","7","7","7","7","7","7","7","7","7","7","7","7","7","7","7","7","7","7","7","6","7","7","7","7","7","7","7","7","633753940910931968","付","330","Male","[""坏他"",""好我"",""坏我"",""好他""]","[""弱他"",""强我"",""弱我"",""强他""]","","true","","","","","","","","","","","","","","","","","","","","","","","","","","","","","","","","","","","","",""
"3762.045000003127","","{""Q01"":""7"",""Q02"":""7"",""Q03"":""7"",""Q04"":""7"",""Q05"":""7""}","survey-template","5","27015","0.0-4.0","7","7","7","7","7","5","5","5","5","5","5","2","1","2","1","2","2","2","2","5","5","5","5","5","5","5","5","5","5","7","8","8","8","8","7","7","9","7","7","7","7","7","7","7","7","1","7","7","1","7","7","7","7","7","7","7","7","7","7","7","7","7","7","7","7","7","7","7","7","7","6","7","7","7","7","7","7","7","7","633753940910931968","付","330","Male","[""坏他"",""好我"",""坏我"",""好他""]","[""弱他"",""强我"",""弱我"",""强他""]","","","","","","","","{""Q01"":""7"",""Q02"":""7"",""Q03"":""7"",""Q04"":""7"",""Q05"":""7""}","[0,1,2,3,4]","[""Q01"",""Q02"",""Q03"",""Q04"",""Q05""]","[1416.0249999986263,1792.5749999994878,2159.444999997504,2887.589999998454,3264.519999996992]","[]","[1416.0249999986263,1792.5749999994878,2159.444999997504,2535.4999999981374,2887.589999998454,3264.519999996992,3761.2500000032014]","1","0","0","","","","","","","","","","","","","","","","","","","","","","",""
"12489.724999999453","","{""Q01"":""5"",""Q02"":""5"",""Q03"":""5"",""Q04"":""5"",""Q05"":""5"",""Q06"":""5""}","survey-template","6","39508","0.0-5.0","7","7","7","7","7","5","5","5","5","5","5","2","1","2","1","2","2","2","2","5","5","5","5","5","5","5","5","5","5","7","8","8","8","8","7","7","9","7","7","7","7","7","7","7","7","1","7","7","1","7","7","7","7","7","7","7","7","7","7","7","7","7","7","7","7","7","7","7","7","7","6","7","7","7","7","7","7","7","7","633753940910931968","付","330","Male","[""坏他"",""好我"",""坏我"",""好他""]","[""弱他"",""强我"",""弱我"",""强他""]","","","","","","","","{""Q01"":""5"",""Q02"":""5"",""Q03"":""5"",""Q04"":""5"",""Q05"":""5"",""Q06"":""5""}","[0,1,2,3,4,5]","[""Q01"",""Q04"",""Q06"",""Q04"",""Q04"",""Q05"",""Q04"",""Q03"",""Q02""]","[889.3450000032317,2137.495000002673,3001.015000001644,3953.1199999983073,5577.595000002475,6465.434999998251,8177.580000003218,9202.030000000377,10777.275000000373]","[]","[889.3450000032317,1793.6650000046939,2137.495000002673,3001.015000001644,3953.1199999983073,5577.595000002475,6465.434999998251,8177.580000003218,9202.030000000377,10017.74000000296,10513.595000003988,10777.275000000373,12489.110000002256]","0.5","0.8","0","","","","","","","","","","","","","","","","","","","","","","",""
"52924.8249999946","","{""Q01"":""2"",""Q02"":""1"",""Q03"":""2"",""Q04"":""1"",""Q05"":""2"",""Q06"":""2"",""Q07"":""2"",""Q08"":""2""}","survey-template","7","92437","0.0-6.0","7","7","7","7","7","5","5","5","5","5","5","2","1","2","1","2","2","2","2","5","5","5","5","5","5","5","5","5","5","7","8","8","8","8","7","7","9","7","7","7","7","7","7","7","7","1","7","7","1","7","7","7","7","7","7","7","7","7","7","7","7","7","7","7","7","7","7","7","7","7","6","7","7","7","7","7","7","7","7","633753940910931968","付","330","Male","[""坏他"",""好我"",""坏我"",""好他""]","[""弱他"",""强我"",""弱我"",""强他""]","","","","","","","","{""Q01"":""2"",""Q02"":""1"",""Q03"":""2"",""Q04"":""1"",""Q05"":""2"",""Q06"":""2"",""Q07"":""2"",""Q08"":""2""}","[0,1,2,3,4,5,6,7]","[""Q01"",""Q02"",""Q03"",""Q04"",""Q02"",""Q06"",""Q05"",""Q07"",""Q08""]","[1173.2149999952526,1764.629999997851,2445.1549999939743,4092.709999997169,4604.634999996051,6581.469999997353,7044.369999995979,7428.384999999253,8276.584999999614]","[]","[1173.2149999952526,1764.629999997851,2445.1549999939743,4092.709999997169,4604.634999996051,5860.97499999596,6196.524999999383,6381.439999997383,6581.469999997353,7044.369999995979,7428.384999999253,7820.564999994531,8276.584999999614,52923.93499999889]","0.75","0.5714285714285714","0","","","","","","","","","","","","","","","","","","","","","","",""
"1253","","","instructions","8","93692","0.0-7.0","7","7","7","7","7","5","5","5","5","5","5","2","1","2","1","2","2","2","2","5","5","5","5","5","5","5","5","5","5","7","8","8","8","8","7","7","9","7","7","7","7","7","7","7","7","1","7","7","1","7","7","7","7","7","7","7","7","7","7","7","7","7","7","7","7","7","7","7","7","7","6","7","7","7","7","7","7","7","7","633753940910931968","付","330","Male","[""坏他"",""好我"",""坏我"",""好他""]","[""弱他"",""强我"",""弱我"",""强他""]","","","","","","","","","","","","","","","","","[{""page_index"":0,""viewing_time"":1252}]","","","","","","","","","","","","","","","","","","","","","",""
"42311","","","instructions","9","136004","0.0-8.0-0.0-0.0","7","7","7","7","7","5","5","5","5","5","5","2","1","2","1","2","2","2","2","5","5","5","5","5","5","5","5","5","5","7","8","8","8","8","7","7","9","7","7","7","7","7","7","7","7","1","7","7","1","7","7","7","7","7","7","7","7","7","7","7","7","7","7","7","7","7","7","7","7","7","6","7","7","7","7","7","7","7","7","633753940910931968","付","330","Male","[""坏他"",""好我"",""坏我"",""好他""]","[""弱他"",""强我"",""弱我"",""强他""]","","","","","","","","","","","","","","","","","[{""page_index"":0,""viewing_time"":3422},{""page_index"":1,""viewing_time"":37576},{""page_index"":2,""viewing_time"":696},{""page_index"":3,""viewing_time"":617}]","","","","","","","","","","","","","","","","","","","","","",""
"596","","f","psychophysics","10","137605","0.0-8.0-0.0-1.0-0.0-0.0","7","7","7","7","7","5","5","5","5","5","5","2","1","2","1","2","2","2","2","5","5","5","5","5","5","5","5","5","5","7","8","8","8","8","7","7","9","7","7","7","7","7","7","7","7","1","7","7","1","7","7","7","7","7","7","7","7","7","7","7","7","7","7","7","7","7","7","7","7","7","6","7","7","7","7","7","7","7","7","633753940910931968","付","330","Male","[""坏他"",""好我"",""坏我"",""好他""]","[""弱他"",""强我"",""弱我"",""强他""]","","","","","","","","match","","","","","","","","","","key","f","16.66809473684223","768","428","f","true","match","img/square.png","好我","好我","prac_ALT2_moral","practice_moral","","","","","","","","",""
"null","<span style='color:GreenYellow; font-size: 70px;'>正确! </span>","null","html-keyboard-response","11","138115","0.0-8.0-0.0-1.0-0.0-1.0","7","7","7","7","7","5","5","5","5","5","5","2","1","2","1","2","2","2","2","5","5","5","5","5","5","5","5","5","5","7","8","8","8","8","7","7","9","7","7","7","7","7","7","7","7","1","7","7","1","7","7","7","7","7","7","7","7","7","7","7","7","7","7","7","7","7","7","7","7","7","6","7","7","7","7","7","7","7","7","633753940910931968","付","330","Male","[""坏他"",""好我"",""坏我"",""好他""]","[""弱他"",""强我"",""弱我"",""强他""]","","","","","","","","","","","","","","","","","","","","","","","","","","","","","","feedback_test","","","","","","","","",""
"686","","j","psychophysics","12","139804","0.0-8.0-0.0-1.0-0.0-0.1","7","7","7","7","7","5","5","5","5","5","5","2","1","2","1","2","2","2","2","5","5","5","5","5","5","5","5","5","5","7","8","8","8","8","7","7","9","7","7","7","7","7","7","7","7","1","7","7","1","7","7","7","7","7","7","7","7","7","7","7","7","7","7","7","7","7","7","7","7","7","6","7","7","7","7","7","7","7","7","633753940910931968","付","330","Male","[""坏他"",""好我"",""坏我"",""好他""]","[""弱他"",""强我"",""弱我"",""强他""]","","","","","","","","nonmatch","","","","","","","","","","key","j","16.66576237623761","768","428","j","true","nonmatch","img/square.png","好他","好我","prac_ALT2_moral","practice_moral","","","","","","","","",""
"null","<span style='color:GreenYellow; font-size: 70px;'>正确! </span>","null","html-keyboard-response","13","140307","0.0-8.0-0.0-1.0-0.0-1.1","7","7","7","7","7","5","5","5","5","5","5","2","1","2","1","2","2","2","2","5","5","5","5","5","5","5","5","5","5","7","8","8","8","8","7","7","9","7","7","7","7","7","7","7","7","1","7","7","1","7","7","7","7","7","7","7","7","7","7","7","7","7","7","7","7","7","7","7","7","7","6","7","7","7","7","7","7","7","7","633753940910931968","付","330","Male","[""坏他"",""好我"",""坏我"",""好他""]","[""弱他"",""强我"",""弱我"",""强他""]","","","","","","","","","","","","","","","","","","","","","","","","","","","","","","feedback_test","","","","","","","","",""
"1055","","j","psychophysics","14","142364","0.0-8.0-0.0-1.0-0.0-0.2","7","7","7","7","7","5","5","5","5","5","5","2","1","2","1","2","2","2","2","5","5","5","5","5","5","5","5","5","5","7","8","8","8","8","7","7","9","7","7","7","7","7","7","7","7","1","7","7","1","7","7","7","7","7","7","7","7","7","7","7","7","7","7","7","7","7","7","7","7","7","6","7","7","7","7","7","7","7","7","633753940910931968","付","330","Male","[""坏他"",""好我"",""坏我"",""好他""]","[""弱他"",""强我"",""弱我"",""强他""]","","","","","","","","nonmatch","","","","","","","","","","key","j","16.66531147540988","768","428","f","false","match","img/circle.png","坏他","坏他","prac_ALT2_moral","practice_moral","","","","","","","","",""
"null","<span style='color:red; font-size: 70px;'>错误! </span>","null","html-keyboard-response","15","142866","0.0-8.0-0.0-1.0-0.0-1.2","7","7","7","7","7","5","5","5","5","5","5","2","1","2","1","2","2","2","2","5","5","5","5","5","5","5","5","5","5","7","8","8","8","8","7","7","9","7","7","7","7","7","7","7","7","1","7","7","1","7","7","7","7","7","7","7","7","7","7","7","7","7","7","7","7","7","7","7","7","7","6","7","7","7","7","7","7","7","7","633753940910931968","付","330","Male","[""坏他"",""好我"",""坏我"",""好他""]","[""弱他"",""强我"",""弱我"",""强他""]","","","","","","","","","","","","","","","","","","","","","","","","","","","","","","feedback_test","","","","","","","","",""
"744","","j","psychophysics","16","144611","0.0-8.0-0.0-1.0-0.0-0.3","7","7","7","7","7","5","5","5","5","5","5","2","1","2","1","2","2","2","2","5","5","5","5","5","5","5","5","5","5","7","8","8","8","8","7","7","9","7","7","7","7","7","7","7","7","1","7","7","1","7","7","7","7","7","7","7","7","7","7","7","7","7","7","7","7","7","7","7","7","7","6","7","7","7","7","7","7","7","7","633753940910931968","付","330","Male","[""坏他"",""好我"",""坏我"",""好他""]","[""弱他"",""强我"",""弱我"",""强他""]","","","","","","","","nonmatch","","","","","","","","","","key","j","16.667417475728215","768","428","j","true","nonmatch","img/circle.png","好他","坏他","prac_ALT2_moral","practice_moral","","","","","","","","",""
"null","<span style='color:GreenYellow; font-size: 70px;'>正确! </span>","null","html-keyboard-response","17","145112","0.0-8.0-0.0-1.0-0.0-1.3","7","7","7","7","7","5","5","5","5","5","5","2","1","2","1","2","2","2","2","5","5","5","5","5","5","5","5","5","5","7","8","8","8","8","7","7","9","7","7","7","7","7","7","7","7","1","7","7","1","7","7","7","7","7","7","7","7","7","7","7","7","7","7","7","7","7","7","7","7","7","6","7","7","7","7","7","7","7","7","633753940910931968","付","330","Male","[""坏他"",""好我"",""坏我"",""好他""]","[""弱他"",""强我"",""弱我"",""强他""]","","","","","","","","","","","","","","","","","","","","","","","","","","","","","","feedback_test","","","","","","","","",""
"889","","f","psychophysics","18","147005","0.0-8.0-0.0-1.0-0.0-0.4","7","7","7","7","7","5","5","5","5","5","5","2","1","2","1","2","2","2","2","5","5","5","5","5","5","5","5","5","5","7","8","8","8","8","7","7","9","7","7","7","7","7","7","7","7","1","7","7","1","7","7","7","7","7","7","7","7","7","7","7","7","7","7","7","7","7","7","7","7","7","6","7","7","7","7","7","7","7","7","633753940910931968","付","330","Male","[""坏他"",""好我"",""坏我"",""好他""]","[""弱他"",""强我"",""弱我"",""强他""]","","","","","","","","match","","","","","","","","","","key","f","16.66559292035398","768","428","f","true","match","img/hexagon.png","好他","好他","prac_ALT2_moral","practice_moral","","","","","","","","",""
"null","<span style='color:GreenYellow; font-size: 70px;'>正确! </span>","null","html-keyboard-response","19","147507","0.0-8.0-0.0-1.0-0.0-1.4","7","7","7","7","7","5","5","5","5","5","5","2","1","2","1","2","2","2","2","5","5","5","5","5","5","5","5","5","5","7","8","8","8","8","7","7","9","7","7","7","7","7","7","7","7","1","7","7","1","7","7","7","7","7","7","7","7","7","7","7","7","7","7","7","7","7","7","7","7","7","6","7","7","7","7","7","7","7","7","633753940910931968","付","330","Male","[""坏他"",""好我"",""坏我"",""好他""]","[""弱他"",""强我"",""弱我"",""强他""]","","","","","","","","","","","","","","","","","","","","","","","","","","","","","","feedback_test","","","","","","","","",""
"663","","f","psychophysics","20","149171","0.0-8.0-0.0-1.0-0.0-0.5","7","7","7","7","7","5","5","5","5","5","5","2","1","2","1","2","2","2","2","5","5","5","5","5","5","5","5","5","5","7","8","8","8","8","7","7","9","7","7","7","7","7","7","7","7","1","7","7","1","7","7","7","7","7","7","7","7","7","7","7","7","7","7","7","7","7","7","7","7","7","6","7","7","7","7","7","7","7","7","633753940910931968","付","330","Male","[""坏他"",""好我"",""坏我"",""好他""]","[""弱他"",""强我"",""弱我"",""强他""]","","","","","","","","match","","","","","","","","","","key","f","16.6636161616162","768","428","f","true","match","img/triangle.png","坏我","坏我","prac_ALT2_moral","practice_moral","","","","","","","","",""
"null","<span style='color:GreenYellow; font-size: 70px;'>正确! </span>","null","html-keyboard-response","21","149671","0.0-8.0-0.0-1.0-0.0-1.5","7","7","7","7","7","5","5","5","5","5","5","2","1","2","1","2","2","2","2","5","5","5","5","5","5","5","5","5","5","7","8","8","8","8","7","7","9","7","7","7","7","7","7","7","7","1","7","7","1","7","7","7","7","7","7","7","7","7","7","7","7","7","7","7","7","7","7","7","7","7","6","7","7","7","7","7","7","7","7","633753940910931968","付","330","Male","[""坏他"",""好我"",""坏我"",""好他""]","[""弱他"",""强我"",""弱我"",""强他""]","","","","","","","","","","","","","","","","","","","","","","","","","","","","","","feedback_test","","","","","","","","",""
"770","","j","psychophysics","22","151443","0.0-8.0-0.0-1.0-0.0-0.6","7","7","7","7","7","5","5","5","5","5","5","2","1","2","1","2","2","2","2","5","5","5","5","5","5","5","5","5","5","7","8","8","8","8","7","7","9","7","7","7","7","7","7","7","7","1","7","7","1","7","7","7","7","7","7","7","7","7","7","7","7","7","7","7","7","7","7","7","7","7","6","7","7","7","7","7","7","7","7","633753940910931968","付","330","Male","[""坏他"",""好我"",""坏我"",""好他""]","[""弱他"",""强我"",""弱我"",""强他""]","","","","","","","","nonmatch","","","","","","","","","","key","j","16.664809523809456","768","428","j","true","nonmatch","img/hexagon.png","坏我","好他","prac_ALT2_moral","practice_moral","","","","","","","","",""
"null","<span style='color:GreenYellow; font-size: 70px;'>正确! </span>","null","html-keyboard-response","23","151954","0.0-8.0-0.0-1.0-0.0-1.6","7","7","7","7","7","5","5","5","5","5","5","2","1","2","1","2","2","2","2","5","5","5","5","5","5","5","5","5","5","7","8","8","8","8","7","7","9","7","7","7","7","7","7","7","7","1","7","7","1","7","7","7","7","7","7","7","7","7","7","7","7","7","7","7","7","7","7","7","7","7","6","7","7","7","7","7","7","7","7","633753940910931968","付","330","Male","[""坏他"",""好我"",""坏我"",""好他""]","[""弱他"",""强我"",""弱我"",""强他""]","","","","","","","","","","","","","","","","","","","","","","","","","","","","","","feedback_test","","","","","","","","",""
"816","","f","psychophysics","24","153773","0.0-8.0-0.0-1.0-0.0-0.7","7","7","7","7","7","5","5","5","5","5","5","2","1","2","1","2","2","2","2","5","5","5","5","5","5","5","5","5","5","7","8","8","8","8","7","7","9","7","7","7","7","7","7","7","7","1","7","7","1","7","7","7","7","7","7","7","7","7","7","7","7","7","7","7","7","7","7","7","7","7","6","7","7","7","7","7","7","7","7","633753940910931968","付","330","Male","[""坏他"",""好我"",""坏我"",""好他""]","[""弱他"",""强我"",""弱我"",""强他""]","","","","","","","","match","","","","","","","","","","key","f","16.664814814814708","768","428","f","true","match","img/square.png","好我","好我","prac_ALT2_moral","practice_moral","","","","","","","","",""
"null","<span style='color:GreenYellow; font-size: 70px;'>正确! </span>","null","html-keyboard-response","25","154276","0.0-8.0-0.0-1.0-0.0-1.7","7","7","7","7","7","5","5","5","5","5","5","2","1","2","1","2","2","2","2","5","5","5","5","5","5","5","5","5","5","7","8","8","8","8","7","7","9","7","7","7","7","7","7","7","7","1","7","7","1","7","7","7","7","7","7","7","7","7","7","7","7","7","7","7","7","7","7","7","7","7","6","7","7","7","7","7","7","7","7","633753940910931968","付","330","Male","[""坏他"",""好我"",""坏我"",""好他""]","[""弱他"",""强我"",""弱我"",""强他""]","","","","","","","","","","","","","","","","","","","","","","","","","","","","","","feedback_test","","","","","","","","",""
"1043","","j","psychophysics","26","156323","0.0-8.0-0.0-1.0-0.0-0.8","7","7","7","7","7","5","5","5","5","5","5","2","1","2","1","2","2","2","2","5","5","5","5","5","5","5","5","5","5","7","8","8","8","8","7","7","9","7","7","7","7","7","7","7","7","1","7","7","1","7","7","7","7","7","7","7","7","7","7","7","7","7","7","7","7","7","7","7","7","7","6","7","7","7","7","7","7","7","7","633753940910931968","付","330","Male","[""坏他"",""好我"",""坏我"",""好他""]","[""弱他"",""强我"",""弱我"",""强他""]","","","","","","","","nonmatch","","","","","","","","","","key","j","16.665983606557376","768","428","j","true","nonmatch","img/hexagon.png","坏他","好他","prac_ALT2_moral","practice_moral","","","","","","","","",""
"null","<span style='color:GreenYellow; font-size: 70px;'>正确! </span>","null","html-keyboard-response","27","156829","0.0-8.0-0.0-1.0-0.0-1.8","7","7","7","7","7","5","5","5","5","5","5","2","1","2","1","2","2","2","2","5","5","5","5","5","5","5","5","5","5","7","8","8","8","8","7","7","9","7","7","7","7","7","7","7","7","1","7","7","1","7","7","7","7","7","7","7","7","7","7","7","7","7","7","7","7","7","7","7","7","7","6","7","7","7","7","7","7","7","7","633753940910931968","付","330","Male","[""坏他"",""好我"",""坏我"",""好他""]","[""弱他"",""强我"",""弱我"",""强他""]","","","","","","","","","","","","","","","","","","","","","","","","","","","","","","feedback_test","","","","","","","","",""
"872","","j","psychophysics","28","158703","0.0-8.0-0.0-1.0-0.0-0.9","7","7","7","7","7","5","5","5","5","5","5","2","1","2","1","2","2","2","2","5","5","5","5","5","5","5","5","5","5","7","8","8","8","8","7","7","9","7","7","7","7","7","7","7","7","1","7","7","1","7","7","7","7","7","7","7","7","7","7","7","7","7","7","7","7","7","7","7","7","7","6","7","7","7","7","7","7","7","7","633753940910931968","付","330","Male","[""坏他"",""好我"",""坏我"",""好他""]","[""弱他"",""强我"",""弱我"",""强他""]","","","","","","","","nonmatch","","","","","","","","","","key","j","16.66659821428584","768","428","j","true","nonmatch","img/circle.png","好我","坏他","prac_ALT2_moral","practice_moral","","","","","","","","",""
"null","<span style='color:GreenYellow; font-size: 70px;'>正确! </span>","null","html-keyboard-response","29","159205","0.0-8.0-0.0-1.0-0.0-1.9","7","7","7","7","7","5","5","5","5","5","5","2","1","2","1","2","2","2","2","5","5","5","5","5","5","5","5","5","5","7","8","8","8","8","7","7","9","7","7","7","7","7","7","7","7","1","7","7","1","7","7","7","7","7","7","7","7","7","7","7","7","7","7","7","7","7","7","7","7","7","6","7","7","7","7","7","7","7","7","633753940910931968","付","330","Male","[""坏他"",""好我"",""坏我"",""好他""]","[""弱他"",""强我"",""弱我"",""强他""]","","","","","","","","","","","","","","","","","","","","","","","","","","","","","","feedback_test","","","","","","","","",""
"645","","j","psychophysics","30","160852","0.0-8.0-0.0-1.0-0.0-0.10","7","7","7","7","7","5","5","5","5","5","5","2","1","2","1","2","2","2","2","5","5","5","5","5","5","5","5","5","5","7","8","8","8","8","7","7","9","7","7","7","7","7","7","7","7","1","7","7","1","7","7","7","7","7","7","7","7","7","7","7","7","7","7","7","7","7","7","7","7","7","6","7","7","7","7","7","7","7","7","633753940910931968","付","330","Male","[""坏他"",""好我"",""坏我"",""好他""]","[""弱他"",""强我"",""弱我"",""强他""]","","","","","","","","nonmatch","","","","","","","","","","key","j","16.667326530612108","768","428","j","true","nonmatch","img/circle.png","坏我","坏他","prac_ALT2_moral","practice_moral","","","","","","","","",""
"null","<span style='color:GreenYellow; font-size: 70px;'>正确! </span>","null","html-keyboard-response","31","161353","0.0-8.0-0.0-1.0-0.0-1.10","7","7","7","7","7","5","5","5","5","5","5","2","1","2","1","2","2","2","2","5","5","5","5","5","5","5","5","5","5","7","8","8","8","8","7","7","9","7","7","7","7","7","7","7","7","1","7","7","1","7","7","7","7","7","7","7","7","7","7","7","7","7","7","7","7","7","7","7","7","7","6","7","7","7","7","7","7","7","7","633753940910931968","付","330","Male","[""坏他"",""好我"",""坏我"",""好他""]","[""弱他"",""强我"",""弱我"",""强他""]","","","","","","","","","","","","","","","","","","","","","","","","","","","","","","feedback_test","","","","","","","","",""
"898","","f","psychophysics","32","163253","0.0-8.0-0.0-1.0-0.0-0.11","7","7","7","7","7","5","5","5","5","5","5","2","1","2","1","2","2","2","2","5","5","5","5","5","5","5","5","5","5","7","8","8","8","8","7","7","9","7","7","7","7","7","7","7","7","1","7","7","1","7","7","7","7","7","7","7","7","7","7","7","7","7","7","7","7","7","7","7","7","7","6","7","7","7","7","7","7","7","7","633753940910931968","付","330","Male","[""坏他"",""好我"",""坏我"",""好他""]","[""弱他"",""强我"",""弱我"",""强他""]","","","","","","","","match","","","","","","","","","","key","f","16.66530973451321","768","428","f","true","match","img/circle.png","坏他","坏他","prac_ALT2_moral","practice_moral","","","","","","","","",""
"null","<span style='color:GreenYellow; font-size: 70px;'>正确! </span>","null","html-keyboard-response","33","163754","0.0-8.0-0.0-1.0-0.0-1.11","7","7","7","7","7","5","5","5","5","5","5","2","1","2","1","2","2","2","2","5","5","5","5","5","5","5","5","5","5","7","8","8","8","8","7","7","9","7","7","7","7","7","7","7","7","1","7","7","1","7","7","7","7","7","7","7","7","7","7","7","7","7","7","7","7","7","7","7","7","7","6","7","7","7","7","7","7","7","7","633753940910931968","付","330","Male","[""坏他"",""好我"",""坏我"",""好他""]","[""弱他"",""强我"",""弱我"",""强他""]","","","","","","","","","","","","","","","","","","","","","","","","","","","","","","feedback_test","","","","","","","","",""
"800","","j","psychophysics","34","165556","0.0-8.0-0.0-1.0-0.0-0.12","7","7","7","7","7","5","5","5","5","5","5","2","1","2","1","2","2","2","2","5","5","5","5","5","5","5","5","5","5","7","8","8","8","8","7","7","9","7","7","7","7","7","7","7","7","1","7","7","1","7","7","7","7","7","7","7","7","7","7","7","7","7","7","7","7","7","7","7","7","7","6","7","7","7","7","7","7","7","7","633753940910931968","付","330","Male","[""坏他"",""好我"",""坏我"",""好他""]","[""弱他"",""强我"",""弱我"",""强他""]","","","","","","","","nonmatch","","","","","","","","","","key","j","16.66869158878521","768","428","j","true","nonmatch","img/triangle.png","好我","坏我","prac_ALT2_moral","practice_moral","","","","","","","","",""
"null","<span style='color:GreenYellow; font-size: 70px;'>正确! </span>","null","html-keyboard-response","35","166057","0.0-8.0-0.0-1.0-0.0-1.12","7","7","7","7","7","5","5","5","5","5","5","2","1","2","1","2","2","2","2","5","5","5","5","5","5","5","5","5","5","7","8","8","8","8","7","7","9","7","7","7","7","7","7","7","7","1","7","7","1","7","7","7","7","7","7","7","7","7","7","7","7","7","7","7","7","7","7","7","7","7","6","7","7","7","7","7","7","7","7","633753940910931968","付","330","Male","[""坏他"",""好我"",""坏我"",""好他""]","[""弱他"",""强我"",""弱我"",""强他""]","","","","","","","","","","","","","","","","","","","","","","","","","","","","","","feedback_test","","","","","","","","",""
"808","","f","psychophysics","36","167867","0.0-8.0-0.0-1.0-0.0-0.13","7","7","7","7","7","5","5","5","5","5","5","2","1","2","1","2","2","2","2","5","5","5","5","5","5","5","5","5","5","7","8","8","8","8","7","7","9","7","7","7","7","7","7","7","7","1","7","7","1","7","7","7","7","7","7","7","7","7","7","7","7","7","7","7","7","7","7","7","7","7","6","7","7","7","7","7","7","7","7","633753940910931968","付","330","Male","[""坏他"",""好我"",""坏我"",""好他""]","[""弱他"",""强我"",""弱我"",""强他""]","","","","","","","","match","","","","","","","","","","key","f","16.664833333333295","768","428","f","true","match","img/triangle.png","坏我","坏我","prac_ALT2_moral","practice_moral","","","","","","","","",""
"null","<span style='color:GreenYellow; font-size: 70px;'>正确! </span>","null","html-keyboard-response","37","168368","0.0-8.0-0.0-1.0-0.0-1.13","7","7","7","7","7","5","5","5","5","5","5","2","1","2","1","2","2","2","2","5","5","5","5","5","5","5","5","5","5","7","8","8","8","8","7","7","9","7","7","7","7","7","7","7","7","1","7","7","1","7","7","7","7","7","7","7","7","7","7","7","7","7","7","7","7","7","7","7","7","7","6","7","7","7","7","7","7","7","7","633753940910931968","付","330","Male","[""坏他"",""好我"",""坏我"",""好他""]","[""弱他"",""强我"",""弱我"",""强他""]","","","","","","","","","","","","","","","","","","","","","","","","","","","","","","feedback_test","","","","","","","","",""
"898","","f","psychophysics","38","170267","0.0-8.0-0.0-1.0-0.0-0.14","7","7","7","7","7","5","5","5","5","5","5","2","1","2","1","2","2","2","2","5","5","5","5","5","5","5","5","5","5","7","8","8","8","8","7","7","9","7","7","7","7","7","7","7","7","1","7","7","1","7","7","7","7","7","7","7","7","7","7","7","7","7","7","7","7","7","7","7","7","7","6","7","7","7","7","7","7","7","7","633753940910931968","付","330","Male","[""坏他"",""好我"",""坏我"",""好他""]","[""弱他"",""强我"",""弱我"",""强他""]","","","","","","","","match","","","","","","","","","","key","f","16.665893805309597","768","428","f","true","match","img/circle.png","坏他","坏他","prac_ALT2_moral","practice_moral","","","","","","","","",""
"null","<span style='color:GreenYellow; font-size: 70px;'>正确! </span>","null","html-keyboard-response","39","170769","0.0-8.0-0.0-1.0-0.0-1.14","7","7","7","7","7","5","5","5","5","5","5","2","1","2","1","2","2","2","2","5","5","5","5","5","5","5","5","5","5","7","8","8","8","8","7","7","9","7","7","7","7","7","7","7","7","1","7","7","1","7","7","7","7","7","7","7","7","7","7","7","7","7","7","7","7","7","7","7","7","7","6","7","7","7","7","7","7","7","7","633753940910931968","付","330","Male","[""坏他"",""好我"",""坏我"",""好他""]","[""弱他"",""强我"",""弱我"",""强他""]","","","","","","","","","","","","","","","","","","","","","","","","","","","","","","feedback_test","","","","","","","","",""
"691","","j","psychophysics","40","172460","0.0-8.0-0.0-1.0-0.0-0.15","7","7","7","7","7","5","5","5","5","5","5","2","1","2","1","2","2","2","2","5","5","5","5","5","5","5","5","5","5","7","8","8","8","8","7","7","9","7","7","7","7","7","7","7","7","1","7","7","1","7","7","7","7","7","7","7","7","7","7","7","7","7","7","7","7","7","7","7","7","7","6","7","7","7","7","7","7","7","7","633753940910931968","付","330","Male","[""坏他"",""好我"",""坏我"",""好他""]","[""弱他"",""强我"",""弱我"",""强他""]","","","","","","","","nonmatch","","","","","","","","","","key","j","16.666359999999987","768","428","j","true","nonmatch","img/triangle.png","坏他","坏我","prac_ALT2_moral","practice_moral","","","","","","","","",""
"null","<span style='color:GreenYellow; font-size: 70px;'>正确! </span>","null","html-keyboard-response","41","172962","0.0-8.0-0.0-1.0-0.0-1.15","7","7","7","7","7","5","5","5","5","5","5","2","1","2","1","2","2","2","2","5","5","5","5","5","5","5","5","5","5","7","8","8","8","8","7","7","9","7","7","7","7","7","7","7","7","1","7","7","1","7","7","7","7","7","7","7","7","7","7","7","7","7","7","7","7","7","7","7","7","7","6","7","7","7","7","7","7","7","7","633753940910931968","付","330","Male","[""坏他"",""好我"",""坏我"",""好他""]","[""弱他"",""强我"",""弱我"",""强他""]","","","","","","","","","","","","","","","","","","","","","","","","","","","","","","feedback_test","","","","","","","","",""
"625","","f","psychophysics","42","174588","0.0-8.0-0.0-1.0-0.0-0.16","7","7","7","7","7","5","5","5","5","5","5","2","1","2","1","2","2","2","2","5","5","5","5","5","5","5","5","5","5","7","8","8","8","8","7","7","9","7","7","7","7","7","7","7","7","1","7","7","1","7","7","7","7","7","7","7","7","7","7","7","7","7","7","7","7","7","7","7","7","7","6","7","7","7","7","7","7","7","7","633753940910931968","付","330","Male","[""坏他"",""好我"",""坏我"",""好他""]","[""弱他"",""强我"",""弱我"",""强他""]","","","","","","","","match","","","","","","","","","","key","f","16.66679166666654","768","428","f","true","match","img/hexagon.png","好他","好他","prac_ALT2_moral","practice_moral","","","","","","","","",""
"null","<span style='color:GreenYellow; font-size: 70px;'>正确! </span>","null","html-keyboard-response","43","175089","0.0-8.0-0.0-1.0-0.0-1.16","7","7","7","7","7","5","5","5","5","5","5","2","1","2","1","2","2","2","2","5","5","5","5","5","5","5","5","5","5","7","8","8","8","8","7","7","9","7","7","7","7","7","7","7","7","1","7","7","1","7","7","7","7","7","7","7","7","7","7","7","7","7","7","7","7","7","7","7","7","7","6","7","7","7","7","7","7","7","7","633753940910931968","付","330","Male","[""坏他"",""好我"",""坏我"",""好他""]","[""弱他"",""强我"",""弱我"",""强他""]","","","","","","","","","","","","","","","","","","","","","","","","","","","","","","feedback_test","","","","","","","","",""
"618","","j","psychophysics","44","176709","0.0-8.0-0.0-1.0-0.0-0.17","7","7","7","7","7","5","5","5","5","5","5","2","1","2","1","2","2","2","2","5","5","5","5","5","5","5","5","5","5","7","8","8","8","8","7","7","9","7","7","7","7","7","7","7","7","1","7","7","1","7","7","7","7","7","7","7","7","7","7","7","7","7","7","7","7","7","7","7","7","7","6","7","7","7","7","7","7","7","7","633753940910931968","付","330","Male","[""坏他"",""好我"",""坏我"",""好他""]","[""弱他"",""强我"",""弱我"",""强他""]","","","","","","","","nonmatch","","","","","","","","","","key","j","16.666531250000236","768","428","f","false","match","img/triangle.png","坏我","坏我","prac_ALT2_moral","practice_moral","","","","","","","","",""
"null","<span style='color:red; font-size: 70px;'>错误! </span>","null","html-keyboard-response","45","177212","0.0-8.0-0.0-1.0-0.0-1.17","7","7","7","7","7","5","5","5","5","5","5","2","1","2","1","2","2","2","2","5","5","5","5","5","5","5","5","5","5","7","8","8","8","8","7","7","9","7","7","7","7","7","7","7","7","1","7","7","1","7","7","7","7","7","7","7","7","7","7","7","7","7","7","7","7","7","7","7","7","7","6","7","7","7","7","7","7","7","7","633753940910931968","付","330","Male","[""坏他"",""好我"",""坏我"",""好他""]","[""弱他"",""强我"",""弱我"",""强他""]","","","","","","","","","","","","","","","","","","","","","","","","","","","","","","feedback_test","","","","","","","","",""
"566","","f","psychophysics","46","178781","0.0-8.0-0.0-1.0-0.0-0.18","7","7","7","7","7","5","5","5","5","5","5","2","1","2","1","2","2","2","2","5","5","5","5","5","5","5","5","5","5","7","8","8","8","8","7","7","9","7","7","7","7","7","7","7","7","1","7","7","1","7","7","7","7","7","7","7","7","7","7","7","7","7","7","7","7","7","7","7","7","7","6","7","7","7","7","7","7","7","7","633753940910931968","付","330","Male","[""坏他"",""好我"",""坏我"",""好他""]","[""弱他"",""强我"",""弱我"",""强他""]","","","","","","","","match","","","","","","","","","","key","f","16.66658064516127","768","428","f","true","match","img/square.png","好我","好我","prac_ALT2_moral","practice_moral","","","","","","","","",""
"null","<span style='color:GreenYellow; font-size: 70px;'>正确! </span>","null","html-keyboard-response","47","179283","0.0-8.0-0.0-1.0-0.0-1.18","7","7","7","7","7","5","5","5","5","5","5","2","1","2","1","2","2","2","2","5","5","5","5","5","5","5","5","5","5","7","8","8","8","8","7","7","9","7","7","7","7","7","7","7","7","1","7","7","1","7","7","7","7","7","7","7","7","7","7","7","7","7","7","7","7","7","7","7","7","7","6","7","7","7","7","7","7","7","7","633753940910931968","付","330","Male","[""坏他"",""好我"",""坏我"",""好他""]","[""弱他"",""强我"",""弱我"",""强他""]","","","","","","","","","","","","","","","","","","","","","","","","","","","","","","feedback_test","","","","","","","","",""
"579","","j","psychophysics","48","180864","0.0-8.0-0.0-1.0-0.0-0.19","7","7","7","7","7","5","5","5","5","5","5","2","1","2","1","2","2","2","2","5","5","5","5","5","5","5","5","5","5","7","8","8","8","8","7","7","9","7","7","7","7","7","7","7","7","1","7","7","1","7","7","7","7","7","7","7","7","7","7","7","7","7","7","7","7","7","7","7","7","7","6","7","7","7","7","7","7","7","7","633753940910931968","付","330","Male","[""坏他"",""好我"",""坏我"",""好他""]","[""弱他"",""强我"",""弱我"",""强他""]","","","","","","","","nonmatch","","","","","","","","","","key","j","16.664712765957525","768","428","j","true","nonmatch","img/square.png","坏他","好我","prac_ALT2_moral","practice_moral","","","","","","","","",""
"null","<span style='color:GreenYellow; font-size: 70px;'>正确! </span>","null","html-keyboard-response","49","181366","0.0-8.0-0.0-1.0-0.0-1.19","7","7","7","7","7","5","5","5","5","5","5","2","1","2","1","2","2","2","2","5","5","5","5","5","5","5","5","5","5","7","8","8","8","8","7","7","9","7","7","7","7","7","7","7","7","1","7","7","1","7","7","7","7","7","7","7","7","7","7","7","7","7","7","7","7","7","7","7","7","7","6","7","7","7","7","7","7","7","7","633753940910931968","付","330","Male","[""坏他"",""好我"",""坏我"",""好他""]","[""弱他"",""强我"",""弱我"",""强他""]","","","","","","","","","","","","","","","","","","","","","","","","","","","","","","feedback_test","","","","","","","","",""
"642","","j","psychophysics","50","183011","0.0-8.0-0.0-1.0-0.0-0.20","7","7","7","7","7","5","5","5","5","5","5","2","1","2","1","2","2","2","2","5","5","5","5","5","5","5","5","5","5","7","8","8","8","8","7","7","9","7","7","7","7","7","7","7","7","1","7","7","1","7","7","7","7","7","7","7","7","7","7","7","7","7","7","7","7","7","7","7","7","7","6","7","7","7","7","7","7","7","7","633753940910931968","付","330","Male","[""坏他"",""好我"",""坏我"",""好他""]","[""弱他"",""强我"",""弱我"",""强他""]","","","","","","","","nonmatch","","","","","","","","","","key","j","16.66792783505144","768","428","j","true","nonmatch","img/square.png","坏我","好我","prac_ALT2_moral","practice_moral","","","","","","","","",""
"null","<span style='color:GreenYellow; font-size: 70px;'>正确! </span>","null","html-keyboard-response","51","183512","0.0-8.0-0.0-1.0-0.0-1.20","7","7","7","7","7","5","5","5","5","5","5","2","1","2","1","2","2","2","2","5","5","5","5","5","5","5","5","5","5","7","8","8","8","8","7","7","9","7","7","7","7","7","7","7","7","1","7","7","1","7","7","7","7","7","7","7","7","7","7","7","7","7","7","7","7","7","7","7","7","7","6","7","7","7","7","7","7","7","7","633753940910931968","付","330","Male","[""坏他"",""好我"",""坏我"",""好他""]","[""弱他"",""强我"",""弱我"",""强他""]","","","","","","","","","","","","","","","","","","","","","","","","","","","","","","feedback_test","","","","","","","","",""
"769","","j","psychophysics","52","185283","0.0-8.0-0.0-1.0-0.0-0.21","7","7","7","7","7","5","5","5","5","5","5","2","1","2","1","2","2","2","2","5","5","5","5","5","5","5","5","5","5","7","8","8","8","8","7","7","9","7","7","7","7","7","7","7","7","1","7","7","1","7","7","7","7","7","7","7","7","7","7","7","7","7","7","7","7","7","7","7","7","7","6","7","7","7","7","7","7","7","7","633753940910931968","付","330","Male","[""坏他"",""好我"",""坏我"",""好他""]","[""弱他"",""强我"",""弱我"",""强他""]","","","","","","","","nonmatch","","","","","","","","","","key","j","16.666285714285912","768","428","f","false","match","img/hexagon.png","好他","好他","prac_ALT2_moral","practice_moral","","","","","","","","",""
"null","<span style='color:red; font-size: 70px;'>错误! </span>","null","html-keyboard-response","53","185785","0.0-8.0-0.0-1.0-0.0-1.21","7","7","7","7","7","5","5","5","5","5","5","2","1","2","1","2","2","2","2","5","5","5","5","5","5","5","5","5","5","7","8","8","8","8","7","7","9","7","7","7","7","7","7","7","7","1","7","7","1","7","7","7","7","7","7","7","7","7","7","7","7","7","7","7","7","7","7","7","7","7","6","7","7","7","7","7","7","7","7","633753940910931968","付","330","Male","[""坏他"",""好我"",""坏我"",""好他""]","[""弱他"",""强我"",""弱我"",""强他""]","","","","","","","","","","","","","","","","","","","","","","","","","","","","","","feedback_test","","","","","","","","",""
"848","","f","psychophysics","54","187637","0.0-8.0-0.0-1.0-0.0-0.22","7","7","7","7","7","5","5","5","5","5","5","2","1","2","1","2","2","2","2","5","5","5","5","5","5","5","5","5","5","7","8","8","8","8","7","7","9","7","7","7","7","7","7","7","7","1","7","7","1","7","7","7","7","7","7","7","7","7","7","7","7","7","7","7","7","7","7","7","7","7","6","7","7","7","7","7","7","7","7","633753940910931968","付","330","Male","[""坏他"",""好我"",""坏我"",""好他""]","[""弱他"",""强我"",""弱我"",""强他""]","","","","","","","","match","","","","","","","","","","key","f","16.66689999999997","768","428","j","false","nonmatch","img/triangle.png","好他","坏我","prac_ALT2_moral","practice_moral","","","","","","","","",""
"null","<span style='color:red; font-size: 70px;'>错误! </span>","null","html-keyboard-response","55","188147","0.0-8.0-0.0-1.0-0.0-1.22","7","7","7","7","7","5","5","5","5","5","5","2","1","2","1","2","2","2","2","5","5","5","5","5","5","5","5","5","5","7","8","8","8","8","7","7","9","7","7","7","7","7","7","7","7","1","7","7","1","7","7","7","7","7","7","7","7","7","7","7","7","7","7","7","7","7","7","7","7","7","6","7","7","7","7","7","7","7","7","633753940910931968","付","330","Male","[""坏他"",""好我"",""坏我"",""好他""]","[""弱他"",""强我"",""弱我"",""强他""]","","","","","","","","","","","","","","","","","","","","","","","","","","","","","","feedback_test","","","","","","","","",""
"758","","j","psychophysics","56","189909","0.0-8.0-0.0-1.0-0.0-0.23","7","7","7","7","7","5","5","5","5","5","5","2","1","2","1","2","2","2","2","5","5","5","5","5","5","5","5","5","5","7","8","8","8","8","7","7","9","7","7","7","7","7","7","7","7","1","7","7","1","7","7","7","7","7","7","7","7","7","7","7","7","7","7","7","7","7","7","7","7","7","6","7","7","7","7","7","7","7","7","633753940910931968","付","330","Male","[""坏他"",""好我"",""坏我"",""好他""]","[""弱他"",""强我"",""弱我"",""强他""]","","","","","","","","nonmatch","","","","","","","","","","key","j","16.666240384615286","768","428","j","true","nonmatch","img/hexagon.png","好我","好他","prac_ALT2_moral","practice_moral","","","","","","","","",""
"null","<span style='color:GreenYellow; font-size: 70px;'>正确! </span>","null","html-keyboard-response","57","190411","0.0-8.0-0.0-1.0-0.0-1.23","7","7","7","7","7","5","5","5","5","5","5","2","1","2","1","2","2","2","2","5","5","5","5","5","5","5","5","5","5","7","8","8","8","8","7","7","9","7","7","7","7","7","7","7","7","1","7","7","1","7","7","7","7","7","7","7","7","7","7","7","7","7","7","7","7","7","7","7","7","7","6","7","7","7","7","7","7","7","7","633753940910931968","付","330","Male","[""坏他"",""好我"",""坏我"",""好他""]","[""弱他"",""强我"",""弱我"",""强他""]","","","","","","","","","","","","","","","","","","","","","","","","","","","","","","feedback_test","","","","","","","","",""
"995","","f","psychophysics","58","192412","0.0-8.0-0.0-1.0-0.0-0.24","7","7","7","7","7","5","5","5","5","5","5","2","1","2","1","2","2","2","2","5","5","5","5","5","5","5","5","5","5","7","8","8","8","8","7","7","9","7","7","7","7","7","7","7","7","1","7","7","1","7","7","7","7","7","7","7","7","7","7","7","7","7","7","7","7","7","7","7","7","7","6","7","7","7","7","7","7","7","7","633753940910931968","付","330","Male","[""坏他"",""好我"",""坏我"",""好他""]","[""弱他"",""强我"",""弱我"",""强他""]","","","","","","","","match","","","","","","","","","","key","f","16.66714285714273","768","428","j","false","nonmatch","img/circle.png","坏我","坏他","prac_ALT2_moral","practice_moral","","","","","","","","",""
"null","<span style='color:red; font-size: 70px;'>错误! </span>","null","html-keyboard-response","59","192915","0.0-8.0-0.0-1.0-0.0-1.24","7","7","7","7","7","5","5","5","5","5","5","2","1","2","1","2","2","2","2","5","5","5","5","5","5","5","5","5","5","7","8","8","8","8","7","7","9","7","7","7","7","7","7","7","7","1","7","7","1","7","7","7","7","7","7","7","7","7","7","7","7","7","7","7","7","7","7","7","7","7","6","7","7","7","7","7","7","7","7","633753940910931968","付","330","Male","[""坏他"",""好我"",""坏我"",""好他""]","[""弱他"",""强我"",""弱我"",""强他""]","","","","","","","","","","","","","","","","","","","","","","","","","","","","","","feedback_test","","","","","","","","",""
"944","","f","psychophysics","60","194860","0.0-8.0-0.0-1.0-0.0-0.25","7","7","7","7","7","5","5","5","5","5","5","2","1","2","1","2","2","2","2","5","5","5","5","5","5","5","5","5","5","7","8","8","8","8","7","7","9","7","7","7","7","7","7","7","7","1","7","7","1","7","7","7","7","7","7","7","7","7","7","7","7","7","7","7","7","7","7","7","7","7","6","7","7","7","7","7","7","7","7","633753940910931968","付","330","Male","[""坏他"",""好我"",""坏我"",""好他""]","[""弱他"",""强我"",""弱我"",""强他""]","","","","","","","","match","","","","","","","","","","key","f","16.666060869565296","768","428","j","false","nonmatch","img/square.png","好他","好我","prac_ALT2_moral","practice_moral","","","","","","","","",""
"null","<span style='color:red; font-size: 70px;'>错误! </span>","null","html-keyboard-response","61","195361","0.0-8.0-0.0-1.0-0.0-1.25","7","7","7","7","7","5","5","5","5","5","5","2","1","2","1","2","2","2","2","5","5","5","5","5","5","5","5","5","5","7","8","8","8","8","7","7","9","7","7","7","7","7","7","7","7","1","7","7","1","7","7","7","7","7","7","7","7","7","7","7","7","7","7","7","7","7","7","7","7","7","6","7","7","7","7","7","7","7","7","633753940910931968","付","330","Male","[""坏他"",""好我"",""坏我"",""好他""]","[""弱他"",""强我"",""弱我"",""强他""]","","","","","","","","","","","","","","","","","","","","","","","","","","","","","","feedback_test","","","","","","","","",""
"936","","j","psychophysics","62","197299","0.0-8.0-0.0-1.0-0.0-0.26","7","7","7","7","7","5","5","5","5","5","5","2","1","2","1","2","2","2","2","5","5","5","5","5","5","5","5","5","5","7","8","8","8","8","7","7","9","7","7","7","7","7","7","7","7","1","7","7","1","7","7","7","7","7","7","7","7","7","7","7","7","7","7","7","7","7","7","7","7","7","6","7","7","7","7","7","7","7","7","633753940910931968","付","330","Male","[""坏他"",""好我"",""坏我"",""好他""]","[""弱他"",""强我"",""弱我"",""强他""]","","","","","","","","nonmatch","","","","","","","","","","key","j","16.665834782608663","768","428","j","true","nonmatch","img/circle.png","好他","坏他","prac_ALT2_moral","practice_moral","","","","","","","","",""
"null","<span style='color:GreenYellow; font-size: 70px;'>正确! </span>","null","html-keyboard-response","63","197800","0.0-8.0-0.0-1.0-0.0-1.26","7","7","7","7","7","5","5","5","5","5","5","2","1","2","1","2","2","2","2","5","5","5","5","5","5","5","5","5","5","7","8","8","8","8","7","7","9","7","7","7","7","7","7","7","7","1","7","7","1","7","7","7","7","7","7","7","7","7","7","7","7","7","7","7","7","7","7","7","7","7","6","7","7","7","7","7","7","7","7","633753940910931968","付","330","Male","[""坏他"",""好我"",""坏我"",""好他""]","[""弱他"",""强我"",""弱我"",""强他""]","","","","","","","","","","","","","","","","","","","","","","","","","","","","","","feedback_test","","","","","","","","",""
"625","","f","psychophysics","64","199426","0.0-8.0-0.0-1.0-0.0-0.27","7","7","7","7","7","5","5","5","5","5","5","2","1","2","1","2","2","2","2","5","5","5","5","5","5","5","5","5","5","7","8","8","8","8","7","7","9","7","7","7","7","7","7","7","7","1","7","7","1","7","7","7","7","7","7","7","7","7","7","7","7","7","7","7","7","7","7","7","7","7","6","7","7","7","7","7","7","7","7","633753940910931968","付","330","Male","[""坏他"",""好我"",""坏我"",""好他""]","[""弱他"",""强我"",""弱我"",""强他""]","","","","","","","","match","","","","","","","","","","key","f","16.66443298969084","768","428","j","false","nonmatch","img/hexagon.png","好我","好他","prac_ALT2_moral","practice_moral","","","","","","","","",""
"null","<span style='color:red; font-size: 70px;'>错误! </span>","null","html-keyboard-response","65","199928","0.0-8.0-0.0-1.0-0.0-1.27","7","7","7","7","7","5","5","5","5","5","5","2","1","2","1","2","2","2","2","5","5","5","5","5","5","5","5","5","5","7","8","8","8","8","7","7","9","7","7","7","7","7","7","7","7","1","7","7","1","7","7","7","7","7","7","7","7","7","7","7","7","7","7","7","7","7","7","7","7","7","6","7","7","7","7","7","7","7","7","633753940910931968","付","330","Male","[""坏他"",""好我"",""坏我"",""好他""]","[""弱他"",""强我"",""弱我"",""强他""]","","","","","","","","","","","","","","","","","","","","","","","","","","","","","","feedback_test","","","","","","","","",""
"890","","j","psychophysics","66","201820","0.0-8.0-0.0-1.0-0.0-0.28","7","7","7","7","7","5","5","5","5","5","5","2","1","2","1","2","2","2","2","5","5","5","5","5","5","5","5","5","5","7","8","8","8","8","7","7","9","7","7","7","7","7","7","7","7","1","7","7","1","7","7","7","7","7","7","7","7","7","7","7","7","7","7","7","7","7","7","7","7","7","6","7","7","7","7","7","7","7","7","633753940910931968","付","330","Male","[""坏他"",""好我"",""坏我"",""好他""]","[""弱他"",""强我"",""弱我"",""强他""]","","","","","","","","nonmatch","","","","","","","","","","key","j","16.668642857142913","768","428","j","true","nonmatch","img/circle.png","好我","坏他","prac_ALT2_moral","practice_moral","","","","","","","","",""
"null","<span style='color:GreenYellow; font-size: 70px;'>正确! </span>","null","html-keyboard-response","67","202322","0.0-8.0-0.0-1.0-0.0-1.28","7","7","7","7","7","5","5","5","5","5","5","2","1","2","1","2","2","2","2","5","5","5","5","5","5","5","5","5","5","7","8","8","8","8","7","7","9","7","7","7","7","7","7","7","7","1","7","7","1","7","7","7","7","7","7","7","7","7","7","7","7","7","7","7","7","7","7","7","7","7","6","7","7","7","7","7","7","7","7","633753940910931968","付","330","Male","[""坏他"",""好我"",""坏我"",""好他""]","[""弱他"",""强我"",""弱我"",""强他""]","","","","","","","","","","","","","","","","","","","","","","","","","","","","","","feedback_test","","","","","","","","",""
"688","","f","psychophysics","68","204012","0.0-8.0-0.0-1.0-0.0-0.29","7","7","7","7","7","5","5","5","5","5","5","2","1","2","1","2","2","2","2","5","5","5","5","5","5","5","5","5","5","7","8","8","8","8","7","7","9","7","7","7","7","7","7","7","7","1","7","7","1","7","7","7","7","7","7","7","7","7","7","7","7","7","7","7","7","7","7","7","7","7","6","7","7","7","7","7","7","7","7","633753940910931968","付","330","Male","[""坏他"",""好我"",""坏我"",""好他""]","[""弱他"",""强我"",""弱我"",""强他""]","","","","","","","","match","","","","","","","","","","key","f","16.666752475247566","768","428","f","true","match","img/hexagon.png","好他","好他","prac_ALT2_moral","practice_moral","","","","","","","","",""
"null","<span style='color:GreenYellow; font-size: 70px;'>正确! </span>","null","html-keyboard-response","69","204513","0.0-8.0-0.0-1.0-0.0-1.29","7","7","7","7","7","5","5","5","5","5","5","2","1","2","1","2","2","2","2","5","5","5","5","5","5","5","5","5","5","7","8","8","8","8","7","7","9","7","7","7","7","7","7","7","7","1","7","7","1","7","7","7","7","7","7","7","7","7","7","7","7","7","7","7","7","7","7","7","7","7","6","7","7","7","7","7","7","7","7","633753940910931968","付","330","Male","[""坏他"",""好我"",""坏我"",""好他""]","[""弱他"",""强我"",""弱我"",""强他""]","","","","","","","","","","","","","","","","","","","","","","","","","","","","","","feedback_test","","","","","","","","",""
"574","","f","psychophysics","70","206090","0.0-8.0-0.0-1.0-0.0-0.30","7","7","7","7","7","5","5","5","5","5","5","2","1","2","1","2","2","2","2","5","5","5","5","5","5","5","5","5","5","7","8","8","8","8","7","7","9","7","7","7","7","7","7","7","7","1","7","7","1","7","7","7","7","7","7","7","7","7","7","7","7","7","7","7","7","7","7","7","7","7","6","7","7","7","7","7","7","7","7","633753940910931968","付","330","Male","[""坏他"",""好我"",""坏我"",""好他""]","[""弱他"",""强我"",""弱我"",""强他""]","","","","","","","","match","","","","","","","","","","key","f","16.666526881720362","768","428","f","true","match","img/hexagon.png","好他","好他","prac_ALT2_moral","practice_moral","","","","","","","","",""
"null","<span style='color:GreenYellow; font-size: 70px;'>正确! </span>","null","html-keyboard-response","71","206593","0.0-8.0-0.0-1.0-0.0-1.30","7","7","7","7","7","5","5","5","5","5","5","2","1","2","1","2","2","2","2","5","5","5","5","5","5","5","5","5","5","7","8","8","8","8","7","7","9","7","7","7","7","7","7","7","7","1","7","7","1","7","7","7","7","7","7","7","7","7","7","7","7","7","7","7","7","7","7","7","7","7","6","7","7","7","7","7","7","7","7","633753940910931968","付","330","Male","[""坏他"",""好我"",""坏我"",""好他""]","[""弱他"",""强我"",""弱我"",""强他""]","","","","","","","","","","","","","","","","","","","","","","","","","","","","","","feedback_test","","","","","","","","",""
"730","","j","psychophysics","72","208324","0.0-8.0-0.0-1.0-0.0-0.31","7","7","7","7","7","5","5","5","5","5","5","2","1","2","1","2","2","2","2","5","5","5","5","5","5","5","5","5","5","7","8","8","8","8","7","7","9","7","7","7","7","7","7","7","7","1","7","7","1","7","7","7","7","7","7","7","7","7","7","7","7","7","7","7","7","7","7","7","7","7","6","7","7","7","7","7","7","7","7","633753940910931968","付","330","Male","[""坏他"",""好我"",""坏我"",""好他""]","[""弱他"",""强我"",""弱我"",""强他""]","","","","","","","","nonmatch","","","","","","","","","","key","j","16.664803921568605","768","428","j","true","nonmatch","img/hexagon.png","坏我","好他","prac_ALT2_moral","practice_moral","","","","","","","","",""
"null","<span style='color:GreenYellow; font-size: 70px;'>正确! </span>","null","html-keyboard-response","73","208826","0.0-8.0-0.0-1.0-0.0-1.31","7","7","7","7","7","5","5","5","5","5","5","2","1","2","1","2","2","2","2","5","5","5","5","5","5","5","5","5","5","7","8","8","8","8","7","7","9","7","7","7","7","7","7","7","7","1","7","7","1","7","7","7","7","7","7","7","7","7","7","7","7","7","7","7","7","7","7","7","7","7","6","7","7","7","7","7","7","7","7","633753940910931968","付","330","Male","[""坏他"",""好我"",""坏我"",""好他""]","[""弱他"",""强我"",""弱我"",""强他""]","","","","","","","","","","","","","","","","","","","","","","","","","","","","","","feedback_test","","","","","","","","",""
"959","","j","psychophysics","74","210788","0.0-8.0-0.0-1.0-0.0-0.32","7","7","7","7","7","5","5","5","5","5","5","2","1","2","1","2","2","2","2","5","5","5","5","5","5","5","5","5","5","7","8","8","8","8","7","7","9","7","7","7","7","7","7","7","7","1","7","7","1","7","7","7","7","7","7","7","7","7","7","7","7","7","7","7","7","7","7","7","7","7","6","7","7","7","7","7","7","7","7","633753940910931968","付","330","Male","[""坏他"",""好我"",""坏我"",""好他""]","[""弱他"",""强我"",""弱我"",""强他""]","","","","","","","","nonmatch","","","","","","","","","","key","j","16.665637931034546","768","428","f","false","match","img/circle.png","坏他","坏他","prac_ALT2_moral","practice_moral","","","","","","","","",""
"null","<span style='color:red; font-size: 70px;'>错误! </span>","null","html-keyboard-response","75","211291","0.0-8.0-0.0-1.0-0.0-1.32","7","7","7","7","7","5","5","5","5","5","5","2","1","2","1","2","2","2","2","5","5","5","5","5","5","5","5","5","5","7","8","8","8","8","7","7","9","7","7","7","7","7","7","7","7","1","7","7","1","7","7","7","7","7","7","7","7","7","7","7","7","7","7","7","7","7","7","7","7","7","6","7","7","7","7","7","7","7","7","633753940910931968","付","330","Male","[""坏他"",""好我"",""坏我"",""好他""]","[""弱他"",""强我"",""弱我"",""强他""]","","","","","","","","","","","","","","","","","","","","","","","","","","","","","","feedback_test","","","","","","","","",""
"887","","f","psychophysics","76","213178","0.0-8.0-0.0-1.0-0.0-0.33","7","7","7","7","7","5","5","5","5","5","5","2","1","2","1","2","2","2","2","5","5","5","5","5","5","5","5","5","5","7","8","8","8","8","7","7","9","7","7","7","7","7","7","7","7","1","7","7","1","7","7","7","7","7","7","7","7","7","7","7","7","7","7","7","7","7","7","7","7","7","6","7","7","7","7","7","7","7","7","633753940910931968","付","330","Male","[""坏他"",""好我"",""坏我"",""好他""]","[""弱他"",""强我"",""弱我"",""强他""]","","","","","","","","match","","","","","","","","","","key","f","16.6654910714286","768","428","f","true","match","img/hexagon.png","好他","好他","prac_ALT2_moral","practice_moral","","","","","","","","",""
"null","<span style='color:GreenYellow; font-size: 70px;'>正确! </span>","null","html-keyboard-response","77","213679","0.0-8.0-0.0-1.0-0.0-1.33","7","7","7","7","7","5","5","5","5","5","5","2","1","2","1","2","2","2","2","5","5","5","5","5","5","5","5","5","5","7","8","8","8","8","7","7","9","7","7","7","7","7","7","7","7","1","7","7","1","7","7","7","7","7","7","7","7","7","7","7","7","7","7","7","7","7","7","7","7","7","6","7","7","7","7","7","7","7","7","633753940910931968","付","330","Male","[""坏他"",""好我"",""坏我"",""好他""]","[""弱他"",""强我"",""弱我"",""强他""]","","","","","","","","","","","","","","","","","","","","","","","","","","","","","","feedback_test","","","","","","","","",""
"810","","j","psychophysics","78","215491","0.0-8.0-0.0-1.0-0.0-0.34","7","7","7","7","7","5","5","5","5","5","5","2","1","2","1","2","2","2","2","5","5","5","5","5","5","5","5","5","5","7","8","8","8","8","7","7","9","7","7","7","7","7","7","7","7","1","7","7","1","7","7","7","7","7","7","7","7","7","7","7","7","7","7","7","7","7","7","7","7","7","6","7","7","7","7","7","7","7","7","633753940910931968","付","330","Male","[""坏他"",""好我"",""坏我"",""好他""]","[""弱他"",""强我"",""弱我"",""强他""]","","","","","","","","nonmatch","","","","","","","","","","key","j","16.665261682242896","768","428","j","true","nonmatch","img/square.png","坏他","好我","prac_ALT2_moral","practice_moral","","","","","","","","",""
"null","<span style='color:GreenYellow; font-size: 70px;'>正确! </span>","null","html-keyboard-response","79","215992","0.0-8.0-0.0-1.0-0.0-1.34","7","7","7","7","7","5","5","5","5","5","5","2","1","2","1","2","2","2","2","5","5","5","5","5","5","5","5","5","5","7","8","8","8","8","7","7","9","7","7","7","7","7","7","7","7","1","7","7","1","7","7","7","7","7","7","7","7","7","7","7","7","7","7","7","7","7","7","7","7","7","6","7","7","7","7","7","7","7","7","633753940910931968","付","330","Male","[""坏他"",""好我"",""坏我"",""好他""]","[""弱他"",""强我"",""弱我"",""强他""]","","","","","","","","","","","","","","","","","","","","","","","","","","","","","","feedback_test","","","","","","","","",""
"745","","f","psychophysics","80","217740","0.0-8.0-0.0-1.0-0.0-0.35","7","7","7","7","7","5","5","5","5","5","5","2","1","2","1","2","2","2","2","5","5","5","5","5","5","5","5","5","5","7","8","8","8","8","7","7","9","7","7","7","7","7","7","7","7","1","7","7","1","7","7","7","7","7","7","7","7","7","7","7","7","7","7","7","7","7","7","7","7","7","6","7","7","7","7","7","7","7","7","633753940910931968","付","330","Male","[""坏他"",""好我"",""坏我"",""好他""]","[""弱他"",""强我"",""弱我"",""强他""]","","","","","","","","match","","","","","","","","","","key","f","16.665980582524178","768","428","f","true","match","img/circle.png","坏他","坏他","prac_ALT2_moral","practice_moral","","","","","","","","",""
"null","<span style='color:GreenYellow; font-size: 70px;'>正确! </span>","null","html-keyboard-response","81","218242","0.0-8.0-0.0-1.0-0.0-1.35","7","7","7","7","7","5","5","5","5","5","5","2","1","2","1","2","2","2","2","5","5","5","5","5","5","5","5","5","5","7","8","8","8","8","7","7","9","7","7","7","7","7","7","7","7","1","7","7","1","7","7","7","7","7","7","7","7","7","7","7","7","7","7","7","7","7","7","7","7","7","6","7","7","7","7","7","7","7","7","633753940910931968","付","330","Male","[""坏他"",""好我"",""坏我"",""好他""]","[""弱他"",""强我"",""弱我"",""强他""]","","","","","","","","","","","","","","","","","","","","","","","","","","","","","","feedback_test","","","","","","","","",""
"839","","j","psychophysics","82","220084","0.0-8.0-0.0-1.0-0.0-0.36","7","7","7","7","7","5","5","5","5","5","5","2","1","2","1","2","2","2","2","5","5","5","5","5","5","5","5","5","5","7","8","8","8","8","7","7","9","7","7","7","7","7","7","7","7","1","7","7","1","7","7","7","7","7","7","7","7","7","7","7","7","7","7","7","7","7","7","7","7","7","6","7","7","7","7","7","7","7","7","633753940910931968","付","330","Male","[""坏他"",""好我"",""坏我"",""好他""]","[""弱他"",""强我"",""弱我"",""强他""]","","","","","","","","nonmatch","","","","","","","","","","key","j","16.664431192660373","768","428","j","true","nonmatch","img/triangle.png","坏他","坏我","prac_ALT2_moral","practice_moral","","","","","","","","",""
"null","<span style='color:GreenYellow; font-size: 70px;'>正确! </span>","null","html-keyboard-response","83","220586","0.0-8.0-0.0-1.0-0.0-1.36","7","7","7","7","7","5","5","5","5","5","5","2","1","2","1","2","2","2","2","5","5","5","5","5","5","5","5","5","5","7","8","8","8","8","7","7","9","7","7","7","7","7","7","7","7","1","7","7","1","7","7","7","7","7","7","7","7","7","7","7","7","7","7","7","7","7","7","7","7","7","6","7","7","7","7","7","7","7","7","633753940910931968","付","330","Male","[""坏他"",""好我"",""坏我"",""好他""]","[""弱他"",""强我"",""弱我"",""强他""]","","","","","","","","","","","","","","","","","","","","","","","","","","","","","","feedback_test","","","","","","","","",""
"629","","j","psychophysics","84","222217","0.0-8.0-0.0-1.0-0.0-0.37","7","7","7","7","7","5","5","5","5","5","5","2","1","2","1","2","2","2","2","5","5","5","5","5","5","5","5","5","5","7","8","8","8","8","7","7","9","7","7","7","7","7","7","7","7","1","7","7","1","7","7","7","7","7","7","7","7","7","7","7","7","7","7","7","7","7","7","7","7","7","6","7","7","7","7","7","7","7","7","633753940910931968","付","330","Male","[""坏他"",""好我"",""坏我"",""好他""]","[""弱他"",""强我"",""弱我"",""强他""]","","","","","","","","nonmatch","","","","","","","","","","key","j","16.667309278350434","768","428","j","true","nonmatch","img/square.png","坏我","好我","prac_ALT2_moral","practice_moral","","","","","","","","",""
"null","<span style='color:GreenYellow; font-size: 70px;'>正确! </span>","null","html-keyboard-response","85","222718","0.0-8.0-0.0-1.0-0.0-1.37","7","7","7","7","7","5","5","5","5","5","5","2","1","2","1","2","2","2","2","5","5","5","5","5","5","5","5","5","5","7","8","8","8","8","7","7","9","7","7","7","7","7","7","7","7","1","7","7","1","7","7","7","7","7","7","7","7","7","7","7","7","7","7","7","7","7","7","7","7","7","6","7","7","7","7","7","7","7","7","633753940910931968","付","330","Male","[""坏他"",""好我"",""坏我"",""好他""]","[""弱他"",""强我"",""弱我"",""强他""]","","","","","","","","","","","","","","","","","","","","","","","","","","","","","","feedback_test","","","","","","","","",""
"739","","j","psychophysics","86","224458","0.0-8.0-0.0-1.0-0.0-0.38","7","7","7","7","7","5","5","5","5","5","5","2","1","2","1","2","2","2","2","5","5","5","5","5","5","5","5","5","5","7","8","8","8","8","7","7","9","7","7","7","7","7","7","7","7","1","7","7","1","7","7","7","7","7","7","7","7","7","7","7","7","7","7","7","7","7","7","7","7","7","6","7","7","7","7","7","7","7","7","633753940910931968","付","330","Male","[""坏他"",""好我"",""坏我"",""好他""]","[""弱他"",""强我"",""弱我"",""强他""]","","","","","","","","nonmatch","","","","","","","","","","key","j","16.66674038461525","768","428","f","false","match","img/circle.png","坏他","坏他","prac_ALT2_moral","practice_moral","","","","","","","","",""
"null","<span style='color:red; font-size: 70px;'>错误! </span>","null","html-keyboard-response","87","224959","0.0-8.0-0.0-1.0-0.0-1.38","7","7","7","7","7","5","5","5","5","5","5","2","1","2","1","2","2","2","2","5","5","5","5","5","5","5","5","5","5","7","8","8","8","8","7","7","9","7","7","7","7","7","7","7","7","1","7","7","1","7","7","7","7","7","7","7","7","7","7","7","7","7","7","7","7","7","7","7","7","7","6","7","7","7","7","7","7","7","7","633753940910931968","付","330","Male","[""坏他"",""好我"",""坏我"",""好他""]","[""弱他"",""强我"",""弱我"",""强他""]","","","","","","","","","","","","","","","","","","","","","","","","","","","","","","feedback_test","","","","","","","","",""
"819","","f","psychophysics","88","226779","0.0-8.0-0.0-1.0-0.0-0.39","7","7","7","7","7","5","5","5","5","5","5","2","1","2","1","2","2","2","2","5","5","5","5","5","5","5","5","5","5","7","8","8","8","8","7","7","9","7","7","7","7","7","7","7","7","1","7","7","1","7","7","7","7","7","7","7","7","7","7","7","7","7","7","7","7","7","7","7","7","7","6","7","7","7","7","7","7","7","7","633753940910931968","付","330","Male","[""坏他"",""好我"",""坏我"",""好他""]","[""弱他"",""强我"",""弱我"",""强他""]","","","","","","","","match","","","","","","","","","","key","f","16.665111111111063","768","428","j","false","nonmatch","img/hexagon.png","坏他","好他","prac_ALT2_moral","practice_moral","","","","","","","","",""
"null","<span style='color:red; font-size: 70px;'>错误! </span>","null","html-keyboard-response","89","227280","0.0-8.0-0.0-1.0-0.0-1.39","7","7","7","7","7","5","5","5","5","5","5","2","1","2","1","2","2","2","2","5","5","5","5","5","5","5","5","5","5","7","8","8","8","8","7","7","9","7","7","7","7","7","7","7","7","1","7","7","1","7","7","7","7","7","7","7","7","7","7","7","7","7","7","7","7","7","7","7","7","7","6","7","7","7","7","7","7","7","7","633753940910931968","付","330","Male","[""坏他"",""好我"",""坏我"",""好他""]","[""弱他"",""强我"",""弱我"",""强他""]","","","","","","","","","","","","","","","","","","","","","","","","","","","","","","feedback_test","","","","","","","","",""
"1094","","j","psychophysics","90","229376","0.0-8.0-0.0-1.0-0.0-0.40","7","7","7","7","7","5","5","5","5","5","5","2","1","2","1","2","2","2","2","5","5","5","5","5","5","5","5","5","5","7","8","8","8","8","7","7","9","7","7","7","7","7","7","7","7","1","7","7","1","7","7","7","7","7","7","7","7","7","7","7","7","7","7","7","7","7","7","7","7","7","6","7","7","7","7","7","7","7","7","633753940910931968","付","330","Male","[""坏他"",""好我"",""坏我"",""好他""]","[""弱他"",""强我"",""弱我"",""强他""]","","","","","","","","nonmatch","","","","","","","","","","key","j","16.666632000000217","768","428","j","true","nonmatch","img/triangle.png","好他","坏我","prac_ALT2_moral","practice_moral","","","","","","","","",""
"null","<span style='color:GreenYellow; font-size: 70px;'>正确! </span>","null","html-keyboard-response","91","229877","0.0-8.0-0.0-1.0-0.0-1.40","7","7","7","7","7","5","5","5","5","5","5","2","1","2","1","2","2","2","2","5","5","5","5","5","5","5","5","5","5","7","8","8","8","8","7","7","9","7","7","7","7","7","7","7","7","1","7","7","1","7","7","7","7","7","7","7","7","7","7","7","7","7","7","7","7","7","7","7","7","7","6","7","7","7","7","7","7","7","7","633753940910931968","付","330","Male","[""坏他"",""好我"",""坏我"",""好他""]","[""弱他"",""强我"",""弱我"",""强他""]","","","","","","","","","","","","","","","","","","","","","","","","","","","","","","feedback_test","","","","","","","","",""
"627","","f","psychophysics","92","231508","0.0-8.0-0.0-1.0-0.0-0.41","7","7","7","7","7","5","5","5","5","5","5","2","1","2","1","2","2","2","2","5","5","5","5","5","5","5","5","5","5","7","8","8","8","8","7","7","9","7","7","7","7","7","7","7","7","1","7","7","1","7","7","7","7","7","7","7","7","7","7","7","7","7","7","7","7","7","7","7","7","7","6","7","7","7","7","7","7","7","7","633753940910931968","付","330","Male","[""坏他"",""好我"",""坏我"",""好他""]","[""弱他"",""强我"",""弱我"",""强他""]","","","","","","","","match","","","","","","","","","","key","f","16.66783505154638","768","428","f","true","match","img/triangle.png","坏我","坏我","prac_ALT2_moral","practice_moral","","","","","","","","",""
"null","<span style='color:GreenYellow; font-size: 70px;'>正确! </span>","null","html-keyboard-response","93","232010","0.0-8.0-0.0-1.0-0.0-1.41","7","7","7","7","7","5","5","5","5","5","5","2","1","2","1","2","2","2","2","5","5","5","5","5","5","5","5","5","5","7","8","8","8","8","7","7","9","7","7","7","7","7","7","7","7","1","7","7","1","7","7","7","7","7","7","7","7","7","7","7","7","7","7","7","7","7","7","7","7","7","6","7","7","7","7","7","7","7","7","633753940910931968","付","330","Male","[""坏他"",""好我"",""坏我"",""好他""]","[""弱他"",""强我"",""弱我"",""强他""]","","","","","","","","","","","","","","","","","","","","","","","","","","","","","","feedback_test","","","","","","","","",""
"822","","j","psychophysics","94","233836","0.0-8.0-0.0-1.0-0.0-0.42","7","7","7","7","7","5","5","5","5","5","5","2","1","2","1","2","2","2","2","5","5","5","5","5","5","5","5","5","5","7","8","8","8","8","7","7","9","7","7","7","7","7","7","7","7","1","7","7","1","7","7","7","7","7","7","7","7","7","7","7","7","7","7","7","7","7","7","7","7","7","6","7","7","7","7","7","7","7","7","633753940910931968","付","330","Male","[""坏他"",""好我"",""坏我"",""好他""]","[""弱他"",""强我"",""弱我"",""强他""]","","","","","","","","nonmatch","","","","","","","","","","key","j","16.669398148147998","768","428","f","false","match","img/square.png","好我","好我","prac_ALT2_moral","practice_moral","","","","","","","","",""
"null","<span style='color:red; font-size: 70px;'>错误! </span>","null","html-keyboard-response","95","234338","0.0-8.0-0.0-1.0-0.0-1.42","7","7","7","7","7","5","5","5","5","5","5","2","1","2","1","2","2","2","2","5","5","5","5","5","5","5","5","5","5","7","8","8","8","8","7","7","9","7","7","7","7","7","7","7","7","1","7","7","1","7","7","7","7","7","7","7","7","7","7","7","7","7","7","7","7","7","7","7","7","7","6","7","7","7","7","7","7","7","7","633753940910931968","付","330","Male","[""坏他"",""好我"",""坏我"",""好他""]","[""弱他"",""强我"",""弱我"",""强他""]","","","","","","","","","","","","","","","","","","","","","","","","","","","","","","feedback_test","","","","","","","","",""
"591","","f","psychophysics","96","235932","0.0-8.0-0.0-1.0-0.0-0.43","7","7","7","7","7","5","5","5","5","5","5","2","1","2","1","2","2","2","2","5","5","5","5","5","5","5","5","5","5","7","8","8","8","8","7","7","9","7","7","7","7","7","7","7","7","1","7","7","1","7","7","7","7","7","7","7","7","7","7","7","7","7","7","7","7","7","7","7","7","7","6","7","7","7","7","7","7","7","7","633753940910931968","付","330","Male","[""坏他"",""好我"",""坏我"",""好他""]","[""弱他"",""强我"",""弱我"",""强他""]","","","","","","","","match","","","","","","","","","","key","f","16.664723404255284","768","428","f","true","match","img/square.png","好我","好我","prac_ALT2_moral","practice_moral","","","","","","","","",""
"null","<span style='color:GreenYellow; font-size: 70px;'>正确! </span>","null","html-keyboard-response","97","236433","0.0-8.0-0.0-1.0-0.0-1.43","7","7","7","7","7","5","5","5","5","5","5","2","1","2","1","2","2","2","2","5","5","5","5","5","5","5","5","5","5","7","8","8","8","8","7","7","9","7","7","7","7","7","7","7","7","1","7","7","1","7","7","7","7","7","7","7","7","7","7","7","7","7","7","7","7","7","7","7","7","7","6","7","7","7","7","7","7","7","7","633753940910931968","付","330","Male","[""坏他"",""好我"",""坏我"",""好他""]","[""弱他"",""强我"",""弱我"",""强他""]","","","","","","","","","","","","","","","","","","","","","","","","","","","","","","feedback_test","","","","","","","","",""
"916","","f","psychophysics","98","238354","0.0-8.0-0.0-1.0-0.0-0.44","7","7","7","7","7","5","5","5","5","5","5","2","1","2","1","2","2","2","2","5","5","5","5","5","5","5","5","5","5","7","8","8","8","8","7","7","9","7","7","7","7","7","7","7","7","1","7","7","1","7","7","7","7","7","7","7","7","7","7","7","7","7","7","7","7","7","7","7","7","7","6","7","7","7","7","7","7","7","7","633753940910931968","付","330","Male","[""坏他"",""好我"",""坏我"",""好他""]","[""弱他"",""强我"",""弱我"",""强他""]","","","","","","","","match","","","","","","","","","","key","f","16.664807017543865","768","428","f","true","match","img/triangle.png","坏我","坏我","prac_ALT2_moral","practice_moral","","","","","","","","",""
"null","<span style='color:GreenYellow; font-size: 70px;'>正确! </span>","null","html-keyboard-response","99","238855","0.0-8.0-0.0-1.0-0.0-1.44","7","7","7","7","7","5","5","5","5","5","5","2","1","2","1","2","2","2","2","5","5","5","5","5","5","5","5","5","5","7","8","8","8","8","7","7","9","7","7","7","7","7","7","7","7","1","7","7","1","7","7","7","7","7","7","7","7","7","7","7","7","7","7","7","7","7","7","7","7","7","6","7","7","7","7","7","7","7","7","633753940910931968","付","330","Male","[""坏他"",""好我"",""坏我"",""好他""]","[""弱他"",""强我"",""弱我"",""强他""]","","","","","","","","","","","","","","","","","","","","","","","","","","","","","","feedback_test","","","","","","","","",""
"985","","j","psychophysics","100","240842","0.0-8.0-0.0-1.0-0.0-0.45","7","7","7","7","7","5","5","5","5","5","5","2","1","2","1","2","2","2","2","5","5","5","5","5","5","5","5","5","5","7","8","8","8","8","7","7","9","7","7","7","7","7","7","7","7","1","7","7","1","7","7","7","7","7","7","7","7","7","7","7","7","7","7","7","7","7","7","7","7","7","6","7","7","7","7","7","7","7","7","633753940910931968","付","330","Male","[""坏他"",""好我"",""坏我"",""好他""]","[""弱他"",""强我"",""弱我"",""强他""]","","","","","","","","nonmatch","","","","","","","","","","key","j","16.66395762711872","768","428","j","true","nonmatch","img/triangle.png","好我","坏我","prac_ALT2_moral","practice_moral","","","","","","","","",""
"null","<span style='color:GreenYellow; font-size: 70px;'>正确! </span>","null","html-keyboard-response","101","241344","0.0-8.0-0.0-1.0-0.0-1.45","7","7","7","7","7","5","5","5","5","5","5","2","1","2","1","2","2","2","2","5","5","5","5","5","5","5","5","5","5","7","8","8","8","8","7","7","9","7","7","7","7","7","7","7","7","1","7","7","1","7","7","7","7","7","7","7","7","7","7","7","7","7","7","7","7","7","7","7","7","7","6","7","7","7","7","7","7","7","7","633753940910931968","付","330","Male","[""坏他"",""好我"",""坏我"",""好他""]","[""弱他"",""强我"",""弱我"",""强他""]","","","","","","","","","","","","","","","","","","","","","","","","","","","","","","feedback_test","","","","","","","","",""
"660","","j","psychophysics","102","243005","0.0-8.0-0.0-1.0-0.0-0.46","7","7","7","7","7","5","5","5","5","5","5","2","1","2","1","2","2","2","2","5","5","5","5","5","5","5","5","5","5","7","8","8","8","8","7","7","9","7","7","7","7","7","7","7","7","1","7","7","1","7","7","7","7","7","7","7","7","7","7","7","7","7","7","7","7","7","7","7","7","7","6","7","7","7","7","7","7","7","7","633753940910931968","付","330","Male","[""坏他"",""好我"",""坏我"",""好他""]","[""弱他"",""强我"",""弱我"",""强他""]","","","","","","","","nonmatch","","","","","","","","","","key","j","16.667323232323255","768","428","f","false","match","img/triangle.png","坏我","坏我","prac_ALT2_moral","practice_moral","","","","","","","","",""
"null","<span style='color:red; font-size: 70px;'>错误! </span>","null","html-keyboard-response","103","243506","0.0-8.0-0.0-1.0-0.0-1.46","7","7","7","7","7","5","5","5","5","5","5","2","1","2","1","2","2","2","2","5","5","5","5","5","5","5","5","5","5","7","8","8","8","8","7","7","9","7","7","7","7","7","7","7","7","1","7","7","1","7","7","7","7","7","7","7","7","7","7","7","7","7","7","7","7","7","7","7","7","7","6","7","7","7","7","7","7","7","7","633753940910931968","付","330","Male","[""坏他"",""好我"",""坏我"",""好他""]","[""弱他"",""强我"",""弱我"",""强他""]","","","","","","","","","","","","","","","","","","","","","","","","","","","","","","feedback_test","","","","","","","","",""
"649","","f","psychophysics","104","245159","0.0-8.0-0.0-1.0-0.0-0.47","7","7","7","7","7","5","5","5","5","5","5","2","1","2","1","2","2","2","2","5","5","5","5","5","5","5","5","5","5","7","8","8","8","8","7","7","9","7","7","7","7","7","7","7","7","1","7","7","1","7","7","7","7","7","7","7","7","7","7","7","7","7","7","7","7","7","7","7","7","7","6","7","7","7","7","7","7","7","7","633753940910931968","付","330","Male","[""坏他"",""好我"",""坏我"",""好他""]","[""弱他"",""强我"",""弱我"",""强他""]","","","","","","","","match","","","","","","","","","","key","f","16.664959183673442","768","428","f","true","match","img/square.png","好我","好我","prac_ALT2_moral","practice_moral","","","","","","","","",""
"null","<span style='color:GreenYellow; font-size: 70px;'>正确! </span>","null","html-keyboard-response","105","245660","0.0-8.0-0.0-1.0-0.0-1.47","7","7","7","7","7","5","5","5","5","5","5","2","1","2","1","2","2","2","2","5","5","5","5","5","5","5","5","5","5","7","8","8","8","8","7","7","9","7","7","7","7","7","7","7","7","1","7","7","1","7","7","7","7","7","7","7","7","7","7","7","7","7","7","7","7","7","7","7","7","7","6","7","7","7","7","7","7","7","7","633753940910931968","付","330","Male","[""坏他"",""好我"",""坏我"",""好他""]","[""弱他"",""强我"",""弱我"",""强他""]","","","","","","","","","","","","","","","","","","","","","","","","","","","","","","feedback_test","","","","","","","","",""
"1654","<style>.context{color:white; font-size: 35px; line-height:40px}</style>                            <div><p class='context'>您正确回答了75% 的试次。</p><p class='context'>您的平均反应时为766毫秒。</p><p class='context'>恭喜您完成练习。按空格键进入正式实验。</p><p class='footer' style='font-size: 35px; line-height:40px;'>请在进入正式实验实验之前将您的<span style='color: lightgreen;'>食指</span>放在电脑键盘的相应键位上进行按键。</p>"," ","html-keyboard-response","106","247316","0.0-8.0-0.0-2.0","7","7","7","7","7","5","5","5","5","5","5","2","1","2","1","2","2","2","2","5","5","5","5","5","5","5","5","5","5","7","8","8","8","8","7","7","9","7","7","7","7","7","7","7","7","1","7","7","1","7","7","7","7","7","7","7","7","7","7","7","7","7","7","7","7","7","7","7","7","7","6","7","7","7","7","7","7","7","7","633753940910931968","付","330","Male","[""坏他"",""好我"",""坏我"",""好他""]","[""弱他"",""强我"",""弱我"",""强他""]","","","","","","","","","","","","","","","","","","","","","","","","","","","","","","","","","","","","","","",""
"346","
    <p style='color: white; font-size: 22px'>请您将手指放在按键上，准备进入正式的匹配任务。</p>
    <p> <div style = ""color: green""><按空格键进入下一阶段的匹配任务></div></p>
    "," ","html-keyboard-response","107","247667","0.0-8.0-0.0-3.0","7","7","7","7","7","5","5","5","5","5","5","2","1","2","1","2","2","2","2","5","5","5","5","5","5","5","5","5","5","7","8","8","8","8","7","7","9","7","7","7","7","7","7","7","7","1","7","7","1","7","7","7","7","7","7","7","7","7","7","7","7","7","7","7","7","7","7","7","7","7","6","7","7","7","7","7","7","7","7","633753940910931968","付","330","Male","[""坏他"",""好我"",""坏我"",""好他""]","[""弱他"",""强我"",""弱我"",""强他""]","","","","","","","","","","","","","","","","","","","","","","","","","","","","","","","","","","","","","","",""
"865","","f","psychophysics","108","249534","0.0-8.0-0.0-4.0-0.0-0.0","7","7","7","7","7","5","5","5","5","5","5","2","1","2","1","2","2","2","2","5","5","5","5","5","5","5","5","5","5","7","8","8","8","8","7","7","9","7","7","7","7","7","7","7","7","1","7","7","1","7","7","7","7","7","7","7","7","7","7","7","7","7","7","7","7","7","7","7","7","7","6","7","7","7","7","7","7","7","7","633753940910931968","付","330","Male","[""坏他"",""好我"",""坏我"",""好他""]","[""弱他"",""强我"",""弱我"",""强他""]","","","","","","","","match","","","","","","","","","","key","f","16.668882882882745","768","428","j","false","nonmatch","img/square.png","坏他","好我","ALT2","moral","","","","","","","","",""
"null","<span style='color:red; font-size: 70px;'>错误! </span>","null","html-keyboard-response","109","250035","0.0-8.0-0.0-4.0-0.0-1.0","7","7","7","7","7","5","5","5","5","5","5","2","1","2","1","2","2","2","2","5","5","5","5","5","5","5","5","5","5","7","8","8","8","8","7","7","9","7","7","7","7","7","7","7","7","1","7","7","1","7","7","7","7","7","7","7","7","7","7","7","7","7","7","7","7","7","7","7","7","7","6","7","7","7","7","7","7","7","7","633753940910931968","付","330","Male","[""坏他"",""好我"",""坏我"",""好他""]","[""弱他"",""强我"",""弱我"",""强他""]","","","","","","","","","","","","","","","","","","","","","","","","","","","","","","feedback_test","","","","","","","","",""
"974","","j","psychophysics","110","252012","0.0-8.0-0.0-4.0-0.0-0.1","7","7","7","7","7","5","5","5","5","5","5","2","1","2","1","2","2","2","2","5","5","5","5","5","5","5","5","5","5","7","8","8","8","8","7","7","9","7","7","7","7","7","7","7","7","1","7","7","1","7","7","7","7","7","7","7","7","7","7","7","7","7","7","7","7","7","7","7","7","7","6","7","7","7","7","7","7","7","7","633753940910931968","付","330","Male","[""坏他"",""好我"",""坏我"",""好他""]","[""弱他"",""强我"",""弱我"",""强他""]","","","","","","","","nonmatch","","","","","","","","","","key","j","16.66564957264952","768","428","j","true","nonmatch","img/triangle.png","好他","坏我","ALT2","moral","","","","","","","","",""
"null","<span style='color:GreenYellow; font-size: 70px;'>正确! </span>","null","html-keyboard-response","111","252514","0.0-8.0-0.0-4.0-0.0-1.1","7","7","7","7","7","5","5","5","5","5","5","2","1","2","1","2","2","2","2","5","5","5","5","5","5","5","5","5","5","7","8","8","8","8","7","7","9","7","7","7","7","7","7","7","7","1","7","7","1","7","7","7","7","7","7","7","7","7","7","7","7","7","7","7","7","7","7","7","7","7","6","7","7","7","7","7","7","7","7","633753940910931968","付","330","Male","[""坏他"",""好我"",""坏我"",""好他""]","[""弱他"",""强我"",""弱我"",""强他""]","","","","","","","","","","","","","","","","","","","","","","","","","","","","","","feedback_test","","","","","","","","",""
"847","","f","psychophysics","112","254362","0.0-8.0-0.0-4.0-0.0-0.2","7","7","7","7","7","5","5","5","5","5","5","2","1","2","1","2","2","2","2","5","5","5","5","5","5","5","5","5","5","7","8","8","8","8","7","7","9","7","7","7","7","7","7","7","7","1","7","7","1","7","7","7","7","7","7","7","7","7","7","7","7","7","7","7","7","7","7","7","7","7","6","7","7","7","7","7","7","7","7","633753940910931968","付","330","Male","[""坏他"",""好我"",""坏我"",""好他""]","[""弱他"",""强我"",""弱我"",""强他""]","","","","","","","","match","","","","","","","","","","key","f","16.667199999999934","768","428","f","true","match","img/hexagon.png","好他","好他","ALT2","moral","","","","","","","","",""
"null","<span style='color:GreenYellow; font-size: 70px;'>正确! </span>","null","html-keyboard-response","113","254865","0.0-8.0-0.0-4.0-0.0-1.2","7","7","7","7","7","5","5","5","5","5","5","2","1","2","1","2","2","2","2","5","5","5","5","5","5","5","5","5","5","7","8","8","8","8","7","7","9","7","7","7","7","7","7","7","7","1","7","7","1","7","7","7","7","7","7","7","7","7","7","7","7","7","7","7","7","7","7","7","7","7","6","7","7","7","7","7","7","7","7","633753940910931968","付","330","Male","[""坏他"",""好我"",""坏我"",""好他""]","[""弱他"",""强我"",""弱我"",""强他""]","","","","","","","","","","","","","","","","","","","","","","","","","","","","","","feedback_test","","","","","","","","",""
"873","","f","psychophysics","114","256741","0.0-8.0-0.0-4.0-0.0-0.3","7","7","7","7","7","5","5","5","5","5","5","2","1","2","1","2","2","2","2","5","5","5","5","5","5","5","5","5","5","7","8","8","8","8","7","7","9","7","7","7","7","7","7","7","7","1","7","7","1","7","7","7","7","7","7","7","7","7","7","7","7","7","7","7","7","7","7","7","7","7","6","7","7","7","7","7","7","7","7","633753940910931968","付","330","Male","[""坏他"",""好我"",""坏我"",""好他""]","[""弱他"",""强我"",""弱我"",""强他""]","","","","","","","","match","","","","","","","","","","key","f","16.66616964285692","768","428","f","true","match","img/hexagon.png","好他","好他","ALT2","moral","","","","","","","","",""
"null","<span style='color:GreenYellow; font-size: 70px;'>正确! </span>","null","html-keyboard-response","115","257243","0.0-8.0-0.0-4.0-0.0-1.3","7","7","7","7","7","5","5","5","5","5","5","2","1","2","1","2","2","2","2","5","5","5","5","5","5","5","5","5","5","7","8","8","8","8","7","7","9","7","7","7","7","7","7","7","7","1","7","7","1","7","7","7","7","7","7","7","7","7","7","7","7","7","7","7","7","7","7","7","7","7","6","7","7","7","7","7","7","7","7","633753940910931968","付","330","Male","[""坏他"",""好我"",""坏我"",""好他""]","[""弱他"",""强我"",""弱我"",""强他""]","","","","","","","","","","","","","","","","","","","","","","","","","","","","","","feedback_test","","","","","","","","",""
"974","","j","psychophysics","116","259219","0.0-8.0-0.0-4.0-0.0-0.4","7","7","7","7","7","5","5","5","5","5","5","2","1","2","1","2","2","2","2","5","5","5","5","5","5","5","5","5","5","7","8","8","8","8","7","7","9","7","7","7","7","7","7","7","7","1","7","7","1","7","7","7","7","7","7","7","7","7","7","7","7","7","7","7","7","7","7","7","7","7","6","7","7","7","7","7","7","7","7","633753940910931968","付","330","Male","[""坏他"",""好我"",""坏我"",""好他""]","[""弱他"",""强我"",""弱我"",""强他""]","","","","","","","","nonmatch","","","","","","","","","","key","j","16.667256410256314","768","428","f","false","match","img/circle.png","坏他","坏他","ALT2","moral","","","","","","","","",""
"null","<span style='color:red; font-size: 70px;'>错误! </span>","null","html-keyboard-response","117","259720","0.0-8.0-0.0-4.0-0.0-1.4","7","7","7","7","7","5","5","5","5","5","5","2","1","2","1","2","2","2","2","5","5","5","5","5","5","5","5","5","5","7","8","8","8","8","7","7","9","7","7","7","7","7","7","7","7","1","7","7","1","7","7","7","7","7","7","7","7","7","7","7","7","7","7","7","7","7","7","7","7","7","6","7","7","7","7","7","7","7","7","633753940910931968","付","330","Male","[""坏他"",""好我"",""坏我"",""好他""]","[""弱他"",""强我"",""弱我"",""强他""]","","","","","","","","","","","","","","","","","","","","","","","","","","","","","","feedback_test","","","","","","","","",""
"1155","","j","psychophysics","118","261877","0.0-8.0-0.0-4.0-0.0-0.5","7","7","7","7","7","5","5","5","5","5","5","2","1","2","1","2","2","2","2","5","5","5","5","5","5","5","5","5","5","7","8","8","8","8","7","7","9","7","7","7","7","7","7","7","7","1","7","7","1","7","7","7","7","7","7","7","7","7","7","7","7","7","7","7","7","7","7","7","7","7","6","7","7","7","7","7","7","7","7","633753940910931968","付","330","Male","[""坏他"",""好我"",""坏我"",""好他""]","[""弱他"",""强我"",""弱我"",""强他""]","","","","","","","","nonmatch","","","","","","","","","","key","j","16.66703906250018","768","428","f","false","match","img/square.png","好我","好我","ALT2","moral","","","","","","","","",""
"null","<span style='color:red; font-size: 70px;'>错误! </span>","null","html-keyboard-response","119","262379","0.0-8.0-0.0-4.0-0.0-1.5","7","7","7","7","7","5","5","5","5","5","5","2","1","2","1","2","2","2","2","5","5","5","5","5","5","5","5","5","5","7","8","8","8","8","7","7","9","7","7","7","7","7","7","7","7","1","7","7","1","7","7","7","7","7","7","7","7","7","7","7","7","7","7","7","7","7","7","7","7","7","6","7","7","7","7","7","7","7","7","633753940910931968","付","330","Male","[""坏他"",""好我"",""坏我"",""好他""]","[""弱他"",""强我"",""弱我"",""强他""]","","","","","","","","","","","","","","","","","","","","","","","","","","","","","","feedback_test","","","","","","","","",""
"975","","j","psychophysics","120","264355","0.0-8.0-0.0-4.0-0.0-0.6","7","7","7","7","7","5","5","5","5","5","5","2","1","2","1","2","2","2","2","5","5","5","5","5","5","5","5","5","5","7","8","8","8","8","7","7","9","7","7","7","7","7","7","7","7","1","7","7","1","7","7","7","7","7","7","7","7","7","7","7","7","7","7","7","7","7","7","7","7","7","6","7","7","7","7","7","7","7","7","633753940910931968","付","330","Male","[""坏他"",""好我"",""坏我"",""好他""]","[""弱他"",""强我"",""弱我"",""强他""]","","","","","","","","nonmatch","","","","","","","","","","key","j","16.666245762712098","768","428","j","true","nonmatch","img/circle.png","坏我","坏他","ALT2","moral","","","","","","","","",""
"null","<span style='color:GreenYellow; font-size: 70px;'>正确! </span>","null","html-keyboard-response","121","264856","0.0-8.0-0.0-4.0-0.0-1.6","7","7","7","7","7","5","5","5","5","5","5","2","1","2","1","2","2","2","2","5","5","5","5","5","5","5","5","5","5","7","8","8","8","8","7","7","9","7","7","7","7","7","7","7","7","1","7","7","1","7","7","7","7","7","7","7","7","7","7","7","7","7","7","7","7","7","7","7","7","7","6","7","7","7","7","7","7","7","7","633753940910931968","付","330","Male","[""坏他"",""好我"",""坏我"",""好他""]","[""弱他"",""强我"",""弱我"",""强他""]","","","","","","","","","","","","","","","","","","","","","","","","","","","","","","feedback_test","","","","","","","","",""
"882","","j","psychophysics","122","266741","0.0-8.0-0.0-4.0-0.0-0.7","7","7","7","7","7","5","5","5","5","5","5","2","1","2","1","2","2","2","2","5","5","5","5","5","5","5","5","5","5","7","8","8","8","8","7","7","9","7","7","7","7","7","7","7","7","1","7","7","1","7","7","7","7","7","7","7","7","7","7","7","7","7","7","7","7","7","7","7","7","7","6","7","7","7","7","7","7","7","7","633753940910931968","付","330","Male","[""坏他"",""好我"",""坏我"",""好他""]","[""弱他"",""强我"",""弱我"",""强他""]","","","","","","","","nonmatch","","","","","","","","","","key","j","16.667875000000226","768","428","j","true","nonmatch","img/circle.png","好他","坏他","ALT2","moral","","","","","","","","",""
"null","<span style='color:GreenYellow; font-size: 70px;'>正确! </span>","null","html-keyboard-response","123","267242","0.0-8.0-0.0-4.0-0.0-1.7","7","7","7","7","7","5","5","5","5","5","5","2","1","2","1","2","2","2","2","5","5","5","5","5","5","5","5","5","5","7","8","8","8","8","7","7","9","7","7","7","7","7","7","7","7","1","7","7","1","7","7","7","7","7","7","7","7","7","7","7","7","7","7","7","7","7","7","7","7","7","6","7","7","7","7","7","7","7","7","633753940910931968","付","330","Male","[""坏他"",""好我"",""坏我"",""好他""]","[""弱他"",""强我"",""弱我"",""强他""]","","","","","","","","","","","","","","","","","","","","","","","","","","","","","","feedback_test","","","","","","","","",""
"609","","f","psychophysics","124","268854","0.0-8.0-0.0-4.0-0.0-0.8","7","7","7","7","7","5","5","5","5","5","5","2","1","2","1","2","2","2","2","5","5","5","5","5","5","5","5","5","5","7","8","8","8","8","7","7","9","7","7","7","7","7","7","7","7","1","7","7","1","7","7","7","7","7","7","7","7","7","7","7","7","7","7","7","7","7","7","7","7","7","6","7","7","7","7","7","7","7","7","633753940910931968","付","330","Male","[""坏他"",""好我"",""坏我"",""好他""]","[""弱他"",""强我"",""弱我"",""强他""]","","","","","","","","match","","","","","","","","","","key","f","16.667437500000233","768","428","f","true","match","img/circle.png","坏他","坏他","ALT2","moral","","","","","","","","",""
"null","<span style='color:GreenYellow; font-size: 70px;'>正确! </span>","null","html-keyboard-response","125","269357","0.0-8.0-0.0-4.0-0.0-1.8","7","7","7","7","7","5","5","5","5","5","5","2","1","2","1","2","2","2","2","5","5","5","5","5","5","5","5","5","5","7","8","8","8","8","7","7","9","7","7","7","7","7","7","7","7","1","7","7","1","7","7","7","7","7","7","7","7","7","7","7","7","7","7","7","7","7","7","7","7","7","6","7","7","7","7","7","7","7","7","633753940910931968","付","330","Male","[""坏他"",""好我"",""坏我"",""好他""]","[""弱他"",""强我"",""弱我"",""强他""]","","","","","","","","","","","","","","","","","","","","","","","","","","","","","","feedback_test","","","","","","","","",""
"705","","j","psychophysics","126","271063","0.0-8.0-0.0-4.0-0.0-0.9","7","7","7","7","7","5","5","5","5","5","5","2","1","2","1","2","2","2","2","5","5","5","5","5","5","5","5","5","5","7","8","8","8","8","7","7","9","7","7","7","7","7","7","7","7","1","7","7","1","7","7","7","7","7","7","7","7","7","7","7","7","7","7","7","7","7","7","7","7","7","6","7","7","7","7","7","7","7","7","633753940910931968","付","330","Male","[""坏他"",""好我"",""坏我"",""好他""]","[""弱他"",""强我"",""弱我"",""强他""]","","","","","","","","nonmatch","","","","","","","","","","key","j","16.66700000000027","768","428","j","true","nonmatch","img/hexagon.png","坏他","好他","ALT2","moral","","","","","","","","",""
"null","<span style='color:GreenYellow; font-size: 70px;'>正确! </span>","null","html-keyboard-response","127","271574","0.0-8.0-0.0-4.0-0.0-1.9","7","7","7","7","7","5","5","5","5","5","5","2","1","2","1","2","2","2","2","5","5","5","5","5","5","5","5","5","5","7","8","8","8","8","7","7","9","7","7","7","7","7","7","7","7","1","7","7","1","7","7","7","7","7","7","7","7","7","7","7","7","7","7","7","7","7","7","7","7","7","6","7","7","7","7","7","7","7","7","633753940910931968","付","330","Male","[""坏他"",""好我"",""坏我"",""好他""]","[""弱他"",""强我"",""弱我"",""强他""]","","","","","","","","","","","","","","","","","","","","","","","","","","","","","","feedback_test","","","","","","","","",""
"884","","f","psychophysics","128","273460","0.0-8.0-0.0-4.0-0.0-0.10","7","7","7","7","7","5","5","5","5","5","5","2","1","2","1","2","2","2","2","5","5","5","5","5","5","5","5","5","5","7","8","8","8","8","7","7","9","7","7","7","7","7","7","7","7","1","7","7","1","7","7","7","7","7","7","7","7","7","7","7","7","7","7","7","7","7","7","7","7","7","6","7","7","7","7","7","7","7","7","633753940910931968","付","330","Male","[""坏他"",""好我"",""坏我"",""好他""]","[""弱他"",""强我"",""弱我"",""强他""]","","","","","","","","match","","","","","","","","","","key","f","16.663285714285717","768","428","f","true","match","img/triangle.png","坏我","坏我","ALT2","moral","","","","","","","","",""
"null","<span style='color:GreenYellow; font-size: 70px;'>正确! </span>","null","html-keyboard-response","129","273961","0.0-8.0-0.0-4.0-0.0-1.10","7","7","7","7","7","5","5","5","5","5","5","2","1","2","1","2","2","2","2","5","5","5","5","5","5","5","5","5","5","7","8","8","8","8","7","7","9","7","7","7","7","7","7","7","7","1","7","7","1","7","7","7","7","7","7","7","7","7","7","7","7","7","7","7","7","7","7","7","7","7","6","7","7","7","7","7","7","7","7","633753940910931968","付","330","Male","[""坏他"",""好我"",""坏我"",""好他""]","[""弱他"",""强我"",""弱我"",""强他""]","","","","","","","","","","","","","","","","","","","","","","","","","","","","","","feedback_test","","","","","","","","",""
"721","","j","psychophysics","130","275683","0.0-8.0-0.0-4.0-0.0-0.11","7","7","7","7","7","5","5","5","5","5","5","2","1","2","1","2","2","2","2","5","5","5","5","5","5","5","5","5","5","7","8","8","8","8","7","7","9","7","7","7","7","7","7","7","7","1","7","7","1","7","7","7","7","7","7","7","7","7","7","7","7","7","7","7","7","7","7","7","7","7","6","7","7","7","7","7","7","7","7","633753940910931968","付","330","Male","[""坏他"",""好我"",""坏我"",""好他""]","[""弱他"",""强我"",""弱我"",""强他""]","","","","","","","","nonmatch","","","","","","","","","","key","j","16.667549019608096","768","428","f","false","match","img/square.png","好我","好我","ALT2","moral","","","","","","","","",""
"null","<span style='color:red; font-size: 70px;'>错误! </span>","null","html-keyboard-response","131","276185","0.0-8.0-0.0-4.0-0.0-1.11","7","7","7","7","7","5","5","5","5","5","5","2","1","2","1","2","2","2","2","5","5","5","5","5","5","5","5","5","5","7","8","8","8","8","7","7","9","7","7","7","7","7","7","7","7","1","7","7","1","7","7","7","7","7","7","7","7","7","7","7","7","7","7","7","7","7","7","7","7","7","6","7","7","7","7","7","7","7","7","633753940910931968","付","330","Male","[""坏他"",""好我"",""坏我"",""好他""]","[""弱他"",""强我"",""弱我"",""强他""]","","","","","","","","","","","","","","","","","","","","","","","","","","","","","","feedback_test","","","","","","","","",""
"586","","f","psychophysics","132","277772","0.0-8.0-0.0-4.0-0.0-0.12","7","7","7","7","7","5","5","5","5","5","5","2","1","2","1","2","2","2","2","5","5","5","5","5","5","5","5","5","5","7","8","8","8","8","7","7","9","7","7","7","7","7","7","7","7","1","7","7","1","7","7","7","7","7","7","7","7","7","7","7","7","7","7","7","7","7","7","7","7","7","6","7","7","7","7","7","7","7","7","633753940910931968","付","330","Male","[""坏他"",""好我"",""坏我"",""好他""]","[""弱他"",""强我"",""弱我"",""强他""]","","","","","","","","match","","","","","","","","","","key","f","16.663414893616757","768","428","j","false","nonmatch","img/hexagon.png","好我","好他","ALT2","moral","","","","","","","","",""
"null","<span style='color:red; font-size: 70px;'>错误! </span>","null","html-keyboard-response","133","278274","0.0-8.0-0.0-4.0-0.0-1.12","7","7","7","7","7","5","5","5","5","5","5","2","1","2","1","2","2","2","2","5","5","5","5","5","5","5","5","5","5","7","8","8","8","8","7","7","9","7","7","7","7","7","7","7","7","1","7","7","1","7","7","7","7","7","7","7","7","7","7","7","7","7","7","7","7","7","7","7","7","7","6","7","7","7","7","7","7","7","7","633753940910931968","付","330","Male","[""坏他"",""好我"",""坏我"",""好他""]","[""弱他"",""强我"",""弱我"",""强他""]","","","","","","","","","","","","","","","","","","","","","","","","","","","","","","feedback_test","","","","","","","","",""
"952","","f","psychophysics","134","280228","0.0-8.0-0.0-4.0-0.0-0.13","7","7","7","7","7","5","5","5","5","5","5","2","1","2","1","2","2","2","2","5","5","5","5","5","5","5","5","5","5","7","8","8","8","8","7","7","9","7","7","7","7","7","7","7","7","1","7","7","1","7","7","7","7","7","7","7","7","7","7","7","7","7","7","7","7","7","7","7","7","7","6","7","7","7","7","7","7","7","7","633753940910931968","付","330","Male","[""坏他"",""好我"",""坏我"",""好他""]","[""弱他"",""强我"",""弱我"",""强他""]","","","","","","","","match","","","","","","","","","","key","f","16.665525862068975","768","428","f","true","match","img/triangle.png","坏我","坏我","ALT2","moral","","","","","","","","",""
"null","<span style='color:GreenYellow; font-size: 70px;'>正确! </span>","null","html-keyboard-response","135","280729","0.0-8.0-0.0-4.0-0.0-1.13","7","7","7","7","7","5","5","5","5","5","5","2","1","2","1","2","2","2","2","5","5","5","5","5","5","5","5","5","5","7","8","8","8","8","7","7","9","7","7","7","7","7","7","7","7","1","7","7","1","7","7","7","7","7","7","7","7","7","7","7","7","7","7","7","7","7","7","7","7","7","6","7","7","7","7","7","7","7","7","633753940910931968","付","330","Male","[""坏他"",""好我"",""坏我"",""好他""]","[""弱他"",""强我"",""弱我"",""强他""]","","","","","","","","","","","","","","","","","","","","","","","","","","","","","","feedback_test","","","","","","","","",""
"880","","j","psychophysics","136","282611","0.0-8.0-0.0-4.0-0.0-0.14","7","7","7","7","7","5","5","5","5","5","5","2","1","2","1","2","2","2","2","5","5","5","5","5","5","5","5","5","5","7","8","8","8","8","7","7","9","7","7","7","7","7","7","7","7","1","7","7","1","7","7","7","7","7","7","7","7","7","7","7","7","7","7","7","7","7","7","7","7","7","6","7","7","7","7","7","7","7","7","633753940910931968","付","330","Male","[""坏他"",""好我"",""坏我"",""好他""]","[""弱他"",""强我"",""弱我"",""强他""]","","","","","","","","nonmatch","","","","","","","","","","key","j","16.66795535714326","768","428","j","true","nonmatch","img/square.png","好他","好我","ALT2","moral","","","","","","","","",""
"null","<span style='color:GreenYellow; font-size: 70px;'>正确! </span>","null","html-keyboard-response","137","283112","0.0-8.0-0.0-4.0-0.0-1.14","7","7","7","7","7","5","5","5","5","5","5","2","1","2","1","2","2","2","2","5","5","5","5","5","5","5","5","5","5","7","8","8","8","8","7","7","9","7","7","7","7","7","7","7","7","1","7","7","1","7","7","7","7","7","7","7","7","7","7","7","7","7","7","7","7","7","7","7","7","7","6","7","7","7","7","7","7","7","7","633753940910931968","付","330","Male","[""坏他"",""好我"",""坏我"",""好他""]","[""弱他"",""强我"",""弱我"",""强他""]","","","","","","","","","","","","","","","","","","","","","","","","","","","","","","feedback_test","","","","","","","","",""
"619","","f","psychophysics","138","284732","0.0-8.0-0.0-4.0-0.0-0.15","7","7","7","7","7","5","5","5","5","5","5","2","1","2","1","2","2","2","2","5","5","5","5","5","5","5","5","5","5","7","8","8","8","8","7","7","9","7","7","7","7","7","7","7","7","1","7","7","1","7","7","7","7","7","7","7","7","7","7","7","7","7","7","7","7","7","7","7","7","7","6","7","7","7","7","7","7","7","7","633753940910931968","付","330","Male","[""坏他"",""好我"",""坏我"",""好他""]","[""弱他"",""强我"",""弱我"",""强他""]","","","","","","","","match","","","","","","","","","","key","f","16.666239583333056","768","428","f","true","match","img/triangle.png","坏我","坏我","ALT2","moral","","","","","","","","",""
