"rt","stimulus","response","trial_type","trial_index","time_elapsed","internal_node_id","swb_1","swb_2","swb_3","swb_4","swb_5","LOT_1","LOT_2","LOT_3","LOT_4","LOT_5","LOT_6","IPC_1","IPC_2","IPC_3","IPC_4","IPC_5","IPC_6","IPC_7","IPC_8","MorIden_1","MorIden_2","MorIden_3","MorIden_4","MorIden_5","MorIden_6","MorIden_7","MorIden_8","MorIden_9","MorIden_10","moralSeImag_1","moralSeImag_2","moralSeImag_3","moralSeImag_4","moralSeImag_5","moralSeImag_6","moralSeImag_7","moralSeImag_8","moralSeImag_9","sde_1","sde_2","sde_3","sde_4","sde_5","sde_6","sde_7","sde_8","sde_9","sde_10","trap2","sde_11","sde_12","sde_13","sde_14","sde_15","sde_16","sde_17","sde_18","sde_19","sde_20","IM_1","IM_2","IM_3","IM_4","IM_5","IM_6","IM_7","IM_8","IM_9","IM_10","IM_11","IM_12","IM_13","IM_14","IM_15","IM_16","IM_17","IM_18","IM_19","IM_20","subj_idx","friend_name","ParticipantID","Sex","Word","Word2","value","success","timeout","failed_images","failed_audio","failed_video","user_agent","responses","item_order","radio_event_ids","radio_event_times","key_event_times","mouse_event_times","straightlining","zigzagging","honeypot","task_id","screen_id","time_stamp","response_type","key_press","avg_frame_time","center_x","center_y","person","word","valence","domain","math","correct_response","correct","status","view_history","identity","duration","Image","condition","question_order","trap2_item"
"611098","
   <p><div style='color:white; font-size: 25px'>您好，欢迎参加本次实验。</div></p>
   <p><div style='color:white; font-size: 25px'>为充分保障您的权利，请确保您已经知晓并同意《参与实验同意书》以及《数据公开知情同意书》。</div></p>
   <p><div style='color:white; font-size: 25px'>如果您未见过上述内容，请咨询实验员。</div></p>
   <p style='color:white; font-size: 25px'>如果您选择继续实验，则表示您已经清楚两份知情同意书的内容并同意。</p>
   <p><div style = ""color: pink;font-size:30px;"">请确保您记得day0的实验编号，您将在本次实验输入该编号，若您忘记，请咨询实验员后作答。</div></p>
   <p><div style = ""color:lightblue;font-size:25px;"">请您尽可能认真地作答，我们将依据您在各问卷和按键任务中的作答质量发放报酬。</div></p>
   <p> <div style = ""color: green""><按空格键至下页></div> </p>
   "," ","html-keyboard-response","0","611099","0.0-0.0","6","6","5","5","3","5","5","5","5","5","5","1","-2","1","1","0","1","2","1","5","4","5","5","4","3","4","3","5","4","9","7","8","9","9","9","9","9","9","6","6","2","7","4","5","3","6","7","3","1","2","3","5","5","6","3","6","6","6","6","2","3","3","3","3","6","5","6","3","7","6","6","7","7","2","6","7","6","2","2","680570095751135232","温","88","Female","[""好她"",""坏她"",""好我"",""坏我""]","[""强她"",""弱她"",""强我"",""弱我""]","","","","","","","","","","","","","","","","","","","","","","","","","","","","","","","","","","","","","","",""
"","","","call-function","1","611100","0.0-1.0-0.0","6","6","5","5","3","5","5","5","5","5","5","1","-2","1","1","0","1","2","1","5","4","5","5","4","3","4","3","5","4","9","7","8","9","9","9","9","9","9","6","6","2","7","4","5","3","6","7","3","1","2","3","5","5","6","3","6","6","6","6","2","3","3","3","3","6","5","6","3","7","6","6","7","7","2","6","7","6","2","2","680570095751135232","温","88","Female","[""好她"",""坏她"",""好我"",""坏我""]","[""强她"",""弱她"",""强我"",""弱我""]","","","","","","","","","","","","","","","","","","","","","","","","","","","","","","","","","","","","","","",""
"41848","","[{""name"":""Sex"",""value"":""1""},{""name"":""friend_name"",""value"":""温""},{""name"":""ParticipantID"",""value"":""88""}]","survey-html-form","2","652950","0.0-1.0-1.0","6","6","5","5","3","5","5","5","5","5","5","1","-2","1","1","0","1","2","1","5","4","5","5","4","3","4","3","5","4","9","7","8","9","9","9","9","9","9","6","6","2","7","4","5","3","6","7","3","1","2","3","5","5","6","3","6","6","6","6","2","3","3","3","3","6","5","6","3","7","6","6","7","7","2","6","7","6","2","2","680570095751135232","温","88","Female","[""好她"",""坏她"",""好我"",""坏我""]","[""强她"",""弱她"",""强我"",""弱我""]","","","","","","","","","","","","","","","","","","","","","","","","","","","","","","","","","","","","","","",""
"","","","preload","3","653637","0.0-2.0","6","6","5","5","3","5","5","5","5","5","5","1","-2","1","1","0","1","2","1","5","4","5","5","4","3","4","3","5","4","9","7","8","9","9","9","9","9","9","6","6","2","7","4","5","3","6","7","3","1","2","3","5","5","6","3","6","6","6","6","2","3","3","3","3","6","5","6","3","7","6","6","7","7","2","6","7","6","2","2","680570095751135232","温","88","Female","[""好她"",""坏她"",""好我"",""坏我""]","[""强她"",""弱她"",""强我"",""弱我""]","","true","false","[]","[]","[]","","","","","","","","","","","","","","","","","","","","","","","","","","","","","","","","",""
"","","","fullscreen","4","672945","0.0-3.0","6","6","5","5","3","5","5","5","5","5","5","1","-2","1","1","0","1","2","1","5","4","5","5","4","3","4","3","5","4","9","7","8","9","9","9","9","9","9","6","6","2","7","4","5","3","6","7","3","1","2","3","5","5","6","3","6","6","6","6","2","3","3","3","3","6","5","6","3","7","6","6","7","7","2","6","7","6","2","2","680570095751135232","温","88","Female","[""好她"",""坏她"",""好我"",""坏我""]","[""强她"",""弱她"",""强我"",""弱我""]","","true","","","","","{}","","","","","","","","","","","","","","","","","","","","","","","","","","","","","","","",""
"28425.400000095367","","{""Q01"":""6"",""Q02"":""6"",""Q03"":""5"",""Q04"":""5"",""Q05"":""3""}","survey-template","5","701372","0.0-4.0","6","6","5","5","3","5","5","5","5","5","5","1","-2","1","1","0","1","2","1","5","4","5","5","4","3","4","3","5","4","9","7","8","9","9","9","9","9","9","6","6","2","7","4","5","3","6","7","3","1","2","3","5","5","6","3","6","6","6","6","2","3","3","3","3","6","5","6","3","7","6","6","7","7","2","6","7","6","2","2","680570095751135232","温","88","Female","[""好她"",""坏她"",""好我"",""坏我""]","[""强她"",""弱她"",""强我"",""弱我""]","","","","","","","","{""Q01"":""6"",""Q02"":""6"",""Q03"":""5"",""Q04"":""5"",""Q05"":""3""}","[0,1,2,3,4]","[""Q01"",""Q01"",""Q02"",""Q03"",""Q04"",""Q05"",""Q03""]","[4974.599999904633,6246.700000047684,7394.799999952316,8902.700000047684,13448.700000047684,16708.5,21335.599999904633]","[]","[4237.099999904633,4974.599999904633,6246.700000047684,7394.799999952316,8902.700000047684,10810.700000047684,13448.700000047684,16708.5,21335.599999904633,28424.599999904633]","0.4","0.25","0","","","","","","","","","","","","","","","","","","","","","","",""
"22758.599999904633","","{""Q01"":""5"",""Q02"":""5"",""Q03"":""5"",""Q04"":""5"",""Q05"":""5"",""Q06"":""5""}","survey-template","6","724134","0.0-5.0","6","6","5","5","3","5","5","5","5","5","5","1","-2","1","1","0","1","2","1","5","4","5","5","4","3","4","3","5","4","9","7","8","9","9","9","9","9","9","6","6","2","7","4","5","3","6","7","3","1","2","3","5","5","6","3","6","6","6","6","2","3","3","3","3","6","5","6","3","7","6","6","7","7","2","6","7","6","2","2","680570095751135232","温","88","Female","[""好她"",""坏她"",""好我"",""坏我""]","[""强她"",""弱她"",""强我"",""弱我""]","","","","","","","","{""Q01"":""5"",""Q02"":""5"",""Q03"":""5"",""Q04"":""5"",""Q05"":""5"",""Q06"":""5""}","[0,1,2,3,4,5]","[""Q01"",""Q02"",""Q03"",""Q04"",""Q05"",""Q06""]","[3604,8958.5,12813.799999952316,14140.200000047684,17168.299999952316,21580.200000047684]","[]","[3604,8958.5,10810.099999904633,12813.799999952316,14140.200000047684,17168.299999952316,21232,21580.200000047684,22758]","0.5","0.8","0","","","","","","","","","","","","","","","","","","","","","","",""
"30409.900000095367","","{""Q01"":""1"",""Q02"":""-2"",""Q03"":""1"",""Q04"":""1"",""Q05"":""0"",""Q06"":""1"",""Q07"":""2"",""Q08"":""1""}","survey-template","7","754546","0.0-6.0","6","6","5","5","3","5","5","5","5","5","5","1","-2","1","1","0","1","2","1","5","4","5","5","4","3","4","3","5","4","9","7","8","9","9","9","9","9","9","6","6","2","7","4","5","3","6","7","3","1","2","3","5","5","6","3","6","6","6","6","2","3","3","3","3","6","5","6","3","7","6","6","7","7","2","6","7","6","2","2","680570095751135232","温","88","Female","[""好她"",""坏她"",""好我"",""坏我""]","[""强她"",""弱她"",""强我"",""弱我""]","","","","","","","","{""Q01"":""1"",""Q02"":""-2"",""Q03"":""1"",""Q04"":""1"",""Q05"":""0"",""Q06"":""1"",""Q07"":""2"",""Q08"":""1""}","[0,1,2,3,4,5,6,7]","[""Q01"",""Q02"",""Q01"",""Q03"",""Q04"",""Q05"",""Q06"",""Q07"",""Q08""]","[2764.7000000476837,11235.200000047684,14388.700000047684,17869,22050.700000047684,23911,25478.900000095367,27894.900000095367,29556.900000095367]","[]","[2764.7000000476837,11235.200000047684,14388.700000047684,17869,22050.700000047684,23911,25478.900000095367,27894.900000095367,29556.900000095367,30408.900000095367]","0.625","0.5714285714285714","0","","","","","","","","","","","","","","","","","","","","","","",""
"17657","
    <p><div style='color:white;font-size:35px; line-height:20px;'>词汇评估任务</div></p><br>
    <p><div style='color:white;font-size:25px; line-height:20px;'>请再次回忆该亲密的朋友，你们至少2年前就认识了，并且最近2年经常见面。</div></p>
    <p><div style='color:white;font-size:25px; line-height:20px;'>在本实验中，您将会看到一些形容词。</div></p>
    <p><div style='color:yellow;font-size:25px; line-height:20px;'>您的任务是判断这些形容词是否符合对您自己或您的朋友的描述。</div></p><p style='font-size:35px'>符合按<span style=""color:lightgreen""> f 键</span>，不符合按<span style=""color:red""> j 键</span></p>","0","html-button-response","8","772205","0.0-7.0-0.0","6","6","5","5","3","5","5","5","5","5","5","1","-2","1","1","0","1","2","1","5","4","5","5","4","3","4","3","5","4","9","7","8","9","9","9","9","9","9","6","6","2","7","4","5","3","6","7","3","1","2","3","5","5","6","3","6","6","6","6","2","3","3","3","3","6","5","6","3","7","6","6","7","7","2","6","7","6","2","2","680570095751135232","温","88","Female","[""好她"",""坏她"",""好我"",""坏我""]","[""强她"",""弱她"",""强我"",""弱我""]","","","","","","","","","","","","","","","","","SRET_EW","EW_instructions","Sat Jan 20 2024 18:45:10 GMT+0800 (中国标准时间)","","","","","","","","","","","","","","","","","","","",""
"null","","null","psychophysics","9","775208","0.0-7.0-1.0-0.0","6","6","5","5","3","5","5","5","5","5","5","1","-2","1","1","0","1","2","1","5","4","5","5","4","3","4","3","5","4","9","7","8","9","9","9","9","9","9","6","6","2","7","4","5","3","6","7","3","1","2","3","5","5","6","3","6","6","6","6","2","3","3","3","3","6","5","6","3","7","6","6","7","7","2","6","7","6","2","2","680570095751135232","温","88","Female","[""好她"",""坏她"",""好我"",""坏我""]","[""强她"",""弱她"",""强我"",""弱我""]","","","","","","","","","","","","","","","","","SRET_EW","EW_practice","","key","null","6.95452436194901","1066","596","自己","严谨","Positive","ability","","","","","","","","","","",""
"789","","j","psychophysics","10","776999","0.0-7.0-1.0-0.1","6","6","5","5","3","5","5","5","5","5","5","1","-2","1","1","0","1","2","1","5","4","5","5","4","3","4","3","5","4","9","7","8","9","9","9","9","9","9","6","6","2","7","4","5","3","6","7","3","1","2","3","5","5","6","3","6","6","6","6","2","3","3","3","3","6","5","6","3","7","6","6","7","7","2","6","7","6","2","2","680570095751135232","温","88","Female","[""好她"",""坏她"",""好我"",""坏我""]","[""强她"",""弱她"",""强我"",""弱我""]","","","","","","","","no","","","","","","","","","SRET_EW","EW_practice","","key","j","6.94396887159524","1066","596","自己","刻板","Negative","ability","","","","","","","","","","",""
"609","","f","psychophysics","11","778609","0.0-7.0-1.0-0.2","6","6","5","5","3","5","5","5","5","5","5","1","-2","1","1","0","1","2","1","5","4","5","5","4","3","4","3","5","4","9","7","8","9","9","9","9","9","9","6","6","2","7","4","5","3","6","7","3","1","2","3","5","5","6","3","6","6","6","6","2","3","3","3","3","6","5","6","3","7","6","6","7","7","2","6","7","6","2","2","680570095751135232","温","88","Female","[""好她"",""坏她"",""好我"",""坏我""]","[""强她"",""弱她"",""强我"",""弱我""]","","","","","","","","yes","","","","","","","","","SRET_EW","EW_practice","","key","f","6.944155844155743","1066","596","朋友","忠实","Positive","morality","","","","","","","","","","",""
"781","","j","psychophysics","12","780392","0.0-7.0-1.0-0.3","6","6","5","5","3","5","5","5","5","5","5","1","-2","1","1","0","1","2","1","5","4","5","5","4","3","4","3","5","4","9","7","8","9","9","9","9","9","9","6","6","2","7","4","5","3","6","7","3","1","2","3","5","5","6","3","6","6","6","6","2","3","3","3","3","6","5","6","3","7","6","6","7","7","2","6","7","6","2","2","680570095751135232","温","88","Female","[""好她"",""坏她"",""好我"",""坏我""]","[""强她"",""弱她"",""强我"",""弱我""]","","","","","","","","no","","","","","","","","","SRET_EW","EW_practice","","key","j","6.943359375","1066","596","朋友","徇私","Negative","morality","","","","","","","","","","",""
"7012","
    <p><div style='color:white;font-size:35px; line-height:20px;'>请您再次阅读实验要求</div></p><br>
    <p><div style='color:white;font-size:25px; line-height:20px;'>请回忆某一个亲密的朋友，你们至少2年前就认识了，并且最近2年经常见面。</div></p>
    <p><div style='color:white;font-size:25px; line-height:20px;'>在本实验中，您将会看到一些形容词。</div></p>
    <p><div style='color:yellow;font-size:25px; line-height:20px;'>您的任务是判断这些形容词是否符合对您自己或您的朋友的描述。</div></p>
    <p><div class='footer' style='font-size:25px; line-height:20px;'>如果对本实验还有不清楚之处，请立即向实验员咨询。</p><p style='font-size:25px; line-height:20px;'>如果您明白了规则：</p><p style='font-size:22px; line-height:20px;'>请按 继续 进入正式实验</p>
    </div>
    <p style='font-size:35px'>符合按<span style=""color:lightgreen""> f 键</span>，不符合按<span style=""color:red""> j 键</span></p>","0","html-button-response","13","787404","0.0-7.0-2.0","6","6","5","5","3","5","5","5","5","5","5","1","-2","1","1","0","1","2","1","5","4","5","5","4","3","4","3","5","4","9","7","8","9","9","9","9","9","9","6","6","2","7","4","5","3","6","7","3","1","2","3","5","5","6","3","6","6","6","6","2","3","3","3","3","6","5","6","3","7","6","6","7","7","2","6","7","6","2","2","680570095751135232","温","88","Female","[""好她"",""坏她"",""好我"",""坏我""]","[""强她"",""弱她"",""强我"",""弱我""]","","","","","","","","","","","","","","","","","SRET_EW","prac_instructions","Sat Jan 20 2024 18:45:10 GMT+0800 (中国标准时间)","","","","","","","","","","","","","","","","","","","",""
"527","","f","psychophysics","14","788934","0.0-7.0-3.0-0.0","6","6","5","5","3","5","5","5","5","5","5","1","-2","1","1","0","1","2","1","5","4","5","5","4","3","4","3","5","4","9","7","8","9","9","9","9","9","9","6","6","2","7","4","5","3","6","7","3","1","2","3","5","5","6","3","6","6","6","6","2","3","3","3","3","6","5","6","3","7","6","6","7","7","2","6","7","6","2","2","680570095751135232","温","88","Female","[""好她"",""坏她"",""好我"",""坏我""]","[""强她"",""弱她"",""强我"",""弱我""]","","","","","","","","yes","","","","","","","","","SRET","EW_formal","","key","f","6.940454545454122","1066","596","自己","坚贞","Positive","morality","","","","","","","","","","",""
"715","","j","psychophysics","15","790651","0.0-7.0-3.0-0.1","6","6","5","5","3","5","5","5","5","5","5","1","-2","1","1","0","1","2","1","5","4","5","5","4","3","4","3","5","4","9","7","8","9","9","9","9","9","9","6","6","2","7","4","5","3","6","7","3","1","2","3","5","5","6","3","6","6","6","6","2","3","3","3","3","6","5","6","3","7","6","6","7","7","2","6","7","6","2","2","680570095751135232","温","88","Female","[""好她"",""坏她"",""好我"",""坏我""]","[""强她"",""弱她"",""强我"",""弱我""]","","","","","","","","no","","","","","","","","","SRET","EW_formal","","key","j","6.943495934959728","1066","596","朋友","迷糊","Negative","ability","","","","","","","","","","",""
"674","","j","psychophysics","16","792327","0.0-7.0-3.0-0.2","6","6","5","5","3","5","5","5","5","5","5","1","-2","1","1","0","1","2","1","5","4","5","5","4","3","4","3","5","4","9","7","8","9","9","9","9","9","9","6","6","2","7","4","5","3","6","7","3","1","2","3","5","5","6","3","6","6","6","6","2","3","3","3","3","6","5","6","3","7","6","6","7","7","2","6","7","6","2","2","680570095751135232","温","88","Female","[""好她"",""坏她"",""好我"",""坏我""]","[""强她"",""弱她"",""强我"",""弱我""]","","","","","","","","no","","","","","","","","","SRET","EW_formal","","key","j","6.9435684647303875","1066","596","自己","说谎","Negative","morality","","","","","","","","","","",""
"542","","f","psychophysics","17","793871","0.0-7.0-3.0-0.3","6","6","5","5","3","5","5","5","5","5","5","1","-2","1","1","0","1","2","1","5","4","5","5","4","3","4","3","5","4","9","7","8","9","9","9","9","9","9","6","6","2","7","4","5","3","6","7","3","1","2","3","5","5","6","3","6","6","6","6","2","3","3","3","3","6","5","6","3","7","6","6","7","7","2","6","7","6","2","2","680570095751135232","温","88","Female","[""好她"",""坏她"",""好我"",""坏我""]","[""强她"",""弱她"",""强我"",""弱我""]","","","","","","","","yes","","","","","","","","","SRET","EW_formal","","key","f","6.9434389140271495","1066","596","朋友","务实","Positive","ability","","","","","","","","","","",""
"557","","f","psychophysics","18","795429","0.0-7.0-3.0-0.4","6","6","5","5","3","5","5","5","5","5","5","1","-2","1","1","0","1","2","1","5","4","5","5","4","3","4","3","5","4","9","7","8","9","9","9","9","9","9","6","6","2","7","4","5","3","6","7","3","1","2","3","5","5","6","3","6","6","6","6","2","3","3","3","3","6","5","6","3","7","6","6","7","7","2","6","7","6","2","2","680570095751135232","温","88","Female","[""好她"",""坏她"",""好我"",""坏我""]","[""强她"",""弱她"",""强我"",""弱我""]","","","","","","","","yes","","","","","","","","","SRET","EW_formal","","key","f","6.943497757847638","1066","596","朋友","刚正","Positive","morality","","","","","","","","","","",""
"447","","f","psychophysics","19","796877","0.0-7.0-3.0-0.5","6","6","5","5","3","5","5","5","5","5","5","1","-2","1","1","0","1","2","1","5","4","5","5","4","3","4","3","5","4","9","7","8","9","9","9","9","9","9","6","6","2","7","4","5","3","6","7","3","1","2","3","5","5","6","3","6","6","6","6","2","3","3","3","3","6","5","6","3","7","6","6","7","7","2","6","7","6","2","2","680570095751135232","温","88","Female","[""好她"",""坏她"",""好我"",""坏我""]","[""强她"",""弱她"",""强我"",""弱我""]","","","","","","","","yes","","","","","","","","","SRET","EW_formal","","key","f","6.943749999999664","1066","596","自己","势利","Negative","morality","","","","","","","","","","",""
"939","","f","psychophysics","20","798818","0.0-7.0-3.0-0.6","6","6","5","5","3","5","5","5","5","5","5","1","-2","1","1","0","1","2","1","5","4","5","5","4","3","4","3","5","4","9","7","8","9","9","9","9","9","9","6","6","2","7","4","5","3","6","7","3","1","2","3","5","5","6","3","6","6","6","6","2","3","3","3","3","6","5","6","3","7","6","6","7","7","2","6","7","6","2","2","680570095751135232","温","88","Female","[""好她"",""坏她"",""好我"",""坏我""]","[""强她"",""弱她"",""强我"",""弱我""]","","","","","","","","yes","","","","","","","","","SRET","EW_formal","","key","f","6.943884892086415","1066","596","朋友","中用","Positive","ability","","","","","","","","","","",""
"688","","f","psychophysics","21","800508","0.0-7.0-3.0-0.7","6","6","5","5","3","5","5","5","5","5","5","1","-2","1","1","0","1","2","1","5","4","5","5","4","3","4","3","5","4","9","7","8","9","9","9","9","9","9","6","6","2","7","4","5","3","6","7","3","1","2","3","5","5","6","3","6","6","6","6","2","3","3","3","3","6","5","6","3","7","6","6","7","7","2","6","7","6","2","2","680570095751135232","温","88","Female","[""好她"",""坏她"",""好我"",""坏我""]","[""强她"",""弱她"",""强我"",""弱我""]","","","","","","","","yes","","","","","","","","","SRET","EW_formal","","key","f","6.942798353909369","1066","596","自己","上进","Positive","ability","","","","","","","","","","",""
"611","","j","psychophysics","22","802122","0.0-7.0-3.0-0.8","6","6","5","5","3","5","5","5","5","5","5","1","-2","1","1","0","1","2","1","5","4","5","5","4","3","4","3","5","4","9","7","8","9","9","9","9","9","9","6","6","2","7","4","5","3","6","7","3","1","2","3","5","5","6","3","6","6","6","6","2","3","3","3","3","6","5","6","3","7","6","6","7","7","2","6","7","6","2","2","680570095751135232","温","88","Female","[""好她"",""坏她"",""好我"",""坏我""]","[""强她"",""弱她"",""强我"",""弱我""]","","","","","","","","no","","","","","","","","","SRET","EW_formal","","key","j","6.943290043290144","1066","596","自己","无能","Negative","ability","","","","","","","","","","",""
"775","","f","psychophysics","23","803898","0.0-7.0-3.0-0.9","6","6","5","5","3","5","5","5","5","5","5","1","-2","1","1","0","1","2","1","5","4","5","5","4","3","4","3","5","4","9","7","8","9","9","9","9","9","9","6","6","2","7","4","5","3","6","7","3","1","2","3","5","5","6","3","6","6","6","6","2","3","3","3","3","6","5","6","3","7","6","6","7","7","2","6","7","6","2","2","680570095751135232","温","88","Female","[""好她"",""坏她"",""好我"",""坏我""]","[""强她"",""弱她"",""强我"",""弱我""]","","","","","","","","yes","","","","","","","","","SRET","EW_formal","","key","f","6.943921568627268","1066","596","朋友","刻苦","Positive","ability","","","","","","","","","","",""
"520","","f","psychophysics","24","805418","0.0-7.0-3.0-0.10","6","6","5","5","3","5","5","5","5","5","5","1","-2","1","1","0","1","2","1","5","4","5","5","4","3","4","3","5","4","9","7","8","9","9","9","9","9","9","6","6","2","7","4","5","3","6","7","3","1","2","3","5","5","6","3","6","6","6","6","2","3","3","3","3","6","5","6","3","7","6","6","7","7","2","6","7","6","2","2","680570095751135232","温","88","Female","[""好她"",""坏她"",""好我"",""坏我""]","[""强她"",""弱她"",""强我"",""弱我""]","","","","","","","","yes","","","","","","","","","SRET","EW_formal","","key","f","6.9435779816511625","1066","596","自己","礼貌","Positive","morality","","","","","","","","","","",""
"759","","j","psychophysics","25","807179","0.0-7.0-3.0-0.11","6","6","5","5","3","5","5","5","5","5","5","1","-2","1","1","0","1","2","1","5","4","5","5","4","3","4","3","5","4","9","7","8","9","9","9","9","9","9","6","6","2","7","4","5","3","6","7","3","1","2","3","5","5","6","3","6","6","6","6","2","3","3","3","3","6","5","6","3","7","6","6","7","7","2","6","7","6","2","2","680570095751135232","温","88","Female","[""好她"",""坏她"",""好我"",""坏我""]","[""强她"",""弱她"",""强我"",""弱我""]","","","","","","","","no","","","","","","","","","SRET","EW_formal","","key","j","6.943650793650979","1066","596","自己","侠义","Positive","morality","","","","","","","","","","",""
"503","","f","psychophysics","26","808684","0.0-7.0-3.0-0.12","6","6","5","5","3","5","5","5","5","5","5","1","-2","1","1","0","1","2","1","5","4","5","5","4","3","4","3","5","4","9","7","8","9","9","9","9","9","9","6","6","2","7","4","5","3","6","7","3","1","2","3","5","5","6","3","6","6","6","6","2","3","3","3","3","6","5","6","3","7","6","6","7","7","2","6","7","6","2","2","680570095751135232","温","88","Female","[""好她"",""坏她"",""好我"",""坏我""]","[""强她"",""弱她"",""强我"",""弱我""]","","","","","","","","yes","","","","","","","","","SRET","EW_formal","","key","f","6.9439814814810505","1066","596","自己","稳健","Positive","ability","","","","","","","","","","",""
"722","","j","psychophysics","27","810406","0.0-7.0-3.0-0.13","6","6","5","5","3","5","5","5","5","5","5","1","-2","1","1","0","1","2","1","5","4","5","5","4","3","4","3","5","4","9","7","8","9","9","9","9","9","9","6","6","2","7","4","5","3","6","7","3","1","2","3","5","5","6","3","6","6","6","6","2","3","3","3","3","6","5","6","3","7","6","6","7","7","2","6","7","6","2","2","680570095751135232","温","88","Female","[""好她"",""坏她"",""好我"",""坏我""]","[""强她"",""弱她"",""强我"",""弱我""]","","","","","","","","no","","","","","","","","","SRET","EW_formal","","key","j","6.944129554655682","1066","596","朋友","混账","Negative","morality","","","","","","","","","","",""
"528","","f","psychophysics","28","811935","0.0-7.0-3.0-0.14","6","6","5","5","3","5","5","5","5","5","5","1","-2","1","1","0","1","2","1","5","4","5","5","4","3","4","3","5","4","9","7","8","9","9","9","9","9","9","6","6","2","7","4","5","3","6","7","3","1","2","3","5","5","6","3","6","6","6","6","2","3","3","3","3","6","5","6","3","7","6","6","7","7","2","6","7","6","2","2","680570095751135232","温","88","Female","[""好她"",""坏她"",""好我"",""坏我""]","[""强她"",""弱她"",""强我"",""弱我""]","","","","","","","","yes","","","","","","","","","SRET","EW_formal","","key","f","6.943636363636258","1066","596","自己","文明","Positive","morality","","","","","","","","","","",""
"576","","j","psychophysics","29","813513","0.0-7.0-3.0-0.15","6","6","5","5","3","5","5","5","5","5","5","1","-2","1","1","0","1","2","1","5","4","5","5","4","3","4","3","5","4","9","7","8","9","9","9","9","9","9","6","6","2","7","4","5","3","6","7","3","1","2","3","5","5","6","3","6","6","6","6","2","3","3","3","3","6","5","6","3","7","6","6","7","7","2","6","7","6","2","2","680570095751135232","温","88","Female","[""好她"",""坏她"",""好我"",""坏我""]","[""强她"",""弱她"",""强我"",""弱我""]","","","","","","","","no","","","","","","","","","SRET","EW_formal","","key","j","6.943805309734719","1066","596","自己","刻薄","Negative","morality","","","","","","","","","","",""
"730","","j","psychophysics","30","815245","0.0-7.0-3.0-0.16","6","6","5","5","3","5","5","5","5","5","5","1","-2","1","1","0","1","2","1","5","4","5","5","4","3","4","3","5","4","9","7","8","9","9","9","9","9","9","6","6","2","7","4","5","3","6","7","3","1","2","3","5","5","6","3","6","6","6","6","2","3","3","3","3","6","5","6","3","7","6","6","7","7","2","6","7","6","2","2","680570095751135232","温","88","Female","[""好她"",""坏她"",""好我"",""坏我""]","[""强她"",""弱她"",""强我"",""弱我""]","","","","","","","","no","","","","","","","","","SRET","EW_formal","","key","j","6.943951612903601","1066","596","朋友","马虎","Negative","ability","","","","","","","","","","",""
"562","","j","psychophysics","31","816808","0.0-7.0-3.0-0.17","6","6","5","5","3","5","5","5","5","5","5","1","-2","1","1","0","1","2","1","5","4","5","5","4","3","4","3","5","4","9","7","8","9","9","9","9","9","9","6","6","2","7","4","5","3","6","7","3","1","2","3","5","5","6","3","6","6","6","6","2","3","3","3","3","6","5","6","3","7","6","6","7","7","2","6","7","6","2","2","680570095751135232","温","88","Female","[""好她"",""坏她"",""好我"",""坏我""]","[""强她"",""弱她"",""强我"",""弱我""]","","","","","","","","no","","","","","","","","","SRET","EW_formal","","key","j","6.94330357142826","1066","596","朋友","无私","Positive","morality","","","","","","","","","","",""
"955","","f","psychophysics","32","818764","0.0-7.0-3.0-0.18","6","6","5","5","3","5","5","5","5","5","5","1","-2","1","1","0","1","2","1","5","4","5","5","4","3","4","3","5","4","9","7","8","9","9","9","9","9","9","6","6","2","7","4","5","3","6","7","3","1","2","3","5","5","6","3","6","6","6","6","2","3","3","3","3","6","5","6","3","7","6","6","7","7","2","6","7","6","2","2","680570095751135232","温","88","Female","[""好她"",""坏她"",""好我"",""坏我""]","[""强她"",""弱她"",""强我"",""弱我""]","","","","","","","","yes","","","","","","","","","SRET","EW_formal","","key","f","6.943416370106679","1066","596","自己","无赖","Negative","morality","","","","","","","","","","",""
"701","","j","psychophysics","33","820466","0.0-7.0-3.0-0.19","6","6","5","5","3","5","5","5","5","5","5","1","-2","1","1","0","1","2","1","5","4","5","5","4","3","4","3","5","4","9","7","8","9","9","9","9","9","9","6","6","2","7","4","5","3","6","7","3","1","2","3","5","5","6","3","6","6","6","6","2","3","3","3","3","6","5","6","3","7","6","6","7","7","2","6","7","6","2","2","680570095751135232","温","88","Female","[""好她"",""坏她"",""好我"",""坏我""]","[""强她"",""弱她"",""强我"",""弱我""]","","","","","","","","no","","","","","","","","","SRET","EW_formal","","key","j","6.943442622950629","1066","596","自己","恶劣","Negative","morality","","","","","","","","","","",""
"596","","f","psychophysics","34","822063","0.0-7.0-3.0-0.20","6","6","5","5","3","5","5","5","5","5","5","1","-2","1","1","0","1","2","1","5","4","5","5","4","3","4","3","5","4","9","7","8","9","9","9","9","9","9","6","6","2","7","4","5","3","6","7","3","1","2","3","5","5","6","3","6","6","6","6","2","3","3","3","3","6","5","6","3","7","6","6","7","7","2","6","7","6","2","2","680570095751135232","温","88","Female","[""好她"",""坏她"",""好我"",""坏我""]","[""强她"",""弱她"",""强我"",""弱我""]","","","","","","","","yes","","","","","","","","","SRET","EW_formal","","key","f","6.943231441048035","1066","596","朋友","君子","Positive","morality","","","","","","","","","","",""
"632","","j","psychophysics","35","823696","0.0-7.0-3.0-0.21","6","6","5","5","3","5","5","5","5","5","5","1","-2","1","1","0","1","2","1","5","4","5","5","4","3","4","3","5","4","9","7","8","9","9","9","9","9","9","6","6","2","7","4","5","3","6","7","3","1","2","3","5","5","6","3","6","6","6","6","2","3","3","3","3","6","5","6","3","7","6","6","7","7","2","6","7","6","2","2","680570095751135232","温","88","Female","[""好她"",""坏她"",""好我"",""坏我""]","[""强她"",""弱她"",""强我"",""弱我""]","","","","","","","","no","","","","","","","","","SRET","EW_formal","","key","j","6.944017094017194","1066","596","自己","迂拙","Negative","ability","","","","","","","","","","",""
"580","","f","psychophysics","36","825276","0.0-7.0-3.0-0.22","6","6","5","5","3","5","5","5","5","5","5","1","-2","1","1","0","1","2","1","5","4","5","5","4","3","4","3","5","4","9","7","8","9","9","9","9","9","9","6","6","2","7","4","5","3","6","7","3","1","2","3","5","5","6","3","6","6","6","6","2","3","3","3","3","6","5","6","3","7","6","6","7","7","2","6","7","6","2","2","680570095751135232","温","88","Female","[""好她"",""坏她"",""好我"",""坏我""]","[""强她"",""弱她"",""强我"",""弱我""]","","","","","","","","yes","","","","","","","","","SRET","EW_formal","","key","f","6.943612334801557","1066","596","自己","专注","Positive","ability","","","","","","","","","","",""
"750","","f","psychophysics","37","827028","0.0-7.0-3.0-0.23","6","6","5","5","3","5","5","5","5","5","5","1","-2","1","1","0","1","2","1","5","4","5","5","4","3","4","3","5","4","9","7","8","9","9","9","9","9","9","6","6","2","7","4","5","3","6","7","3","1","2","3","5","5","6","3","6","6","6","6","2","3","3","3","3","6","5","6","3","7","6","6","7","7","2","6","7","6","2","2","680570095751135232","温","88","Female","[""好她"",""坏她"",""好我"",""坏我""]","[""强她"",""弱她"",""强我"",""弱我""]","","","","","","","","yes","","","","","","","","","SRET","EW_formal","","key","f","6.943027888446493","1066","596","朋友","坦荡","Positive","morality","","","","","","","","","","",""
"618","","f","psychophysics","38","828647","0.0-7.0-3.0-0.24","6","6","5","5","3","5","5","5","5","5","5","1","-2","1","1","0","1","2","1","5","4","5","5","4","3","4","3","5","4","9","7","8","9","9","9","9","9","9","6","6","2","7","4","5","3","6","7","3","1","2","3","5","5","6","3","6","6","6","6","2","3","3","3","3","6","5","6","3","7","6","6","7","7","2","6","7","6","2","2","680570095751135232","温","88","Female","[""好她"",""坏她"",""好我"",""坏我""]","[""强她"",""弱她"",""强我"",""弱我""]","","","","","","","","yes","","","","","","","","","SRET","EW_formal","","key","f","6.943965517241379","1066","596","自己","周到","Positive","ability","","","","","","","","","","",""
"565","","j","psychophysics","39","830212","0.0-7.0-3.0-0.25","6","6","5","5","3","5","5","5","5","5","5","1","-2","1","1","0","1","2","1","5","4","5","5","4","3","4","3","5","4","9","7","8","9","9","9","9","9","9","6","6","2","7","4","5","3","6","7","3","1","2","3","5","5","6","3","6","6","6","6","2","3","3","3","3","6","5","6","3","7","6","6","7","7","2","6","7","6","2","2","680570095751135232","温","88","Female","[""好她"",""坏她"",""好我"",""坏我""]","[""强她"",""弱她"",""强我"",""弱我""]","","","","","","","","no","","","","","","","","","SRET","EW_formal","","key","j","6.9431111111109045","1066","596","自己","低劣","Negative","morality","","","","","","","","","","",""
"492","","j","psychophysics","40","831706","0.0-7.0-3.0-0.26","6","6","5","5","3","5","5","5","5","5","5","1","-2","1","1","0","1","2","1","5","4","5","5","4","3","4","3","5","4","9","7","8","9","9","9","9","9","9","6","6","2","7","4","5","3","6","7","3","1","2","3","5","5","6","3","6","6","6","6","2","3","3","3","3","6","5","6","3","7","6","6","7","7","2","6","7","6","2","2","680570095751135232","温","88","Female","[""好她"",""坏她"",""好我"",""坏我""]","[""强她"",""弱她"",""强我"",""弱我""]","","","","","","","","no","","","","","","","","","SRET","EW_formal","","key","j","6.94392523364486","1066","596","自己","奸险","Negative","morality","","","","","","","","","","",""
"513","","f","psychophysics","41","833221","0.0-7.0-3.0-0.27","6","6","5","5","3","5","5","5","5","5","5","1","-2","1","1","0","1","2","1","5","4","5","5","4","3","4","3","5","4","9","7","8","9","9","9","9","9","9","6","6","2","7","4","5","3","6","7","3","1","2","3","5","5","6","3","6","6","6","6","2","3","3","3","3","6","5","6","3","7","6","6","7","7","2","6","7","6","2","2","680570095751135232","温","88","Female","[""好她"",""坏她"",""好我"",""坏我""]","[""强她"",""弱她"",""强我"",""弱我""]","","","","","","","","yes","","","","","","","","","SRET","EW_formal","","key","f","6.943317972350016","1066","596","自己","守法","Positive","morality","","","","","","","","","","",""
"558","","j","psychophysics","42","834781","0.0-7.0-3.0-0.28","6","6","5","5","3","5","5","5","5","5","5","1","-2","1","1","0","1","2","1","5","4","5","5","4","3","4","3","5","4","9","7","8","9","9","9","9","9","9","6","6","2","7","4","5","3","6","7","3","1","2","3","5","5","6","3","6","6","6","6","2","3","3","3","3","6","5","6","3","7","6","6","7","7","2","6","7","6","2","2","680570095751135232","温","88","Female","[""好她"",""坏她"",""好我"",""坏我""]","[""强她"",""弱她"",""强我"",""弱我""]","","","","","","","","no","","","","","","","","","SRET","EW_formal","","key","j","6.943750000000104","1066","596","朋友","贪污","Negative","morality","","","","","","","","","","",""
"516","","f","psychophysics","43","836298","0.0-7.0-3.0-0.29","6","6","5","5","3","5","5","5","5","5","5","1","-2","1","1","0","1","2","1","5","4","5","5","4","3","4","3","5","4","9","7","8","9","9","9","9","9","9","6","6","2","7","4","5","3","6","7","3","1","2","3","5","5","6","3","6","6","6","6","2","3","3","3","3","6","5","6","3","7","6","6","7","7","2","6","7","6","2","2","680570095751135232","温","88","Female","[""好她"",""坏她"",""好我"",""坏我""]","[""强她"",""弱她"",""强我"",""弱我""]","","","","","","","","yes","","","","","","","","","SRET","EW_formal","","key","f","6.9437788018429965","1066","596","朋友","细心","Positive","ability","","","","","","","","","","",""
"536","","j","psychophysics","44","837835","0.0-7.0-3.0-0.30","6","6","5","5","3","5","5","5","5","5","5","1","-2","1","1","0","1","2","1","5","4","5","5","4","3","4","3","5","4","9","7","8","9","9","9","9","9","9","6","6","2","7","4","5","3","6","7","3","1","2","3","5","5","6","3","6","6","6","6","2","3","3","3","3","6","5","6","3","7","6","6","7","7","2","6","7","6","2","2","680570095751135232","温","88","Female","[""好她"",""坏她"",""好我"",""坏我""]","[""强她"",""弱她"",""强我"",""弱我""]","","","","","","","","no","","","","","","","","","SRET","EW_formal","","key","j","6.9434389140271495","1066","596","自己","罪恶","Negative","morality","","","","","","","","","","",""
"568","","f","psychophysics","45","839404","0.0-7.0-3.0-0.31","6","6","5","5","3","5","5","5","5","5","5","1","-2","1","1","0","1","2","1","5","4","5","5","4","3","4","3","5","4","9","7","8","9","9","9","9","9","9","6","6","2","7","4","5","3","6","7","3","1","2","3","5","5","6","3","6","6","6","6","2","3","3","3","3","6","5","6","3","7","6","6","7","7","2","6","7","6","2","2","680570095751135232","温","88","Female","[""好她"",""坏她"",""好我"",""坏我""]","[""强她"",""弱她"",""强我"",""弱我""]","","","","","","","","yes","","","","","","","","","SRET","EW_formal","","key","f","6.943555555555762","1066","596","自己","诚信","Positive","morality","","","","","","","","","","",""
"700","","j","psychophysics","46","841107","0.0-7.0-3.0-0.32","6","6","5","5","3","5","5","5","5","5","5","1","-2","1","1","0","1","2","1","5","4","5","5","4","3","4","3","5","4","9","7","8","9","9","9","9","9","9","6","6","2","7","4","5","3","6","7","3","1","2","3","5","5","6","3","6","6","6","6","2","3","3","3","3","6","5","6","3","7","6","6","7","7","2","6","7","6","2","2","680570095751135232","温","88","Female","[""好她"",""坏她"",""好我"",""坏我""]","[""强她"",""弱她"",""强我"",""弱我""]","","","","","","","","no","","","","","","","","","SRET","EW_formal","","key","j","6.9438524590161075","1066","596","朋友","毛糙","Negative","ability","","","","","","","","","","",""
"571","","f","psychophysics","47","842679","0.0-7.0-3.0-0.33","6","6","5","5","3","5","5","5","5","5","5","1","-2","1","1","0","1","2","1","5","4","5","5","4","3","4","3","5","4","9","7","8","9","9","9","9","9","9","6","6","2","7","4","5","3","6","7","3","1","2","3","5","5","6","3","6","6","6","6","2","3","3","3","3","6","5","6","3","7","6","6","7","7","2","6","7","6","2","2","680570095751135232","温","88","Female","[""好她"",""坏她"",""好我"",""坏我""]","[""强她"",""弱她"",""强我"",""弱我""]","","","","","","","","yes","","","","","","","","","SRET","EW_formal","","key","f","6.9431111111109045","1066","596","自己","忠诚","Positive","morality","","","","","","","","","","",""
"385","","f","psychophysics","48","844065","0.0-7.0-3.0-0.34","6","6","5","5","3","5","5","5","5","5","5","1","-2","1","1","0","1","2","1","5","4","5","5","4","3","4","3","5","4","9","7","8","9","9","9","9","9","9","6","6","2","7","4","5","3","6","7","3","1","2","3","5","5","6","3","6","6","6","6","2","3","3","3","3","6","5","6","3","7","6","6","7","7","2","6","7","6","2","2","680570095751135232","温","88","Female","[""好她"",""坏她"",""好我"",""坏我""]","[""强她"",""弱她"",""强我"",""弱我""]","","","","","","","","yes","","","","","","","","","SRET","EW_formal","","key","f","6.944221105527755","1066","596","朋友","坚持","Positive","ability","","","","","","","","","","",""
"705","","j","psychophysics","49","845771","0.0-7.0-3.0-0.35","6","6","5","5","3","5","5","5","5","5","5","1","-2","1","1","0","1","2","1","5","4","5","5","4","3","4","3","5","4","9","7","8","9","9","9","9","9","9","6","6","2","7","4","5","3","6","7","3","1","2","3","5","5","6","3","6","6","6","6","2","3","3","3","3","6","5","6","3","7","6","6","7","7","2","6","7","6","2","2","680570095751135232","温","88","Female","[""好她"",""坏她"",""好我"",""坏我""]","[""强她"",""弱她"",""强我"",""弱我""]","","","","","","","","no","","","","","","","","","SRET","EW_formal","","key","j","6.943673469387565","1066","596","自己","短视","Negative","ability","","","","","","","","","","",""
"607","","f","psychophysics","50","847380","0.0-7.0-3.0-0.36","6","6","5","5","3","5","5","5","5","5","5","1","-2","1","1","0","1","2","1","5","4","5","5","4","3","4","3","5","4","9","7","8","9","9","9","9","9","9","6","6","2","7","4","5","3","6","7","3","1","2","3","5","5","6","3","6","6","6","6","2","3","3","3","3","6","5","6","3","7","6","6","7","7","2","6","7","6","2","2","680570095751135232","温","88","Female","[""好她"",""坏她"",""好我"",""坏我""]","[""强她"",""弱她"",""强我"",""弱我""]","","","","","","","","yes","","","","","","","","","SRET","EW_formal","","key","f","6.943478260869565","1066","596","朋友","廉正","Positive","morality","","","","","","","","","","",""
"659","","j","psychophysics","51","849040","0.0-7.0-3.0-0.37","6","6","5","5","3","5","5","5","5","5","5","1","-2","1","1","0","1","2","1","5","4","5","5","4","3","4","3","5","4","9","7","8","9","9","9","9","9","9","6","6","2","7","4","5","3","6","7","3","1","2","3","5","5","6","3","6","6","6","6","2","3","3","3","3","6","5","6","3","7","6","6","7","7","2","6","7","6","2","2","680570095751135232","温","88","Female","[""好她"",""坏她"",""好我"",""坏我""]","[""强她"",""弱她"",""强我"",""弱我""]","","","","","","","","no","","","","","","","","","SRET","EW_formal","","key","j","6.942857142857241","1066","596","自己","昏庸","Negative","ability","","","","","","","","","","",""
"651","","j","psychophysics","52","850693","0.0-7.0-3.0-0.38","6","6","5","5","3","5","5","5","5","5","5","1","-2","1","1","0","1","2","1","5","4","5","5","4","3","4","3","5","4","9","7","8","9","9","9","9","9","9","6","6","2","7","4","5","3","6","7","3","1","2","3","5","5","6","3","6","6","6","6","2","3","3","3","3","6","5","6","3","7","6","6","7","7","2","6","7","6","2","2","680570095751135232","温","88","Female","[""好她"",""坏她"",""好我"",""坏我""]","[""强她"",""弱她"",""强我"",""弱我""]","","","","","","","","no","","","","","","","","","SRET","EW_formal","","key","j","6.943881856539888","1066","596","朋友","缺德","Negative","morality","","","","","","","","","","",""
"586","","f","psychophysics","53","852280","0.0-7.0-3.0-0.39","6","6","5","5","3","5","5","5","5","5","5","1","-2","1","1","0","1","2","1","5","4","5","5","4","3","4","3","5","4","9","7","8","9","9","9","9","9","9","6","6","2","7","4","5","3","6","7","3","1","2","3","5","5","6","3","6","6","6","6","2","3","3","3","3","6","5","6","3","7","6","6","7","7","2","6","7","6","2","2","680570095751135232","温","88","Female","[""好她"",""坏她"",""好我"",""坏我""]","[""强她"",""弱她"",""强我"",""弱我""]","","","","","","","","yes","","","","","","","","","SRET","EW_formal","","key","f","6.943421052631477","1066","596","自己","犹豫","Negative","ability","","","","","","","","","","",""
"476","","j","psychophysics","54","853758","0.0-7.0-3.0-0.40","6","6","5","5","3","5","5","5","5","5","5","1","-2","1","1","0","1","2","1","5","4","5","5","4","3","4","3","5","4","9","7","8","9","9","9","9","9","9","6","6","2","7","4","5","3","6","7","3","1","2","3","5","5","6","3","6","6","6","6","2","3","3","3","3","6","5","6","3","7","6","6","7","7","2","6","7","6","2","2","680570095751135232","温","88","Female","[""好她"",""坏她"",""好我"",""坏我""]","[""强她"",""弱她"",""强我"",""弱我""]","","","","","","","","no","","","","","","","","","SRET","EW_formal","","key","j","6.943867924528192","1066","596","自己","邪恶","Negative","morality","","","","","","","","","","",""
"673","","j","psychophysics","55","855433","0.0-7.0-3.0-0.41","6","6","5","5","3","5","5","5","5","5","5","1","-2","1","1","0","1","2","1","5","4","5","5","4","3","4","3","5","4","9","7","8","9","9","9","9","9","9","6","6","2","7","4","5","3","6","7","3","1","2","3","5","5","6","3","6","6","6","6","2","3","3","3","3","6","5","6","3","7","6","6","7","7","2","6","7","6","2","2","680570095751135232","温","88","Female","[""好她"",""坏她"",""好我"",""坏我""]","[""强她"",""弱她"",""强我"",""弱我""]","","","","","","","","no","","","","","","","","","SRET","EW_formal","","key","j","6.94375","1066","596","朋友","拜金","Negative","morality","","","","","","","","","","",""
"576","","j","psychophysics","56","857010","0.0-7.0-3.0-0.42","6","6","5","5","3","5","5","5","5","5","5","1","-2","1","1","0","1","2","1","5","4","5","5","4","3","4","3","5","4","9","7","8","9","9","9","9","9","9","6","6","2","7","4","5","3","6","7","3","1","2","3","5","5","6","3","6","6","6","6","2","3","3","3","3","6","5","6","3","7","6","6","7","7","2","6","7","6","2","2","680570095751135232","温","88","Female","[""好她"",""坏她"",""好我"",""坏我""]","[""强她"",""弱她"",""强我"",""弱我""]","","","","","","","","no","","","","","","","","","SRET","EW_formal","","key","j","6.943805309734204","1066","596","朋友","屈才","Negative","ability","","","","","","","","","","",""
"740","","j","psychophysics","57","858751","0.0-7.0-3.0-0.43","6","6","5","5","3","5","5","5","5","5","5","1","-2","1","1","0","1","2","1","5","4","5","5","4","3","4","3","5","4","9","7","8","9","9","9","9","9","9","6","6","2","7","4","5","3","6","7","3","1","2","3","5","5","6","3","6","6","6","6","2","3","3","3","3","6","5","6","3","7","6","6","7","7","2","6","7","6","2","2","680570095751135232","温","88","Female","[""好她"",""坏她"",""好我"",""坏我""]","[""强她"",""弱她"",""强我"",""弱我""]","","","","","","","","no","","","","","","","","","SRET","EW_formal","","key","j","7.3559322033898304","1066","596","朋友","虚伪","Negative","morality","","","","","","","","","","",""
"658","","f","psychophysics","58","860412","0.0-7.0-3.0-0.44","6","6","5","5","3","5","5","5","5","5","5","1","-2","1","1","0","1","2","1","5","4","5","5","4","3","4","3","5","4","9","7","8","9","9","9","9","9","9","6","6","2","7","4","5","3","6","7","3","1","2","3","5","5","6","3","6","6","6","6","2","3","3","3","3","6","5","6","3","7","6","6","7","7","2","6","7","6","2","2","680570095751135232","温","88","Female","[""好她"",""坏她"",""好我"",""坏我""]","[""强她"",""弱她"",""强我"",""弱我""]","","","","","","","","yes","","","","","","","","","SRET","EW_formal","","key","f","6.944117647058627","1066","596","朋友","高效","Positive","ability","","","","","","","","","","",""
"540","","f","psychophysics","59","861953","0.0-7.0-3.0-0.45","6","6","5","5","3","5","5","5","5","5","5","1","-2","1","1","0","1","2","1","5","4","5","5","4","3","4","3","5","4","9","7","8","9","9","9","9","9","9","6","6","2","7","4","5","3","6","7","3","1","2","3","5","5","6","3","6","6","6","6","2","3","3","3","3","6","5","6","3","7","6","6","7","7","2","6","7","6","2","2","680570095751135232","温","88","Female","[""好她"",""坏她"",""好我"",""坏我""]","[""强她"",""弱她"",""强我"",""弱我""]","","","","","","","","yes","","","","","","","","","SRET","EW_formal","","key","f","6.9434389140271495","1066","596","朋友","奉献","Positive","morality","","","","","","","","","","",""
"785","","j","psychophysics","60","863739","0.0-7.0-3.0-0.46","6","6","5","5","3","5","5","5","5","5","5","1","-2","1","1","0","1","2","1","5","4","5","5","4","3","4","3","5","4","9","7","8","9","9","9","9","9","9","6","6","2","7","4","5","3","6","7","3","1","2","3","5","5","6","3","6","6","6","6","2","3","3","3","3","6","5","6","3","7","6","6","7","7","2","6","7","6","2","2","680570095751135232","温","88","Female","[""好她"",""坏她"",""好我"",""坏我""]","[""强她"",""弱她"",""强我"",""弱我""]","","","","","","","","no","","","","","","","","","SRET","EW_formal","","key","j","7.9","1066","596","朋友","笨蛋","Negative","ability","","","","","","","","","","",""
"615","","j","psychophysics","61","865357","0.0-7.0-3.0-0.47","6","6","5","5","3","5","5","5","5","5","5","1","-2","1","1","0","1","2","1","5","4","5","5","4","3","4","3","5","4","9","7","8","9","9","9","9","9","9","6","6","2","7","4","5","3","6","7","3","1","2","3","5","5","6","3","6","6","6","6","2","3","3","3","3","6","5","6","3","7","6","6","7","7","2","6","7","6","2","2","680570095751135232","温","88","Female","[""好她"",""坏她"",""好我"",""坏我""]","[""强她"",""弱她"",""强我"",""弱我""]","","","","","","","","no","","","","","","","","","SRET","EW_formal","","key","j","7.458333333333333","1066","596","自己","蛇蝎","Negative","morality","","","","","","","","","","",""
"614","","f","psychophysics","62","866972","0.0-7.0-3.0-0.48","6","6","5","5","3","5","5","5","5","5","5","1","-2","1","1","0","1","2","1","5","4","5","5","4","3","4","3","5","4","9","7","8","9","9","9","9","9","9","6","6","2","7","4","5","3","6","7","3","1","2","3","5","5","6","3","6","6","6","6","2","3","3","3","3","6","5","6","3","7","6","6","7","7","2","6","7","6","2","2","680570095751135232","温","88","Female","[""好她"",""坏她"",""好我"",""坏我""]","[""强她"",""弱她"",""强我"",""弱我""]","","","","","","","","yes","","","","","","","","","SRET","EW_formal","","key","f","7.460930232558573","1066","596","朋友","勤奋","Positive","ability","","","","","","","","","","",""
"656","","j","psychophysics","63","868631","0.0-7.0-3.0-0.49","6","6","5","5","3","5","5","5","5","5","5","1","-2","1","1","0","1","2","1","5","4","5","5","4","3","4","3","5","4","9","7","8","9","9","9","9","9","9","6","6","2","7","4","5","3","6","7","3","1","2","3","5","5","6","3","6","6","6","6","2","3","3","3","3","6","5","6","3","7","6","6","7","7","2","6","7","6","2","2","680570095751135232","温","88","Female","[""好她"",""坏她"",""好我"",""坏我""]","[""强她"",""弱她"",""强我"",""弱我""]","","","","","","","","no","","","","","","","","","SRET","EW_formal","","key","j","8.221890547263566","1066","596","朋友","虚假","Negative","morality","","","","","","","","","","",""
"544","","j","psychophysics","64","870177","0.0-7.0-3.0-0.50","6","6","5","5","3","5","5","5","5","5","5","1","-2","1","1","0","1","2","1","5","4","5","5","4","3","4","3","5","4","9","7","8","9","9","9","9","9","9","6","6","2","7","4","5","3","6","7","3","1","2","3","5","5","6","3","6","6","6","6","2","3","3","3","3","6","5","6","3","7","6","6","7","7","2","6","7","6","2","2","680570095751135232","温","88","Female","[""好她"",""坏她"",""好我"",""坏我""]","[""强她"",""弱她"",""强我"",""弱我""]","","","","","","","","no","","","","","","","","","SRET","EW_formal","","key","j","6.975113122171946","1066","596","朋友","无助","Negative","ability","","","","","","","","","","",""
"556","","f","psychophysics","65","871735","0.0-7.0-3.0-0.51","6","6","5","5","3","5","5","5","5","5","5","1","-2","1","1","0","1","2","1","5","4","5","5","4","3","4","3","5","4","9","7","8","9","9","9","9","9","9","6","6","2","7","4","5","3","6","7","3","1","2","3","5","5","6","3","6","6","6","6","2","3","3","3","3","6","5","6","3","7","6","6","7","7","2","6","7","6","2","2","680570095751135232","温","88","Female","[""好她"",""坏她"",""好我"",""坏我""]","[""强她"",""弱她"",""强我"",""弱我""]","","","","","","","","yes","","","","","","","","","SRET","EW_formal","","key","f","6.943750000000104","1066","596","自己","好心","Positive","morality","","","","","","","","","","",""
"520","","j","psychophysics","66","873255","0.0-7.0-3.0-0.52","6","6","5","5","3","5","5","5","5","5","5","1","-2","1","1","0","1","2","1","5","4","5","5","4","3","4","3","5","4","9","7","8","9","9","9","9","9","9","6","6","2","7","4","5","3","6","7","3","1","2","3","5","5","6","3","6","6","6","6","2","3","3","3","3","6","5","6","3","7","6","6","7","7","2","6","7","6","2","2","680570095751135232","温","88","Female","[""好她"",""坏她"",""好我"",""坏我""]","[""强她"",""弱她"",""强我"",""弱我""]","","","","","","","","no","","","","","","","","","SRET","EW_formal","","key","j","6.944036697247386","1066","596","朋友","愚痴","Negative","ability","","","","","","","","","","",""
"483","","f","psychophysics","67","874740","0.0-7.0-3.0-0.53","6","6","5","5","3","5","5","5","5","5","5","1","-2","1","1","0","1","2","1","5","4","5","5","4","3","4","3","5","4","9","7","8","9","9","9","9","9","9","6","6","2","7","4","5","3","6","7","3","1","2","3","5","5","6","3","6","6","6","6","2","3","3","3","3","6","5","6","3","7","6","6","7","7","2","6","7","6","2","2","680570095751135232","温","88","Female","[""好她"",""坏她"",""好我"",""坏我""]","[""强她"",""弱她"",""强我"",""弱我""]","","","","","","","","yes","","","","","","","","","SRET","EW_formal","","key","f","6.944131455398952","1066","596","自己","清廉","Positive","morality","","","","","","","","","","",""
"815","","j","psychophysics","68","876557","0.0-7.0-3.0-0.54","6","6","5","5","3","5","5","5","5","5","5","1","-2","1","1","0","1","2","1","5","4","5","5","4","3","4","3","5","4","9","7","8","9","9","9","9","9","9","6","6","2","7","4","5","3","6","7","3","1","2","3","5","5","6","3","6","6","6","6","2","3","3","3","3","6","5","6","3","7","6","6","7","7","2","6","7","6","2","2","680570095751135232","温","88","Female","[""好她"",""坏她"",""好我"",""坏我""]","[""强她"",""弱她"",""强我"",""弱我""]","","","","","","","","no","","","","","","","","","SRET","EW_formal","","key","j","6.943076923077192","1066","596","自己","无为","Negative","ability","","","","","","","","","","",""
"503","","f","psychophysics","69","878061","0.0-7.0-3.0-0.55","6","6","5","5","3","5","5","5","5","5","5","1","-2","1","1","0","1","2","1","5","4","5","5","4","3","4","3","5","4","9","7","8","9","9","9","9","9","9","6","6","2","7","4","5","3","6","7","3","1","2","3","5","5","6","3","6","6","6","6","2","3","3","3","3","6","5","6","3","7","6","6","7","7","2","6","7","6","2","2","680570095751135232","温","88","Female","[""好她"",""坏她"",""好我"",""坏我""]","[""强她"",""弱她"",""强我"",""弱我""]","","","","","","","","yes","","","","","","","","","SRET","EW_formal","","key","f","6.943518518518734","1066","596","自己","慈悲","Positive","morality","","","","","","","","","","",""
"548","","j","psychophysics","70","879611","0.0-7.0-3.0-0.56","6","6","5","5","3","5","5","5","5","5","5","1","-2","1","1","0","1","2","1","5","4","5","5","4","3","4","3","5","4","9","7","8","9","9","9","9","9","9","6","6","2","7","4","5","3","6","7","3","1","2","3","5","5","6","3","6","6","6","6","2","3","3","3","3","6","5","6","3","7","6","6","7","7","2","6","7","6","2","2","680570095751135232","温","88","Female","[""好她"",""坏她"",""好我"",""坏我""]","[""强她"",""弱她"",""强我"",""弱我""]","","","","","","","","no","","","","","","","","","SRET","EW_formal","","key","j","6.943243243243348","1066","596","朋友","黑心","Negative","morality","","","","","","","","","","",""
"669","","f","psychophysics","71","881281","0.0-7.0-3.0-0.57","6","6","5","5","3","5","5","5","5","5","5","1","-2","1","1","0","1","2","1","5","4","5","5","4","3","4","3","5","4","9","7","8","9","9","9","9","9","9","6","6","2","7","4","5","3","6","7","3","1","2","3","5","5","6","3","6","6","6","6","2","3","3","3","3","6","5","6","3","7","6","6","7","7","2","6","7","6","2","2","680570095751135232","温","88","Female","[""好她"",""坏她"",""好我"",""坏我""]","[""强她"",""弱她"",""强我"",""弱我""]","","","","","","","","yes","","","","","","","","","SRET","EW_formal","","key","f","6.94333333333343","1066","596","自己","自律","Positive","ability","","","","","","","","","","",""
"612","","f","psychophysics","72","882895","0.0-7.0-3.0-0.58","6","6","5","5","3","5","5","5","5","5","5","1","-2","1","1","0","1","2","1","5","4","5","5","4","3","4","3","5","4","9","7","8","9","9","9","9","9","9","6","6","2","7","4","5","3","6","7","3","1","2","3","5","5","6","3","6","6","6","6","2","3","3","3","3","6","5","6","3","7","6","6","7","7","2","6","7","6","2","2","680570095751135232","温","88","Female","[""好她"",""坏她"",""好我"",""坏我""]","[""强她"",""弱她"",""强我"",""弱我""]","","","","","","","","yes","","","","","","","","","SRET","EW_formal","","key","f","6.9437229437229435","1066","596","朋友","爱国","Positive","morality","","","","","","","","","","",""
"577","","f","psychophysics","73","884473","0.0-7.0-3.0-0.59","6","6","5","5","3","5","5","5","5","5","5","1","-2","1","1","0","1","2","1","5","4","5","5","4","3","4","3","5","4","9","7","8","9","9","9","9","9","9","6","6","2","7","4","5","3","6","7","3","1","2","3","5","5","6","3","6","6","6","6","2","3","3","3","3","6","5","6","3","7","6","6","7","7","2","6","7","6","2","2","680570095751135232","温","88","Female","[""好她"",""坏她"",""好我"",""坏我""]","[""强她"",""弱她"",""强我"",""弱我""]","","","","","","","","yes","","","","","","","","","SRET","EW_formal","","key","f","6.944247787610722","1066","596","朋友","仗义","Positive","morality","","","","","","","","","","",""
"728","","f","psychophysics","74","886201","0.0-7.0-3.0-0.60","6","6","5","5","3","5","5","5","5","5","5","1","-2","1","1","0","1","2","1","5","4","5","5","4","3","4","3","5","4","9","7","8","9","9","9","9","9","9","6","6","2","7","4","5","3","6","7","3","1","2","3","5","5","6","3","6","6","6","6","2","3","3","3","3","6","5","6","3","7","6","6","7","7","2","6","7","6","2","2","680570095751135232","温","88","Female","[""好她"",""坏她"",""好我"",""坏我""]","[""强她"",""弱她"",""强我"",""弱我""]","","","","","","","","yes","","","","","","","","","SRET","EW_formal","","key","f","6.943951612903132","1066","596","朋友","利落","Positive","ability","","","","","","","","","","",""
"464","","j","psychophysics","75","887667","0.0-7.0-3.0-0.61","6","6","5","5","3","5","5","5","5","5","5","1","-2","1","1","0","1","2","1","5","4","5","5","4","3","4","3","5","4","9","7","8","9","9","9","9","9","9","6","6","2","7","4","5","3","6","7","3","1","2","3","5","5","6","3","6","6","6","6","2","3","3","3","3","6","5","6","3","7","6","6","7","7","2","6","7","6","2","2","680570095751135232","温","88","Female","[""好她"",""坏她"",""好我"",""坏我""]","[""强她"",""弱她"",""强我"",""弱我""]","","","","","","","","no","","","","","","","","","SRET","EW_formal","","key","j","6.9438095238093025","1066","596","朋友","不孝","Negative","morality","","","","","","","","","","",""
"726","","f","psychophysics","76","889394","0.0-7.0-3.0-0.62","6","6","5","5","3","5","5","5","5","5","5","1","-2","1","1","0","1","2","1","5","4","5","5","4","3","4","3","5","4","9","7","8","9","9","9","9","9","9","6","6","2","7","4","5","3","6","7","3","1","2","3","5","5","6","3","6","6","6","6","2","3","3","3","3","6","5","6","3","7","6","6","7","7","2","6","7","6","2","2","680570095751135232","温","88","Female","[""好她"",""坏她"",""好我"",""坏我""]","[""强她"",""弱她"",""强我"",""弱我""]","","","","","","","","yes","","","","","","","","","SRET","EW_formal","","key","f","6.943548387096774","1066","596","朋友","厚道","Positive","morality","","","","","","","","","","",""
"661","","j","psychophysics","77","891055","0.0-7.0-3.0-0.63","6","6","5","5","3","5","5","5","5","5","5","1","-2","1","1","0","1","2","1","5","4","5","5","4","3","4","3","5","4","9","7","8","9","9","9","9","9","9","6","6","2","7","4","5","3","6","7","3","1","2","3","5","5","6","3","6","6","6","6","2","3","3","3","3","6","5","6","3","7","6","6","7","7","2","6","7","6","2","2","680570095751135232","温","88","Female","[""好她"",""坏她"",""好我"",""坏我""]","[""强她"",""弱她"",""强我"",""弱我""]","","","","","","","","no","","","","","","","","","SRET","EW_formal","","key","j","6.943697478991499","1066","596","朋友","偏私","Negative","morality","","","","","","","","","","",""
"582","","j","psychophysics","78","892637","0.0-7.0-3.0-0.64","6","6","5","5","3","5","5","5","5","5","5","1","-2","1","1","0","1","2","1","5","4","5","5","4","3","4","3","5","4","9","7","8","9","9","9","9","9","9","6","6","2","7","4","5","3","6","7","3","1","2","3","5","5","6","3","6","6","6","6","2","3","3","3","3","6","5","6","3","7","6","6","7","7","2","6","7","6","2","2","680570095751135232","温","88","Female","[""好她"",""坏她"",""好我"",""坏我""]","[""强她"",""弱她"",""强我"",""弱我""]","","","","","","","","no","","","","","","","","","SRET","EW_formal","","key","j","6.943612334801557","1066","596","朋友","浅薄","Negative","ability","","","","","","","","","","",""
"638","","f","psychophysics","79","894276","0.0-7.0-3.0-0.65","6","6","5","5","3","5","5","5","5","5","5","1","-2","1","1","0","1","2","1","5","4","5","5","4","3","4","3","5","4","9","7","8","9","9","9","9","9","9","6","6","2","7","4","5","3","6","7","3","1","2","3","5","5","6","3","6","6","6","6","2","3","3","3","3","6","5","6","3","7","6","6","7","7","2","6","7","6","2","2","680570095751135232","温","88","Female","[""好她"",""坏她"",""好我"",""坏我""]","[""强她"",""弱她"",""强我"",""弱我""]","","","","","","","","yes","","","","","","","","","SRET","EW_formal","","key","f","6.9438297872342405","1066","596","朋友","孝顺","Positive","morality","","","","","","","","","","",""
"551","","f","psychophysics","80","895828","0.0-7.0-3.0-0.66","6","6","5","5","3","5","5","5","5","5","5","1","-2","1","1","0","1","2","1","5","4","5","5","4","3","4","3","5","4","9","7","8","9","9","9","9","9","9","6","6","2","7","4","5","3","6","7","3","1","2","3","5","5","6","3","6","6","6","6","2","3","3","3","3","6","5","6","3","7","6","6","7","7","2","6","7","6","2","2","680570095751135232","温","88","Female","[""好她"",""坏她"",""好我"",""坏我""]","[""强她"",""弱她"",""强我"",""弱我""]","","","","","","","","yes","","","","","","","","","SRET","EW_formal","","key","f","6.943497757847638","1066","596","朋友","果断","Positive","ability","","","","","","","","","","",""
"626","","f","psychophysics","81","897456","0.0-7.0-3.0-0.67","6","6","5","5","3","5","5","5","5","5","5","1","-2","1","1","0","1","2","1","5","4","5","5","4","3","4","3","5","4","9","7","8","9","9","9","9","9","9","6","6","2","7","4","5","3","6","7","3","1","2","3","5","5","6","3","6","6","6","6","2","3","3","3","3","6","5","6","3","7","6","6","7","7","2","6","7","6","2","2","680570095751135232","温","88","Female","[""好她"",""坏她"",""好我"",""坏我""]","[""强她"",""弱她"",""强我"",""弱我""]","","","","","","","","yes","","","","","","","","","SRET","EW_formal","","key","f","6.944206008583691","1066","596","朋友","依靠","Negative","ability","","","","","","","","","","",""
"670","","f","psychophysics","82","899127","0.0-7.0-3.0-0.68","6","6","5","5","3","5","5","5","5","5","5","1","-2","1","1","0","1","2","1","5","4","5","5","4","3","4","3","5","4","9","7","8","9","9","9","9","9","9","6","6","2","7","4","5","3","6","7","3","1","2","3","5","5","6","3","6","6","6","6","2","3","3","3","3","6","5","6","3","7","6","6","7","7","2","6","7","6","2","2","680570095751135232","温","88","Female","[""好她"",""坏她"",""好我"",""坏我""]","[""强她"",""弱她"",""强我"",""弱我""]","","","","","","","","yes","","","","","","","","","SRET","EW_formal","","key","f","6.943333333332945","1066","596","自己","变通","Positive","ability","","","","","","","","","","",""
"607","","j","psychophysics","83","900735","0.0-7.0-3.0-0.69","6","6","5","5","3","5","5","5","5","5","5","1","-2","1","1","0","1","2","1","5","4","5","5","4","3","4","3","5","4","9","7","8","9","9","9","9","9","9","6","6","2","7","4","5","3","6","7","3","1","2","3","5","5","6","3","6","6","6","6","2","3","3","3","3","6","5","6","3","7","6","6","7","7","2","6","7","6","2","2","680570095751135232","温","88","Female","[""好她"",""坏她"",""好我"",""坏我""]","[""强她"",""弱她"",""强我"",""弱我""]","","","","","","","","no","","","","","","","","","SRET","EW_formal","","key","j","6.94434782608726","1066","596","自己","粗心","Negative","ability","","","","","","","","","","",""
"509","","j","psychophysics","84","902244","0.0-7.0-3.0-0.70","6","6","5","5","3","5","5","5","5","5","5","1","-2","1","1","0","1","2","1","5","4","5","5","4","3","4","3","5","4","9","7","8","9","9","9","9","9","9","6","6","2","7","4","5","3","6","7","3","1","2","3","5","5","6","3","6","6","6","6","2","3","3","3","3","6","5","6","3","7","6","6","7","7","2","6","7","6","2","2","680570095751135232","温","88","Female","[""好她"",""坏她"",""好我"",""坏我""]","[""强她"",""弱她"",""强我"",""弱我""]","","","","","","","","no","","","","","","","","","SRET","EW_formal","","key","j","6.9433179723505525","1066","596","朋友","窝囊","Negative","ability","","","","","","","","","","",""
"541","","f","psychophysics","85","903786","0.0-7.0-3.0-0.71","6","6","5","5","3","5","5","5","5","5","5","1","-2","1","1","0","1","2","1","5","4","5","5","4","3","4","3","5","4","9","7","8","9","9","9","9","9","9","6","6","2","7","4","5","3","6","7","3","1","2","3","5","5","6","3","6","6","6","6","2","3","3","3","3","6","5","6","3","7","6","6","7","7","2","6","7","6","2","2","680570095751135232","温","88","Female","[""好她"",""坏她"",""好我"",""坏我""]","[""强她"",""弱她"",""强我"",""弱我""]","","","","","","","","yes","","","","","","","","","SRET","EW_formal","","key","f","6.9429864253394715","1066","596","自己","沉着","Positive","ability","","","","","","","","","","",""
"754","","f","psychophysics","86","905543","0.0-7.0-3.0-0.72","6","6","5","5","3","5","5","5","5","5","5","1","-2","1","1","0","1","2","1","5","4","5","5","4","3","4","3","5","4","9","7","8","9","9","9","9","9","9","6","6","2","7","4","5","3","6","7","3","1","2","3","5","5","6","3","6","6","6","6","2","3","3","3","3","6","5","6","3","7","6","6","7","7","2","6","7","6","2","2","680570095751135232","温","88","Female","[""好她"",""坏她"",""好我"",""坏我""]","[""强她"",""弱她"",""强我"",""弱我""]","","","","","","","","yes","","","","","","","","","SRET","EW_formal","","key","f","6.944047619047249","1066","596","朋友","思辨","Positive","ability","","","","","","","","","","",""
"912","","f","psychophysics","87","907455","0.0-7.0-3.0-0.73","6","6","5","5","3","5","5","5","5","5","5","1","-2","1","1","0","1","2","1","5","4","5","5","4","3","4","3","5","4","9","7","8","9","9","9","9","9","9","6","6","2","7","4","5","3","6","7","3","1","2","3","5","5","6","3","6","6","6","6","2","3","3","3","3","6","5","6","3","7","6","6","7","7","2","6","7","6","2","2","680570095751135232","温","88","Female","[""好她"",""坏她"",""好我"",""坏我""]","[""强她"",""弱她"",""强我"",""弱我""]","","","","","","","","yes","","","","","","","","","SRET","EW_formal","","key","f","6.943065693430742","1066","596","自己","贪腐","Negative","morality","","","","","","","","","","",""
"1170","","f","psychophysics","88","909626","0.0-7.0-3.0-0.74","6","6","5","5","3","5","5","5","5","5","5","1","-2","1","1","0","1","2","1","5","4","5","5","4","3","4","3","5","4","9","7","8","9","9","9","9","9","9","6","6","2","7","4","5","3","6","7","3","1","2","3","5","5","6","3","6","6","6","6","2","3","3","3","3","6","5","6","3","7","6","6","7","7","2","6","7","6","2","2","680570095751135232","温","88","Female","[""好她"",""坏她"",""好我"",""坏我""]","[""强她"",""弱她"",""强我"",""弱我""]","","","","","","","","yes","","","","","","","","","SRET","EW_formal","","key","f","6.943589743589818","1066","596","自己","外行","Negative","ability","","","","","","","","","","",""
"629","","f","psychophysics","89","911257","0.0-7.0-3.0-0.75","6","6","5","5","3","5","5","5","5","5","5","1","-2","1","1","0","1","2","1","5","4","5","5","4","3","4","3","5","4","9","7","8","9","9","9","9","9","9","6","6","2","7","4","5","3","6","7","3","1","2","3","5","5","6","3","6","6","6","6","2","3","3","3","3","6","5","6","3","7","6","6","7","7","2","6","7","6","2","2","680570095751135232","温","88","Female","[""好她"",""坏她"",""好我"",""坏我""]","[""强她"",""弱她"",""强我"",""弱我""]","","","","","","","","yes","","","","","","","","","SRET","EW_formal","","key","f","6.944017094016696","1066","596","自己","善良","Positive","morality","","","","","","","","","","",""
"844","","f","psychophysics","90","913102","0.0-7.0-3.0-0.76","6","6","5","5","3","5","5","5","5","5","5","1","-2","1","1","0","1","2","1","5","4","5","5","4","3","4","3","5","4","9","7","8","9","9","9","9","9","9","6","6","2","7","4","5","3","6","7","3","1","2","3","5","5","6","3","6","6","6","6","2","3","3","3","3","6","5","6","3","7","6","6","7","7","2","6","7","6","2","2","680570095751135232","温","88","Female","[""好她"",""坏她"",""好我"",""坏我""]","[""强她"",""弱她"",""强我"",""弱我""]","","","","","","","","yes","","","","","","","","","SRET","EW_formal","","key","f","6.943939393939658","1066","596","朋友","果决","Positive","ability","","","","","","","","","","",""
"688","","f","psychophysics","91","914791","0.0-7.0-3.0-0.77","6","6","5","5","3","5","5","5","5","5","5","1","-2","1","1","0","1","2","1","5","4","5","5","4","3","4","3","5","4","9","7","8","9","9","9","9","9","9","6","6","2","7","4","5","3","6","7","3","1","2","3","5","5","6","3","6","6","6","6","2","3","3","3","3","6","5","6","3","7","6","6","7","7","2","6","7","6","2","2","680570095751135232","温","88","Female","[""好她"",""坏她"",""好我"",""坏我""]","[""强她"",""弱她"",""强我"",""弱我""]","","","","","","","","yes","","","","","","","","","SRET","EW_formal","","key","f","6.972314049586969","1066","596","自己","博学","Positive","ability","","","","","","","","","","",""
"591","","j","psychophysics","92","916383","0.0-7.0-3.0-0.78","6","6","5","5","3","5","5","5","5","5","5","1","-2","1","1","0","1","2","1","5","4","5","5","4","3","4","3","5","4","9","7","8","9","9","9","9","9","9","6","6","2","7","4","5","3","6","7","3","1","2","3","5","5","6","3","6","6","6","6","2","3","3","3","3","6","5","6","3","7","6","6","7","7","2","6","7","6","2","2","680570095751135232","温","88","Female","[""好她"",""坏她"",""好我"",""坏我""]","[""强她"",""弱她"",""强我"",""弱我""]","","","","","","","","no","","","","","","","","","SRET","EW_formal","","key","j","6.944298245613728","1066","596","朋友","卑鄙","Negative","morality","","","","","","","","","","",""
"612","","f","psychophysics","93","917996","0.0-7.0-3.0-0.79","6","6","5","5","3","5","5","5","5","5","5","1","-2","1","1","0","1","2","1","5","4","5","5","4","3","4","3","5","4","9","7","8","9","9","9","9","9","9","6","6","2","7","4","5","3","6","7","3","1","2","3","5","5","6","3","6","6","6","6","2","3","3","3","3","6","5","6","3","7","6","6","7","7","2","6","7","6","2","2","680570095751135232","温","88","Female","[""好她"",""坏她"",""好我"",""坏我""]","[""强她"",""弱她"",""强我"",""弱我""]","","","","","","","","yes","","","","","","","","","SRET","EW_formal","","key","f","6.973913043478261","1066","596","自己","高明","Positive","ability","","","","","","","","","","",""
"545","","f","psychophysics","94","919542","0.0-7.0-3.0-0.80","6","6","5","5","3","5","5","5","5","5","5","1","-2","1","1","0","1","2","1","5","4","5","5","4","3","4","3","5","4","9","7","8","9","9","9","9","9","9","6","6","2","7","4","5","3","6","7","3","1","2","3","5","5","6","3","6","6","6","6","2","3","3","3","3","6","5","6","3","7","6","6","7","7","2","6","7","6","2","2","680570095751135232","温","88","Female","[""好她"",""坏她"",""好我"",""坏我""]","[""强她"",""弱她"",""强我"",""弱我""]","","","","","","","","yes","","","","","","","","","SRET","EW_formal","","key","f","6.943243243243348","1066","596","自己","精干","Positive","ability","","","","","","","","","","",""
"684","","j","psychophysics","95","921228","0.0-7.0-3.0-0.81","6","6","5","5","3","5","5","5","5","5","5","1","-2","1","1","0","1","2","1","5","4","5","5","4","3","4","3","5","4","9","7","8","9","9","9","9","9","9","6","6","2","7","4","5","3","6","7","3","1","2","3","5","5","6","3","6","6","6","6","2","3","3","3","3","6","5","6","3","7","6","6","7","7","2","6","7","6","2","2","680570095751135232","温","88","Female","[""好她"",""坏她"",""好我"",""坏我""]","[""强她"",""弱她"",""强我"",""弱我""]","","","","","","","","no","","","","","","","","","SRET","EW_formal","","key","j","6.944214876033058","1066","596","自己","废物","Negative","ability","","","","","","","","","","",""
"760","","j","psychophysics","96","922989","0.0-7.0-3.0-0.82","6","6","5","5","3","5","5","5","5","5","5","1","-2","1","1","0","1","2","1","5","4","5","5","4","3","4","3","5","4","9","7","8","9","9","9","9","9","9","6","6","2","7","4","5","3","6","7","3","1","2","3","5","5","6","3","6","6","6","6","2","3","3","3","3","6","5","6","3","7","6","6","7","7","2","6","7","6","2","2","680570095751135232","温","88","Female","[""好她"",""坏她"",""好我"",""坏我""]","[""强她"",""弱她"",""强我"",""弱我""]","","","","","","","","no","","","","","","","","","SRET","EW_formal","","key","j","6.943253968254245","1066","596","自己","拖延","Negative","ability","","","","","","","","","","",""
"683","","j","psychophysics","97","924673","0.0-7.0-3.0-0.83","6","6","5","5","3","5","5","5","5","5","5","1","-2","1","1","0","1","2","1","5","4","5","5","4","3","4","3","5","4","9","7","8","9","9","9","9","9","9","6","6","2","7","4","5","3","6","7","3","1","2","3","5","5","6","3","6","6","6","6","2","3","3","3","3","6","5","6","3","7","6","6","7","7","2","6","7","6","2","2","680570095751135232","温","88","Female","[""好她"",""坏她"",""好我"",""坏我""]","[""强她"",""弱她"",""强我"",""弱我""]","","","","","","","","no","","","","","","","","","SRET","EW_formal","","key","j","6.943388429751778","1066","596","朋友","无知","Negative","ability","","","","","","","","","","",""
"770","","f","psychophysics","98","926446","0.0-7.0-3.0-0.84","6","6","5","5","3","5","5","5","5","5","5","1","-2","1","1","0","1","2","1","5","4","5","5","4","3","4","3","5","4","9","7","8","9","9","9","9","9","9","6","6","2","7","4","5","3","6","7","3","1","2","3","5","5","6","3","6","6","6","6","2","3","3","3","3","6","5","6","3","7","6","6","7","7","2","6","7","6","2","2","680570095751135232","温","88","Female","[""好她"",""坏她"",""好我"",""坏我""]","[""强她"",""弱她"",""强我"",""弱我""]","","","","","","","","yes","","","","","","","","","SRET","EW_formal","","key","f","6.943700787401392","1066","596","朋友","素养","Positive","morality","","","","","","","","","","",""
"1038","","f","psychophysics","99","928485","0.0-7.0-3.0-0.85","6","6","5","5","3","5","5","5","5","5","5","1","-2","1","1","0","1","2","1","5","4","5","5","4","3","4","3","5","4","9","7","8","9","9","9","9","9","9","6","6","2","7","4","5","3","6","7","3","1","2","3","5","5","6","3","6","6","6","6","2","3","3","3","3","6","5","6","3","7","6","6","7","7","2","6","7","6","2","2","680570095751135232","温","88","Female","[""好她"",""坏她"",""好我"",""坏我""]","[""强她"",""弱她"",""强我"",""弱我""]","","","","","","","","yes","","","","","","","","","SRET","EW_formal","","key","f","6.943344709897691","1066","596","自己","缓慢","Negative","ability","","","","","","","","","","",""
"561","","f","psychophysics","100","930049","0.0-7.0-3.0-0.86","6","6","5","5","3","5","5","5","5","5","5","1","-2","1","1","0","1","2","1","5","4","5","5","4","3","4","3","5","4","9","7","8","9","9","9","9","9","9","6","6","2","7","4","5","3","6","7","3","1","2","3","5","5","6","3","6","6","6","6","2","3","3","3","3","6","5","6","3","7","6","6","7","7","2","6","7","6","2","2","680570095751135232","温","88","Female","[""好她"",""坏她"",""好我"",""坏我""]","[""强她"",""弱她"",""强我"",""弱我""]","","","","","","","","yes","","","","","","","","","SRET","EW_formal","","key","f","6.942857142857455","1066","596","自己","主见","Positive","ability","","","","","","","","","","",""
"534","","j","psychophysics","101","931584","0.0-7.0-3.0-0.87","6","6","5","5","3","5","5","5","5","5","5","1","-2","1","1","0","1","2","1","5","4","5","5","4","3","4","3","5","4","9","7","8","9","9","9","9","9","9","6","6","2","7","4","5","3","6","7","3","1","2","3","5","5","6","3","6","6","6","6","2","3","3","3","3","6","5","6","3","7","6","6","7","7","2","6","7","6","2","2","680570095751135232","温","88","Female","[""好她"",""坏她"",""好我"",""坏我""]","[""强她"",""弱她"",""强我"",""弱我""]","","","","","","","","no","","","","","","","","","SRET","EW_formal","","key","j","6.943636363636258","1066","596","朋友","低俗","Negative","morality","","","","","","","","","","",""
"7307","
    <p><div style='color:white;font-size:35px; line-height:20px;'>计算任务</div></p><br>
    <p><div style='color:red;font-size:25px; line-height:20px;'>接下来，您将看到一些四则运算题，<b>请从键盘选择 0-9 进行反应。</b></div></p>
    <p><div style='color:red;font-size:25px; line-height:20px;'>请尽可能快地进行计算，计算的速度和正确率将影响报酬的发放。</div></p>
    <p><div class='footer' style='color:white;font-size:25px; line-height:20px;'>如果对本实验还有不清楚之处，请立即向实验员咨询。</p><p style='color:white;font-size:25px; line-height:20px;'>如果您明白了规则：</p><p style='color:white;font-size:22px; line-height:20px;'>请按 继续 进入练习</p>
    </div>
    ","0","html-button-response","102","938892","0.0-7.0-4.0","6","6","5","5","3","5","5","5","5","5","5","1","-2","1","1","0","1","2","1","5","4","5","5","4","3","4","3","5","4","9","7","8","9","9","9","9","9","9","6","6","2","7","4","5","3","6","7","3","1","2","3","5","5","6","3","6","6","6","6","2","3","3","3","3","6","5","6","3","7","6","6","7","7","2","6","7","6","2","2","680570095751135232","温","88","Female","[""好她"",""坏她"",""好我"",""坏我""]","[""强她"",""弱她"",""强我"",""弱我""]","","","","","","","","","","","","","","","","","SRET_math","math_instructions","Sat Jan 20 2024 18:45:10 GMT+0800 (中国标准时间)","","","","","","","","","","","","","","","","","","","",""
"1882","","5","psychophysics","103","940776","0.0-7.0-5.0-0.0","6","6","5","5","3","5","5","5","5","5","5","1","-2","1","1","0","1","2","1","5","4","5","5","4","3","4","3","5","4","9","7","8","9","9","9","9","9","9","6","6","2","7","4","5","3","6","7","3","1","2","3","5","5","6","3","6","6","6","6","2","3","3","3","3","6","5","6","3","7","6","6","7","7","2","6","7","6","2","2","680570095751135232","温","88","Female","[""好她"",""坏她"",""好我"",""坏我""]","[""强她"",""弱她"",""强我"",""弱我""]","","","","","","","","5","","","","","","","","","SRET","SRET_math_calculate","","key","5","6.965555555555814","1066","596","","","","","5*0= ?","0","0","","","","","","","",""
"1933","","9","psychophysics","104","942710","0.0-7.0-5.0-0.1","6","6","5","5","3","5","5","5","5","5","5","1","-2","1","1","0","1","2","1","5","4","5","5","4","3","4","3","5","4","9","7","8","9","9","9","9","9","9","6","6","2","7","4","5","3","6","7","3","1","2","3","5","5","6","3","6","6","6","6","2","3","3","3","3","6","5","6","3","7","6","6","7","7","2","6","7","6","2","2","680570095751135232","温","88","Female","[""好她"",""坏她"",""好我"",""坏我""]","[""强她"",""弱她"",""强我"",""弱我""]","","","","","","","","9","","","","","","","","","SRET","SRET_math_calculate","","key","9","6.943884892086415","1066","596","","","","","8+1= ?","9","1","","","","","","","",""
"1784","","0","psychophysics","105","944495","0.0-7.0-5.0-0.2","6","6","5","5","3","5","5","5","5","5","5","1","-2","1","1","0","1","2","1","5","4","5","5","4","3","4","3","5","4","9","7","8","9","9","9","9","9","9","6","6","2","7","4","5","3","6","7","3","1","2","3","5","5","6","3","6","6","6","6","2","3","3","3","3","6","5","6","3","7","6","6","7","7","2","6","7","6","2","2","680570095751135232","温","88","Female","[""好她"",""坏她"",""好我"",""坏我""]","[""强她"",""弱她"",""强我"",""弱我""]","","","","","","","","0","","","","","","","","","SRET","SRET_math_calculate","","key","0","6.943749999999909","1066","596","","","","","6*0= ?","0","1","","","","","","","",""
"1897","","6","psychophysics","106","946393","0.0-7.0-5.0-0.3","6","6","5","5","3","5","5","5","5","5","5","1","-2","1","1","0","1","2","1","5","4","5","5","4","3","4","3","5","4","9","7","8","9","9","9","9","9","9","6","6","2","7","4","5","3","6","7","3","1","2","3","5","5","6","3","6","6","6","6","2","3","3","3","3","6","5","6","3","7","6","6","7","7","2","6","7","6","2","2","680570095751135232","温","88","Female","[""好她"",""坏她"",""好我"",""坏我""]","[""强她"",""弱她"",""强我"",""弱我""]","","","","","","","","6","","","","","","","","","SRET","SRET_math_calculate","","key","6","6.944117647058567","1066","596","","","","","2*3= ?","6","1","","","","","","","",""
"2689","","5","psychophysics","107","949084","0.0-7.0-5.0-0.4","6","6","5","5","3","5","5","5","5","5","5","1","-2","1","1","0","1","2","1","5","4","5","5","4","3","4","3","5","4","9","7","8","9","9","9","9","9","9","6","6","2","7","4","5","3","6","7","3","1","2","3","5","5","6","3","6","6","6","6","2","3","3","3","3","6","5","6","3","7","6","6","7","7","2","6","7","6","2","2","680570095751135232","温","88","Female","[""好她"",""坏她"",""好我"",""坏我""]","[""强她"",""弱她"",""强我"",""弱我""]","","","","","","","","5","","","","","","","","","SRET","SRET_math_calculate","","key","5","6.943264248704603","1066","596","","","","","16-11= ?","5","1","","","","","","","",""
"2110","","2","psychophysics","108","951197","0.0-7.0-5.0-0.5","6","6","5","5","3","5","5","5","5","5","5","1","-2","1","1","0","1","2","1","5","4","5","5","4","3","4","3","5","4","9","7","8","9","9","9","9","9","9","6","6","2","7","4","5","3","6","7","3","1","2","3","5","5","6","3","6","6","6","6","2","3","3","3","3","6","5","6","3","7","6","6","7","7","2","6","7","6","2","2","680570095751135232","温","88","Female","[""好她"",""坏她"",""好我"",""坏我""]","[""强她"",""弱她"",""强我"",""弱我""]","","","","","","","","2","","","","","","","","","SRET","SRET_math_calculate","","key","2","6.943421052631732","1066","596","","","","","12/6= ?","2","1","","","","","","","",""
"1825","","2","psychophysics","109","953023","0.0-7.0-5.0-0.6","6","6","5","5","3","5","5","5","5","5","5","1","-2","1","1","0","1","2","1","5","4","5","5","4","3","4","3","5","4","9","7","8","9","9","9","9","9","9","6","6","2","7","4","5","3","6","7","3","1","2","3","5","5","6","3","6","6","6","6","2","3","3","3","3","6","5","6","3","7","6","6","7","7","2","6","7","6","2","2","680570095751135232","温","88","Female","[""好她"",""坏她"",""好我"",""坏我""]","[""强她"",""弱她"",""强我"",""弱我""]","","","","","","","","2","","","","","","","","","SRET","SRET_math_calculate","","key","2","6.943511450381502","1066","596","","","","","8/4= ?","2","1","","","","","","","",""
"2497","","7","psychophysics","110","955522","0.0-7.0-5.0-0.7","6","6","5","5","3","5","5","5","5","5","5","1","-2","1","1","0","1","2","1","5","4","5","5","4","3","4","3","5","4","9","7","8","9","9","9","9","9","9","6","6","2","7","4","5","3","6","7","3","1","2","3","5","5","6","3","6","6","6","6","2","3","3","3","3","6","5","6","3","7","6","6","7","7","2","6","7","6","2","2","680570095751135232","温","88","Female","[""好她"",""坏她"",""好我"",""坏我""]","[""强她"",""弱她"",""强我"",""弱我""]","","","","","","","","7","","","","","","","","","SRET","SRET_math_calculate","","key","7","6.943732590529377","1066","596","","","","","9-2= ?","7","1","","","","","","","",""
"1940","","1","psychophysics","111","957463","0.0-7.0-5.0-0.8","6","6","5","5","3","5","5","5","5","5","5","1","-2","1","1","0","1","2","1","5","4","5","5","4","3","4","3","5","4","9","7","8","9","9","9","9","9","9","6","6","2","7","4","5","3","6","7","3","1","2","3","5","5","6","3","6","6","6","6","2","3","3","3","3","6","5","6","3","7","6","6","7","7","2","6","7","6","2","2","680570095751135232","温","88","Female","[""好她"",""坏她"",""好我"",""坏我""]","[""强她"",""弱她"",""强我"",""弱我""]","","","","","","","","1","","","","","","","","","SRET","SRET_math_calculate","","key","1","6.9431654676257315","1066","596","","","","","30-29= ?","1","1","","","","","","","",""
"2685","","8","psychophysics","112","960149","0.0-7.0-5.0-0.9","6","6","5","5","3","5","5","5","5","5","5","1","-2","1","1","0","1","2","1","5","4","5","5","4","3","4","3","5","4","9","7","8","9","9","9","9","9","9","6","6","2","7","4","5","3","6","7","3","1","2","3","5","5","6","3","6","6","6","6","2","3","3","3","3","6","5","6","3","7","6","6","7","7","2","6","7","6","2","2","680570095751135232","温","88","Female","[""好她"",""坏她"",""好我"",""坏我""]","[""强她"",""弱她"",""强我"",""弱我""]","","","","","","","","8","","","","","","","","","SRET","SRET_math_calculate","","key","8","6.943782383419809","1066","596","","","","","72/9= ?","8","1","","","","","","","",""
"1861","","6","psychophysics","113","962011","0.0-7.0-5.0-0.10","6","6","5","5","3","5","5","5","5","5","5","1","-2","1","1","0","1","2","1","5","4","5","5","4","3","4","3","5","4","9","7","8","9","9","9","9","9","9","6","6","2","7","4","5","3","6","7","3","1","2","3","5","5","6","3","6","6","6","6","2","3","3","3","3","6","5","6","3","7","6","6","7","7","2","6","7","6","2","2","680570095751135232","温","88","Female","[""好她"",""坏她"",""好我"",""坏我""]","[""强她"",""弱她"",""强我"",""弱我""]","","","","","","","","6","","","","","","","","","SRET","SRET_math_calculate","","key","6","6.943071161048864","1066","596","","","","","18/2= ?","9","0","","","","","","","",""
"1816","","5","psychophysics","114","963827","0.0-7.0-5.0-0.11","6","6","5","5","3","5","5","5","5","5","5","1","-2","1","1","0","1","2","1","5","4","5","5","4","3","4","3","5","4","9","7","8","9","9","9","9","9","9","6","6","2","7","4","5","3","6","7","3","1","2","3","5","5","6","3","6","6","6","6","2","3","3","3","3","6","5","6","3","7","6","6","7","7","2","6","7","6","2","2","680570095751135232","温","88","Female","[""好她"",""坏她"",""好我"",""坏我""]","[""强她"",""弱她"",""强我"",""弱我""]","","","","","","","","5","","","","","","","","","SRET","SRET_math_calculate","","key","5","6.943678160919719","1066","596","","","","","9-4= ?","5","1","","","","","","","",""
"1775","","3","psychophysics","115","965604","0.0-7.0-5.0-0.12","6","6","5","5","3","5","5","5","5","5","5","1","-2","1","1","0","1","2","1","5","4","5","5","4","3","4","3","5","4","9","7","8","9","9","9","9","9","9","6","6","2","7","4","5","3","6","7","3","1","2","3","5","5","6","3","6","6","6","6","2","3","3","3","3","6","5","6","3","7","6","6","7","7","2","6","7","6","2","2","680570095751135232","温","88","Female","[""好她"",""坏她"",""好我"",""坏我""]","[""强她"",""弱她"",""强我"",""弱我""]","","","","","","","","3","","","","","","","","","SRET","SRET_math_calculate","","key","3","6.943529411764614","1066","596","","","","","3+0= ?","3","1","","","","","","","",""
"1983","","5","psychophysics","116","967588","0.0-7.0-5.0-0.13","6","6","5","5","3","5","5","5","5","5","5","1","-2","1","1","0","1","2","1","5","4","5","5","4","3","4","3","5","4","9","7","8","9","9","9","9","9","9","6","6","2","7","4","5","3","6","7","3","1","2","3","5","5","6","3","6","6","6","6","2","3","3","3","3","6","5","6","3","7","6","6","7","7","2","6","7","6","2","2","680570095751135232","温","88","Female","[""好她"",""坏她"",""好我"",""坏我""]","[""强她"",""弱她"",""强我"",""弱我""]","","","","","","","","5","","","","","","","","","SRET","SRET_math_calculate","","key","5","6.943661971830986","1066","596","","","","","3+2= ?","5","1","","","","","","","",""
"1918","","8","psychophysics","117","969509","0.0-7.0-5.0-0.14","6","6","5","5","3","5","5","5","5","5","5","1","-2","1","1","0","1","2","1","5","4","5","5","4","3","4","3","5","4","9","7","8","9","9","9","9","9","9","6","6","2","7","4","5","3","6","7","3","1","2","3","5","5","6","3","6","6","6","6","2","3","3","3","3","6","5","6","3","7","6","6","7","7","2","6","7","6","2","2","680570095751135232","温","88","Female","[""好她"",""坏她"",""好我"",""坏我""]","[""强她"",""弱她"",""强我"",""弱我""]","","","","","","","","8","","","","","","","","","SRET","SRET_math_calculate","","key","8","6.943478260869649","1066","596","","","","","2*4= ?","8","1","","","","","","","",""
"1869","","7","psychophysics","118","971379","0.0-7.0-5.0-0.15","6","6","5","5","3","5","5","5","5","5","5","1","-2","1","1","0","1","2","1","5","4","5","5","4","3","4","3","5","4","9","7","8","9","9","9","9","9","9","6","6","2","7","4","5","3","6","7","3","1","2","3","5","5","6","3","6","6","6","6","2","3","3","3","3","6","5","6","3","7","6","6","7","7","2","6","7","6","2","2","680570095751135232","温","88","Female","[""好她"",""坏她"",""好我"",""坏我""]","[""强她"",""弱她"",""强我"",""弱我""]","","","","","","","","7","","","","","","","","","SRET","SRET_math_calculate","","key","7","6.9440298507462686","1066","596","","","","","5+2= ?","7","1","","","","","","","",""
"2128","","5","psychophysics","119","973509","0.0-7.0-5.0-0.16","6","6","5","5","3","5","5","5","5","5","5","1","-2","1","1","0","1","2","1","5","4","5","5","4","3","4","3","5","4","9","7","8","9","9","9","9","9","9","6","6","2","7","4","5","3","6","7","3","1","2","3","5","5","6","3","6","6","6","6","2","3","3","3","3","6","5","6","3","7","6","6","7","7","2","6","7","6","2","2","680570095751135232","温","88","Female","[""好她"",""坏她"",""好我"",""坏我""]","[""强她"",""弱她"",""强我"",""弱我""]","","","","","","","","5","","","","","","","","","SRET","SRET_math_calculate","","key","5","6.943464052287429","1066","596","","","","","2+3= ?","5","1","","","","","","","",""
"1778","","1","psychophysics","120","975288","0.0-7.0-5.0-0.17","6","6","5","5","3","5","5","5","5","5","5","1","-2","1","1","0","1","2","1","5","4","5","5","4","3","4","3","5","4","9","7","8","9","9","9","9","9","9","6","6","2","7","4","5","3","6","7","3","1","2","3","5","5","6","3","6","6","6","6","2","3","3","3","3","6","5","6","3","7","6","6","7","7","2","6","7","6","2","2","680570095751135232","温","88","Female","[""好她"",""坏她"",""好我"",""坏我""]","[""强她"",""弱她"",""强我"",""弱我""]","","","","","","","","1","","","","","","","","","SRET","SRET_math_calculate","","key","1","6.943529411764614","1066","596","","","","","7*1=  ?","7","0","","","","","","","",""
"2080","","5","psychophysics","121","977370","0.0-7.0-5.0-0.18","6","6","5","5","3","5","5","5","5","5","5","1","-2","1","1","0","1","2","1","5","4","5","5","4","3","4","3","5","4","9","7","8","9","9","9","9","9","9","6","6","2","7","4","5","3","6","7","3","1","2","3","5","5","6","3","6","6","6","6","2","3","3","3","3","6","5","6","3","7","6","6","7","7","2","6","7","6","2","2","680570095751135232","温","88","Female","[""好她"",""坏她"",""好我"",""坏我""]","[""强她"",""弱她"",""强我"",""弱我""]","","","","","","","","5","","","","","","","","","SRET","SRET_math_calculate","","key","5","6.94314381270903","1066","596","","","","","5/1= ?","5","1","","","","","","","",""
"1923","","6","psychophysics","122","979295","0.0-7.0-5.0-0.19","6","6","5","5","3","5","5","5","5","5","5","1","-2","1","1","0","1","2","1","5","4","5","5","4","3","4","3","5","4","9","7","8","9","9","9","9","9","9","6","6","2","7","4","5","3","6","7","3","1","2","3","5","5","6","3","6","6","6","6","2","3","3","3","3","6","5","6","3","7","6","6","7","7","2","6","7","6","2","2","680570095751135232","温","88","Female","[""好她"",""坏她"",""好我"",""坏我""]","[""强她"",""弱她"",""强我"",""弱我""]","","","","","","","","6","","","","","","","","","SRET","SRET_math_calculate","","key","6","6.94420289855064","1066","596","","","","","9-3= ?","6","1","","","","","","","",""
"2550","","5","psychophysics","123","981847","0.0-7.0-5.0-0.20","6","6","5","5","3","5","5","5","5","5","5","1","-2","1","1","0","1","2","1","5","4","5","5","4","3","4","3","5","4","9","7","8","9","9","9","9","9","9","6","6","2","7","4","5","3","6","7","3","1","2","3","5","5","6","3","6","6","6","6","2","3","3","3","3","6","5","6","3","7","6","6","7","7","2","6","7","6","2","2","680570095751135232","温","88","Female","[""好她"",""坏她"",""好我"",""坏我""]","[""强她"",""弱她"",""强我"",""弱我""]","","","","","","","","5","","","","","","","","","SRET","SRET_math_calculate","","key","5","6.943324250681389","1066","596","","","","","12-7= ?","5","1","","","","","","","",""
"2464","","1","psychophysics","124","984312","0.0-7.0-5.0-0.21","6","6","5","5","3","5","5","5","5","5","5","1","-2","1","1","0","1","2","1","5","4","5","5","4","3","4","3","5","4","9","7","8","9","9","9","9","9","9","6","6","2","7","4","5","3","6","7","3","1","2","3","5","5","6","3","6","6","6","6","2","3","3","3","3","6","5","6","3","7","6","6","7","7","2","6","7","6","2","2","680570095751135232","温","88","Female","[""好她"",""坏她"",""好我"",""坏我""]","[""强她"",""弱她"",""强我"",""弱我""]","","","","","","","","1","","","","","","","","","SRET","SRET_math_calculate","","key","1","6.943220338982788","1066","596","","","","","12/12= ?","1","1","","","","","","","",""
"2286","","6","psychophysics","125","986599","0.0-7.0-5.0-0.22","6","6","5","5","3","5","5","5","5","5","5","1","-2","1","1","0","1","2","1","5","4","5","5","4","3","4","3","5","4","9","7","8","9","9","9","9","9","9","6","6","2","7","4","5","3","6","7","3","1","2","3","5","5","6","3","6","6","6","6","2","3","3","3","3","6","5","6","3","7","6","6","7","7","2","6","7","6","2","2","680570095751135232","温","88","Female","[""好她"",""坏她"",""好我"",""坏我""]","[""强她"",""弱她"",""强我"",""弱我""]","","","","","","","","6","","","","","","","","","SRET","SRET_math_calculate","","key","6","6.94390243902432","1066","596","","","","","2+4= ?","6","1","","","","","","","",""
"1787","","8","psychophysics","126","988388","0.0-7.0-5.0-0.23","6","6","5","5","3","5","5","5","5","5","5","1","-2","1","1","0","1","2","1","5","4","5","5","4","3","4","3","5","4","9","7","8","9","9","9","9","9","9","6","6","2","7","4","5","3","6","7","3","1","2","3","5","5","6","3","6","6","6","6","2","3","3","3","3","6","5","6","3","7","6","6","7","7","2","6","7","6","2","2","680570095751135232","温","88","Female","[""好她"",""坏她"",""好我"",""坏我""]","[""强她"",""弱她"",""强我"",""弱我""]","","","","","","","","8","","","","","","","","","SRET","SRET_math_calculate","","key","8","6.94319066147869","1066","596","","","","","1+7= ?","8","1","","","","","","","",""
"1738","","9","psychophysics","127","990127","0.0-7.0-5.0-0.24","6","6","5","5","3","5","5","5","5","5","5","1","-2","1","1","0","1","2","1","5","4","5","5","4","3","4","3","5","4","9","7","8","9","9","9","9","9","9","6","6","2","7","4","5","3","6","7","3","1","2","3","5","5","6","3","6","6","6","6","2","3","3","3","3","6","5","6","3","7","6","6","7","7","2","6","7","6","2","2","680570095751135232","温","88","Female","[""好她"",""坏她"",""好我"",""坏我""]","[""强她"",""弱她"",""强我"",""弱我""]","","","","","","","","9","","","","","","","","","SRET","SRET_math_calculate","","key","9","6.943775100401607","1066","596","","","","","1*9= ?","9","1","","","","","","","",""
"2236","","3","psychophysics","128","992365","0.0-7.0-5.0-0.25","6","6","5","5","3","5","5","5","5","5","5","1","-2","1","1","0","1","2","1","5","4","5","5","4","3","4","3","5","4","9","7","8","9","9","9","9","9","9","6","6","2","7","4","5","3","6","7","3","1","2","3","5","5","6","3","6","6","6","6","2","3","3","3","3","6","5","6","3","7","6","6","7","7","2","6","7","6","2","2","680570095751135232","温","88","Female","[""好她"",""坏她"",""好我"",""坏我""]","[""强她"",""弱她"",""强我"",""弱我""]","","","","","","","","3","","","","","","","","","SRET","SRET_math_calculate","","key","3","6.943788819875849","1066","596","","","","","12/4= ?","3","1","","","","","","","",""
"2019","","4","psychophysics","129","994385","0.0-7.0-5.0-0.26","6","6","5","5","3","5","5","5","5","5","5","1","-2","1","1","0","1","2","1","5","4","5","5","4","3","4","3","5","4","9","7","8","9","9","9","9","9","9","6","6","2","7","4","5","3","6","7","3","1","2","3","5","5","6","3","6","6","6","6","2","3","3","3","3","6","5","6","3","7","6","6","7","7","2","6","7","6","2","2","680570095751135232","温","88","Female","[""好她"",""坏她"",""好我"",""坏我""]","[""强她"",""弱她"",""强我"",""弱我""]","","","","","","","","4","","","","","","","","","SRET","SRET_math_calculate","","key","4","6.9431034482758625","1066","596","","","","","8-4= ?","4","1","","","","","","","",""
"2319","","2","psychophysics","130","996705","0.0-7.0-5.0-0.27","6","6","5","5","3","5","5","5","5","5","5","1","-2","1","1","0","1","2","1","5","4","5","5","4","3","4","3","5","4","9","7","8","9","9","9","9","9","9","6","6","2","7","4","5","3","6","7","3","1","2","3","5","5","6","3","6","6","6","6","2","3","3","3","3","6","5","6","3","7","6","6","7","7","2","6","7","6","2","2","680570095751135232","温","88","Female","[""好她"",""坏她"",""好我"",""坏我""]","[""强她"",""弱她"",""强我"",""弱我""]","","","","","","","","2","","","","","","","","","SRET","SRET_math_calculate","","key","2","6.942942942942943","1066","596","","","","","19-17= ?","2","1","","","","","","","",""
"2174","","9","psychophysics","131","998880","0.0-7.0-5.0-0.28","6","6","5","5","3","5","5","5","5","5","5","1","-2","1","1","0","1","2","1","5","4","5","5","4","3","4","3","5","4","9","7","8","9","9","9","9","9","9","6","6","2","7","4","5","3","6","7","3","1","2","3","5","5","6","3","6","6","6","6","2","3","3","3","3","6","5","6","3","7","6","6","7","7","2","6","7","6","2","2","680570095751135232","温","88","Female","[""好她"",""坏她"",""好我"",""坏我""]","[""强她"",""弱她"",""强我"",""弱我""]","","","","","","","","9","","","","","","","","","SRET","SRET_math_calculate","","key","9","6.943589743589818","1066","596","","","","","81/9= ?","9","1","","","","","","","",""
"1966","","4","psychophysics","132","1000847","0.0-7.0-5.0-0.29","6","6","5","5","3","5","5","5","5","5","5","1","-2","1","1","0","1","2","1","5","4","5","5","4","3","4","3","5","4","9","7","8","9","9","9","9","9","9","6","6","2","7","4","5","3","6","7","3","1","2","3","5","5","6","3","6","6","6","6","2","3","3","3","3","6","5","6","3","7","6","6","7","7","2","6","7","6","2","2","680570095751135232","温","88","Female","[""好她"",""坏她"",""好我"",""坏我""]","[""强她"",""弱她"",""强我"",""弱我""]","","","","","","","","4","","","","","","","","","SRET","SRET_math_calculate","","key","4","6.943617021276926","1066","596","","","","","20/5= ?","4","1","","","","","","","",""
"1798","","4","psychophysics","133","1002647","0.0-7.0-5.0-0.30","6","6","5","5","3","5","5","5","5","5","5","1","-2","1","1","0","1","2","1","5","4","5","5","4","3","4","3","5","4","9","7","8","9","9","9","9","9","9","6","6","2","7","4","5","3","6","7","3","1","2","3","5","5","6","3","6","6","6","6","2","3","3","3","3","6","5","6","3","7","6","6","7","7","2","6","7","6","2","2","680570095751135232","温","88","Female","[""好她"",""坏她"",""好我"",""坏我""]","[""强她"",""弱她"",""强我"",""弱我""]","","","","","","","","4","","","","","","","","","SRET","SRET_math_calculate","","key","4","6.944401544401904","1066","596","","","","","9-5= ?","4","1","","","","","","","",""
"2031","","8","psychophysics","134","1004679","0.0-7.0-5.0-0.31","6","6","5","5","3","5","5","5","5","5","5","1","-2","1","1","0","1","2","1","5","4","5","5","4","3","4","3","5","4","9","7","8","9","9","9","9","9","9","6","6","2","7","4","5","3","6","7","3","1","2","3","5","5","6","3","6","6","6","6","2","3","3","3","3","6","5","6","3","7","6","6","7","7","2","6","7","6","2","2","680570095751135232","温","88","Female","[""好她"",""坏她"",""好我"",""坏我""]","[""强她"",""弱她"",""强我"",""弱我""]","","","","","","","","8","","","","","","","","","SRET","SRET_math_calculate","","key","8","6.943642611683769","1066","596","","","","","13-5= ?","8","1","","","","","","","",""
"3244","","5","psychophysics","135","1007924","0.0-7.0-5.0-0.32","6","6","5","5","3","5","5","5","5","5","5","1","-2","1","1","0","1","2","1","5","4","5","5","4","3","4","3","5","4","9","7","8","9","9","9","9","9","9","6","6","2","7","4","5","3","6","7","3","1","2","3","5","5","6","3","6","6","6","6","2","3","3","3","3","6","5","6","3","7","6","6","7","7","2","6","7","6","2","2","680570095751135232","温","88","Female","[""好她"",""坏她"",""好我"",""坏我""]","[""强她"",""弱她"",""强我"",""弱我""]","","","","","","","","5","","","","","","","","","SRET","SRET_math_calculate","","key","5","6.943254817987152","1066","596","","","","","14-9= ?","5","1","","","","","","","",""
"2189","","3","psychophysics","136","1010114","0.0-7.0-5.0-0.33","6","6","5","5","3","5","5","5","5","5","5","1","-2","1","1","0","1","2","1","5","4","5","5","4","3","4","3","5","4","9","7","8","9","9","9","9","9","9","6","6","2","7","4","5","3","6","7","3","1","2","3","5","5","6","3","6","6","6","6","2","3","3","3","3","6","5","6","3","7","6","6","7","7","2","6","7","6","2","2","680570095751135232","温","88","Female","[""好她"",""坏她"",""好我"",""坏我""]","[""强她"",""弱她"",""强我"",""弱我""]","","","","","","","","3","","","","","","","","","SRET","SRET_math_calculate","","key","3","6.943630573248556","1066","596","","","","","9/3= ?","3","1","","","","","","","",""
"2236","","6","psychophysics","137","1012351","0.0-7.0-5.0-0.34","6","6","5","5","3","5","5","5","5","5","5","1","-2","1","1","0","1","2","1","5","4","5","5","4","3","4","3","5","4","9","7","8","9","9","9","9","9","9","6","6","2","7","4","5","3","6","7","3","1","2","3","5","5","6","3","6","6","6","6","2","3","3","3","3","6","5","6","3","7","6","6","7","7","2","6","7","6","2","2","680570095751135232","温","88","Female","[""好她"",""坏她"",""好我"",""坏我""]","[""强她"",""弱她"",""强我"",""弱我""]","","","","","","","","6","","","","","","","","","SRET","SRET_math_calculate","","key","6","6.943302180685503","1066","596","","","","","3*2= ?","6","1","","","","","","","",""
"1934","","3","psychophysics","138","1014286","0.0-7.0-5.0-0.35","6","6","5","5","3","5","5","5","5","5","5","1","-2","1","1","0","1","2","1","5","4","5","5","4","3","4","3","5","4","9","7","8","9","9","9","9","9","9","6","6","2","7","4","5","3","6","7","3","1","2","3","5","5","6","3","6","6","6","6","2","3","3","3","3","6","5","6","3","7","6","6","7","7","2","6","7","6","2","2","680570095751135232","温","88","Female","[""好她"",""坏她"",""好我"",""坏我""]","[""强她"",""弱她"",""强我"",""弱我""]","","","","","","","","3","","","","","","","","","SRET","SRET_math_calculate","","key","3","6.943525179856283","1066","596","","","","","1+2= ?","3","1","","","","","","","",""
"1841","","1","psychophysics","139","1016128","0.0-7.0-5.0-0.36","6","6","5","5","3","5","5","5","5","5","5","1","-2","1","1","0","1","2","1","5","4","5","5","4","3","4","3","5","4","9","7","8","9","9","9","9","9","9","6","6","2","7","4","5","3","6","7","3","1","2","3","5","5","6","3","6","6","6","6","2","3","3","3","3","6","5","6","3","7","6","6","7","7","2","6","7","6","2","2","680570095751135232","温","88","Female","[""好她"",""坏她"",""好我"",""坏我""]","[""强她"",""弱她"",""强我"",""弱我""]","","","","","","","","1","","","","","","","","","SRET","SRET_math_calculate","","key","1","6.943560606060518","1066","596","","","","","4/4= ?","1","1","","","","","","","",""
"1963","","7","psychophysics","140","1018093","0.0-7.0-5.0-0.37","6","6","5","5","3","5","5","5","5","5","5","1","-2","1","1","0","1","2","1","5","4","5","5","4","3","4","3","5","4","9","7","8","9","9","9","9","9","9","6","6","2","7","4","5","3","6","7","3","1","2","3","5","5","6","3","6","6","6","6","2","3","3","3","3","6","5","6","3","7","6","6","7","7","2","6","7","6","2","2","680570095751135232","温","88","Female","[""好她"",""坏她"",""好我"",""坏我""]","[""强她"",""弱她"",""强我"",""弱我""]","","","","","","","","7","","","","","","","","","SRET","SRET_math_calculate","","key","7","6.943617021276514","1066","596","","","","","6+1= ?","7","1","","","","","","","",""
"1909","","3","psychophysics","141","1020003","0.0-7.0-5.0-0.38","6","6","5","5","3","5","5","5","5","5","5","1","-2","1","1","0","1","2","1","5","4","5","5","4","3","4","3","5","4","9","7","8","9","9","9","9","9","9","6","6","2","7","4","5","3","6","7","3","1","2","3","5","5","6","3","6","6","6","6","2","3","3","3","3","6","5","6","3","7","6","6","7","7","2","6","7","6","2","2","680570095751135232","温","88","Female","[""好她"",""坏她"",""好我"",""坏我""]","[""强她"",""弱她"",""强我"",""弱我""]","","","","","","","","3","","","","","","","","","SRET","SRET_math_calculate","","key","3","6.9437956204378715","1066","596","","","","","3*1= ?","3","1","","","","","","","",""
"1889","","5","psychophysics","142","1021893","0.0-7.0-5.0-0.39","6","6","5","5","3","5","5","5","5","5","5","1","-2","1","1","0","1","2","1","5","4","5","5","4","3","4","3","5","4","9","7","8","9","9","9","9","9","9","6","6","2","7","4","5","3","6","7","3","1","2","3","5","5","6","3","6","6","6","6","2","3","3","3","3","6","5","6","3","7","6","6","7","7","2","6","7","6","2","2","680570095751135232","温","88","Female","[""好她"",""坏她"",""好我"",""坏我""]","[""强她"",""弱她"",""强我"",""弱我""]","","","","","","","","5","","","","","","","","","SRET","SRET_math_calculate","","key","5","6.943911439114563","1066","596","","","","","17-12= ? ","5","1","","","","","","","",""
