"rt","stimulus","response","trial_type","trial_index","time_elapsed","internal_node_id","swb_1","swb_2","swb_3","swb_4","swb_5","LOT_1","LOT_2","LOT_3","LOT_4","LOT_5","LOT_6","IPC_1","IPC_2","IPC_3","IPC_4","IPC_5","IPC_6","IPC_7","IPC_8","MorIden_1","MorIden_2","MorIden_3","MorIden_4","MorIden_5","MorIden_6","MorIden_7","MorIden_8","MorIden_9","MorIden_10","moralSeImag_1","moralSeImag_2","moralSeImag_3","moralSeImag_4","moralSeImag_5","moralSeImag_6","moralSeImag_7","moralSeImag_8","moralSeImag_9","sde_1","sde_2","sde_3","sde_4","sde_5","sde_6","sde_7","sde_8","sde_9","sde_10","trap2","sde_11","sde_12","sde_13","sde_14","sde_15","sde_16","sde_17","sde_18","sde_19","sde_20","IM_1","IM_2","IM_3","IM_4","IM_5","IM_6","IM_7","IM_8","IM_9","IM_10","IM_11","IM_12","IM_13","IM_14","IM_15","IM_16","IM_17","IM_18","IM_19","IM_20","subj_idx","friend_name","ParticipantID","Sex","Word","Word2","value","success","timeout","failed_images","failed_audio","failed_video","user_agent","responses","item_order","radio_event_ids","radio_event_times","key_event_times","mouse_event_times","straightlining","zigzagging","honeypot","view_history","response_type","key_press","avg_frame_time","center_x","center_y","correct_response","correct","identity","Image","word","condition","task_id","screen_id","time_stamp","person","valence","domain","math","status","duration","question_order","trap2_item"
"30017","
   <p><div style='color:white; font-size: 25px'>您好，欢迎参加本次实验。</div></p>
   <p><div style='color:white; font-size: 25px'>为充分保障您的权利，请确保您已经知晓并同意《参与实验同意书》以及《数据公开知情同意书》。</div></p>
   <p><div style='color:white; font-size: 25px'>如果您未见过上述内容，请咨询实验员。</div></p>
   <p style='color:white; font-size: 25px'>如果您选择继续实验，则表示您已经清楚两份知情同意书的内容并同意。</p>
   <p><div style = ""color: pink;font-size:30px;"">请确保您记得day0的实验编号，您将在本次实验输入该编号，若您忘记，请咨询实验员后作答。</div></p>
   <p><div style = ""color:lightblue;font-size:25px;"">请您尽可能认真地作答，我们将依据您在各问卷和按键任务中的作答质量发放报酬。</div></p>
   <p> <div style = ""color: green""><按空格键至下页></div> </p>
   "," ","html-keyboard-response","0","30022","0.0-0.0","3","2","4","3","3","4","4","4","4","4","4","1","1","1","0","0","1","1","0","5","4","5","5","4","3","4","4","4","3","4","5","4","6","5","7","5","6","4","5","5","3","5","4","3","5","2","5","4","1","4","4","2","4","3","4","5","5","3","5","3","4","3","3","3","5","5","6","5","6","6","6","6","7","5","6","3","5","5","5","594948255830245376","张","422","Female","[""好她"",""坏我"",""好我"",""坏她""]","[""强她"",""弱我"",""强我"",""弱她""]","","","","","","","","","","","","","","","","","","","","","","","","","","","","","","","","","","","","","","",""
"","","","call-function","1","30025","0.0-1.0-0.0","3","2","4","3","3","4","4","4","4","4","4","1","1","1","0","0","1","1","0","5","4","5","5","4","3","4","4","4","3","4","5","4","6","5","7","5","6","4","5","5","3","5","4","3","5","2","5","4","1","4","4","2","4","3","4","5","5","3","5","3","4","3","3","3","5","5","6","5","6","6","6","6","7","5","6","3","5","5","5","594948255830245376","张","422","Female","[""好她"",""坏我"",""好我"",""坏她""]","[""强她"",""弱我"",""强我"",""弱她""]","","","","","","","","","","","","","","","","","","","","","","","","","","","","","","","","","","","","","","",""
"172949","","[{""name"":""Sex"",""value"":""1""},{""name"":""friend_name"",""value"":""张""},{""name"":""ParticipantID"",""value"":""422""}]","survey-html-form","2","202975","0.0-1.0-1.0","3","2","4","3","3","4","4","4","4","4","4","1","1","1","0","0","1","1","0","5","4","5","5","4","3","4","4","4","3","4","5","4","6","5","7","5","6","4","5","5","3","5","4","3","5","2","5","4","1","4","4","2","4","3","4","5","5","3","5","3","4","3","3","3","5","5","6","5","6","6","6","6","7","5","6","3","5","5","5","594948255830245376","张","422","Female","[""好她"",""坏我"",""好我"",""坏她""]","[""强她"",""弱我"",""强我"",""弱她""]","","","","","","","","","","","","","","","","","","","","","","","","","","","","","","","","","","","","","","",""
"","","","preload","3","204361","0.0-2.0","3","2","4","3","3","4","4","4","4","4","4","1","1","1","0","0","1","1","0","5","4","5","5","4","3","4","4","4","3","4","5","4","6","5","7","5","6","4","5","5","3","5","4","3","5","2","5","4","1","4","4","2","4","3","4","5","5","3","5","3","4","3","3","3","5","5","6","5","6","6","6","6","7","5","6","3","5","5","5","594948255830245376","张","422","Female","[""好她"",""坏我"",""好我"",""坏她""]","[""强她"",""弱我"",""强我"",""弱她""]","","true","false","[]","[]","[]","","","","","","","","","","","","","","","","","","","","","","","","","","","","","","","","",""
"","","","fullscreen","4","210993","0.0-3.0","3","2","4","3","3","4","4","4","4","4","4","1","1","1","0","0","1","1","0","5","4","5","5","4","3","4","4","4","3","4","5","4","6","5","7","5","6","4","5","5","3","5","4","3","5","2","5","4","1","4","4","2","4","3","4","5","5","3","5","3","4","3","3","3","5","5","6","5","6","6","6","6","7","5","6","3","5","5","5","594948255830245376","张","422","Female","[""好她"",""坏我"",""好我"",""坏她""]","[""强她"",""弱我"",""强我"",""弱她""]","","true","","","","","{}","","","","","","","","","","","","","","","","","","","","","","","","","","","","","","","",""
"18971.699999999953","","{""Q01"":""3"",""Q02"":""2"",""Q03"":""4"",""Q04"":""3"",""Q05"":""3""}","survey-template","5","229969","0.0-4.0","3","2","4","3","3","4","4","4","4","4","4","1","1","1","0","0","1","1","0","5","4","5","5","4","3","4","4","4","3","4","5","4","6","5","7","5","6","4","5","5","3","5","4","3","5","2","5","4","1","4","4","2","4","3","4","5","5","3","5","3","4","3","3","3","5","5","6","5","6","6","6","6","7","5","6","3","5","5","5","594948255830245376","张","422","Female","[""好她"",""坏我"",""好我"",""坏她""]","[""强她"",""弱我"",""强我"",""弱她""]","","","","","","","","{""Q01"":""3"",""Q02"":""2"",""Q03"":""4"",""Q04"":""3"",""Q05"":""3""}","[0,1,2,3,4]","[""Q01"",""Q02"",""Q03"",""Q04"",""Q05""]","[4978.800000000047,7574.199999999953,9183.199999999953,12576.300000000047,15136.5]","[]","[4978.800000000047,7574.199999999953,9183.199999999953,12576.300000000047,15136.5,18967]","0.6","0.5","0","","","","","","","","","","","","","","","","","","","","","","",""
"35104.40000000002","","{""Q01"":""4"",""Q02"":""4"",""Q03"":""4"",""Q04"":""4"",""Q05"":""4"",""Q06"":""4""}","survey-template","6","265079","0.0-5.0","3","2","4","3","3","4","4","4","4","4","4","1","1","1","0","0","1","1","0","5","4","5","5","4","3","4","4","4","3","4","5","4","6","5","7","5","6","4","5","5","3","5","4","3","5","2","5","4","1","4","4","2","4","3","4","5","5","3","5","3","4","3","3","3","5","5","6","5","6","6","6","6","7","5","6","3","5","5","5","594948255830245376","张","422","Female","[""好她"",""坏我"",""好我"",""坏她""]","[""强她"",""弱我"",""强我"",""弱她""]","","","","","","","","{""Q01"":""4"",""Q02"":""4"",""Q03"":""4"",""Q04"":""4"",""Q05"":""4"",""Q06"":""4""}","[0,1,2,3,4,5]","[""Q01"",""Q02"",""Q03"",""Q04"",""Q05"",""Q06""]","[6616.800000000047,14710.199999999953,17950.400000000023,23656.900000000023,25338.800000000047,33447.80000000005]","[]","[6616.800000000047,14710.199999999953,17950.400000000023,21801.900000000023,23656.900000000023,25338.800000000047,31666.300000000047,33447.80000000005,35103]","0.5","0","0","","","","","","","","","","","","","","","","","","","","","","",""
"34230.5","","{""Q01"":""1"",""Q02"":""1"",""Q03"":""1"",""Q04"":""0"",""Q05"":""0"",""Q06"":""1"",""Q07"":""1"",""Q08"":""0""}","survey-template","7","299317","0.0-6.0","3","2","4","3","3","4","4","4","4","4","4","1","1","1","0","0","1","1","0","5","4","5","5","4","3","4","4","4","3","4","5","4","6","5","7","5","6","4","5","5","3","5","4","3","5","2","5","4","1","4","4","2","4","3","4","5","5","3","5","3","4","3","3","3","5","5","6","5","6","6","6","6","7","5","6","3","5","5","5","594948255830245376","张","422","Female","[""好她"",""坏我"",""好我"",""坏她""]","[""强她"",""弱我"",""强我"",""弱她""]","","","","","","","","{""Q01"":""1"",""Q02"":""1"",""Q03"":""1"",""Q04"":""0"",""Q05"":""0"",""Q06"":""1"",""Q07"":""1"",""Q08"":""0""}","[0,1,2,3,4,5,6,7]","[""Q01"",""Q02"",""Q03"",""Q04"",""Q05"",""Q06"",""Q07"",""Q08""]","[4271.599999999977,6312.400000000023,11229.5,13418.400000000023,18223.900000000023,20053.29999999993,26661.699999999953,33160]","[]","[4271.599999999977,6312.400000000023,11229.5,13418.400000000023,18223.900000000023,20053.29999999993,26661.699999999953,33160,34228.40000000002]","0.625","0.42857142857142855","0","","","","","","","","","","","","","","","","","","","","","","",""
"71437","","","instructions","8","370759","0.0-7.0","3","2","4","3","3","4","4","4","4","4","4","1","1","1","0","0","1","1","0","5","4","5","5","4","3","4","4","4","3","4","5","4","6","5","7","5","6","4","5","5","3","5","4","3","5","2","5","4","1","4","4","2","4","3","4","5","5","3","5","3","4","3","3","3","5","5","6","5","6","6","6","6","7","5","6","3","5","5","5","594948255830245376","张","422","Female","[""好她"",""坏我"",""好我"",""坏她""]","[""强她"",""弱我"",""强我"",""弱她""]","","","","","","","","","","","","","","","","","[{""page_index"":0,""viewing_time"":71437}]","","","","","","","","","","","","","","","","","","","","","",""
"103061","","","instructions","9","473823","0.0-8.0-1.0-0.0","3","2","4","3","3","4","4","4","4","4","4","1","1","1","0","0","1","1","0","5","4","5","5","4","3","4","4","4","3","4","5","4","6","5","7","5","6","4","5","5","3","5","4","3","5","2","5","4","1","4","4","2","4","3","4","5","5","3","5","3","4","3","3","3","5","5","6","5","6","6","6","6","7","5","6","3","5","5","5","594948255830245376","张","422","Female","[""好她"",""坏我"",""好我"",""坏她""]","[""强她"",""弱我"",""强我"",""弱她""]","","","","","","","","","","","","","","","","","[{""page_index"":0,""viewing_time"":23638},{""page_index"":1,""viewing_time"":66376},{""page_index"":2,""viewing_time"":10256},{""page_index"":3,""viewing_time"":2792}]","","","","","","","","","","","","","","","","","","","","","",""
"851","","f","psychophysics","10","475680","0.0-8.0-1.0-1.0-0.0-0.0","3","2","4","3","3","4","4","4","4","4","4","1","1","1","0","0","1","1","0","5","4","5","5","4","3","4","4","4","3","4","5","4","6","5","7","5","6","4","5","5","3","5","4","3","5","2","5","4","1","4","4","2","4","3","4","5","5","3","5","3","4","3","3","3","5","5","6","5","6","6","6","6","7","5","6","3","5","5","5","594948255830245376","张","422","Female","[""好她"",""坏我"",""好我"",""坏她""]","[""强她"",""弱我"",""强我"",""弱她""]","","","","","","","","match","","","","","","","","","","key","f","16.636936936936518","640","356","f","true","match","img/trapezoid.png","强她","强她","prac_ALT2_ability","practice_ability","","","","","","","","",""
"null","<span style='color:GreenYellow; font-size: 70px;'>正确! </span>","null","html-keyboard-response","11","476182","0.0-8.0-1.0-1.0-0.0-1.0","3","2","4","3","3","4","4","4","4","4","4","1","1","1","0","0","1","1","0","5","4","5","5","4","3","4","4","4","3","4","5","4","6","5","7","5","6","4","5","5","3","5","4","3","5","2","5","4","1","4","4","2","4","3","4","5","5","3","5","3","4","3","3","3","5","5","6","5","6","6","6","6","7","5","6","3","5","5","5","594948255830245376","张","422","Female","[""好她"",""坏我"",""好我"",""坏她""]","[""强她"",""弱我"",""强我"",""弱她""]","","","","","","","","","","","","","","","","","","","","","","","","","","","","","","feedback_test","","","","","","","","",""
"924","","j","psychophysics","12","478108","0.0-8.0-1.0-1.0-0.0-0.1","3","2","4","3","3","4","4","4","4","4","4","1","1","1","0","0","1","1","0","5","4","5","5","4","3","4","4","4","3","4","5","4","6","5","7","5","6","4","5","5","3","5","4","3","5","2","5","4","1","4","4","2","4","3","4","5","5","3","5","3","4","3","3","3","5","5","6","5","6","6","6","6","7","5","6","3","5","5","5","594948255830245376","张","422","Female","[""好她"",""坏我"",""好我"",""坏她""]","[""强她"",""弱我"",""强我"",""弱她""]","","","","","","","","nonmatch","","","","","","","","","","key","j","16.65478260869555","640","356","f","false","match","img/pentagon.png","强我","强我","prac_ALT2_ability","practice_ability","","","","","","","","",""
"null","<span style='color:red; font-size: 70px;'>错误! </span>","null","html-keyboard-response","13","478611","0.0-8.0-1.0-1.0-0.0-1.1","3","2","4","3","3","4","4","4","4","4","4","1","1","1","0","0","1","1","0","5","4","5","5","4","3","4","4","4","3","4","5","4","6","5","7","5","6","4","5","5","3","5","4","3","5","2","5","4","1","4","4","2","4","3","4","5","5","3","5","3","4","3","3","3","5","5","6","5","6","6","6","6","7","5","6","3","5","5","5","594948255830245376","张","422","Female","[""好她"",""坏我"",""好我"",""坏她""]","[""强她"",""弱我"",""强我"",""弱她""]","","","","","","","","","","","","","","","","","","","","","","","","","","","","","","feedback_test","","","","","","","","",""
"null","","null","psychophysics","14","480815","0.0-8.0-1.0-1.0-0.0-0.2","3","2","4","3","3","4","4","4","4","4","4","1","1","1","0","0","1","1","0","5","4","5","5","4","3","4","4","4","3","4","5","4","6","5","7","5","6","4","5","5","3","5","4","3","5","2","5","4","1","4","4","2","4","3","4","5","5","3","5","3","4","3","3","3","5","5","6","5","6","6","6","6","7","5","6","3","5","5","5","594948255830245376","张","422","Female","[""好她"",""坏我"",""好我"",""坏她""]","[""强她"",""弱我"",""强我"",""弱她""]","","","","","","","","null","","","","","","","","","","key","null","16.64961832061051","640","356","f","false","match","img/ellipse.png","弱她","弱她","prac_ALT2_ability","practice_ability","","","","","","","","",""
"null","<span class='add_' style='color:yellow; font-size: 70px;'> 太慢! </span>","null","html-keyboard-response","15","481316","0.0-8.0-1.0-1.0-0.0-1.2","3","2","4","3","3","4","4","4","4","4","4","1","1","1","0","0","1","1","0","5","4","5","5","4","3","4","4","4","3","4","5","4","6","5","7","5","6","4","5","5","3","5","4","3","5","2","5","4","1","4","4","2","4","3","4","5","5","3","5","3","4","3","3","3","5","5","6","5","6","6","6","6","7","5","6","3","5","5","5","594948255830245376","张","422","Female","[""好她"",""坏我"",""好我"",""坏她""]","[""强她"",""弱我"",""强我"",""弱她""]","","","","","","","","","","","","","","","","","","","","","","","","","","","","","","feedback_test","","","","","","","","",""
"729","","f","psychophysics","16","483047","0.0-8.0-1.0-1.0-0.0-0.3","3","2","4","3","3","4","4","4","4","4","4","1","1","1","0","0","1","1","0","5","4","5","5","4","3","4","4","4","3","4","5","4","6","5","7","5","6","4","5","5","3","5","4","3","5","2","5","4","1","4","4","2","4","3","4","5","5","3","5","3","4","3","3","3","5","5","6","5","6","6","6","6","7","5","6","3","5","5","5","594948255830245376","张","422","Female","[""好她"",""坏我"",""好我"",""坏她""]","[""强她"",""弱我"",""强我"",""弱她""]","","","","","","","","match","","","","","","","","","","key","f","16.649514563107022","640","356","f","true","match","img/trapezoid.png","强她","强她","prac_ALT2_ability","practice_ability","","","","","","","","",""
"null","<span style='color:GreenYellow; font-size: 70px;'>正确! </span>","null","html-keyboard-response","17","483549","0.0-8.0-1.0-1.0-0.0-1.3","3","2","4","3","3","4","4","4","4","4","4","1","1","1","0","0","1","1","0","5","4","5","5","4","3","4","4","4","3","4","5","4","6","5","7","5","6","4","5","5","3","5","4","3","5","2","5","4","1","4","4","2","4","3","4","5","5","3","5","3","4","3","3","3","5","5","6","5","6","6","6","6","7","5","6","3","5","5","5","594948255830245376","张","422","Female","[""好她"",""坏我"",""好我"",""坏她""]","[""强她"",""弱我"",""强我"",""弱她""]","","","","","","","","","","","","","","","","","","","","","","","","","","","","","","feedback_test","","","","","","","","",""
"null","","null","psychophysics","18","485754","0.0-8.0-1.0-1.0-0.0-0.4","3","2","4","3","3","4","4","4","4","4","4","1","1","1","0","0","1","1","0","5","4","5","5","4","3","4","4","4","3","4","5","4","6","5","7","5","6","4","5","5","3","5","4","3","5","2","5","4","1","4","4","2","4","3","4","5","5","3","5","3","4","3","3","3","5","5","6","5","6","6","6","6","7","5","6","3","5","5","5","594948255830245376","张","422","Female","[""好她"",""坏我"",""好我"",""坏她""]","[""强她"",""弱我"",""强我"",""弱她""]","","","","","","","","null","","","","","","","","","","key","null","16.6503816793894","640","356","j","false","nonmatch","img/pentagon.png","弱我","强我","prac_ALT2_ability","practice_ability","","","","","","","","",""
"null","<span class='add_' style='color:yellow; font-size: 70px;'> 太慢! </span>","null","html-keyboard-response","19","486255","0.0-8.0-1.0-1.0-0.0-1.4","3","2","4","3","3","4","4","4","4","4","4","1","1","1","0","0","1","1","0","5","4","5","5","4","3","4","4","4","3","4","5","4","6","5","7","5","6","4","5","5","3","5","4","3","5","2","5","4","1","4","4","2","4","3","4","5","5","3","5","3","4","3","3","3","5","5","6","5","6","6","6","6","7","5","6","3","5","5","5","594948255830245376","张","422","Female","[""好她"",""坏我"",""好我"",""坏她""]","[""强她"",""弱我"",""强我"",""弱她""]","","","","","","","","","","","","","","","","","","","","","","","","","","","","","","feedback_test","","","","","","","","",""
"1098","","j","psychophysics","20","488355","0.0-8.0-1.0-1.0-0.0-0.5","3","2","4","3","3","4","4","4","4","4","4","1","1","1","0","0","1","1","0","5","4","5","5","4","3","4","4","4","3","4","5","4","6","5","7","5","6","4","5","5","3","5","4","3","5","2","5","4","1","4","4","2","4","3","4","5","5","3","5","3","4","3","3","3","5","5","6","5","6","6","6","6","7","5","6","3","5","5","5","594948255830245376","张","422","Female","[""好她"",""坏我"",""好我"",""坏她""]","[""强她"",""弱我"",""强我"",""弱她""]","","","","","","","","nonmatch","","","","","","","","","","key","j","16.652","640","356","j","true","nonmatch","img/pentagon.png","弱她","强我","prac_ALT2_ability","practice_ability","","","","","","","","",""
"null","<span style='color:GreenYellow; font-size: 70px;'>正确! </span>","null","html-keyboard-response","21","488856","0.0-8.0-1.0-1.0-0.0-1.5","3","2","4","3","3","4","4","4","4","4","4","1","1","1","0","0","1","1","0","5","4","5","5","4","3","4","4","4","3","4","5","4","6","5","7","5","6","4","5","5","3","5","4","3","5","2","5","4","1","4","4","2","4","3","4","5","5","3","5","3","4","3","3","3","5","5","6","5","6","6","6","6","7","5","6","3","5","5","5","594948255830245376","张","422","Female","[""好她"",""坏我"",""好我"",""坏她""]","[""强她"",""弱我"",""强我"",""弱她""]","","","","","","","","","","","","","","","","","","","","","","","","","","","","","","feedback_test","","","","","","","","",""
"1140","","j","psychophysics","22","490998","0.0-8.0-1.0-1.0-0.0-0.6","3","2","4","3","3","4","4","4","4","4","4","1","1","1","0","0","1","1","0","5","4","5","5","4","3","4","4","4","3","4","5","4","6","5","7","5","6","4","5","5","3","5","4","3","5","2","5","4","1","4","4","2","4","3","4","5","5","3","5","3","4","3","3","3","5","5","6","5","6","6","6","6","7","5","6","3","5","5","5","594948255830245376","张","422","Female","[""好她"",""坏我"",""好我"",""坏她""]","[""强她"",""弱我"",""强我"",""弱她""]","","","","","","","","nonmatch","","","","","","","","","","key","j","16.65625","640","356","j","true","nonmatch","img/triangle.png","弱她","弱我","prac_ALT2_ability","practice_ability","","","","","","","","",""
"null","<span style='color:GreenYellow; font-size: 70px;'>正确! </span>","null","html-keyboard-response","23","491500","0.0-8.0-1.0-1.0-0.0-1.6","3","2","4","3","3","4","4","4","4","4","4","1","1","1","0","0","1","1","0","5","4","5","5","4","3","4","4","4","3","4","5","4","6","5","7","5","6","4","5","5","3","5","4","3","5","2","5","4","1","4","4","2","4","3","4","5","5","3","5","3","4","3","3","3","5","5","6","5","6","6","6","6","7","5","6","3","5","5","5","594948255830245376","张","422","Female","[""好她"",""坏我"",""好我"",""坏她""]","[""强她"",""弱我"",""强我"",""弱她""]","","","","","","","","","","","","","","","","","","","","","","","","","","","","","","feedback_test","","","","","","","","",""
"1168","","j","psychophysics","24","493670","0.0-8.0-1.0-1.0-0.0-0.7","3","2","4","3","3","4","4","4","4","4","4","1","1","1","0","0","1","1","0","5","4","5","5","4","3","4","4","4","3","4","5","4","6","5","7","5","6","4","5","5","3","5","4","3","5","2","5","4","1","4","4","2","4","3","4","5","5","3","5","3","4","3","3","3","5","5","6","5","6","6","6","6","7","5","6","3","5","5","5","594948255830245376","张","422","Female","[""好她"",""坏我"",""好我"",""坏她""]","[""强她"",""弱我"",""强我"",""弱她""]","","","","","","","","nonmatch","","","","","","","","","","key","j","16.650387596899407","640","356","j","true","nonmatch","img/ellipse.png","弱我","弱她","prac_ALT2_ability","practice_ability","","","","","","","","",""
"null","<span style='color:GreenYellow; font-size: 70px;'>正确! </span>","null","html-keyboard-response","25","494171","0.0-8.0-1.0-1.0-0.0-1.7","3","2","4","3","3","4","4","4","4","4","4","1","1","1","0","0","1","1","0","5","4","5","5","4","3","4","4","4","3","4","5","4","6","5","7","5","6","4","5","5","3","5","4","3","5","2","5","4","1","4","4","2","4","3","4","5","5","3","5","3","4","3","3","3","5","5","6","5","6","6","6","6","7","5","6","3","5","5","5","594948255830245376","张","422","Female","[""好她"",""坏我"",""好我"",""坏她""]","[""强她"",""弱我"",""强我"",""弱她""]","","","","","","","","","","","","","","","","","","","","","","","","","","","","","","feedback_test","","","","","","","","",""
"1003","","j","psychophysics","26","496176","0.0-8.0-1.0-1.0-0.0-0.8","3","2","4","3","3","4","4","4","4","4","4","1","1","1","0","0","1","1","0","5","4","5","5","4","3","4","4","4","3","4","5","4","6","5","7","5","6","4","5","5","3","5","4","3","5","2","5","4","1","4","4","2","4","3","4","5","5","3","5","3","4","3","3","3","5","5","6","5","6","6","6","6","7","5","6","3","5","5","5","594948255830245376","张","422","Female","[""好她"",""坏我"",""好我"",""坏她""]","[""强她"",""弱我"",""强我"",""弱她""]","","","","","","","","nonmatch","","","","","","","","","","key","j","16.64873949579793","640","356","j","true","nonmatch","img/ellipse.png","强她","弱她","prac_ALT2_ability","practice_ability","","","","","","","","",""
"null","<span style='color:GreenYellow; font-size: 70px;'>正确! </span>","null","html-keyboard-response","27","496678","0.0-8.0-1.0-1.0-0.0-1.8","3","2","4","3","3","4","4","4","4","4","4","1","1","1","0","0","1","1","0","5","4","5","5","4","3","4","4","4","3","4","5","4","6","5","7","5","6","4","5","5","3","5","4","3","5","2","5","4","1","4","4","2","4","3","4","5","5","3","5","3","4","3","3","3","5","5","6","5","6","6","6","6","7","5","6","3","5","5","5","594948255830245376","张","422","Female","[""好她"",""坏我"",""好我"",""坏她""]","[""强她"",""弱我"",""强我"",""弱她""]","","","","","","","","","","","","","","","","","","","","","","","","","","","","","","feedback_test","","","","","","","","",""
"1153","","j","psychophysics","28","498832","0.0-8.0-1.0-1.0-0.0-0.9","3","2","4","3","3","4","4","4","4","4","4","1","1","1","0","0","1","1","0","5","4","5","5","4","3","4","4","4","3","4","5","4","6","5","7","5","6","4","5","5","3","5","4","3","5","2","5","4","1","4","4","2","4","3","4","5","5","3","5","3","4","3","3","3","5","5","6","5","6","6","6","6","7","5","6","3","5","5","5","594948255830245376","张","422","Female","[""好她"",""坏我"",""好我"",""坏她""]","[""强她"",""弱我"",""强我"",""弱她""]","","","","","","","","nonmatch","","","","","","","","","","key","j","16.653124999999818","640","356","f","false","match","img/ellipse.png","弱她","弱她","prac_ALT2_ability","practice_ability","","","","","","","","",""
"null","<span style='color:red; font-size: 70px;'>错误! </span>","null","html-keyboard-response","29","499334","0.0-8.0-1.0-1.0-0.0-1.9","3","2","4","3","3","4","4","4","4","4","4","1","1","1","0","0","1","1","0","5","4","5","5","4","3","4","4","4","3","4","5","4","6","5","7","5","6","4","5","5","3","5","4","3","5","2","5","4","1","4","4","2","4","3","4","5","5","3","5","3","4","3","3","3","5","5","6","5","6","6","6","6","7","5","6","3","5","5","5","594948255830245376","张","422","Female","[""好她"",""坏我"",""好我"",""坏她""]","[""强她"",""弱我"",""强我"",""弱她""]","","","","","","","","","","","","","","","","","","","","","","","","","","","","","","feedback_test","","","","","","","","",""
"900","","j","psychophysics","30","501236","0.0-8.0-1.0-1.0-0.0-0.10","3","2","4","3","3","4","4","4","4","4","4","1","1","1","0","0","1","1","0","5","4","5","5","4","3","4","4","4","3","4","5","4","6","5","7","5","6","4","5","5","3","5","4","3","5","2","5","4","1","4","4","2","4","3","4","5","5","3","5","3","4","3","3","3","5","5","6","5","6","6","6","6","7","5","6","3","5","5","5","594948255830245376","张","422","Female","[""好她"",""坏我"",""好我"",""坏她""]","[""强她"",""弱我"",""强我"",""弱她""]","","","","","","","","nonmatch","","","","","","","","","","key","j","16.648672566371577","640","356","f","false","match","img/pentagon.png","强我","强我","prac_ALT2_ability","practice_ability","","","","","","","","",""
"null","<span style='color:red; font-size: 70px;'>错误! </span>","null","html-keyboard-response","31","501737","0.0-8.0-1.0-1.0-0.0-1.10","3","2","4","3","3","4","4","4","4","4","4","1","1","1","0","0","1","1","0","5","4","5","5","4","3","4","4","4","3","4","5","4","6","5","7","5","6","4","5","5","3","5","4","3","5","2","5","4","1","4","4","2","4","3","4","5","5","3","5","3","4","3","3","3","5","5","6","5","6","6","6","6","7","5","6","3","5","5","5","594948255830245376","张","422","Female","[""好她"",""坏我"",""好我"",""坏她""]","[""强她"",""弱我"",""强我"",""弱她""]","","","","","","","","","","","","","","","","","","","","","","","","","","","","","","feedback_test","","","","","","","","",""
"1098","","j","psychophysics","32","503837","0.0-8.0-1.0-1.0-0.0-0.11","3","2","4","3","3","4","4","4","4","4","4","1","1","1","0","0","1","1","0","5","4","5","5","4","3","4","4","4","3","4","5","4","6","5","7","5","6","4","5","5","3","5","4","3","5","2","5","4","1","4","4","2","4","3","4","5","5","3","5","3","4","3","3","3","5","5","6","5","6","6","6","6","7","5","6","3","5","5","5","594948255830245376","张","422","Female","[""好她"",""坏我"",""好我"",""坏她""]","[""强她"",""弱我"",""强我"",""弱她""]","","","","","","","","nonmatch","","","","","","","","","","key","j","16.653600000000093","640","356","j","true","nonmatch","img/triangle.png","强她","弱我","prac_ALT2_ability","practice_ability","","","","","","","","",""
"null","<span style='color:GreenYellow; font-size: 70px;'>正确! </span>","null","html-keyboard-response","33","504338","0.0-8.0-1.0-1.0-0.0-1.11","3","2","4","3","3","4","4","4","4","4","4","1","1","1","0","0","1","1","0","5","4","5","5","4","3","4","4","4","3","4","5","4","6","5","7","5","6","4","5","5","3","5","4","3","5","2","5","4","1","4","4","2","4","3","4","5","5","3","5","3","4","3","3","3","5","5","6","5","6","6","6","6","7","5","6","3","5","5","5","594948255830245376","张","422","Female","[""好她"",""坏我"",""好我"",""坏她""]","[""强她"",""弱我"",""强我"",""弱她""]","","","","","","","","","","","","","","","","","","","","","","","","","","","","","","feedback_test","","","","","","","","",""
"952","","f","psychophysics","34","506292","0.0-8.0-1.0-1.0-0.0-0.12","3","2","4","3","3","4","4","4","4","4","4","1","1","1","0","0","1","1","0","5","4","5","5","4","3","4","4","4","3","4","5","4","6","5","7","5","6","4","5","5","3","5","4","3","5","2","5","4","1","4","4","2","4","3","4","5","5","3","5","3","4","3","3","3","5","5","6","5","6","6","6","6","7","5","6","3","5","5","5","594948255830245376","张","422","Female","[""好她"",""坏我"",""好我"",""坏她""]","[""强她"",""弱我"",""强我"",""弱她""]","","","","","","","","match","","","","","","","","","","key","f","16.65431034482779","640","356","j","false","nonmatch","img/trapezoid.png","弱她","强她","prac_ALT2_ability","practice_ability","","","","","","","","",""
"null","<span style='color:red; font-size: 70px;'>错误! </span>","null","html-keyboard-response","35","506793","0.0-8.0-1.0-1.0-0.0-1.12","3","2","4","3","3","4","4","4","4","4","4","1","1","1","0","0","1","1","0","5","4","5","5","4","3","4","4","4","3","4","5","4","6","5","7","5","6","4","5","5","3","5","4","3","5","2","5","4","1","4","4","2","4","3","4","5","5","3","5","3","4","3","3","3","5","5","6","5","6","6","6","6","7","5","6","3","5","5","5","594948255830245376","张","422","Female","[""好她"",""坏我"",""好我"",""坏她""]","[""强她"",""弱我"",""强我"",""弱她""]","","","","","","","","","","","","","","","","","","","","","","","","","","","","","","feedback_test","","","","","","","","",""
"891","","f","psychophysics","36","508686","0.0-8.0-1.0-1.0-0.0-0.13","3","2","4","3","3","4","4","4","4","4","4","1","1","1","0","0","1","1","0","5","4","5","5","4","3","4","4","4","3","4","5","4","6","5","7","5","6","4","5","5","3","5","4","3","5","2","5","4","1","4","4","2","4","3","4","5","5","3","5","3","4","3","3","3","5","5","6","5","6","6","6","6","7","5","6","3","5","5","5","594948255830245376","张","422","Female","[""好她"",""坏我"",""好我"",""坏她""]","[""强她"",""弱我"",""强我"",""弱她""]","","","","","","","","match","","","","","","","","","","key","f","16.649999999999896","640","356","j","false","nonmatch","img/triangle.png","强我","弱我","prac_ALT2_ability","practice_ability","","","","","","","","",""
"null","<span style='color:red; font-size: 70px;'>错误! </span>","null","html-keyboard-response","37","509187","0.0-8.0-1.0-1.0-0.0-1.13","3","2","4","3","3","4","4","4","4","4","4","1","1","1","0","0","1","1","0","5","4","5","5","4","3","4","4","4","3","4","5","4","6","5","7","5","6","4","5","5","3","5","4","3","5","2","5","4","1","4","4","2","4","3","4","5","5","3","5","3","4","3","3","3","5","5","6","5","6","6","6","6","7","5","6","3","5","5","5","594948255830245376","张","422","Female","[""好她"",""坏我"",""好我"",""坏她""]","[""强她"",""弱我"",""强我"",""弱她""]","","","","","","","","","","","","","","","","","","","","","","","","","","","","","","feedback_test","","","","","","","","",""
"null","","null","psychophysics","38","511391","0.0-8.0-1.0-1.0-0.0-0.14","3","2","4","3","3","4","4","4","4","4","4","1","1","1","0","0","1","1","0","5","4","5","5","4","3","4","4","4","3","4","5","4","6","5","7","5","6","4","5","5","3","5","4","3","5","2","5","4","1","4","4","2","4","3","4","5","5","3","5","3","4","3","3","3","5","5","6","5","6","6","6","6","7","5","6","3","5","5","5","594948255830245376","张","422","Female","[""好她"",""坏我"",""好我"",""坏她""]","[""强她"",""弱我"",""强我"",""弱她""]","","","","","","","","null","","","","","","","","","","key","null","16.65227272727255","640","356","f","false","match","img/ellipse.png","弱她","弱她","prac_ALT2_ability","practice_ability","","","","","","","","",""
"null","<span class='add_' style='color:yellow; font-size: 70px;'> 太慢! </span>","null","html-keyboard-response","39","511893","0.0-8.0-1.0-1.0-0.0-1.14","3","2","4","3","3","4","4","4","4","4","4","1","1","1","0","0","1","1","0","5","4","5","5","4","3","4","4","4","3","4","5","4","6","5","7","5","6","4","5","5","3","5","4","3","5","2","5","4","1","4","4","2","4","3","4","5","5","3","5","3","4","3","3","3","5","5","6","5","6","6","6","6","7","5","6","3","5","5","5","594948255830245376","张","422","Female","[""好她"",""坏我"",""好我"",""坏她""]","[""强她"",""弱我"",""强我"",""弱她""]","","","","","","","","","","","","","","","","","","","","","","","","","","","","","","feedback_test","","","","","","","","",""
"702","","j","psychophysics","40","513598","0.0-8.0-1.0-1.0-0.0-0.15","3","2","4","3","3","4","4","4","4","4","4","1","1","1","0","0","1","1","0","5","4","5","5","4","3","4","4","4","3","4","5","4","6","5","7","5","6","4","5","5","3","5","4","3","5","2","5","4","1","4","4","2","4","3","4","5","5","3","5","3","4","3","3","3","5","5","6","5","6","6","6","6","7","5","6","3","5","5","5","594948255830245376","张","422","Female","[""好她"",""坏我"",""好我"",""坏她""]","[""强她"",""弱我"",""强我"",""弱她""]","","","","","","","","nonmatch","","","","","","","","","","key","j","16.654455445544325","640","356","f","false","match","img/pentagon.png","强我","强我","prac_ALT2_ability","practice_ability","","","","","","","","",""
"null","<span style='color:red; font-size: 70px;'>错误! </span>","null","html-keyboard-response","41","514099","0.0-8.0-1.0-1.0-0.0-1.15","3","2","4","3","3","4","4","4","4","4","4","1","1","1","0","0","1","1","0","5","4","5","5","4","3","4","4","4","3","4","5","4","6","5","7","5","6","4","5","5","3","5","4","3","5","2","5","4","1","4","4","2","4","3","4","5","5","3","5","3","4","3","3","3","5","5","6","5","6","6","6","6","7","5","6","3","5","5","5","594948255830245376","张","422","Female","[""好她"",""坏我"",""好我"",""坏她""]","[""强她"",""弱我"",""强我"",""弱她""]","","","","","","","","","","","","","","","","","","","","","","","","","","","","","","feedback_test","","","","","","","","",""
"1073","","f","psychophysics","42","516174","0.0-8.0-1.0-1.0-0.0-0.16","3","2","4","3","3","4","4","4","4","4","4","1","1","1","0","0","1","1","0","5","4","5","5","4","3","4","4","4","3","4","5","4","6","5","7","5","6","4","5","5","3","5","4","3","5","2","5","4","1","4","4","2","4","3","4","5","5","3","5","3","4","3","3","3","5","5","6","5","6","6","6","6","7","5","6","3","5","5","5","594948255830245376","张","422","Female","[""好她"",""坏我"",""好我"",""坏她""]","[""强她"",""弱我"",""强我"",""弱她""]","","","","","","","","match","","","","","","","","","","key","f","16.654838709677513","640","356","j","false","nonmatch","img/ellipse.png","强我","弱她","prac_ALT2_ability","practice_ability","","","","","","","","",""
"null","<span style='color:red; font-size: 70px;'>错误! </span>","null","html-keyboard-response","43","516675","0.0-8.0-1.0-1.0-0.0-1.16","3","2","4","3","3","4","4","4","4","4","4","1","1","1","0","0","1","1","0","5","4","5","5","4","3","4","4","4","3","4","5","4","6","5","7","5","6","4","5","5","3","5","4","3","5","2","5","4","1","4","4","2","4","3","4","5","5","3","5","3","4","3","3","3","5","5","6","5","6","6","6","6","7","5","6","3","5","5","5","594948255830245376","张","422","Female","[""好她"",""坏我"",""好我"",""坏她""]","[""强她"",""弱我"",""强我"",""弱她""]","","","","","","","","","","","","","","","","","","","","","","","","","","","","","","feedback_test","","","","","","","","",""
"1015","","f","psychophysics","44","518693","0.0-8.0-1.0-1.0-0.0-0.17","3","2","4","3","3","4","4","4","4","4","4","1","1","1","0","0","1","1","0","5","4","5","5","4","3","4","4","4","3","4","5","4","6","5","7","5","6","4","5","5","3","5","4","3","5","2","5","4","1","4","4","2","4","3","4","5","5","3","5","3","4","3","3","3","5","5","6","5","6","6","6","6","7","5","6","3","5","5","5","594948255830245376","张","422","Female","[""好她"",""坏我"",""好我"",""坏她""]","[""强她"",""弱我"",""强我"",""弱她""]","","","","","","","","match","","","","","","","","","","key","f","16.654166666666665","640","356","f","true","match","img/triangle.png","弱我","弱我","prac_ALT2_ability","practice_ability","","","","","","","","",""
"null","<span style='color:GreenYellow; font-size: 70px;'>正确! </span>","null","html-keyboard-response","45","519194","0.0-8.0-1.0-1.0-0.0-1.17","3","2","4","3","3","4","4","4","4","4","4","1","1","1","0","0","1","1","0","5","4","5","5","4","3","4","4","4","3","4","5","4","6","5","7","5","6","4","5","5","3","5","4","3","5","2","5","4","1","4","4","2","4","3","4","5","5","3","5","3","4","3","3","3","5","5","6","5","6","6","6","6","7","5","6","3","5","5","5","594948255830245376","张","422","Female","[""好她"",""坏我"",""好我"",""坏她""]","[""强她"",""弱我"",""强我"",""弱她""]","","","","","","","","","","","","","","","","","","","","","","","","","","","","","","feedback_test","","","","","","","","",""
"838","","f","psychophysics","46","521035","0.0-8.0-1.0-1.0-0.0-0.18","3","2","4","3","3","4","4","4","4","4","4","1","1","1","0","0","1","1","0","5","4","5","5","4","3","4","4","4","3","4","5","4","6","5","7","5","6","4","5","5","3","5","4","3","5","2","5","4","1","4","4","2","4","3","4","5","5","3","5","3","4","3","3","3","5","5","6","5","6","6","6","6","7","5","6","3","5","5","5","594948255830245376","张","422","Female","[""好她"",""坏我"",""好我"",""坏她""]","[""强她"",""弱我"",""强我"",""弱她""]","","","","","","","","match","","","","","","","","","","key","f","16.654545454545456","640","356","f","true","match","img/triangle.png","弱我","弱我","prac_ALT2_ability","practice_ability","","","","","","","","",""
"null","<span style='color:GreenYellow; font-size: 70px;'>正确! </span>","null","html-keyboard-response","47","521536","0.0-8.0-1.0-1.0-0.0-1.18","3","2","4","3","3","4","4","4","4","4","4","1","1","1","0","0","1","1","0","5","4","5","5","4","3","4","4","4","3","4","5","4","6","5","7","5","6","4","5","5","3","5","4","3","5","2","5","4","1","4","4","2","4","3","4","5","5","3","5","3","4","3","3","3","5","5","6","5","6","6","6","6","7","5","6","3","5","5","5","594948255830245376","张","422","Female","[""好她"",""坏我"",""好我"",""坏她""]","[""强她"",""弱我"",""强我"",""弱她""]","","","","","","","","","","","","","","","","","","","","","","","","","","","","","","feedback_test","","","","","","","","",""
"828","","f","psychophysics","48","523366","0.0-8.0-1.0-1.0-0.0-0.19","3","2","4","3","3","4","4","4","4","4","4","1","1","1","0","0","1","1","0","5","4","5","5","4","3","4","4","4","3","4","5","4","6","5","7","5","6","4","5","5","3","5","4","3","5","2","5","4","1","4","4","2","4","3","4","5","5","3","5","3","4","3","3","3","5","5","6","5","6","6","6","6","7","5","6","3","5","5","5","594948255830245376","张","422","Female","[""好她"",""坏我"",""好我"",""坏她""]","[""强她"",""弱我"",""强我"",""弱她""]","","","","","","","","match","","","","","","","","","","key","f","16.655045871559846","640","356","f","true","match","img/trapezoid.png","强她","强她","prac_ALT2_ability","practice_ability","","","","","","","","",""
"null","<span style='color:GreenYellow; font-size: 70px;'>正确! </span>","null","html-keyboard-response","49","523867","0.0-8.0-1.0-1.0-0.0-1.19","3","2","4","3","3","4","4","4","4","4","4","1","1","1","0","0","1","1","0","5","4","5","5","4","3","4","4","4","3","4","5","4","6","5","7","5","6","4","5","5","3","5","4","3","5","2","5","4","1","4","4","2","4","3","4","5","5","3","5","3","4","3","3","3","5","5","6","5","6","6","6","6","7","5","6","3","5","5","5","594948255830245376","张","422","Female","[""好她"",""坏我"",""好我"",""坏她""]","[""强她"",""弱我"",""强我"",""弱她""]","","","","","","","","","","","","","","","","","","","","","","","","","","","","","","feedback_test","","","","","","","","",""
"751","","j","psychophysics","50","525621","0.0-8.0-1.0-1.0-0.0-0.20","3","2","4","3","3","4","4","4","4","4","4","1","1","1","0","0","1","1","0","5","4","5","5","4","3","4","4","4","3","4","5","4","6","5","7","5","6","4","5","5","3","5","4","3","5","2","5","4","1","4","4","2","4","3","4","5","5","3","5","3","4","3","3","3","5","5","6","5","6","6","6","6","7","5","6","3","5","5","5","594948255830245376","张","422","Female","[""好她"",""坏我"",""好我"",""坏她""]","[""强她"",""弱我"",""强我"",""弱她""]","","","","","","","","nonmatch","","","","","","","","","","key","j","16.654807692307468","640","356","j","true","nonmatch","img/pentagon.png","强她","强我","prac_ALT2_ability","practice_ability","","","","","","","","",""
"null","<span style='color:GreenYellow; font-size: 70px;'>正确! </span>","null","html-keyboard-response","51","526122","0.0-8.0-1.0-1.0-0.0-1.20","3","2","4","3","3","4","4","4","4","4","4","1","1","1","0","0","1","1","0","5","4","5","5","4","3","4","4","4","3","4","5","4","6","5","7","5","6","4","5","5","3","5","4","3","5","2","5","4","1","4","4","2","4","3","4","5","5","3","5","3","4","3","3","3","5","5","6","5","6","6","6","6","7","5","6","3","5","5","5","594948255830245376","张","422","Female","[""好她"",""坏我"",""好我"",""坏她""]","[""强她"",""弱我"",""强我"",""弱她""]","","","","","","","","","","","","","","","","","","","","","","","","","","","","","","feedback_test","","","","","","","","",""
"917","","j","psychophysics","52","528041","0.0-8.0-1.0-1.0-0.0-0.21","3","2","4","3","3","4","4","4","4","4","4","1","1","1","0","0","1","1","0","5","4","5","5","4","3","4","4","4","3","4","5","4","6","5","7","5","6","4","5","5","3","5","4","3","5","2","5","4","1","4","4","2","4","3","4","5","5","3","5","3","4","3","3","3","5","5","6","5","6","6","6","6","7","5","6","3","5","5","5","594948255830245376","张","422","Female","[""好她"",""坏我"",""好我"",""坏她""]","[""强她"",""弱我"",""强我"",""弱她""]","","","","","","","","nonmatch","","","","","","","","","","key","j","16.643478260869564","640","356","j","true","nonmatch","img/trapezoid.png","强我","强她","prac_ALT2_ability","practice_ability","","","","","","","","",""
"null","<span style='color:GreenYellow; font-size: 70px;'>正确! </span>","null","html-keyboard-response","53","528550","0.0-8.0-1.0-1.0-0.0-1.21","3","2","4","3","3","4","4","4","4","4","4","1","1","1","0","0","1","1","0","5","4","5","5","4","3","4","4","4","3","4","5","4","6","5","7","5","6","4","5","5","3","5","4","3","5","2","5","4","1","4","4","2","4","3","4","5","5","3","5","3","4","3","3","3","5","5","6","5","6","6","6","6","7","5","6","3","5","5","5","594948255830245376","张","422","Female","[""好她"",""坏我"",""好我"",""坏她""]","[""强她"",""弱我"",""强我"",""弱她""]","","","","","","","","","","","","","","","","","","","","","","","","","","","","","","feedback_test","","","","","","","","",""
"841","","j","psychophysics","54","530393","0.0-8.0-1.0-1.0-0.0-0.22","3","2","4","3","3","4","4","4","4","4","4","1","1","1","0","0","1","1","0","5","4","5","5","4","3","4","4","4","3","4","5","4","6","5","7","5","6","4","5","5","3","5","4","3","5","2","5","4","1","4","4","2","4","3","4","5","5","3","5","3","4","3","3","3","5","5","6","5","6","6","6","6","7","5","6","3","5","5","5","594948255830245376","张","422","Female","[""好她"",""坏我"",""好我"",""坏她""]","[""强她"",""弱我"",""强我"",""弱她""]","","","","","","","","nonmatch","","","","","","","","","","key","j","16.654545454545456","640","356","j","true","nonmatch","img/trapezoid.png","弱我","强她","prac_ALT2_ability","practice_ability","","","","","","","","",""
"null","<span style='color:GreenYellow; font-size: 70px;'>正确! </span>","null","html-keyboard-response","55","530894","0.0-8.0-1.0-1.0-0.0-1.22","3","2","4","3","3","4","4","4","4","4","4","1","1","1","0","0","1","1","0","5","4","5","5","4","3","4","4","4","3","4","5","4","6","5","7","5","6","4","5","5","3","5","4","3","5","2","5","4","1","4","4","2","4","3","4","5","5","3","5","3","4","3","3","3","5","5","6","5","6","6","6","6","7","5","6","3","5","5","5","594948255830245376","张","422","Female","[""好她"",""坏我"",""好我"",""坏她""]","[""强她"",""弱我"",""强我"",""弱她""]","","","","","","","","","","","","","","","","","","","","","","","","","","","","","","feedback_test","","","","","","","","",""
"853","","f","psychophysics","56","532749","0.0-8.0-1.0-1.0-0.0-0.23","3","2","4","3","3","4","4","4","4","4","4","1","1","1","0","0","1","1","0","5","4","5","5","4","3","4","4","4","3","4","5","4","6","5","7","5","6","4","5","5","3","5","4","3","5","2","5","4","1","4","4","2","4","3","4","5","5","3","5","3","4","3","3","3","5","5","6","5","6","6","6","6","7","5","6","3","5","5","5","594948255830245376","张","422","Female","[""好她"",""坏我"",""好我"",""坏她""]","[""强她"",""弱我"",""强我"",""弱她""]","","","","","","","","match","","","","","","","","","","key","f","16.655454545454333","640","356","f","true","match","img/triangle.png","弱我","弱我","prac_ALT2_ability","practice_ability","","","","","","","","",""
"null","<span style='color:GreenYellow; font-size: 70px;'>正确! </span>","null","html-keyboard-response","57","533250","0.0-8.0-1.0-1.0-0.0-1.23","3","2","4","3","3","4","4","4","4","4","4","1","1","1","0","0","1","1","0","5","4","5","5","4","3","4","4","4","3","4","5","4","6","5","7","5","6","4","5","5","3","5","4","3","5","2","5","4","1","4","4","2","4","3","4","5","5","3","5","3","4","3","3","3","5","5","6","5","6","6","6","6","7","5","6","3","5","5","5","594948255830245376","张","422","Female","[""好她"",""坏我"",""好我"",""坏她""]","[""强她"",""弱我"",""强我"",""弱她""]","","","","","","","","","","","","","","","","","","","","","","","","","","","","","","feedback_test","","","","","","","","",""
"873","","f","psychophysics","58","535126","0.0-8.0-1.0-1.0-0.0-0.24","3","2","4","3","3","4","4","4","4","4","4","1","1","1","0","0","1","1","0","5","4","5","5","4","3","4","4","4","3","4","5","4","6","5","7","5","6","4","5","5","3","5","4","3","5","2","5","4","1","4","4","2","4","3","4","5","5","3","5","3","4","3","3","3","5","5","6","5","6","6","6","6","7","5","6","3","5","5","5","594948255830245376","张","422","Female","[""好她"",""坏我"",""好我"",""坏她""]","[""强她"",""弱我"",""强我"",""弱她""]","","","","","","","","match","","","","","","","","","","key","f","16.654054054053844","640","356","f","true","match","img/trapezoid.png","强她","强她","prac_ALT2_ability","practice_ability","","","","","","","","",""
"null","<span style='color:GreenYellow; font-size: 70px;'>正确! </span>","null","html-keyboard-response","59","535627","0.0-8.0-1.0-1.0-0.0-1.24","3","2","4","3","3","4","4","4","4","4","4","1","1","1","0","0","1","1","0","5","4","5","5","4","3","4","4","4","3","4","5","4","6","5","7","5","6","4","5","5","3","5","4","3","5","2","5","4","1","4","4","2","4","3","4","5","5","3","5","3","4","3","3","3","5","5","6","5","6","6","6","6","7","5","6","3","5","5","5","594948255830245376","张","422","Female","[""好她"",""坏我"",""好我"",""坏她""]","[""强她"",""弱我"",""强我"",""弱她""]","","","","","","","","","","","","","","","","","","","","","","","","","","","","","","feedback_test","","","","","","","","",""
"713","","f","psychophysics","60","537343","0.0-8.0-1.0-1.0-0.0-0.25","3","2","4","3","3","4","4","4","4","4","4","1","1","1","0","0","1","1","0","5","4","5","5","4","3","4","4","4","3","4","5","4","6","5","7","5","6","4","5","5","3","5","4","3","5","2","5","4","1","4","4","2","4","3","4","5","5","3","5","3","4","3","3","3","5","5","6","5","6","6","6","6","7","5","6","3","5","5","5","594948255830245376","张","422","Female","[""好她"",""坏我"",""好我"",""坏她""]","[""强她"",""弱我"",""强我"",""弱她""]","","","","","","","","match","","","","","","","","","","key","f","16.65490196078477","640","356","f","true","match","img/triangle.png","弱我","弱我","prac_ALT2_ability","practice_ability","","","","","","","","",""
"null","<span style='color:GreenYellow; font-size: 70px;'>正确! </span>","null","html-keyboard-response","61","537843","0.0-8.0-1.0-1.0-0.0-1.25","3","2","4","3","3","4","4","4","4","4","4","1","1","1","0","0","1","1","0","5","4","5","5","4","3","4","4","4","3","4","5","4","6","5","7","5","6","4","5","5","3","5","4","3","5","2","5","4","1","4","4","2","4","3","4","5","5","3","5","3","4","3","3","3","5","5","6","5","6","6","6","6","7","5","6","3","5","5","5","594948255830245376","张","422","Female","[""好她"",""坏我"",""好我"",""坏她""]","[""强她"",""弱我"",""强我"",""弱她""]","","","","","","","","","","","","","","","","","","","","","","","","","","","","","","feedback_test","","","","","","","","",""
"848","","f","psychophysics","62","539693","0.0-8.0-1.0-1.0-0.0-0.26","3","2","4","3","3","4","4","4","4","4","4","1","1","1","0","0","1","1","0","5","4","5","5","4","3","4","4","4","3","4","5","4","6","5","7","5","6","4","5","5","3","5","4","3","5","2","5","4","1","4","4","2","4","3","4","5","5","3","5","3","4","3","3","3","5","5","6","5","6","6","6","6","7","5","6","3","5","5","5","594948255830245376","张","422","Female","[""好她"",""坏我"",""好我"",""坏她""]","[""强她"",""弱我"",""强我"",""弱她""]","","","","","","","","match","","","","","","","","","","key","f","16.653636363636576","640","356","f","true","match","img/ellipse.png","弱她","弱她","prac_ALT2_ability","practice_ability","","","","","","","","",""
"null","<span style='color:GreenYellow; font-size: 70px;'>正确! </span>","null","html-keyboard-response","63","540194","0.0-8.0-1.0-1.0-0.0-1.26","3","2","4","3","3","4","4","4","4","4","4","1","1","1","0","0","1","1","0","5","4","5","5","4","3","4","4","4","3","4","5","4","6","5","7","5","6","4","5","5","3","5","4","3","5","2","5","4","1","4","4","2","4","3","4","5","5","3","5","3","4","3","3","3","5","5","6","5","6","6","6","6","7","5","6","3","5","5","5","594948255830245376","张","422","Female","[""好她"",""坏我"",""好我"",""坏她""]","[""强她"",""弱我"",""强我"",""弱她""]","","","","","","","","","","","","","","","","","","","","","","","","","","","","","","feedback_test","","","","","","","","",""
"850","","j","psychophysics","64","542045","0.0-8.0-1.0-1.0-0.0-0.27","3","2","4","3","3","4","4","4","4","4","4","1","1","1","0","0","1","1","0","5","4","5","5","4","3","4","4","4","3","4","5","4","6","5","7","5","6","4","5","5","3","5","4","3","5","2","5","4","1","4","4","2","4","3","4","5","5","3","5","3","4","3","3","3","5","5","6","5","6","6","6","6","7","5","6","3","5","5","5","594948255830245376","张","422","Female","[""好她"",""坏我"",""好我"",""坏她""]","[""强她"",""弱我"",""强我"",""弱她""]","","","","","","","","nonmatch","","","","","","","","","","key","j","16.647272727272306","640","356","j","true","nonmatch","img/ellipse.png","强她","弱她","prac_ALT2_ability","practice_ability","","","","","","","","",""
"null","<span style='color:GreenYellow; font-size: 70px;'>正确! </span>","null","html-keyboard-response","65","542546","0.0-8.0-1.0-1.0-0.0-1.27","3","2","4","3","3","4","4","4","4","4","4","1","1","1","0","0","1","1","0","5","4","5","5","4","3","4","4","4","3","4","5","4","6","5","7","5","6","4","5","5","3","5","4","3","5","2","5","4","1","4","4","2","4","3","4","5","5","3","5","3","4","3","3","3","5","5","6","5","6","6","6","6","7","5","6","3","5","5","5","594948255830245376","张","422","Female","[""好她"",""坏我"",""好我"",""坏她""]","[""强她"",""弱我"",""强我"",""弱她""]","","","","","","","","","","","","","","","","","","","","","","","","","","","","","","feedback_test","","","","","","","","",""
"678","","f","psychophysics","66","544226","0.0-8.0-1.0-1.0-0.0-0.28","3","2","4","3","3","4","4","4","4","4","4","1","1","1","0","0","1","1","0","5","4","5","5","4","3","4","4","4","3","4","5","4","6","5","7","5","6","4","5","5","3","5","4","3","5","2","5","4","1","4","4","2","4","3","4","5","5","3","5","3","4","3","3","3","5","5","6","5","6","6","6","6","7","5","6","3","5","5","5","594948255830245376","张","422","Female","[""好她"",""坏我"",""好我"",""坏她""]","[""强她"",""弱我"",""强我"",""弱她""]","","","","","","","","match","","","","","","","","","","key","f","16.648000000000465","640","356","f","true","match","img/trapezoid.png","强她","强她","prac_ALT2_ability","practice_ability","","","","","","","","",""
"null","<span style='color:GreenYellow; font-size: 70px;'>正确! </span>","null","html-keyboard-response","67","544727","0.0-8.0-1.0-1.0-0.0-1.28","3","2","4","3","3","4","4","4","4","4","4","1","1","1","0","0","1","1","0","5","4","5","5","4","3","4","4","4","3","4","5","4","6","5","7","5","6","4","5","5","3","5","4","3","5","2","5","4","1","4","4","2","4","3","4","5","5","3","5","3","4","3","3","3","5","5","6","5","6","6","6","6","7","5","6","3","5","5","5","594948255830245376","张","422","Female","[""好她"",""坏我"",""好我"",""坏她""]","[""强她"",""弱我"",""强我"",""弱她""]","","","","","","","","","","","","","","","","","","","","","","","","","","","","","","feedback_test","","","","","","","","",""
"954","","f","psychophysics","68","546683","0.0-8.0-1.0-1.0-0.0-0.29","3","2","4","3","3","4","4","4","4","4","4","1","1","1","0","0","1","1","0","5","4","5","5","4","3","4","4","4","3","4","5","4","6","5","7","5","6","4","5","5","3","5","4","3","5","2","5","4","1","4","4","2","4","3","4","5","5","3","5","3","4","3","3","3","5","5","6","5","6","6","6","6","7","5","6","3","5","5","5","594948255830245376","张","422","Female","[""好她"",""坏我"",""好我"",""坏她""]","[""强她"",""弱我"",""强我"",""弱她""]","","","","","","","","match","","","","","","","","","","key","f","16.655172413793103","640","356","f","true","match","img/triangle.png","弱我","弱我","prac_ALT2_ability","practice_ability","","","","","","","","",""
"null","<span style='color:GreenYellow; font-size: 70px;'>正确! </span>","null","html-keyboard-response","69","547184","0.0-8.0-1.0-1.0-0.0-1.29","3","2","4","3","3","4","4","4","4","4","4","1","1","1","0","0","1","1","0","5","4","5","5","4","3","4","4","4","3","4","5","4","6","5","7","5","6","4","5","5","3","5","4","3","5","2","5","4","1","4","4","2","4","3","4","5","5","3","5","3","4","3","3","3","5","5","6","5","6","6","6","6","7","5","6","3","5","5","5","594948255830245376","张","422","Female","[""好她"",""坏我"",""好我"",""坏她""]","[""强她"",""弱我"",""强我"",""弱她""]","","","","","","","","","","","","","","","","","","","","","","","","","","","","","","feedback_test","","","","","","","","",""
"1051","","f","psychophysics","70","549237","0.0-8.0-1.0-1.0-0.0-0.30","3","2","4","3","3","4","4","4","4","4","4","1","1","1","0","0","1","1","0","5","4","5","5","4","3","4","4","4","3","4","5","4","6","5","7","5","6","4","5","5","3","5","4","3","5","2","5","4","1","4","4","2","4","3","4","5","5","3","5","3","4","3","3","3","5","5","6","5","6","6","6","6","7","5","6","3","5","5","5","594948255830245376","张","422","Female","[""好她"",""坏我"",""好我"",""坏她""]","[""强她"",""弱我"",""强我"",""弱她""]","","","","","","","","match","","","","","","","","","","key","f","16.650406504065042","640","356","j","false","nonmatch","img/ellipse.png","强我","弱她","prac_ALT2_ability","practice_ability","","","","","","","","",""
"null","<span style='color:red; font-size: 70px;'>错误! </span>","null","html-keyboard-response","71","549738","0.0-8.0-1.0-1.0-0.0-1.30","3","2","4","3","3","4","4","4","4","4","4","1","1","1","0","0","1","1","0","5","4","5","5","4","3","4","4","4","3","4","5","4","6","5","7","5","6","4","5","5","3","5","4","3","5","2","5","4","1","4","4","2","4","3","4","5","5","3","5","3","4","3","3","3","5","5","6","5","6","6","6","6","7","5","6","3","5","5","5","594948255830245376","张","422","Female","[""好她"",""坏我"",""好我"",""坏她""]","[""强她"",""弱我"",""强我"",""弱她""]","","","","","","","","","","","","","","","","","","","","","","","","","","","","","","feedback_test","","","","","","","","",""
"804","","j","psychophysics","72","551544","0.0-8.0-1.0-1.0-0.0-0.31","3","2","4","3","3","4","4","4","4","4","4","1","1","1","0","0","1","1","0","5","4","5","5","4","3","4","4","4","3","4","5","4","6","5","7","5","6","4","5","5","3","5","4","3","5","2","5","4","1","4","4","2","4","3","4","5","5","3","5","3","4","3","3","3","5","5","6","5","6","6","6","6","7","5","6","3","5","5","5","594948255830245376","张","422","Female","[""好她"",""坏我"",""好我"",""坏她""]","[""强她"",""弱我"",""强我"",""弱她""]","","","","","","","","nonmatch","","","","","","","","","","key","j","16.649532710280372","640","356","j","true","nonmatch","img/trapezoid.png","弱她","强她","prac_ALT2_ability","practice_ability","","","","","","","","",""
"null","<span style='color:GreenYellow; font-size: 70px;'>正确! </span>","null","html-keyboard-response","73","552046","0.0-8.0-1.0-1.0-0.0-1.31","3","2","4","3","3","4","4","4","4","4","4","1","1","1","0","0","1","1","0","5","4","5","5","4","3","4","4","4","3","4","5","4","6","5","7","5","6","4","5","5","3","5","4","3","5","2","5","4","1","4","4","2","4","3","4","5","5","3","5","3","4","3","3","3","5","5","6","5","6","6","6","6","7","5","6","3","5","5","5","594948255830245376","张","422","Female","[""好她"",""坏我"",""好我"",""坏她""]","[""强她"",""弱我"",""强我"",""弱她""]","","","","","","","","","","","","","","","","","","","","","","","","","","","","","","feedback_test","","","","","","","","",""
"1042","","j","psychophysics","74","554090","0.0-8.0-1.0-1.0-0.0-0.32","3","2","4","3","3","4","4","4","4","4","4","1","1","1","0","0","1","1","0","5","4","5","5","4","3","4","4","4","3","4","5","4","6","5","7","5","6","4","5","5","3","5","4","3","5","2","5","4","1","4","4","2","4","3","4","5","5","3","5","3","4","3","3","3","5","5","6","5","6","6","6","6","7","5","6","3","5","5","5","594948255830245376","张","422","Female","[""好她"",""坏我"",""好我"",""坏她""]","[""强她"",""弱我"",""强我"",""弱她""]","","","","","","","","nonmatch","","","","","","","","","","key","j","16.654098360656118","640","356","j","true","nonmatch","img/triangle.png","强她","弱我","prac_ALT2_ability","practice_ability","","","","","","","","",""
"null","<span style='color:GreenYellow; font-size: 70px;'>正确! </span>","null","html-keyboard-response","75","554591","0.0-8.0-1.0-1.0-0.0-1.32","3","2","4","3","3","4","4","4","4","4","4","1","1","1","0","0","1","1","0","5","4","5","5","4","3","4","4","4","3","4","5","4","6","5","7","5","6","4","5","5","3","5","4","3","5","2","5","4","1","4","4","2","4","3","4","5","5","3","5","3","4","3","3","3","5","5","6","5","6","6","6","6","7","5","6","3","5","5","5","594948255830245376","张","422","Female","[""好她"",""坏我"",""好我"",""坏她""]","[""强她"",""弱我"",""强我"",""弱她""]","","","","","","","","","","","","","","","","","","","","","","","","","","","","","","feedback_test","","","","","","","","",""
"906","","f","psychophysics","76","556500","0.0-8.0-1.0-1.0-0.0-0.33","3","2","4","3","3","4","4","4","4","4","4","1","1","1","0","0","1","1","0","5","4","5","5","4","3","4","4","4","3","4","5","4","6","5","7","5","6","4","5","5","3","5","4","3","5","2","5","4","1","4","4","2","4","3","4","5","5","3","5","3","4","3","3","3","5","5","6","5","6","6","6","6","7","5","6","3","5","5","5","594948255830245376","张","422","Female","[""好她"",""坏我"",""好我"",""坏她""]","[""强她"",""弱我"",""强我"",""弱她""]","","","","","","","","match","","","","","","","","","","key","f","16.6517543859643","640","356","f","true","match","img/pentagon.png","强我","强我","prac_ALT2_ability","practice_ability","","","","","","","","",""
"null","<span style='color:GreenYellow; font-size: 70px;'>正确! </span>","null","html-keyboard-response","77","557001","0.0-8.0-1.0-1.0-0.0-1.33","3","2","4","3","3","4","4","4","4","4","4","1","1","1","0","0","1","1","0","5","4","5","5","4","3","4","4","4","3","4","5","4","6","5","7","5","6","4","5","5","3","5","4","3","5","2","5","4","1","4","4","2","4","3","4","5","5","3","5","3","4","3","3","3","5","5","6","5","6","6","6","6","7","5","6","3","5","5","5","594948255830245376","张","422","Female","[""好她"",""坏我"",""好我"",""坏她""]","[""强她"",""弱我"",""强我"",""弱她""]","","","","","","","","","","","","","","","","","","","","","","","","","","","","","","feedback_test","","","","","","","","",""
"668","","j","psychophysics","78","558670","0.0-8.0-1.0-1.0-0.0-0.34","3","2","4","3","3","4","4","4","4","4","4","1","1","1","0","0","1","1","0","5","4","5","5","4","3","4","4","4","3","4","5","4","6","5","7","5","6","4","5","5","3","5","4","3","5","2","5","4","1","4","4","2","4","3","4","5","5","3","5","3","4","3","3","3","5","5","6","5","6","6","6","6","7","5","6","3","5","5","5","594948255830245376","张","422","Female","[""好她"",""坏我"",""好我"",""坏她""]","[""强她"",""弱我"",""强我"",""弱她""]","","","","","","","","nonmatch","","","","","","","","","","key","j","16.65050505050411","640","356","j","true","nonmatch","img/triangle.png","强我","弱我","prac_ALT2_ability","practice_ability","","","","","","","","",""
"null","<span style='color:GreenYellow; font-size: 70px;'>正确! </span>","null","html-keyboard-response","79","559171","0.0-8.0-1.0-1.0-0.0-1.34","3","2","4","3","3","4","4","4","4","4","4","1","1","1","0","0","1","1","0","5","4","5","5","4","3","4","4","4","3","4","5","4","6","5","7","5","6","4","5","5","3","5","4","3","5","2","5","4","1","4","4","2","4","3","4","5","5","3","5","3","4","3","3","3","5","5","6","5","6","6","6","6","7","5","6","3","5","5","5","594948255830245376","张","422","Female","[""好她"",""坏我"",""好我"",""坏她""]","[""强她"",""弱我"",""强我"",""弱她""]","","","","","","","","","","","","","","","","","","","","","","","","","","","","","","feedback_test","","","","","","","","",""
"863","","f","psychophysics","80","561036","0.0-8.0-1.0-1.0-0.0-0.35","3","2","4","3","3","4","4","4","4","4","4","1","1","1","0","0","1","1","0","5","4","5","5","4","3","4","4","4","3","4","5","4","6","5","7","5","6","4","5","5","3","5","4","3","5","2","5","4","1","4","4","2","4","3","4","5","5","3","5","3","4","3","3","3","5","5","6","5","6","6","6","6","7","5","6","3","5","5","5","594948255830245376","张","422","Female","[""好她"",""坏我"",""好我"",""坏她""]","[""强她"",""弱我"",""强我"",""弱她""]","","","","","","","","match","","","","","","","","","","key","f","16.651351351350723","640","356","f","true","match","img/pentagon.png","强我","强我","prac_ALT2_ability","practice_ability","","","","","","","","",""
"null","<span style='color:GreenYellow; font-size: 70px;'>正确! </span>","null","html-keyboard-response","81","561538","0.0-8.0-1.0-1.0-0.0-1.35","3","2","4","3","3","4","4","4","4","4","4","1","1","1","0","0","1","1","0","5","4","5","5","4","3","4","4","4","3","4","5","4","6","5","7","5","6","4","5","5","3","5","4","3","5","2","5","4","1","4","4","2","4","3","4","5","5","3","5","3","4","3","3","3","5","5","6","5","6","6","6","6","7","5","6","3","5","5","5","594948255830245376","张","422","Female","[""好她"",""坏我"",""好我"",""坏她""]","[""强她"",""弱我"",""强我"",""弱她""]","","","","","","","","","","","","","","","","","","","","","","","","","","","","","","feedback_test","","","","","","","","",""
"742","","j","psychophysics","82","563281","0.0-8.0-1.0-1.0-0.0-0.36","3","2","4","3","3","4","4","4","4","4","4","1","1","1","0","0","1","1","0","5","4","5","5","4","3","4","4","4","3","4","5","4","6","5","7","5","6","4","5","5","3","5","4","3","5","2","5","4","1","4","4","2","4","3","4","5","5","3","5","3","4","3","3","3","5","5","6","5","6","6","6","6","7","5","6","3","5","5","5","594948255830245376","张","422","Female","[""好她"",""坏我"",""好我"",""坏她""]","[""强她"",""弱我"",""强我"",""弱她""]","","","","","","","","nonmatch","","","","","","","","","","key","j","16.65096153846221","640","356","f","false","match","img/ellipse.png","弱她","弱她","prac_ALT2_ability","practice_ability","","","","","","","","",""
"null","<span style='color:red; font-size: 70px;'>错误! </span>","null","html-keyboard-response","83","563782","0.0-8.0-1.0-1.0-0.0-1.36","3","2","4","3","3","4","4","4","4","4","4","1","1","1","0","0","1","1","0","5","4","5","5","4","3","4","4","4","3","4","5","4","6","5","7","5","6","4","5","5","3","5","4","3","5","2","5","4","1","4","4","2","4","3","4","5","5","3","5","3","4","3","3","3","5","5","6","5","6","6","6","6","7","5","6","3","5","5","5","594948255830245376","张","422","Female","[""好她"",""坏我"",""好我"",""坏她""]","[""强她"",""弱我"",""强我"",""弱她""]","","","","","","","","","","","","","","","","","","","","","","","","","","","","","","feedback_test","","","","","","","","",""
"855","","f","psychophysics","84","565639","0.0-8.0-1.0-1.0-0.0-0.37","3","2","4","3","3","4","4","4","4","4","4","1","1","1","0","0","1","1","0","5","4","5","5","4","3","4","4","4","3","4","5","4","6","5","7","5","6","4","5","5","3","5","4","3","5","2","5","4","1","4","4","2","4","3","4","5","5","3","5","3","4","3","3","3","5","5","6","5","6","6","6","6","7","5","6","3","5","5","5","594948255830245376","张","422","Female","[""好她"",""坏我"",""好我"",""坏她""]","[""强她"",""弱我"",""强我"",""弱她""]","","","","","","","","match","","","","","","","","","","key","f","16.65135135135177","640","356","f","true","match","img/triangle.png","弱我","弱我","prac_ALT2_ability","practice_ability","","","","","","","","",""
"null","<span style='color:GreenYellow; font-size: 70px;'>正确! </span>","null","html-keyboard-response","85","566140","0.0-8.0-1.0-1.0-0.0-1.37","3","2","4","3","3","4","4","4","4","4","4","1","1","1","0","0","1","1","0","5","4","5","5","4","3","4","4","4","3","4","5","4","6","5","7","5","6","4","5","5","3","5","4","3","5","2","5","4","1","4","4","2","4","3","4","5","5","3","5","3","4","3","3","3","5","5","6","5","6","6","6","6","7","5","6","3","5","5","5","594948255830245376","张","422","Female","[""好她"",""坏我"",""好我"",""坏她""]","[""强她"",""弱我"",""强我"",""弱她""]","","","","","","","","","","","","","","","","","","","","","","","","","","","","","","feedback_test","","","","","","","","",""
"947","","f","psychophysics","86","568091","0.0-8.0-1.0-1.0-0.0-0.38","3","2","4","3","3","4","4","4","4","4","4","1","1","1","0","0","1","1","0","5","4","5","5","4","3","4","4","4","3","4","5","4","6","5","7","5","6","4","5","5","3","5","4","3","5","2","5","4","1","4","4","2","4","3","4","5","5","3","5","3","4","3","3","3","5","5","6","5","6","6","6","6","7","5","6","3","5","5","5","594948255830245376","张","422","Female","[""好她"",""坏我"",""好我"",""坏她""]","[""强她"",""弱我"",""强我"",""弱她""]","","","","","","","","match","","","","","","","","","","key","f","16.65258620689615","640","356","j","false","nonmatch","img/trapezoid.png","强我","强她","prac_ALT2_ability","practice_ability","","","","","","","","",""
"null","<span style='color:red; font-size: 70px;'>错误! </span>","null","html-keyboard-response","87","568592","0.0-8.0-1.0-1.0-0.0-1.38","3","2","4","3","3","4","4","4","4","4","4","1","1","1","0","0","1","1","0","5","4","5","5","4","3","4","4","4","3","4","5","4","6","5","7","5","6","4","5","5","3","5","4","3","5","2","5","4","1","4","4","2","4","3","4","5","5","3","5","3","4","3","3","3","5","5","6","5","6","6","6","6","7","5","6","3","5","5","5","594948255830245376","张","422","Female","[""好她"",""坏我"",""好我"",""坏她""]","[""强她"",""弱我"",""强我"",""弱她""]","","","","","","","","","","","","","","","","","","","","","","","","","","","","","","feedback_test","","","","","","","","",""
"null","","null","psychophysics","88","570796","0.0-8.0-1.0-1.0-0.0-0.39","3","2","4","3","3","4","4","4","4","4","4","1","1","1","0","0","1","1","0","5","4","5","5","4","3","4","4","4","3","4","5","4","6","5","7","5","6","4","5","5","3","5","4","3","5","2","5","4","1","4","4","2","4","3","4","5","5","3","5","3","4","3","3","3","5","5","6","5","6","6","6","6","7","5","6","3","5","5","5","594948255830245376","张","422","Female","[""好她"",""坏我"",""好我"",""坏她""]","[""强她"",""弱我"",""强我"",""弱她""]","","","","","","","","null","","","","","","","","","","key","null","16.654198473282086","640","356","j","false","nonmatch","img/triangle.png","弱她","弱我","prac_ALT2_ability","practice_ability","","","","","","","","",""
"null","<span class='add_' style='color:yellow; font-size: 70px;'> 太慢! </span>","null","html-keyboard-response","89","571298","0.0-8.0-1.0-1.0-0.0-1.39","3","2","4","3","3","4","4","4","4","4","4","1","1","1","0","0","1","1","0","5","4","5","5","4","3","4","4","4","3","4","5","4","6","5","7","5","6","4","5","5","3","5","4","3","5","2","5","4","1","4","4","2","4","3","4","5","5","3","5","3","4","3","3","3","5","5","6","5","6","6","6","6","7","5","6","3","5","5","5","594948255830245376","张","422","Female","[""好她"",""坏我"",""好我"",""坏她""]","[""强她"",""弱我"",""强我"",""弱她""]","","","","","","","","","","","","","","","","","","","","","","","","","","","","","","feedback_test","","","","","","","","",""
"823","","j","psychophysics","90","573123","0.0-8.0-1.0-1.0-0.0-0.40","3","2","4","3","3","4","4","4","4","4","4","1","1","1","0","0","1","1","0","5","4","5","5","4","3","4","4","4","3","4","5","4","6","5","7","5","6","4","5","5","3","5","4","3","5","2","5","4","1","4","4","2","4","3","4","5","5","3","5","3","4","3","3","3","5","5","6","5","6","6","6","6","7","5","6","3","5","5","5","594948255830245376","张","422","Female","[""好她"",""坏我"",""好我"",""坏她""]","[""强她"",""弱我"",""强我"",""弱她""]","","","","","","","","nonmatch","","","","","","","","","","key","j","16.64722222222244","640","356","j","true","nonmatch","img/pentagon.png","弱她","强我","prac_ALT2_ability","practice_ability","","","","","","","","",""
"null","<span style='color:GreenYellow; font-size: 70px;'>正确! </span>","null","html-keyboard-response","91","573624","0.0-8.0-1.0-1.0-0.0-1.40","3","2","4","3","3","4","4","4","4","4","4","1","1","1","0","0","1","1","0","5","4","5","5","4","3","4","4","4","3","4","5","4","6","5","7","5","6","4","5","5","3","5","4","3","5","2","5","4","1","4","4","2","4","3","4","5","5","3","5","3","4","3","3","3","5","5","6","5","6","6","6","6","7","5","6","3","5","5","5","594948255830245376","张","422","Female","[""好她"",""坏我"",""好我"",""坏她""]","[""强她"",""弱我"",""强我"",""弱她""]","","","","","","","","","","","","","","","","","","","","","","","","","","","","","","feedback_test","","","","","","","","",""
"879","","f","psychophysics","92","575504","0.0-8.0-1.0-1.0-0.0-0.41","3","2","4","3","3","4","4","4","4","4","4","1","1","1","0","0","1","1","0","5","4","5","5","4","3","4","4","4","3","4","5","4","6","5","7","5","6","4","5","5","3","5","4","3","5","2","5","4","1","4","4","2","4","3","4","5","5","3","5","3","4","3","3","3","5","5","6","5","6","6","6","6","7","5","6","3","5","5","5","594948255830245376","张","422","Female","[""好她"",""坏我"",""好我"",""坏她""]","[""强她"",""弱我"",""强我"",""弱她""]","","","","","","","","match","","","","","","","","","","key","f","16.651785714285715","640","356","f","true","match","img/ellipse.png","弱她","弱她","prac_ALT2_ability","practice_ability","","","","","","","","",""
"null","<span style='color:GreenYellow; font-size: 70px;'>正确! </span>","null","html-keyboard-response","93","576006","0.0-8.0-1.0-1.0-0.0-1.41","3","2","4","3","3","4","4","4","4","4","4","1","1","1","0","0","1","1","0","5","4","5","5","4","3","4","4","4","3","4","5","4","6","5","7","5","6","4","5","5","3","5","4","3","5","2","5","4","1","4","4","2","4","3","4","5","5","3","5","3","4","3","3","3","5","5","6","5","6","6","6","6","7","5","6","3","5","5","5","594948255830245376","张","422","Female","[""好她"",""坏我"",""好我"",""坏她""]","[""强她"",""弱我"",""强我"",""弱她""]","","","","","","","","","","","","","","","","","","","","","","","","","","","","","","feedback_test","","","","","","","","",""
"918","","f","psychophysics","94","577926","0.0-8.0-1.0-1.0-0.0-0.42","3","2","4","3","3","4","4","4","4","4","4","1","1","1","0","0","1","1","0","5","4","5","5","4","3","4","4","4","3","4","5","4","6","5","7","5","6","4","5","5","3","5","4","3","5","2","5","4","1","4","4","2","4","3","4","5","5","3","5","3","4","3","3","3","5","5","6","5","6","6","6","6","7","5","6","3","5","5","5","594948255830245376","张","422","Female","[""好她"",""坏我"",""好我"",""坏她""]","[""强她"",""弱我"",""强我"",""弱她""]","","","","","","","","match","","","","","","","","","","key","f","16.646086956522144","640","356","f","true","match","img/trapezoid.png","强她","强她","prac_ALT2_ability","practice_ability","","","","","","","","",""
"null","<span style='color:GreenYellow; font-size: 70px;'>正确! </span>","null","html-keyboard-response","95","578427","0.0-8.0-1.0-1.0-0.0-1.42","3","2","4","3","3","4","4","4","4","4","4","1","1","1","0","0","1","1","0","5","4","5","5","4","3","4","4","4","3","4","5","4","6","5","7","5","6","4","5","5","3","5","4","3","5","2","5","4","1","4","4","2","4","3","4","5","5","3","5","3","4","3","3","3","5","5","6","5","6","6","6","6","7","5","6","3","5","5","5","594948255830245376","张","422","Female","[""好她"",""坏我"",""好我"",""坏她""]","[""强她"",""弱我"",""强我"",""弱她""]","","","","","","","","","","","","","","","","","","","","","","","","","","","","","","feedback_test","","","","","","","","",""
"667","","f","psychophysics","96","580096","0.0-8.0-1.0-1.0-0.0-0.43","3","2","4","3","3","4","4","4","4","4","4","1","1","1","0","0","1","1","0","5","4","5","5","4","3","4","4","4","3","4","5","4","6","5","7","5","6","4","5","5","3","5","4","3","5","2","5","4","1","4","4","2","4","3","4","5","5","3","5","3","4","3","3","3","5","5","6","5","6","6","6","6","7","5","6","3","5","5","5","594948255830245376","张","422","Female","[""好她"",""坏我"",""好我"",""坏她""]","[""强她"",""弱我"",""强我"",""弱她""]","","","","","","","","match","","","","","","","","","","key","f","16.65454545454475","640","356","f","true","match","img/pentagon.png","强我","强我","prac_ALT2_ability","practice_ability","","","","","","","","",""
"null","<span style='color:GreenYellow; font-size: 70px;'>正确! </span>","null","html-keyboard-response","97","580597","0.0-8.0-1.0-1.0-0.0-1.43","3","2","4","3","3","4","4","4","4","4","4","1","1","1","0","0","1","1","0","5","4","5","5","4","3","4","4","4","3","4","5","4","6","5","7","5","6","4","5","5","3","5","4","3","5","2","5","4","1","4","4","2","4","3","4","5","5","3","5","3","4","3","3","3","5","5","6","5","6","6","6","6","7","5","6","3","5","5","5","594948255830245376","张","422","Female","[""好她"",""坏我"",""好我"",""坏她""]","[""强她"",""弱我"",""强我"",""弱她""]","","","","","","","","","","","","","","","","","","","","","","","","","","","","","","feedback_test","","","","","","","","",""
"876","","f","psychophysics","98","582475","0.0-8.0-1.0-1.0-0.0-0.44","3","2","4","3","3","4","4","4","4","4","4","1","1","1","0","0","1","1","0","5","4","5","5","4","3","4","4","4","3","4","5","4","6","5","7","5","6","4","5","5","3","5","4","3","5","2","5","4","1","4","4","2","4","3","4","5","5","3","5","3","4","3","3","3","5","5","6","5","6","6","6","6","7","5","6","3","5","5","5","594948255830245376","张","422","Female","[""好她"",""坏我"",""好我"",""坏她""]","[""强她"",""弱我"",""强我"",""弱她""]","","","","","","","","match","","","","","","","","","","key","f","16.65535714285631","640","356","j","false","nonmatch","img/ellipse.png","弱我","弱她","prac_ALT2_ability","practice_ability","","","","","","","","",""
"null","<span style='color:red; font-size: 70px;'>错误! </span>","null","html-keyboard-response","99","582978","0.0-8.0-1.0-1.0-0.0-1.44","3","2","4","3","3","4","4","4","4","4","4","1","1","1","0","0","1","1","0","5","4","5","5","4","3","4","4","4","3","4","5","4","6","5","7","5","6","4","5","5","3","5","4","3","5","2","5","4","1","4","4","2","4","3","4","5","5","3","5","3","4","3","3","3","5","5","6","5","6","6","6","6","7","5","6","3","5","5","5","594948255830245376","张","422","Female","[""好她"",""坏我"",""好我"",""坏她""]","[""强她"",""弱我"",""强我"",""弱她""]","","","","","","","","","","","","","","","","","","","","","","","","","","","","","","feedback_test","","","","","","","","",""
"957","","j","psychophysics","100","584936","0.0-8.0-1.0-1.0-0.0-0.45","3","2","4","3","3","4","4","4","4","4","4","1","1","1","0","0","1","1","0","5","4","5","5","4","3","4","4","4","3","4","5","4","6","5","7","5","6","4","5","5","3","5","4","3","5","2","5","4","1","4","4","2","4","3","4","5","5","3","5","3","4","3","3","3","5","5","6","5","6","6","6","6","7","5","6","3","5","5","5","594948255830245376","张","422","Female","[""好她"",""坏我"",""好我"",""坏她""]","[""强她"",""弱我"",""强我"",""弱她""]","","","","","","","","nonmatch","","","","","","","","","","key","j","16.651282051281655","640","356","j","true","nonmatch","img/pentagon.png","强她","强我","prac_ALT2_ability","practice_ability","","","","","","","","",""
"null","<span style='color:GreenYellow; font-size: 70px;'>正确! </span>","null","html-keyboard-response","101","585437","0.0-8.0-1.0-1.0-0.0-1.45","3","2","4","3","3","4","4","4","4","4","4","1","1","1","0","0","1","1","0","5","4","5","5","4","3","4","4","4","3","4","5","4","6","5","7","5","6","4","5","5","3","5","4","3","5","2","5","4","1","4","4","2","4","3","4","5","5","3","5","3","4","3","3","3","5","5","6","5","6","6","6","6","7","5","6","3","5","5","5","594948255830245376","张","422","Female","[""好她"",""坏我"",""好我"",""坏她""]","[""强她"",""弱我"",""强我"",""弱她""]","","","","","","","","","","","","","","","","","","","","","","","","","","","","","","feedback_test","","","","","","","","",""
"884","","j","psychophysics","102","587323","0.0-8.0-1.0-1.0-0.0-0.46","3","2","4","3","3","4","4","4","4","4","4","1","1","1","0","0","1","1","0","5","4","5","5","4","3","4","4","4","3","4","5","4","6","5","7","5","6","4","5","5","3","5","4","3","5","2","5","4","1","4","4","2","4","3","4","5","5","3","5","3","4","3","3","3","5","5","6","5","6","6","6","6","7","5","6","3","5","5","5","594948255830245376","张","422","Female","[""好她"",""坏我"",""好我"",""坏她""]","[""强她"",""弱我"",""强我"",""弱她""]","","","","","","","","nonmatch","","","","","","","","","","key","j","16.654464285714702","640","356","j","true","nonmatch","img/pentagon.png","弱我","强我","prac_ALT2_ability","practice_ability","","","","","","","","",""
"null","<span style='color:GreenYellow; font-size: 70px;'>正确! </span>","null","html-keyboard-response","103","587825","0.0-8.0-1.0-1.0-0.0-1.46","3","2","4","3","3","4","4","4","4","4","4","1","1","1","0","0","1","1","0","5","4","5","5","4","3","4","4","4","3","4","5","4","6","5","7","5","6","4","5","5","3","5","4","3","5","2","5","4","1","4","4","2","4","3","4","5","5","3","5","3","4","3","3","3","5","5","6","5","6","6","6","6","7","5","6","3","5","5","5","594948255830245376","张","422","Female","[""好她"",""坏我"",""好我"",""坏她""]","[""强她"",""弱我"",""强我"",""弱她""]","","","","","","","","","","","","","","","","","","","","","","","","","","","","","","feedback_test","","","","","","","","",""
"796","","j","psychophysics","104","589623","0.0-8.0-1.0-1.0-0.0-0.47","3","2","4","3","3","4","4","4","4","4","4","1","1","1","0","0","1","1","0","5","4","5","5","4","3","4","4","4","3","4","5","4","6","5","7","5","6","4","5","5","3","5","4","3","5","2","5","4","1","4","4","2","4","3","4","5","5","3","5","3","4","3","3","3","5","5","6","5","6","6","6","6","7","5","6","3","5","5","5","594948255830245376","张","422","Female","[""好她"",""坏我"",""好我"",""坏她""]","[""强她"",""弱我"",""强我"",""弱她""]","","","","","","","","nonmatch","","","","","","","","","","key","j","16.651401869159532","640","356","j","true","nonmatch","img/trapezoid.png","弱我","强她","prac_ALT2_ability","practice_ability","","","","","","","","",""
"null","<span style='color:GreenYellow; font-size: 70px;'>正确! </span>","null","html-keyboard-response","105","590124","0.0-8.0-1.0-1.0-0.0-1.47","3","2","4","3","3","4","4","4","4","4","4","1","1","1","0","0","1","1","0","5","4","5","5","4","3","4","4","4","3","4","5","4","6","5","7","5","6","4","5","5","3","5","4","3","5","2","5","4","1","4","4","2","4","3","4","5","5","3","5","3","4","3","3","3","5","5","6","5","6","6","6","6","7","5","6","3","5","5","5","594948255830245376","张","422","Female","[""好她"",""坏我"",""好我"",""坏她""]","[""强她"",""弱我"",""强我"",""弱她""]","","","","","","","","","","","","","","","","","","","","","","","","","","","","","","feedback_test","","","","","","","","",""
"29178","<style>.context{color:white; font-size: 35px; line-height:40px}</style>                          <div><p class='context'>您正确回答了69% 的试次。</p><p class='context'>您的平均反应时为882毫秒。</p><p class='context'>恭喜您完成练习。按空格键进入正式实验。</p><p class='footer' style='color:white;font-size: 35px; line-height:40px;'>请在进入正式实验实验之前将您的<span style='color: lightgreen;'>食指</span>放在电脑键盘的相应键位上进行按键。</p>"," ","html-keyboard-response","106","619306","0.0-8.0-1.0-2.0","3","2","4","3","3","4","4","4","4","4","4","1","1","1","0","0","1","1","0","5","4","5","5","4","3","4","4","4","3","4","5","4","6","5","7","5","6","4","5","5","3","5","4","3","5","2","5","4","1","4","4","2","4","3","4","5","5","3","5","3","4","3","3","3","5","5","6","5","6","6","6","6","7","5","6","3","5","5","5","594948255830245376","张","422","Female","[""好她"",""坏我"",""好我"",""坏她""]","[""强她"",""弱我"",""强我"",""弱她""]","","","","","","","","","","","","","","","","","","","","","","","","","","","","","","","","","","","","","","",""
"1366","
  <p style='color: white; font-size: 22px'>请您将手指放在按键上，准备进入正式的匹配任务。</p>
  <p> <div style = ""color: green""><按空格键进入下一阶段的匹配任务></div></p>
  "," ","html-keyboard-response","107","620677","0.0-8.0-1.0-3.0","3","2","4","3","3","4","4","4","4","4","4","1","1","1","0","0","1","1","0","5","4","5","5","4","3","4","4","4","3","4","5","4","6","5","7","5","6","4","5","5","3","5","4","3","5","2","5","4","1","4","4","2","4","3","4","5","5","3","5","3","4","3","3","3","5","5","6","5","6","6","6","6","7","5","6","3","5","5","5","594948255830245376","张","422","Female","[""好她"",""坏我"",""好我"",""坏她""]","[""强她"",""弱我"",""强我"",""弱她""]","","","","","","","","","","","","","","","","","","","","","","","","","","","","","","","","","","","","","","",""
"919","","j","psychophysics","108","622597","0.0-8.0-1.0-4.0-0.0-0.0","3","2","4","3","3","4","4","4","4","4","4","1","1","1","0","0","1","1","0","5","4","5","5","4","3","4","4","4","3","4","5","4","6","5","7","5","6","4","5","5","3","5","4","3","5","2","5","4","1","4","4","2","4","3","4","5","5","3","5","3","4","3","3","3","5","5","6","5","6","6","6","6","7","5","6","3","5","5","5","594948255830245376","张","422","Female","[""好她"",""坏我"",""好我"",""坏她""]","[""强她"",""弱我"",""强我"",""弱她""]","","","","","","","","nonmatch","","","","","","","","","","key","j","16.653508771929825","640","356","j","true","nonmatch","img/ellipse.png","强她","弱她","ALT2","ability","","","","","","","","",""
"null","<span style='color:GreenYellow; font-size: 70px;'>正确! </span>","null","html-keyboard-response","109","623098","0.0-8.0-1.0-4.0-0.0-1.0","3","2","4","3","3","4","4","4","4","4","4","1","1","1","0","0","1","1","0","5","4","5","5","4","3","4","4","4","3","4","5","4","6","5","7","5","6","4","5","5","3","5","4","3","5","2","5","4","1","4","4","2","4","3","4","5","5","3","5","3","4","3","3","3","5","5","6","5","6","6","6","6","7","5","6","3","5","5","5","594948255830245376","张","422","Female","[""好她"",""坏我"",""好我"",""坏她""]","[""强她"",""弱我"",""强我"",""弱她""]","","","","","","","","","","","","","","","","","","","","","","","","","","","","","","feedback_test","","","","","","","","",""
"987","","f","psychophysics","110","625088","0.0-8.0-1.0-4.0-0.0-0.1","3","2","4","3","3","4","4","4","4","4","4","1","1","1","0","0","1","1","0","5","4","5","5","4","3","4","4","4","3","4","5","4","6","5","7","5","6","4","5","5","3","5","4","3","5","2","5","4","1","4","4","2","4","3","4","5","5","3","5","3","4","3","3","3","5","5","6","5","6","6","6","6","7","5","6","3","5","5","5","594948255830245376","张","422","Female","[""好她"",""坏我"",""好我"",""坏她""]","[""强她"",""弱我"",""强我"",""弱她""]","","","","","","","","match","","","","","","","","","","key","f","16.650847457626526","640","356","f","true","match","img/pentagon.png","强我","强我","ALT2","ability","","","","","","","","",""
"null","<span style='color:GreenYellow; font-size: 70px;'>正确! </span>","null","html-keyboard-response","111","625589","0.0-8.0-1.0-4.0-0.0-1.1","3","2","4","3","3","4","4","4","4","4","4","1","1","1","0","0","1","1","0","5","4","5","5","4","3","4","4","4","3","4","5","4","6","5","7","5","6","4","5","5","3","5","4","3","5","2","5","4","1","4","4","2","4","3","4","5","5","3","5","3","4","3","3","3","5","5","6","5","6","6","6","6","7","5","6","3","5","5","5","594948255830245376","张","422","Female","[""好她"",""坏我"",""好我"",""坏她""]","[""强她"",""弱我"",""强我"",""弱她""]","","","","","","","","","","","","","","","","","","","","","","","","","","","","","","feedback_test","","","","","","","","",""
"891","","j","psychophysics","112","627482","0.0-8.0-1.0-4.0-0.0-0.2","3","2","4","3","3","4","4","4","4","4","4","1","1","1","0","0","1","1","0","5","4","5","5","4","3","4","4","4","3","4","5","4","6","5","7","5","6","4","5","5","3","5","4","3","5","2","5","4","1","4","4","2","4","3","4","5","5","3","5","3","4","3","3","3","5","5","6","5","6","6","6","6","7","5","6","3","5","5","5","594948255830245376","张","422","Female","[""好她"",""坏我"",""好我"",""坏她""]","[""强她"",""弱我"",""强我"",""弱她""]","","","","","","","","nonmatch","","","","","","","","","","key","j","16.654867256637168","640","356","j","true","nonmatch","img/pentagon.png","弱她","强我","ALT2","ability","","","","","","","","",""
"null","<span style='color:GreenYellow; font-size: 70px;'>正确! </span>","null","html-keyboard-response","113","627983","0.0-8.0-1.0-4.0-0.0-1.2","3","2","4","3","3","4","4","4","4","4","4","1","1","1","0","0","1","1","0","5","4","5","5","4","3","4","4","4","3","4","5","4","6","5","7","5","6","4","5","5","3","5","4","3","5","2","5","4","1","4","4","2","4","3","4","5","5","3","5","3","4","3","3","3","5","5","6","5","6","6","6","6","7","5","6","3","5","5","5","594948255830245376","张","422","Female","[""好她"",""坏我"",""好我"",""坏她""]","[""强她"",""弱我"",""强我"",""弱她""]","","","","","","","","","","","","","","","","","","","","","","","","","","","","","","feedback_test","","","","","","","","",""
"1155","","j","psychophysics","114","630139","0.0-8.0-1.0-4.0-0.0-0.3","3","2","4","3","3","4","4","4","4","4","4","1","1","1","0","0","1","1","0","5","4","5","5","4","3","4","4","4","3","4","5","4","6","5","7","5","6","4","5","5","3","5","4","3","5","2","5","4","1","4","4","2","4","3","4","5","5","3","5","3","4","3","3","3","5","5","6","5","6","6","6","6","7","5","6","3","5","5","5","594948255830245376","张","422","Female","[""好她"",""坏我"",""好我"",""坏她""]","[""强她"",""弱我"",""强我"",""弱她""]","","","","","","","","nonmatch","","","","","","","","","","key","j","16.650781249999454","640","356","j","true","nonmatch","img/ellipse.png","强我","弱她","ALT2","ability","","","","","","","","",""
"null","<span style='color:GreenYellow; font-size: 70px;'>正确! </span>","null","html-keyboard-response","115","630640","0.0-8.0-1.0-4.0-0.0-1.3","3","2","4","3","3","4","4","4","4","4","4","1","1","1","0","0","1","1","0","5","4","5","5","4","3","4","4","4","3","4","5","4","6","5","7","5","6","4","5","5","3","5","4","3","5","2","5","4","1","4","4","2","4","3","4","5","5","3","5","3","4","3","3","3","5","5","6","5","6","6","6","6","7","5","6","3","5","5","5","594948255830245376","张","422","Female","[""好她"",""坏我"",""好我"",""坏她""]","[""强她"",""弱我"",""强我"",""弱她""]","","","","","","","","","","","","","","","","","","","","","","","","","","","","","","feedback_test","","","","","","","","",""
"833","","f","psychophysics","116","632474","0.0-8.0-1.0-4.0-0.0-0.4","3","2","4","3","3","4","4","4","4","4","4","1","1","1","0","0","1","1","0","5","4","5","5","4","3","4","4","4","3","4","5","4","6","5","7","5","6","4","5","5","3","5","4","3","5","2","5","4","1","4","4","2","4","3","4","5","5","3","5","3","4","3","3","3","5","5","6","5","6","6","6","6","7","5","6","3","5","5","5","594948255830245376","张","422","Female","[""好她"",""坏我"",""好我"",""坏她""]","[""强她"",""弱我"",""强我"",""弱她""]","","","","","","","","match","","","","","","","","","","key","f","16.650458715596542","640","356","f","true","match","img/trapezoid.png","强她","强她","ALT2","ability","","","","","","","","",""
"null","<span style='color:GreenYellow; font-size: 70px;'>正确! </span>","null","html-keyboard-response","117","632976","0.0-8.0-1.0-4.0-0.0-1.4","3","2","4","3","3","4","4","4","4","4","4","1","1","1","0","0","1","1","0","5","4","5","5","4","3","4","4","4","3","4","5","4","6","5","7","5","6","4","5","5","3","5","4","3","5","2","5","4","1","4","4","2","4","3","4","5","5","3","5","3","4","3","3","3","5","5","6","5","6","6","6","6","7","5","6","3","5","5","5","594948255830245376","张","422","Female","[""好她"",""坏我"",""好我"",""坏她""]","[""强她"",""弱我"",""强我"",""弱她""]","","","","","","","","","","","","","","","","","","","","","","","","","","","","","","feedback_test","","","","","","","","",""
"739","","f","psychophysics","118","634717","0.0-8.0-1.0-4.0-0.0-0.5","3","2","4","3","3","4","4","4","4","4","4","1","1","1","0","0","1","1","0","5","4","5","5","4","3","4","4","4","3","4","5","4","6","5","7","5","6","4","5","5","3","5","4","3","5","2","5","4","1","4","4","2","4","3","4","5","5","3","5","3","4","3","3","3","5","5","6","5","6","6","6","6","7","5","6","3","5","5","5","594948255830245376","张","422","Female","[""好她"",""坏我"",""好我"",""坏她""]","[""强她"",""弱我"",""强我"",""弱她""]","","","","","","","","match","","","","","","","","","","key","f","16.650485436893202","640","356","j","false","nonmatch","img/trapezoid.png","强我","强她","ALT2","ability","","","","","","","","",""
"null","<span style='color:red; font-size: 70px;'>错误! </span>","null","html-keyboard-response","119","635219","0.0-8.0-1.0-4.0-0.0-1.5","3","2","4","3","3","4","4","4","4","4","4","1","1","1","0","0","1","1","0","5","4","5","5","4","3","4","4","4","3","4","5","4","6","5","7","5","6","4","5","5","3","5","4","3","5","2","5","4","1","4","4","2","4","3","4","5","5","3","5","3","4","3","3","3","5","5","6","5","6","6","6","6","7","5","6","3","5","5","5","594948255830245376","张","422","Female","[""好她"",""坏我"",""好我"",""坏她""]","[""强她"",""弱我"",""强我"",""弱她""]","","","","","","","","","","","","","","","","","","","","","","","","","","","","","","feedback_test","","","","","","","","",""
"708","","f","psychophysics","120","636929","0.0-8.0-1.0-4.0-0.0-0.6","3","2","4","3","3","4","4","4","4","4","4","1","1","1","0","0","1","1","0","5","4","5","5","4","3","4","4","4","3","4","5","4","6","5","7","5","6","4","5","5","3","5","4","3","5","2","5","4","1","4","4","2","4","3","4","5","5","3","5","3","4","3","3","3","5","5","6","5","6","6","6","6","7","5","6","3","5","5","5","594948255830245376","张","422","Female","[""好她"",""坏我"",""好我"",""坏她""]","[""强她"",""弱我"",""强我"",""弱她""]","","","","","","","","match","","","","","","","","","","key","f","16.65049504950449","640","356","f","true","match","img/pentagon.png","强我","强我","ALT2","ability","","","","","","","","",""
"null","<span style='color:GreenYellow; font-size: 70px;'>正确! </span>","null","html-keyboard-response","121","637430","0.0-8.0-1.0-4.0-0.0-1.6","3","2","4","3","3","4","4","4","4","4","4","1","1","1","0","0","1","1","0","5","4","5","5","4","3","4","4","4","3","4","5","4","6","5","7","5","6","4","5","5","3","5","4","3","5","2","5","4","1","4","4","2","4","3","4","5","5","3","5","3","4","3","3","3","5","5","6","5","6","6","6","6","7","5","6","3","5","5","5","594948255830245376","张","422","Female","[""好她"",""坏我"",""好我"",""坏她""]","[""强她"",""弱我"",""强我"",""弱她""]","","","","","","","","","","","","","","","","","","","","","","","","","","","","","","feedback_test","","","","","","","","",""
"793","","j","psychophysics","122","639224","0.0-8.0-1.0-4.0-0.0-0.7","3","2","4","3","3","4","4","4","4","4","4","1","1","1","0","0","1","1","0","5","4","5","5","4","3","4","4","4","3","4","5","4","6","5","7","5","6","4","5","5","3","5","4","3","5","2","5","4","1","4","4","2","4","3","4","5","5","3","5","3","4","3","3","3","5","5","6","5","6","6","6","6","7","5","6","3","5","5","5","594948255830245376","张","422","Female","[""好她"",""坏我"",""好我"",""坏她""]","[""强她"",""弱我"",""强我"",""弱她""]","","","","","","","","nonmatch","","","","","","","","","","key","j","16.649532710280372","640","356","j","true","nonmatch","img/pentagon.png","弱我","强我","ALT2","ability","","","","","","","","",""
"null","<span style='color:GreenYellow; font-size: 70px;'>正确! </span>","null","html-keyboard-response","123","639726","0.0-8.0-1.0-4.0-0.0-1.7","3","2","4","3","3","4","4","4","4","4","4","1","1","1","0","0","1","1","0","5","4","5","5","4","3","4","4","4","3","4","5","4","6","5","7","5","6","4","5","5","3","5","4","3","5","2","5","4","1","4","4","2","4","3","4","5","5","3","5","3","4","3","3","3","5","5","6","5","6","6","6","6","7","5","6","3","5","5","5","594948255830245376","张","422","Female","[""好她"",""坏我"",""好我"",""坏她""]","[""强她"",""弱我"",""强我"",""弱她""]","","","","","","","","","","","","","","","","","","","","","","","","","","","","","","feedback_test","","","","","","","","",""
"null","","null","psychophysics","124","641930","0.0-8.0-1.0-4.0-0.0-0.8","3","2","4","3","3","4","4","4","4","4","4","1","1","1","0","0","1","1","0","5","4","5","5","4","3","4","4","4","3","4","5","4","6","5","7","5","6","4","5","5","3","5","4","3","5","2","5","4","1","4","4","2","4","3","4","5","5","3","5","3","4","3","3","3","5","5","6","5","6","6","6","6","7","5","6","3","5","5","5","594948255830245376","张","422","Female","[""好她"",""坏我"",""好我"",""坏她""]","[""强她"",""弱我"",""强我"",""弱她""]","","","","","","","","null","","","","","","","","","","key","null","16.65303030302995","640","356","f","false","match","img/ellipse.png","弱她","弱她","ALT2","ability","","","","","","","","",""
"null","<span class='add_' style='color:yellow; font-size: 70px;'> 太慢! </span>","null","html-keyboard-response","125","642431","0.0-8.0-1.0-4.0-0.0-1.8","3","2","4","3","3","4","4","4","4","4","4","1","1","1","0","0","1","1","0","5","4","5","5","4","3","4","4","4","3","4","5","4","6","5","7","5","6","4","5","5","3","5","4","3","5","2","5","4","1","4","4","2","4","3","4","5","5","3","5","3","4","3","3","3","5","5","6","5","6","6","6","6","7","5","6","3","5","5","5","594948255830245376","张","422","Female","[""好她"",""坏我"",""好我"",""坏她""]","[""强她"",""弱我"",""强我"",""弱她""]","","","","","","","","","","","","","","","","","","","","","","","","","","","","","","feedback_test","","","","","","","","",""
"742","","j","psychophysics","126","644175","0.0-8.0-1.0-4.0-0.0-0.9","3","2","4","3","3","4","4","4","4","4","4","1","1","1","0","0","1","1","0","5","4","5","5","4","3","4","4","4","3","4","5","4","6","5","7","5","6","4","5","5","3","5","4","3","5","2","5","4","1","4","4","2","4","3","4","5","5","3","5","3","4","3","3","3","5","5","6","5","6","6","6","6","7","5","6","3","5","5","5","594948255830245376","张","422","Female","[""好她"",""坏我"",""好我"",""坏她""]","[""强她"",""弱我"",""强我"",""弱她""]","","","","","","","","nonmatch","","","","","","","","","","key","j","16.654368932039063","640","356","j","true","nonmatch","img/ellipse.png","弱我","弱她","ALT2","ability","","","","","","","","",""
"null","<span style='color:GreenYellow; font-size: 70px;'>正确! </span>","null","html-keyboard-response","127","644677","0.0-8.0-1.0-4.0-0.0-1.9","3","2","4","3","3","4","4","4","4","4","4","1","1","1","0","0","1","1","0","5","4","5","5","4","3","4","4","4","3","4","5","4","6","5","7","5","6","4","5","5","3","5","4","3","5","2","5","4","1","4","4","2","4","3","4","5","5","3","5","3","4","3","3","3","5","5","6","5","6","6","6","6","7","5","6","3","5","5","5","594948255830245376","张","422","Female","[""好她"",""坏我"",""好我"",""坏她""]","[""强她"",""弱我"",""强我"",""弱她""]","","","","","","","","","","","","","","","","","","","","","","","","","","","","","","feedback_test","","","","","","","","",""
"840","","j","psychophysics","128","646518","0.0-8.0-1.0-4.0-0.0-0.10","3","2","4","3","3","4","4","4","4","4","4","1","1","1","0","0","1","1","0","5","4","5","5","4","3","4","4","4","3","4","5","4","6","5","7","5","6","4","5","5","3","5","4","3","5","2","5","4","1","4","4","2","4","3","4","5","5","3","5","3","4","3","3","3","5","5","6","5","6","6","6","6","7","5","6","3","5","5","5","594948255830245376","张","422","Female","[""好她"",""坏我"",""好我"",""坏她""]","[""强她"",""弱我"",""强我"",""弱她""]","","","","","","","","nonmatch","","","","","","","","","","key","j","16.65137614678899","640","356","j","true","nonmatch","img/trapezoid.png","弱我","强她","ALT2","ability","","","","","","","","",""
"null","<span style='color:GreenYellow; font-size: 70px;'>正确! </span>","null","html-keyboard-response","129","647019","0.0-8.0-1.0-4.0-0.0-1.10","3","2","4","3","3","4","4","4","4","4","4","1","1","1","0","0","1","1","0","5","4","5","5","4","3","4","4","4","3","4","5","4","6","5","7","5","6","4","5","5","3","5","4","3","5","2","5","4","1","4","4","2","4","3","4","5","5","3","5","3","4","3","3","3","5","5","6","5","6","6","6","6","7","5","6","3","5","5","5","594948255830245376","张","422","Female","[""好她"",""坏我"",""好我"",""坏她""]","[""强她"",""弱我"",""强我"",""弱她""]","","","","","","","","","","","","","","","","","","","","","","","","","","","","","","feedback_test","","","","","","","","",""
"811","","f","psychophysics","130","648832","0.0-8.0-1.0-4.0-0.0-0.11","3","2","4","3","3","4","4","4","4","4","4","1","1","1","0","0","1","1","0","5","4","5","5","4","3","4","4","4","3","4","5","4","6","5","7","5","6","4","5","5","3","5","4","3","5","2","5","4","1","4","4","2","4","3","4","5","5","3","5","3","4","3","3","3","5","5","6","5","6","6","6","6","7","5","6","3","5","5","5","594948255830245376","张","422","Female","[""好她"",""坏我"",""好我"",""坏她""]","[""强她"",""弱我"",""强我"",""弱她""]","","","","","","","","match","","","","","","","","","","key","f","16.6546296296292","640","356","f","true","match","img/pentagon.png","强我","强我","ALT2","ability","","","","","","","","",""
"null","<span style='color:GreenYellow; font-size: 70px;'>正确! </span>","null","html-keyboard-response","131","649334","0.0-8.0-1.0-4.0-0.0-1.11","3","2","4","3","3","4","4","4","4","4","4","1","1","1","0","0","1","1","0","5","4","5","5","4","3","4","4","4","3","4","5","4","6","5","7","5","6","4","5","5","3","5","4","3","5","2","5","4","1","4","4","2","4","3","4","5","5","3","5","3","4","3","3","3","5","5","6","5","6","6","6","6","7","5","6","3","5","5","5","594948255830245376","张","422","Female","[""好她"",""坏我"",""好我"",""坏她""]","[""强她"",""弱我"",""强我"",""弱她""]","","","","","","","","","","","","","","","","","","","","","","","","","","","","","","feedback_test","","","","","","","","",""
"721","","j","psychophysics","132","651057","0.0-8.0-1.0-4.0-0.0-0.12","3","2","4","3","3","4","4","4","4","4","4","1","1","1","0","0","1","1","0","5","4","5","5","4","3","4","4","4","3","4","5","4","6","5","7","5","6","4","5","5","3","5","4","3","5","2","5","4","1","4","4","2","4","3","4","5","5","3","5","3","4","3","3","3","5","5","6","5","6","6","6","6","7","5","6","3","5","5","5","594948255830245376","张","422","Female","[""好她"",""坏我"",""好我"",""坏她""]","[""强她"",""弱我"",""强我"",""弱她""]","","","","","","","","nonmatch","","","","","","","","","","key","j","16.655339805825243","640","356","f","false","match","img/triangle.png","弱我","弱我","ALT2","ability","","","","","","","","",""
"null","<span style='color:red; font-size: 70px;'>错误! </span>","null","html-keyboard-response","133","651558","0.0-8.0-1.0-4.0-0.0-1.12","3","2","4","3","3","4","4","4","4","4","4","1","1","1","0","0","1","1","0","5","4","5","5","4","3","4","4","4","3","4","5","4","6","5","7","5","6","4","5","5","3","5","4","3","5","2","5","4","1","4","4","2","4","3","4","5","5","3","5","3","4","3","3","3","5","5","6","5","6","6","6","6","7","5","6","3","5","5","5","594948255830245376","张","422","Female","[""好她"",""坏我"",""好我"",""坏她""]","[""强她"",""弱我"",""强我"",""弱她""]","","","","","","","","","","","","","","","","","","","","","","","","","","","","","","feedback_test","","","","","","","","",""
"915","","j","psychophysics","134","653474","0.0-8.0-1.0-4.0-0.0-0.13","3","2","4","3","3","4","4","4","4","4","4","1","1","1","0","0","1","1","0","5","4","5","5","4","3","4","4","4","3","4","5","4","6","5","7","5","6","4","5","5","3","5","4","3","5","2","5","4","1","4","4","2","4","3","4","5","5","3","5","3","4","3","3","3","5","5","6","5","6","6","6","6","7","5","6","3","5","5","5","594948255830245376","张","422","Female","[""好她"",""坏我"",""好我"",""坏她""]","[""强她"",""弱我"",""强我"",""弱她""]","","","","","","","","nonmatch","","","","","","","","","","key","j","16.652631578947574","640","356","j","true","nonmatch","img/triangle.png","强她","弱我","ALT2","ability","","","","","","","","",""
"null","<span style='color:GreenYellow; font-size: 70px;'>正确! </span>","null","html-keyboard-response","135","653976","0.0-8.0-1.0-4.0-0.0-1.13","3","2","4","3","3","4","4","4","4","4","4","1","1","1","0","0","1","1","0","5","4","5","5","4","3","4","4","4","3","4","5","4","6","5","7","5","6","4","5","5","3","5","4","3","5","2","5","4","1","4","4","2","4","3","4","5","5","3","5","3","4","3","3","3","5","5","6","5","6","6","6","6","7","5","6","3","5","5","5","594948255830245376","张","422","Female","[""好她"",""坏我"",""好我"",""坏她""]","[""强她"",""弱我"",""强我"",""弱她""]","","","","","","","","","","","","","","","","","","","","","","","","","","","","","","feedback_test","","","","","","","","",""
"775","","j","psychophysics","136","655752","0.0-8.0-1.0-4.0-0.0-0.14","3","2","4","3","3","4","4","4","4","4","4","1","1","1","0","0","1","1","0","5","4","5","5","4","3","4","4","4","3","4","5","4","6","5","7","5","6","4","5","5","3","5","4","3","5","2","5","4","1","4","4","2","4","3","4","5","5","3","5","3","4","3","3","3","5","5","6","5","6","6","6","6","7","5","6","3","5","5","5","594948255830245376","张","422","Female","[""好她"",""坏我"",""好我"",""坏她""]","[""强她"",""弱我"",""强我"",""弱她""]","","","","","","","","nonmatch","","","","","","","","","","key","j","16.650943396226417","640","356","j","true","nonmatch","img/triangle.png","弱她","弱我","ALT2","ability","","","","","","","","",""
"null","<span style='color:GreenYellow; font-size: 70px;'>正确! </span>","null","html-keyboard-response","137","656253","0.0-8.0-1.0-4.0-0.0-1.14","3","2","4","3","3","4","4","4","4","4","4","1","1","1","0","0","1","1","0","5","4","5","5","4","3","4","4","4","3","4","5","4","6","5","7","5","6","4","5","5","3","5","4","3","5","2","5","4","1","4","4","2","4","3","4","5","5","3","5","3","4","3","3","3","5","5","6","5","6","6","6","6","7","5","6","3","5","5","5","594948255830245376","张","422","Female","[""好她"",""坏我"",""好我"",""坏她""]","[""强她"",""弱我"",""强我"",""弱她""]","","","","","","","","","","","","","","","","","","","","","","","","","","","","","","feedback_test","","","","","","","","",""
