"rt","stimulus","response","trial_type","trial_index","time_elapsed","internal_node_id","swb_1","swb_2","swb_3","swb_4","swb_5","LOT_1","LOT_2","LOT_3","LOT_4","LOT_5","LOT_6","IPC_1","IPC_2","IPC_3","IPC_4","IPC_5","IPC_6","IPC_7","IPC_8","MorIden_1","MorIden_2","MorIden_3","MorIden_4","MorIden_5","MorIden_6","MorIden_7","MorIden_8","MorIden_9","MorIden_10","moralSeImag_1","moralSeImag_2","moralSeImag_3","moralSeImag_4","moralSeImag_5","moralSeImag_6","moralSeImag_7","moralSeImag_8","moralSeImag_9","sde_1","sde_2","sde_3","sde_4","sde_5","sde_6","sde_7","sde_8","sde_9","sde_10","trap2","sde_11","sde_12","sde_13","sde_14","sde_15","sde_16","sde_17","sde_18","sde_19","sde_20","IM_1","IM_2","IM_3","IM_4","IM_5","IM_6","IM_7","IM_8","IM_9","IM_10","IM_11","IM_12","IM_13","IM_14","IM_15","IM_16","IM_17","IM_18","IM_19","IM_20","subj_idx","friend_name","ParticipantID","Sex","Word","Word2","value","success","timeout","failed_images","failed_audio","failed_video","user_agent","responses","item_order","radio_event_ids","radio_event_times","key_event_times","mouse_event_times","straightlining","zigzagging","honeypot","view_history","response_type","key_press","avg_frame_time","center_x","center_y","correct_response","correct","identity","Image","word","condition","task_id","screen_id","time_stamp","person","valence","domain","math","status","duration","question_order","trap2_item"
"8944","
   <p><div style='color:white; font-size: 25px'>您好，欢迎参加本次实验。</div></p>
   <p><div style='color:white; font-size: 25px'>为充分保障您的权利，请确保您已经知晓并同意《参与实验同意书》以及《数据公开知情同意书》。</div></p>
   <p><div style='color:white; font-size: 25px'>如果您未见过上述内容，请咨询实验员。</div></p>
   <p style='color:white; font-size: 25px'>如果您选择继续实验，则表示您已经清楚两份知情同意书的内容并同意。</p>
   <p><div style = ""color: pink;font-size:30px;"">请确保您记得day0的实验编号，您将在本次实验输入该编号，若您忘记，请咨询实验员后作答。</div></p>
   <p><div style = ""color:lightblue;font-size:25px;"">请您尽可能认真地作答，我们将依据您在各问卷和按键任务中的作答质量发放报酬。</div></p>
   <p> <div style = ""color: green""><按空格键至下页></div> </p>
   "," ","html-keyboard-response","0","8953","0.0-0.0","5","4","6","5","7","5","4","4","5","4","5","-1","-2","0","0","-2","1","0","1","4","5","5","4","4","5","5","4","4","4","6","6","3","7","4","3","6","4","5","5","3","6","5","5","2","5","1","2","4","1","5","1","7","3","2","7","4","4","6","4","3","7","5","5","3","7","7","5","6","7","6","7","4","5","4","6","7","5","3","7","787463338580910082","周","440","Male","[""坏我"",""好他"",""好我"",""坏他""]","[""弱我"",""强他"",""强我"",""弱他""]","","","","","","","","","","","","","","","","","","","","","","","","","","","","","","","","","","","","","","",""
"","","","call-function","1","8956","0.0-1.0-0.0","5","4","6","5","7","5","4","4","5","4","5","-1","-2","0","0","-2","1","0","1","4","5","5","4","4","5","5","4","4","4","6","6","3","7","4","3","6","4","5","5","3","6","5","5","2","5","1","2","4","1","5","1","7","3","2","7","4","4","6","4","3","7","5","5","3","7","7","5","6","7","6","7","4","5","4","6","7","5","3","7","787463338580910082","周","440","Male","[""坏我"",""好他"",""好我"",""坏他""]","[""弱我"",""强他"",""强我"",""弱他""]","","","","","","","","","","","","","","","","","","","","","","","","","","","","","","","","","","","","","","",""
"20841","","[{""name"":""Sex"",""value"":""0""},{""name"":""friend_name"",""value"":""周""},{""name"":""ParticipantID"",""value"":""440""}]","survey-html-form","2","29800","0.0-1.0-1.0","5","4","6","5","7","5","4","4","5","4","5","-1","-2","0","0","-2","1","0","1","4","5","5","4","4","5","5","4","4","4","6","6","3","7","4","3","6","4","5","5","3","6","5","5","2","5","1","2","4","1","5","1","7","3","2","7","4","4","6","4","3","7","5","5","3","7","7","5","6","7","6","7","4","5","4","6","7","5","3","7","787463338580910082","周","440","Male","[""坏我"",""好他"",""好我"",""坏他""]","[""弱我"",""强他"",""强我"",""弱他""]","","","","","","","","","","","","","","","","","","","","","","","","","","","","","","","","","","","","","","",""
"","","","preload","3","30144","0.0-2.0","5","4","6","5","7","5","4","4","5","4","5","-1","-2","0","0","-2","1","0","1","4","5","5","4","4","5","5","4","4","4","6","6","3","7","4","3","6","4","5","5","3","6","5","5","2","5","1","2","4","1","5","1","7","3","2","7","4","4","6","4","3","7","5","5","3","7","7","5","6","7","6","7","4","5","4","6","7","5","3","7","787463338580910082","周","440","Male","[""坏我"",""好他"",""好我"",""坏他""]","[""弱我"",""强他"",""强我"",""弱他""]","","true","false","[]","[]","[]","","","","","","","","","","","","","","","","","","","","","","","","","","","","","","","","",""
"","","","fullscreen","4","31076","0.0-3.0","5","4","6","5","7","5","4","4","5","4","5","-1","-2","0","0","-2","1","0","1","4","5","5","4","4","5","5","4","4","4","6","6","3","7","4","3","6","4","5","5","3","6","5","5","2","5","1","2","4","1","5","1","7","3","2","7","4","4","6","4","3","7","5","5","3","7","7","5","6","7","6","7","4","5","4","6","7","5","3","7","787463338580910082","周","440","Male","[""坏我"",""好他"",""好我"",""坏他""]","[""弱我"",""强他"",""强我"",""弱他""]","","true","","","","","{}","","","","","","","","","","","","","","","","","","","","","","","","","","","","","","","",""
"28489.699999999953","","{""Q01"":""5"",""Q02"":""4"",""Q03"":""6"",""Q04"":""5"",""Q05"":""7""}","survey-template","5","59572","0.0-4.0","5","4","6","5","7","5","4","4","5","4","5","-1","-2","0","0","-2","1","0","1","4","5","5","4","4","5","5","4","4","4","6","6","3","7","4","3","6","4","5","5","3","6","5","5","2","5","1","2","4","1","5","1","7","3","2","7","4","4","6","4","3","7","5","5","3","7","7","5","6","7","6","7","4","5","4","6","7","5","3","7","787463338580910082","周","440","Male","[""坏我"",""好他"",""好我"",""坏他""]","[""弱我"",""强他"",""强我"",""弱他""]","","","","","","","","{""Q01"":""5"",""Q02"":""4"",""Q03"":""6"",""Q04"":""5"",""Q05"":""7""}","[0,1,2,3,4]","[""Q01"",""Q02"",""Q03"",""Q04"",""Q05""]","[10294.79999999993,12806.599999999977,18374.400000000023,19310.29999999993,22694.199999999953]","[]","[10294.79999999993,12806.599999999977,17142.199999999953,17558.199999999953,18374.400000000023,19310.29999999993,22694.199999999953,28486.29999999993]","0.4","0.5","0","","","","","","","","","","","","","","","","","","","","","","",""
"16788.900000000023","","{""Q01"":""5"",""Q02"":""4"",""Q03"":""4"",""Q04"":""5"",""Q05"":""4"",""Q06"":""5""}","survey-template","6","76379","0.0-5.0","5","4","6","5","7","5","4","4","5","4","5","-1","-2","0","0","-2","1","0","1","4","5","5","4","4","5","5","4","4","4","6","6","3","7","4","3","6","4","5","5","3","6","5","5","2","5","1","2","4","1","5","1","7","3","2","7","4","4","6","4","3","7","5","5","3","7","7","5","6","7","6","7","4","5","4","6","7","5","3","7","787463338580910082","周","440","Male","[""坏我"",""好他"",""好我"",""坏他""]","[""弱我"",""强他"",""强我"",""弱他""]","","","","","","","","{""Q01"":""5"",""Q02"":""4"",""Q03"":""4"",""Q04"":""5"",""Q05"":""4"",""Q06"":""5""}","[0,1,2,3,4,5]","[""Q01"",""Q02"",""Q03"",""Q04"",""Q05"",""Q06""]","[2746.600000000093,6498.20000000007,7386.300000000047,9361.70000000007,10082.5,11738.20000000007]","[]","[2746.600000000093,6498.20000000007,7386.300000000047,9361.70000000007,10082.5,11738.20000000007,16786.600000000093]","0.3333333333333333","0.2","0","","","","","","","","","","","","","","","","","","","","","","",""
"40761.5","","{""Q01"":""-1"",""Q02"":""-2"",""Q03"":""0"",""Q04"":""0"",""Q05"":""-2"",""Q06"":""1"",""Q07"":""0"",""Q08"":""1""}","survey-template","7","117156","0.0-6.0","5","4","6","5","7","5","4","4","5","4","5","-1","-2","0","0","-2","1","0","1","4","5","5","4","4","5","5","4","4","4","6","6","3","7","4","3","6","4","5","5","3","6","5","5","2","5","1","2","4","1","5","1","7","3","2","7","4","4","6","4","3","7","5","5","3","7","7","5","6","7","6","7","4","5","4","6","7","5","3","7","787463338580910082","周","440","Male","[""坏我"",""好他"",""好我"",""坏他""]","[""弱我"",""强他"",""强我"",""弱他""]","","","","","","","","{""Q01"":""-1"",""Q02"":""-2"",""Q03"":""0"",""Q04"":""0"",""Q05"":""-2"",""Q06"":""1"",""Q07"":""0"",""Q08"":""1""}","[0,1,2,3,4,5,6,7]","[""Q01"",""Q02"",""Q03"",""Q04"",""Q05"",""Q06"",""Q07"",""Q08""]","[2582.4000000000233,3678.3000000000466,6710.100000000093,7806.600000000093,9526.20000000007,10966.20000000007,13398.100000000093,14742.100000000093]","[]","[2582.4000000000233,3678.3000000000466,6710.100000000093,7806.600000000093,9526.20000000007,10966.20000000007,13398.100000000093,14742.100000000093,40758.10000000009]","0.375","0.42857142857142855","0","","","","","","","","","","","","","","","","","","","","","","",""
"5376","","","instructions","8","122544","0.0-7.0","5","4","6","5","7","5","4","4","5","4","5","-1","-2","0","0","-2","1","0","1","4","5","5","4","4","5","5","4","4","4","6","6","3","7","4","3","6","4","5","5","3","6","5","5","2","5","1","2","4","1","5","1","7","3","2","7","4","4","6","4","3","7","5","5","3","7","7","5","6","7","6","7","4","5","4","6","7","5","3","7","787463338580910082","周","440","Male","[""坏我"",""好他"",""好我"",""坏他""]","[""弱我"",""强他"",""强我"",""弱他""]","","","","","","","","","","","","","","","","","[{""page_index"":0,""viewing_time"":5374}]","","","","","","","","","","","","","","","","","","","","","",""
"29753","","","instructions","9","152302","0.0-8.0-1.0-0.0","5","4","6","5","7","5","4","4","5","4","5","-1","-2","0","0","-2","1","0","1","4","5","5","4","4","5","5","4","4","4","6","6","3","7","4","3","6","4","5","5","3","6","5","5","2","5","1","2","4","1","5","1","7","3","2","7","4","4","6","4","3","7","5","5","3","7","7","5","6","7","6","7","4","5","4","6","7","5","3","7","787463338580910082","周","440","Male","[""坏我"",""好他"",""好我"",""坏他""]","[""弱我"",""强他"",""强我"",""弱他""]","","","","","","","","","","","","","","","","","[{""page_index"":0,""viewing_time"":1201},{""page_index"":1,""viewing_time"":27296},{""page_index"":2,""viewing_time"":664},{""page_index"":3,""viewing_time"":592}]","","","","","","","","","","","","","","","","","","","","","",""
"1147","","f","psychophysics","10","154465","0.0-8.0-1.0-1.0-0.0-0.0","5","4","6","5","7","5","4","4","5","4","5","-1","-2","0","0","-2","1","0","1","4","5","5","4","4","5","5","4","4","4","6","6","3","7","4","3","6","4","5","5","3","6","5","5","2","5","1","2","4","1","5","1","7","3","2","7","4","4","6","4","3","7","5","5","3","7","7","5","6","7","6","7","4","5","4","6","7","5","3","7","787463338580910082","周","440","Male","[""坏我"",""好他"",""好我"",""坏他""]","[""弱我"",""强他"",""强我"",""弱他""]","","","","","","","","match","","","","","","","","","","key","f","17.2040161290321","683","380","j","false","nonmatch","img/square.png","强他","弱我","prac_ALT2_ability","practice_ability","","","","","","","","",""
"null","<span style='color:red; font-size: 70px;'>错误! </span>","null","html-keyboard-response","11","154974","0.0-8.0-1.0-1.0-0.0-1.0","5","4","6","5","7","5","4","4","5","4","5","-1","-2","0","0","-2","1","0","1","4","5","5","4","4","5","5","4","4","4","6","6","3","7","4","3","6","4","5","5","3","6","5","5","2","5","1","2","4","1","5","1","7","3","2","7","4","4","6","4","3","7","5","5","3","7","7","5","6","7","6","7","4","5","4","6","7","5","3","7","787463338580910082","周","440","Male","[""坏我"",""好他"",""好我"",""坏他""]","[""弱我"",""强他"",""强我"",""弱他""]","","","","","","","","","","","","","","","","","","","","","","","","","","","","","","feedback_test","","","","","","","","",""
"1169","","j","psychophysics","12","157150","0.0-8.0-1.0-1.0-0.0-0.1","5","4","6","5","7","5","4","4","5","4","5","-1","-2","0","0","-2","1","0","1","4","5","5","4","4","5","5","4","4","4","6","6","3","7","4","3","6","4","5","5","3","6","5","5","2","5","1","2","4","1","5","1","7","3","2","7","4","4","6","4","3","7","5","5","3","7","7","5","6","7","6","7","4","5","4","6","7","5","3","7","787463338580910082","周","440","Male","[""坏我"",""好他"",""好我"",""坏他""]","[""弱我"",""强他"",""强我"",""弱他""]","","","","","","","","nonmatch","","","","","","","","","","key","j","16.79373643410847","683","380","f","false","match","img/square.png","弱我","弱我","prac_ALT2_ability","practice_ability","","","","","","","","",""
"null","<span style='color:red; font-size: 70px;'>错误! </span>","null","html-keyboard-response","13","157654","0.0-8.0-1.0-1.0-0.0-1.1","5","4","6","5","7","5","4","4","5","4","5","-1","-2","0","0","-2","1","0","1","4","5","5","4","4","5","5","4","4","4","6","6","3","7","4","3","6","4","5","5","3","6","5","5","2","5","1","2","4","1","5","1","7","3","2","7","4","4","6","4","3","7","5","5","3","7","7","5","6","7","6","7","4","5","4","6","7","5","3","7","787463338580910082","周","440","Male","[""坏我"",""好他"",""好我"",""坏他""]","[""弱我"",""强他"",""强我"",""弱他""]","","","","","","","","","","","","","","","","","","","","","","","","","","","","","","feedback_test","","","","","","","","",""
"1172","","f","psychophysics","14","159830","0.0-8.0-1.0-1.0-0.0-0.2","5","4","6","5","7","5","4","4","5","4","5","-1","-2","0","0","-2","1","0","1","4","5","5","4","4","5","5","4","4","4","6","6","3","7","4","3","6","4","5","5","3","6","5","5","2","5","1","2","4","1","5","1","7","3","2","7","4","4","6","4","3","7","5","5","3","7","7","5","6","7","6","7","4","5","4","6","7","5","3","7","787463338580910082","周","440","Male","[""坏我"",""好他"",""好我"",""坏他""]","[""弱我"",""强他"",""强我"",""弱他""]","","","","","","","","match","","","","","","","","","","key","f","16.662969230769356","683","380","j","false","nonmatch","img/pentagon.png","弱他","强我","prac_ALT2_ability","practice_ability","","","","","","","","",""
"null","<span style='color:red; font-size: 70px;'>错误! </span>","null","html-keyboard-response","15","160334","0.0-8.0-1.0-1.0-0.0-1.2","5","4","6","5","7","5","4","4","5","4","5","-1","-2","0","0","-2","1","0","1","4","5","5","4","4","5","5","4","4","4","6","6","3","7","4","3","6","4","5","5","3","6","5","5","2","5","1","2","4","1","5","1","7","3","2","7","4","4","6","4","3","7","5","5","3","7","7","5","6","7","6","7","4","5","4","6","7","5","3","7","787463338580910082","周","440","Male","[""坏我"",""好他"",""好我"",""坏他""]","[""弱我"",""强他"",""强我"",""弱他""]","","","","","","","","","","","","","","","","","","","","","","","","","","","","","","feedback_test","","","","","","","","",""
"955","","f","psychophysics","16","162302","0.0-8.0-1.0-1.0-0.0-0.3","5","4","6","5","7","5","4","4","5","4","5","-1","-2","0","0","-2","1","0","1","4","5","5","4","4","5","5","4","4","4","6","6","3","7","4","3","6","4","5","5","3","6","5","5","2","5","1","2","4","1","5","1","7","3","2","7","4","4","6","4","3","7","5","5","3","7","7","5","6","7","6","7","4","5","4","6","7","5","3","7","787463338580910082","周","440","Male","[""坏我"",""好他"",""好我"",""坏他""]","[""弱我"",""强他"",""强我"",""弱他""]","","","","","","","","match","","","","","","","","","","key","f","16.818469565217484","683","380","f","true","match","img/pentagon.png","强我","强我","prac_ALT2_ability","practice_ability","","","","","","","","",""
"null","<span style='color:GreenYellow; font-size: 70px;'>正确! </span>","null","html-keyboard-response","17","162806","0.0-8.0-1.0-1.0-0.0-1.3","5","4","6","5","7","5","4","4","5","4","5","-1","-2","0","0","-2","1","0","1","4","5","5","4","4","5","5","4","4","4","6","6","3","7","4","3","6","4","5","5","3","6","5","5","2","5","1","2","4","1","5","1","7","3","2","7","4","4","6","4","3","7","5","5","3","7","7","5","6","7","6","7","4","5","4","6","7","5","3","7","787463338580910082","周","440","Male","[""坏我"",""好他"",""好我"",""坏他""]","[""弱我"",""强他"",""强我"",""弱他""]","","","","","","","","","","","","","","","","","","","","","","","","","","","","","","feedback_test","","","","","","","","",""
"1144","","f","psychophysics","18","164959","0.0-8.0-1.0-1.0-0.0-0.4","5","4","6","5","7","5","4","4","5","4","5","-1","-2","0","0","-2","1","0","1","4","5","5","4","4","5","5","4","4","4","6","6","3","7","4","3","6","4","5","5","3","6","5","5","2","5","1","2","4","1","5","1","7","3","2","7","4","4","6","4","3","7","5","5","3","7","7","5","6","7","6","7","4","5","4","6","7","5","3","7","787463338580910082","周","440","Male","[""坏我"",""好他"",""好我"",""坏他""]","[""弱我"",""强他"",""强我"",""弱他""]","","","","","","","","match","","","","","","","","","","key","f","16.666015873015684","683","380","f","true","match","img/circle.png","弱他","弱他","prac_ALT2_ability","practice_ability","","","","","","","","",""
"null","<span style='color:GreenYellow; font-size: 70px;'>正确! </span>","null","html-keyboard-response","19","165469","0.0-8.0-1.0-1.0-0.0-1.4","5","4","6","5","7","5","4","4","5","4","5","-1","-2","0","0","-2","1","0","1","4","5","5","4","4","5","5","4","4","4","6","6","3","7","4","3","6","4","5","5","3","6","5","5","2","5","1","2","4","1","5","1","7","3","2","7","4","4","6","4","3","7","5","5","3","7","7","5","6","7","6","7","4","5","4","6","7","5","3","7","787463338580910082","周","440","Male","[""坏我"",""好他"",""好我"",""坏他""]","[""弱我"",""强他"",""强我"",""弱他""]","","","","","","","","","","","","","","","","","","","","","","","","","","","","","","feedback_test","","","","","","","","",""
"789","","f","psychophysics","20","167269","0.0-8.0-1.0-1.0-0.0-0.5","5","4","6","5","7","5","4","4","5","4","5","-1","-2","0","0","-2","1","0","1","4","5","5","4","4","5","5","4","4","4","6","6","3","7","4","3","6","4","5","5","3","6","5","5","2","5","1","2","4","1","5","1","7","3","2","7","4","4","6","4","3","7","5","5","3","7","7","5","6","7","6","7","4","5","4","6","7","5","3","7","787463338580910082","周","440","Male","[""坏我"",""好他"",""好我"",""坏他""]","[""弱我"",""强他"",""强我"",""弱他""]","","","","","","","","match","","","","","","","","","","key","f","16.649066037735913","683","380","f","true","match","img/diamond.png","强他","强他","prac_ALT2_ability","practice_ability","","","","","","","","",""
"null","<span style='color:GreenYellow; font-size: 70px;'>正确! </span>","null","html-keyboard-response","21","167773","0.0-8.0-1.0-1.0-0.0-1.5","5","4","6","5","7","5","4","4","5","4","5","-1","-2","0","0","-2","1","0","1","4","5","5","4","4","5","5","4","4","4","6","6","3","7","4","3","6","4","5","5","3","6","5","5","2","5","1","2","4","1","5","1","7","3","2","7","4","4","6","4","3","7","5","5","3","7","7","5","6","7","6","7","4","5","4","6","7","5","3","7","787463338580910082","周","440","Male","[""坏我"",""好他"",""好我"",""坏他""]","[""弱我"",""强他"",""强我"",""弱他""]","","","","","","","","","","","","","","","","","","","","","","","","","","","","","","feedback_test","","","","","","","","",""
"1153","","f","psychophysics","22","169933","0.0-8.0-1.0-1.0-0.0-0.6","5","4","6","5","7","5","4","4","5","4","5","-1","-2","0","0","-2","1","0","1","4","5","5","4","4","5","5","4","4","4","6","6","3","7","4","3","6","4","5","5","3","6","5","5","2","5","1","2","4","1","5","1","7","3","2","7","4","4","6","4","3","7","5","5","3","7","7","5","6","7","6","7","4","5","4","6","7","5","3","7","787463338580910082","周","440","Male","[""坏我"",""好他"",""好我"",""坏他""]","[""弱我"",""强他"",""强我"",""弱他""]","","","","","","","","match","","","","","","","","","","key","f","16.67559055118124","683","380","f","true","match","img/pentagon.png","强我","强我","prac_ALT2_ability","practice_ability","","","","","","","","",""
"null","<span style='color:GreenYellow; font-size: 70px;'>正确! </span>","null","html-keyboard-response","23","170438","0.0-8.0-1.0-1.0-0.0-1.6","5","4","6","5","7","5","4","4","5","4","5","-1","-2","0","0","-2","1","0","1","4","5","5","4","4","5","5","4","4","4","6","6","3","7","4","3","6","4","5","5","3","6","5","5","2","5","1","2","4","1","5","1","7","3","2","7","4","4","6","4","3","7","5","5","3","7","7","5","6","7","6","7","4","5","4","6","7","5","3","7","787463338580910082","周","440","Male","[""坏我"",""好他"",""好我"",""坏他""]","[""弱我"",""强他"",""强我"",""弱他""]","","","","","","","","","","","","","","","","","","","","","","","","","","","","","","feedback_test","","","","","","","","",""
"1022","","j","psychophysics","24","172464","0.0-8.0-1.0-1.0-0.0-0.7","5","4","6","5","7","5","4","4","5","4","5","-1","-2","0","0","-2","1","0","1","4","5","5","4","4","5","5","4","4","4","6","6","3","7","4","3","6","4","5","5","3","6","5","5","2","5","1","2","4","1","5","1","7","3","2","7","4","4","6","4","3","7","5","5","3","7","7","5","6","7","6","7","4","5","4","6","7","5","3","7","787463338580910082","周","440","Male","[""坏我"",""好他"",""好我"",""坏他""]","[""弱我"",""强他"",""强我"",""弱他""]","","","","","","","","nonmatch","","","","","","","","","","key","j","16.649917355372015","683","380","f","false","match","img/circle.png","弱他","弱他","prac_ALT2_ability","practice_ability","","","","","","","","",""
"null","<span style='color:red; font-size: 70px;'>错误! </span>","null","html-keyboard-response","25","172966","0.0-8.0-1.0-1.0-0.0-1.7","5","4","6","5","7","5","4","4","5","4","5","-1","-2","0","0","-2","1","0","1","4","5","5","4","4","5","5","4","4","4","6","6","3","7","4","3","6","4","5","5","3","6","5","5","2","5","1","2","4","1","5","1","7","3","2","7","4","4","6","4","3","7","5","5","3","7","7","5","6","7","6","7","4","5","4","6","7","5","3","7","787463338580910082","周","440","Male","[""坏我"",""好他"",""好我"",""坏他""]","[""弱我"",""强他"",""强我"",""弱他""]","","","","","","","","","","","","","","","","","","","","","","","","","","","","","","feedback_test","","","","","","","","",""
"879","","f","psychophysics","26","174853","0.0-8.0-1.0-1.0-0.0-0.8","5","4","6","5","7","5","4","4","5","4","5","-1","-2","0","0","-2","1","0","1","4","5","5","4","4","5","5","4","4","4","6","6","3","7","4","3","6","4","5","5","3","6","5","5","2","5","1","2","4","1","5","1","7","3","2","7","4","4","6","4","3","7","5","5","3","7","7","5","6","7","6","7","4","5","4","6","7","5","3","7","787463338580910082","周","440","Male","[""坏我"",""好他"",""好我"",""坏他""]","[""弱我"",""强他"",""强我"",""弱他""]","","","","","","","","match","","","","","","","","","","key","f","16.668927272727228","683","380","j","false","nonmatch","img/diamond.png","强我","强他","prac_ALT2_ability","practice_ability","","","","","","","","",""
"null","<span style='color:red; font-size: 70px;'>错误! </span>","null","html-keyboard-response","27","175358","0.0-8.0-1.0-1.0-0.0-1.8","5","4","6","5","7","5","4","4","5","4","5","-1","-2","0","0","-2","1","0","1","4","5","5","4","4","5","5","4","4","4","6","6","3","7","4","3","6","4","5","5","3","6","5","5","2","5","1","2","4","1","5","1","7","3","2","7","4","4","6","4","3","7","5","5","3","7","7","5","6","7","6","7","4","5","4","6","7","5","3","7","787463338580910082","周","440","Male","[""坏我"",""好他"",""好我"",""坏他""]","[""弱我"",""强他"",""强我"",""弱他""]","","","","","","","","","","","","","","","","","","","","","","","","","","","","","","feedback_test","","","","","","","","",""
"null","","null","psychophysics","28","177567","0.0-8.0-1.0-1.0-0.0-0.9","5","4","6","5","7","5","4","4","5","4","5","-1","-2","0","0","-2","1","0","1","4","5","5","4","4","5","5","4","4","4","6","6","3","7","4","3","6","4","5","5","3","6","5","5","2","5","1","2","4","1","5","1","7","3","2","7","4","4","6","4","3","7","5","5","3","7","7","5","6","7","6","7","4","5","4","6","7","5","3","7","787463338580910082","周","440","Male","[""坏我"",""好他"",""好我"",""坏他""]","[""弱我"",""强他"",""强我"",""弱他""]","","","","","","","","null","","","","","","","","","","key","null","16.668969465648924","683","380","j","false","nonmatch","img/circle.png","强我","弱他","prac_ALT2_ability","practice_ability","","","","","","","","",""
"null","<span class='add_' style='color:yellow; font-size: 70px;'> 太慢! </span>","null","html-keyboard-response","29","178071","0.0-8.0-1.0-1.0-0.0-1.9","5","4","6","5","7","5","4","4","5","4","5","-1","-2","0","0","-2","1","0","1","4","5","5","4","4","5","5","4","4","4","6","6","3","7","4","3","6","4","5","5","3","6","5","5","2","5","1","2","4","1","5","1","7","3","2","7","4","4","6","4","3","7","5","5","3","7","7","5","6","7","6","7","4","5","4","6","7","5","3","7","787463338580910082","周","440","Male","[""坏我"",""好他"",""好我"",""坏他""]","[""弱我"",""强他"",""强我"",""弱他""]","","","","","","","","","","","","","","","","","","","","","","","","","","","","","","feedback_test","","","","","","","","",""
"1023","","f","psychophysics","30","180101","0.0-8.0-1.0-1.0-0.0-0.10","5","4","6","5","7","5","4","4","5","4","5","-1","-2","0","0","-2","1","0","1","4","5","5","4","4","5","5","4","4","4","6","6","3","7","4","3","6","4","5","5","3","6","5","5","2","5","1","2","4","1","5","1","7","3","2","7","4","4","6","4","3","7","5","5","3","7","7","5","6","7","6","7","4","5","4","6","7","5","3","7","787463338580910082","周","440","Male","[""坏我"",""好他"",""好我"",""坏他""]","[""弱我"",""强他"",""强我"",""弱他""]","","","","","","","","match","","","","","","","","","","key","f","16.659067226890787","683","380","j","false","nonmatch","img/circle.png","弱我","弱他","prac_ALT2_ability","practice_ability","","","","","","","","",""
"null","<span style='color:red; font-size: 70px;'>错误! </span>","null","html-keyboard-response","31","180607","0.0-8.0-1.0-1.0-0.0-1.10","5","4","6","5","7","5","4","4","5","4","5","-1","-2","0","0","-2","1","0","1","4","5","5","4","4","5","5","4","4","4","6","6","3","7","4","3","6","4","5","5","3","6","5","5","2","5","1","2","4","1","5","1","7","3","2","7","4","4","6","4","3","7","5","5","3","7","7","5","6","7","6","7","4","5","4","6","7","5","3","7","787463338580910082","周","440","Male","[""坏我"",""好他"",""好我"",""坏他""]","[""弱我"",""强他"",""强我"",""弱他""]","","","","","","","","","","","","","","","","","","","","","","","","","","","","","","feedback_test","","","","","","","","",""
"1122","","j","psychophysics","32","182734","0.0-8.0-1.0-1.0-0.0-0.11","5","4","6","5","7","5","4","4","5","4","5","-1","-2","0","0","-2","1","0","1","4","5","5","4","4","5","5","4","4","4","6","6","3","7","4","3","6","4","5","5","3","6","5","5","2","5","1","2","4","1","5","1","7","3","2","7","4","4","6","4","3","7","5","5","3","7","7","5","6","7","6","7","4","5","4","6","7","5","3","7","787463338580910082","周","440","Male","[""坏我"",""好他"",""好我"",""坏他""]","[""弱我"",""强他"",""强我"",""弱他""]","","","","","","","","nonmatch","","","","","","","","","","key","j","16.660968503937003","683","380","j","true","nonmatch","img/pentagon.png","弱我","强我","prac_ALT2_ability","practice_ability","","","","","","","","",""
"null","<span style='color:GreenYellow; font-size: 70px;'>正确! </span>","null","html-keyboard-response","33","183238","0.0-8.0-1.0-1.0-0.0-1.11","5","4","6","5","7","5","4","4","5","4","5","-1","-2","0","0","-2","1","0","1","4","5","5","4","4","5","5","4","4","4","6","6","3","7","4","3","6","4","5","5","3","6","5","5","2","5","1","2","4","1","5","1","7","3","2","7","4","4","6","4","3","7","5","5","3","7","7","5","6","7","6","7","4","5","4","6","7","5","3","7","787463338580910082","周","440","Male","[""坏我"",""好他"",""好我"",""坏他""]","[""弱我"",""强他"",""强我"",""弱他""]","","","","","","","","","","","","","","","","","","","","","","","","","","","","","","feedback_test","","","","","","","","",""
"1070","","j","psychophysics","34","185313","0.0-8.0-1.0-1.0-0.0-0.12","5","4","6","5","7","5","4","4","5","4","5","-1","-2","0","0","-2","1","0","1","4","5","5","4","4","5","5","4","4","4","6","6","3","7","4","3","6","4","5","5","3","6","5","5","2","5","1","2","4","1","5","1","7","3","2","7","4","4","6","4","3","7","5","5","3","7","7","5","6","7","6","7","4","5","4","6","7","5","3","7","787463338580910082","周","440","Male","[""坏我"",""好他"",""好我"",""坏他""]","[""弱我"",""强他"",""强我"",""弱他""]","","","","","","","","nonmatch","","","","","","","","","","key","j","16.80394308943097","683","380","j","true","nonmatch","img/diamond.png","弱我","强他","prac_ALT2_ability","practice_ability","","","","","","","","",""
"null","<span style='color:GreenYellow; font-size: 70px;'>正确! </span>","null","html-keyboard-response","35","185814","0.0-8.0-1.0-1.0-0.0-1.12","5","4","6","5","7","5","4","4","5","4","5","-1","-2","0","0","-2","1","0","1","4","5","5","4","4","5","5","4","4","4","6","6","3","7","4","3","6","4","5","5","3","6","5","5","2","5","1","2","4","1","5","1","7","3","2","7","4","4","6","4","3","7","5","5","3","7","7","5","6","7","6","7","4","5","4","6","7","5","3","7","787463338580910082","周","440","Male","[""坏我"",""好他"",""好我"",""坏他""]","[""弱我"",""强他"",""强我"",""弱他""]","","","","","","","","","","","","","","","","","","","","","","","","","","","","","","feedback_test","","","","","","","","",""
"null","","null","psychophysics","36","188022","0.0-8.0-1.0-1.0-0.0-0.13","5","4","6","5","7","5","4","4","5","4","5","-1","-2","0","0","-2","1","0","1","4","5","5","4","4","5","5","4","4","4","6","6","3","7","4","3","6","4","5","5","3","6","5","5","2","5","1","2","4","1","5","1","7","3","2","7","4","4","6","4","3","7","5","5","3","7","7","5","6","7","6","7","4","5","4","6","7","5","3","7","787463338580910082","周","440","Male","[""坏我"",""好他"",""好我"",""坏他""]","[""弱我"",""强他"",""强我"",""弱他""]","","","","","","","","null","","","","","","","","","","key","null","16.658541984732825","683","380","j","false","nonmatch","img/circle.png","强他","弱他","prac_ALT2_ability","practice_ability","","","","","","","","",""
"null","<span class='add_' style='color:yellow; font-size: 70px;'> 太慢! </span>","null","html-keyboard-response","37","188526","0.0-8.0-1.0-1.0-0.0-1.13","5","4","6","5","7","5","4","4","5","4","5","-1","-2","0","0","-2","1","0","1","4","5","5","4","4","5","5","4","4","4","6","6","3","7","4","3","6","4","5","5","3","6","5","5","2","5","1","2","4","1","5","1","7","3","2","7","4","4","6","4","3","7","5","5","3","7","7","5","6","7","6","7","4","5","4","6","7","5","3","7","787463338580910082","周","440","Male","[""坏我"",""好他"",""好我"",""坏他""]","[""弱我"",""强他"",""强我"",""弱他""]","","","","","","","","","","","","","","","","","","","","","","","","","","","","","","feedback_test","","","","","","","","",""
"null","","null","psychophysics","38","190734","0.0-8.0-1.0-1.0-0.0-0.14","5","4","6","5","7","5","4","4","5","4","5","-1","-2","0","0","-2","1","0","1","4","5","5","4","4","5","5","4","4","4","6","6","3","7","4","3","6","4","5","5","3","6","5","5","2","5","1","2","4","1","5","1","7","3","2","7","4","4","6","4","3","7","5","5","3","7","7","5","6","7","6","7","4","5","4","6","7","5","3","7","787463338580910082","周","440","Male","[""坏我"",""好他"",""好我"",""坏他""]","[""弱我"",""强他"",""强我"",""弱他""]","","","","","","","","null","","","","","","","","","","key","null","16.65713740458009","683","380","j","false","nonmatch","img/square.png","强我","弱我","prac_ALT2_ability","practice_ability","","","","","","","","",""
"null","<span class='add_' style='color:yellow; font-size: 70px;'> 太慢! </span>","null","html-keyboard-response","39","191238","0.0-8.0-1.0-1.0-0.0-1.14","5","4","6","5","7","5","4","4","5","4","5","-1","-2","0","0","-2","1","0","1","4","5","5","4","4","5","5","4","4","4","6","6","3","7","4","3","6","4","5","5","3","6","5","5","2","5","1","2","4","1","5","1","7","3","2","7","4","4","6","4","3","7","5","5","3","7","7","5","6","7","6","7","4","5","4","6","7","5","3","7","787463338580910082","周","440","Male","[""坏我"",""好他"",""好我"",""坏他""]","[""弱我"",""强他"",""强我"",""弱他""]","","","","","","","","","","","","","","","","","","","","","","","","","","","","","","feedback_test","","","","","","","","",""
"916","","f","psychophysics","40","193162","0.0-8.0-1.0-1.0-0.0-0.15","5","4","6","5","7","5","4","4","5","4","5","-1","-2","0","0","-2","1","0","1","4","5","5","4","4","5","5","4","4","4","6","6","3","7","4","3","6","4","5","5","3","6","5","5","2","5","1","2","4","1","5","1","7","3","2","7","4","4","6","4","3","7","5","5","3","7","7","5","6","7","6","7","4","5","4","6","7","5","3","7","787463338580910082","周","440","Male","[""坏我"",""好他"",""好我"",""坏他""]","[""弱我"",""强他"",""强我"",""弱他""]","","","","","","","","match","","","","","","","","","","key","f","16.66924778761062","683","380","f","true","match","img/circle.png","弱他","弱他","prac_ALT2_ability","practice_ability","","","","","","","","",""
"null","<span style='color:GreenYellow; font-size: 70px;'>正确! </span>","null","html-keyboard-response","41","193670","0.0-8.0-1.0-1.0-0.0-1.15","5","4","6","5","7","5","4","4","5","4","5","-1","-2","0","0","-2","1","0","1","4","5","5","4","4","5","5","4","4","4","6","6","3","7","4","3","6","4","5","5","3","6","5","5","2","5","1","2","4","1","5","1","7","3","2","7","4","4","6","4","3","7","5","5","3","7","7","5","6","7","6","7","4","5","4","6","7","5","3","7","787463338580910082","周","440","Male","[""坏我"",""好他"",""好我"",""坏他""]","[""弱我"",""强他"",""强我"",""弱他""]","","","","","","","","","","","","","","","","","","","","","","","","","","","","","","feedback_test","","","","","","","","",""
"951","","j","psychophysics","42","195629","0.0-8.0-1.0-1.0-0.0-0.16","5","4","6","5","7","5","4","4","5","4","5","-1","-2","0","0","-2","1","0","1","4","5","5","4","4","5","5","4","4","4","6","6","3","7","4","3","6","4","5","5","3","6","5","5","2","5","1","2","4","1","5","1","7","3","2","7","4","4","6","4","3","7","5","5","3","7","7","5","6","7","6","7","4","5","4","6","7","5","3","7","787463338580910082","周","440","Male","[""坏我"",""好他"",""好我"",""坏他""]","[""弱我"",""强他"",""强我"",""弱他""]","","","","","","","","nonmatch","","","","","","","","","","key","j","16.662939655172522","683","380","j","true","nonmatch","img/square.png","弱他","弱我","prac_ALT2_ability","practice_ability","","","","","","","","",""
"null","<span style='color:GreenYellow; font-size: 70px;'>正确! </span>","null","html-keyboard-response","43","196134","0.0-8.0-1.0-1.0-0.0-1.16","5","4","6","5","7","5","4","4","5","4","5","-1","-2","0","0","-2","1","0","1","4","5","5","4","4","5","5","4","4","4","6","6","3","7","4","3","6","4","5","5","3","6","5","5","2","5","1","2","4","1","5","1","7","3","2","7","4","4","6","4","3","7","5","5","3","7","7","5","6","7","6","7","4","5","4","6","7","5","3","7","787463338580910082","周","440","Male","[""坏我"",""好他"",""好我"",""坏他""]","[""弱我"",""强他"",""强我"",""弱他""]","","","","","","","","","","","","","","","","","","","","","","","","","","","","","","feedback_test","","","","","","","","",""
"1003","","j","psychophysics","44","198145","0.0-8.0-1.0-1.0-0.0-0.17","5","4","6","5","7","5","4","4","5","4","5","-1","-2","0","0","-2","1","0","1","4","5","5","4","4","5","5","4","4","4","6","6","3","7","4","3","6","4","5","5","3","6","5","5","2","5","1","2","4","1","5","1","7","3","2","7","4","4","6","4","3","7","5","5","3","7","7","5","6","7","6","7","4","5","4","6","7","5","3","7","787463338580910082","周","440","Male","[""坏我"",""好他"",""好我"",""坏他""]","[""弱我"",""强他"",""强我"",""弱他""]","","","","","","","","nonmatch","","","","","","","","","","key","j","16.666366666666725","683","380","j","true","nonmatch","img/pentagon.png","强他","强我","prac_ALT2_ability","practice_ability","","","","","","","","",""
"null","<span style='color:GreenYellow; font-size: 70px;'>正确! </span>","null","html-keyboard-response","45","198646","0.0-8.0-1.0-1.0-0.0-1.17","5","4","6","5","7","5","4","4","5","4","5","-1","-2","0","0","-2","1","0","1","4","5","5","4","4","5","5","4","4","4","6","6","3","7","4","3","6","4","5","5","3","6","5","5","2","5","1","2","4","1","5","1","7","3","2","7","4","4","6","4","3","7","5","5","3","7","7","5","6","7","6","7","4","5","4","6","7","5","3","7","787463338580910082","周","440","Male","[""坏我"",""好他"",""好我"",""坏他""]","[""弱我"",""强他"",""强我"",""弱他""]","","","","","","","","","","","","","","","","","","","","","","","","","","","","","","feedback_test","","","","","","","","",""
"935","","j","psychophysics","46","200591","0.0-8.0-1.0-1.0-0.0-0.18","5","4","6","5","7","5","4","4","5","4","5","-1","-2","0","0","-2","1","0","1","4","5","5","4","4","5","5","4","4","4","6","6","3","7","4","3","6","4","5","5","3","6","5","5","2","5","1","2","4","1","5","1","7","3","2","7","4","4","6","4","3","7","5","5","3","7","7","5","6","7","6","7","4","5","4","6","7","5","3","7","787463338580910082","周","440","Male","[""坏我"",""好他"",""好我"",""坏他""]","[""弱我"",""强他"",""强我"",""弱他""]","","","","","","","","nonmatch","","","","","","","","","","key","j","16.67328695652161","683","380","f","false","match","img/square.png","弱我","弱我","prac_ALT2_ability","practice_ability","","","","","","","","",""
"null","<span style='color:red; font-size: 70px;'>错误! </span>","null","html-keyboard-response","47","201102","0.0-8.0-1.0-1.0-0.0-1.18","5","4","6","5","7","5","4","4","5","4","5","-1","-2","0","0","-2","1","0","1","4","5","5","4","4","5","5","4","4","4","6","6","3","7","4","3","6","4","5","5","3","6","5","5","2","5","1","2","4","1","5","1","7","3","2","7","4","4","6","4","3","7","5","5","3","7","7","5","6","7","6","7","4","5","4","6","7","5","3","7","787463338580910082","周","440","Male","[""坏我"",""好他"",""好我"",""坏他""]","[""弱我"",""强他"",""强我"",""弱他""]","","","","","","","","","","","","","","","","","","","","","","","","","","","","","","feedback_test","","","","","","","","",""
"1103","","j","psychophysics","48","203214","0.0-8.0-1.0-1.0-0.0-0.19","5","4","6","5","7","5","4","4","5","4","5","-1","-2","0","0","-2","1","0","1","4","5","5","4","4","5","5","4","4","4","6","6","3","7","4","3","6","4","5","5","3","6","5","5","2","5","1","2","4","1","5","1","7","3","2","7","4","4","6","4","3","7","5","5","3","7","7","5","6","7","6","7","4","5","4","6","7","5","3","7","787463338580910082","周","440","Male","[""坏我"",""好他"",""好我"",""坏他""]","[""弱我"",""强他"",""强我"",""弱他""]","","","","","","","","nonmatch","","","","","","","","","","key","j","16.661840000000083","683","380","f","false","match","img/diamond.png","强他","强他","prac_ALT2_ability","practice_ability","","","","","","","","",""
"null","<span style='color:red; font-size: 70px;'>错误! </span>","null","html-keyboard-response","49","203719","0.0-8.0-1.0-1.0-0.0-1.19","5","4","6","5","7","5","4","4","5","4","5","-1","-2","0","0","-2","1","0","1","4","5","5","4","4","5","5","4","4","4","6","6","3","7","4","3","6","4","5","5","3","6","5","5","2","5","1","2","4","1","5","1","7","3","2","7","4","4","6","4","3","7","5","5","3","7","7","5","6","7","6","7","4","5","4","6","7","5","3","7","787463338580910082","周","440","Male","[""坏我"",""好他"",""好我"",""坏他""]","[""弱我"",""强他"",""强我"",""弱他""]","","","","","","","","","","","","","","","","","","","","","","","","","","","","","","feedback_test","","","","","","","","",""
"789","","f","psychophysics","50","205518","0.0-8.0-1.0-1.0-0.0-0.20","5","4","6","5","7","5","4","4","5","4","5","-1","-2","0","0","-2","1","0","1","4","5","5","4","4","5","5","4","4","4","6","6","3","7","4","3","6","4","5","5","3","6","5","5","2","5","1","2","4","1","5","1","7","3","2","7","4","4","6","4","3","7","5","5","3","7","7","5","6","7","6","7","4","5","4","6","7","5","3","7","787463338580910082","周","440","Male","[""坏我"",""好他"",""好我"",""坏他""]","[""弱我"",""强他"",""强我"",""弱他""]","","","","","","","","match","","","","","","","","","","key","f","16.97885714285713","683","380","j","false","nonmatch","img/diamond.png","弱他","强他","prac_ALT2_ability","practice_ability","","","","","","","","",""
"null","<span style='color:red; font-size: 70px;'>错误! </span>","null","html-keyboard-response","51","206023","0.0-8.0-1.0-1.0-0.0-1.20","5","4","6","5","7","5","4","4","5","4","5","-1","-2","0","0","-2","1","0","1","4","5","5","4","4","5","5","4","4","4","6","6","3","7","4","3","6","4","5","5","3","6","5","5","2","5","1","2","4","1","5","1","7","3","2","7","4","4","6","4","3","7","5","5","3","7","7","5","6","7","6","7","4","5","4","6","7","5","3","7","787463338580910082","周","440","Male","[""坏我"",""好他"",""好我"",""坏他""]","[""弱我"",""强他"",""强我"",""弱他""]","","","","","","","","","","","","","","","","","","","","","","","","","","","","","","feedback_test","","","","","","","","",""
"1170","","f","psychophysics","52","208197","0.0-8.0-1.0-1.0-0.0-0.21","5","4","6","5","7","5","4","4","5","4","5","-1","-2","0","0","-2","1","0","1","4","5","5","4","4","5","5","4","4","4","6","6","3","7","4","3","6","4","5","5","3","6","5","5","2","5","1","2","4","1","5","1","7","3","2","7","4","4","6","4","3","7","5","5","3","7","7","5","6","7","6","7","4","5","4","6","7","5","3","7","787463338580910082","周","440","Male","[""坏我"",""好他"",""好我"",""坏他""]","[""弱我"",""强他"",""强我"",""弱他""]","","","","","","","","match","","","","","","","","","","key","f","16.654960937499936","683","380","f","true","match","img/square.png","弱我","弱我","prac_ALT2_ability","practice_ability","","","","","","","","",""
"null","<span style='color:GreenYellow; font-size: 70px;'>正确! </span>","null","html-keyboard-response","53","208698","0.0-8.0-1.0-1.0-0.0-1.21","5","4","6","5","7","5","4","4","5","4","5","-1","-2","0","0","-2","1","0","1","4","5","5","4","4","5","5","4","4","4","6","6","3","7","4","3","6","4","5","5","3","6","5","5","2","5","1","2","4","1","5","1","7","3","2","7","4","4","6","4","3","7","5","5","3","7","7","5","6","7","6","7","4","5","4","6","7","5","3","7","787463338580910082","周","440","Male","[""坏我"",""好他"",""好我"",""坏他""]","[""弱我"",""强他"",""强我"",""弱他""]","","","","","","","","","","","","","","","","","","","","","","","","","","","","","","feedback_test","","","","","","","","",""
"920","","f","psychophysics","54","210622","0.0-8.0-1.0-1.0-0.0-0.22","5","4","6","5","7","5","4","4","5","4","5","-1","-2","0","0","-2","1","0","1","4","5","5","4","4","5","5","4","4","4","6","6","3","7","4","3","6","4","5","5","3","6","5","5","2","5","1","2","4","1","5","1","7","3","2","7","4","4","6","4","3","7","5","5","3","7","7","5","6","7","6","7","4","5","4","6","7","5","3","7","787463338580910082","周","440","Male","[""坏我"",""好他"",""好我"",""坏他""]","[""弱我"",""强他"",""强我"",""弱他""]","","","","","","","","match","","","","","","","","","","key","f","16.67707207207206","683","380","f","true","match","img/pentagon.png","强我","强我","prac_ALT2_ability","practice_ability","","","","","","","","",""
"null","<span style='color:GreenYellow; font-size: 70px;'>正确! </span>","null","html-keyboard-response","55","211126","0.0-8.0-1.0-1.0-0.0-1.22","5","4","6","5","7","5","4","4","5","4","5","-1","-2","0","0","-2","1","0","1","4","5","5","4","4","5","5","4","4","4","6","6","3","7","4","3","6","4","5","5","3","6","5","5","2","5","1","2","4","1","5","1","7","3","2","7","4","4","6","4","3","7","5","5","3","7","7","5","6","7","6","7","4","5","4","6","7","5","3","7","787463338580910082","周","440","Male","[""坏我"",""好他"",""好我"",""坏他""]","[""弱我"",""强他"",""强我"",""弱他""]","","","","","","","","","","","","","","","","","","","","","","","","","","","","","","feedback_test","","","","","","","","",""
"1112","","f","psychophysics","56","213246","0.0-8.0-1.0-1.0-0.0-0.23","5","4","6","5","7","5","4","4","5","4","5","-1","-2","0","0","-2","1","0","1","4","5","5","4","4","5","5","4","4","4","6","6","3","7","4","3","6","4","5","5","3","6","5","5","2","5","1","2","4","1","5","1","7","3","2","7","4","4","6","4","3","7","5","5","3","7","7","5","6","7","6","7","4","5","4","6","7","5","3","7","787463338580910082","周","440","Male","[""坏我"",""好他"",""好我"",""坏他""]","[""弱我"",""强他"",""强我"",""弱他""]","","","","","","","","match","","","","","","","","","","key","f","16.65874193548394","683","380","f","true","match","img/diamond.png","强他","强他","prac_ALT2_ability","practice_ability","","","","","","","","",""
"null","<span style='color:GreenYellow; font-size: 70px;'>正确! </span>","null","html-keyboard-response","57","213750","0.0-8.0-1.0-1.0-0.0-1.23","5","4","6","5","7","5","4","4","5","4","5","-1","-2","0","0","-2","1","0","1","4","5","5","4","4","5","5","4","4","4","6","6","3","7","4","3","6","4","5","5","3","6","5","5","2","5","1","2","4","1","5","1","7","3","2","7","4","4","6","4","3","7","5","5","3","7","7","5","6","7","6","7","4","5","4","6","7","5","3","7","787463338580910082","周","440","Male","[""坏我"",""好他"",""好我"",""坏他""]","[""弱我"",""强他"",""强我"",""弱他""]","","","","","","","","","","","","","","","","","","","","","","","","","","","","","","feedback_test","","","","","","","","",""
"918","","f","psychophysics","58","215678","0.0-8.0-1.0-1.0-0.0-0.24","5","4","6","5","7","5","4","4","5","4","5","-1","-2","0","0","-2","1","0","1","4","5","5","4","4","5","5","4","4","4","6","6","3","7","4","3","6","4","5","5","3","6","5","5","2","5","1","2","4","1","5","1","7","3","2","7","4","4","6","4","3","7","5","5","3","7","7","5","6","7","6","7","4","5","4","6","7","5","3","7","787463338580910082","周","440","Male","[""坏我"",""好他"",""好我"",""坏他""]","[""弱我"",""强他"",""强我"",""弱他""]","","","","","","","","match","","","","","","","","","","key","f","16.659368421052676","683","380","f","true","match","img/circle.png","弱他","弱他","prac_ALT2_ability","practice_ability","","","","","","","","",""
"null","<span style='color:GreenYellow; font-size: 70px;'>正确! </span>","null","html-keyboard-response","59","216182","0.0-8.0-1.0-1.0-0.0-1.24","5","4","6","5","7","5","4","4","5","4","5","-1","-2","0","0","-2","1","0","1","4","5","5","4","4","5","5","4","4","4","6","6","3","7","4","3","6","4","5","5","3","6","5","5","2","5","1","2","4","1","5","1","7","3","2","7","4","4","6","4","3","7","5","5","3","7","7","5","6","7","6","7","4","5","4","6","7","5","3","7","787463338580910082","周","440","Male","[""坏我"",""好他"",""好我"",""坏他""]","[""弱我"",""强他"",""强我"",""弱他""]","","","","","","","","","","","","","","","","","","","","","","","","","","","","","","feedback_test","","","","","","","","",""
"986","","f","psychophysics","60","218177","0.0-8.0-1.0-1.0-0.0-0.25","5","4","6","5","7","5","4","4","5","4","5","-1","-2","0","0","-2","1","0","1","4","5","5","4","4","5","5","4","4","4","6","6","3","7","4","3","6","4","5","5","3","6","5","5","2","5","1","2","4","1","5","1","7","3","2","7","4","4","6","4","3","7","5","5","3","7","7","5","6","7","6","7","4","5","4","6","7","5","3","7","787463338580910082","周","440","Male","[""坏我"",""好他"",""好我"",""坏他""]","[""弱我"",""强他"",""强我"",""弱他""]","","","","","","","","match","","","","","","","","","","key","f","16.654361344537865","683","380","f","true","match","img/square.png","弱我","弱我","prac_ALT2_ability","practice_ability","","","","","","","","",""
"null","<span style='color:GreenYellow; font-size: 70px;'>正确! </span>","null","html-keyboard-response","61","218678","0.0-8.0-1.0-1.0-0.0-1.25","5","4","6","5","7","5","4","4","5","4","5","-1","-2","0","0","-2","1","0","1","4","5","5","4","4","5","5","4","4","4","6","6","3","7","4","3","6","4","5","5","3","6","5","5","2","5","1","2","4","1","5","1","7","3","2","7","4","4","6","4","3","7","5","5","3","7","7","5","6","7","6","7","4","5","4","6","7","5","3","7","787463338580910082","周","440","Male","[""坏我"",""好他"",""好我"",""坏他""]","[""弱我"",""强他"",""强我"",""弱他""]","","","","","","","","","","","","","","","","","","","","","","","","","","","","","","feedback_test","","","","","","","","",""
"951","","j","psychophysics","62","220637","0.0-8.0-1.0-1.0-0.0-0.26","5","4","6","5","7","5","4","4","5","4","5","-1","-2","0","0","-2","1","0","1","4","5","5","4","4","5","5","4","4","4","6","6","3","7","4","3","6","4","5","5","3","6","5","5","2","5","1","2","4","1","5","1","7","3","2","7","4","4","6","4","3","7","5","5","3","7","7","5","6","7","6","7","4","5","4","6","7","5","3","7","787463338580910082","周","440","Male","[""坏我"",""好他"",""好我"",""坏他""]","[""弱我"",""强他"",""强我"",""弱他""]","","","","","","","","nonmatch","","","","","","","","","","key","j","16.666482758620734","683","380","j","true","nonmatch","img/square.png","弱他","弱我","prac_ALT2_ability","practice_ability","","","","","","","","",""
"null","<span style='color:GreenYellow; font-size: 70px;'>正确! </span>","null","html-keyboard-response","63","221142","0.0-8.0-1.0-1.0-0.0-1.26","5","4","6","5","7","5","4","4","5","4","5","-1","-2","0","0","-2","1","0","1","4","5","5","4","4","5","5","4","4","4","6","6","3","7","4","3","6","4","5","5","3","6","5","5","2","5","1","2","4","1","5","1","7","3","2","7","4","4","6","4","3","7","5","5","3","7","7","5","6","7","6","7","4","5","4","6","7","5","3","7","787463338580910082","周","440","Male","[""坏我"",""好他"",""好我"",""坏他""]","[""弱我"",""强他"",""强我"",""弱他""]","","","","","","","","","","","","","","","","","","","","","","","","","","","","","","feedback_test","","","","","","","","",""
"1047","","f","psychophysics","64","223192","0.0-8.0-1.0-1.0-0.0-0.27","5","4","6","5","7","5","4","4","5","4","5","-1","-2","0","0","-2","1","0","1","4","5","5","4","4","5","5","4","4","4","6","6","3","7","4","3","6","4","5","5","3","6","5","5","2","5","1","2","4","1","5","1","7","3","2","7","4","4","6","4","3","7","5","5","3","7","7","5","6","7","6","7","4","5","4","6","7","5","3","7","787463338580910082","周","440","Male","[""坏我"",""好他"",""好我"",""坏他""]","[""弱我"",""强他"",""强我"",""弱他""]","","","","","","","","match","","","","","","","","","","key","f","16.66876859504134","683","380","j","false","nonmatch","img/diamond.png","强我","强他","prac_ALT2_ability","practice_ability","","","","","","","","",""
"null","<span style='color:red; font-size: 70px;'>错误! </span>","null","html-keyboard-response","65","223702","0.0-8.0-1.0-1.0-0.0-1.27","5","4","6","5","7","5","4","4","5","4","5","-1","-2","0","0","-2","1","0","1","4","5","5","4","4","5","5","4","4","4","6","6","3","7","4","3","6","4","5","5","3","6","5","5","2","5","1","2","4","1","5","1","7","3","2","7","4","4","6","4","3","7","5","5","3","7","7","5","6","7","6","7","4","5","4","6","7","5","3","7","787463338580910082","周","440","Male","[""坏我"",""好他"",""好我"",""坏他""]","[""弱我"",""强他"",""强我"",""弱他""]","","","","","","","","","","","","","","","","","","","","","","","","","","","","","","feedback_test","","","","","","","","",""
"960","","f","psychophysics","66","225670","0.0-8.0-1.0-1.0-0.0-0.28","5","4","6","5","7","5","4","4","5","4","5","-1","-2","0","0","-2","1","0","1","4","5","5","4","4","5","5","4","4","4","6","6","3","7","4","3","6","4","5","5","3","6","5","5","2","5","1","2","4","1","5","1","7","3","2","7","4","4","6","4","3","7","5","5","3","7","7","5","6","7","6","7","4","5","4","6","7","5","3","7","787463338580910082","周","440","Male","[""坏我"",""好他"",""好我"",""坏他""]","[""弱我"",""强他"",""强我"",""弱他""]","","","","","","","","match","","","","","","","","","","key","f","16.800387931034493","683","380","f","true","match","img/pentagon.png","强我","强我","prac_ALT2_ability","practice_ability","","","","","","","","",""
"null","<span style='color:GreenYellow; font-size: 70px;'>正确! </span>","null","html-keyboard-response","67","226175","0.0-8.0-1.0-1.0-0.0-1.28","5","4","6","5","7","5","4","4","5","4","5","-1","-2","0","0","-2","1","0","1","4","5","5","4","4","5","5","4","4","4","6","6","3","7","4","3","6","4","5","5","3","6","5","5","2","5","1","2","4","1","5","1","7","3","2","7","4","4","6","4","3","7","5","5","3","7","7","5","6","7","6","7","4","5","4","6","7","5","3","7","787463338580910082","周","440","Male","[""坏我"",""好他"",""好我"",""坏他""]","[""弱我"",""强他"",""强我"",""弱他""]","","","","","","","","","","","","","","","","","","","","","","","","","","","","","","feedback_test","","","","","","","","",""
"1004","","j","psychophysics","68","228181","0.0-8.0-1.0-1.0-0.0-0.29","5","4","6","5","7","5","4","4","5","4","5","-1","-2","0","0","-2","1","0","1","4","5","5","4","4","5","5","4","4","4","6","6","3","7","4","3","6","4","5","5","3","6","5","5","2","5","1","2","4","1","5","1","7","3","2","7","4","4","6","4","3","7","5","5","3","7","7","5","6","7","6","7","4","5","4","6","7","5","3","7","787463338580910082","周","440","Male","[""坏我"",""好他"",""好我"",""坏他""]","[""弱我"",""强他"",""强我"",""弱他""]","","","","","","","","nonmatch","","","","","","","","","","key","j","16.668864406779473","683","380","j","true","nonmatch","img/circle.png","弱我","弱他","prac_ALT2_ability","practice_ability","","","","","","","","",""
"null","<span style='color:GreenYellow; font-size: 70px;'>正确! </span>","null","html-keyboard-response","69","228686","0.0-8.0-1.0-1.0-0.0-1.29","5","4","6","5","7","5","4","4","5","4","5","-1","-2","0","0","-2","1","0","1","4","5","5","4","4","5","5","4","4","4","6","6","3","7","4","3","6","4","5","5","3","6","5","5","2","5","1","2","4","1","5","1","7","3","2","7","4","4","6","4","3","7","5","5","3","7","7","5","6","7","6","7","4","5","4","6","7","5","3","7","787463338580910082","周","440","Male","[""坏我"",""好他"",""好我"",""坏他""]","[""弱我"",""强他"",""强我"",""弱他""]","","","","","","","","","","","","","","","","","","","","","","","","","","","","","","feedback_test","","","","","","","","",""
"1032","","j","psychophysics","70","230726","0.0-8.0-1.0-1.0-0.0-0.30","5","4","6","5","7","5","4","4","5","4","5","-1","-2","0","0","-2","1","0","1","4","5","5","4","4","5","5","4","4","4","6","6","3","7","4","3","6","4","5","5","3","6","5","5","2","5","1","2","4","1","5","1","7","3","2","7","4","4","6","4","3","7","5","5","3","7","7","5","6","7","6","7","4","5","4","6","7","5","3","7","787463338580910082","周","440","Male","[""坏我"",""好他"",""好我"",""坏他""]","[""弱我"",""强他"",""强我"",""弱他""]","","","","","","","","nonmatch","","","","","","","","","","key","j","16.665300000000084","683","380","f","false","match","img/circle.png","弱他","弱他","prac_ALT2_ability","practice_ability","","","","","","","","",""
"null","<span style='color:red; font-size: 70px;'>错误! </span>","null","html-keyboard-response","71","231231","0.0-8.0-1.0-1.0-0.0-1.30","5","4","6","5","7","5","4","4","5","4","5","-1","-2","0","0","-2","1","0","1","4","5","5","4","4","5","5","4","4","4","6","6","3","7","4","3","6","4","5","5","3","6","5","5","2","5","1","2","4","1","5","1","7","3","2","7","4","4","6","4","3","7","5","5","3","7","7","5","6","7","6","7","4","5","4","6","7","5","3","7","787463338580910082","周","440","Male","[""坏我"",""好他"",""好我"",""坏他""]","[""弱我"",""强他"",""强我"",""弱他""]","","","","","","","","","","","","","","","","","","","","","","","","","","","","","","feedback_test","","","","","","","","",""
"1116","","f","psychophysics","72","233360","0.0-8.0-1.0-1.0-0.0-0.31","5","4","6","5","7","5","4","4","5","4","5","-1","-2","0","0","-2","1","0","1","4","5","5","4","4","5","5","4","4","4","6","6","3","7","4","3","6","4","5","5","3","6","5","5","2","5","1","2","4","1","5","1","7","3","2","7","4","4","6","4","3","7","5","5","3","7","7","5","6","7","6","7","4","5","4","6","7","5","3","7","787463338580910082","周","440","Male","[""坏我"",""好他"",""好我"",""坏他""]","[""弱我"",""强他"",""强我"",""弱他""]","","","","","","","","match","","","","","","","","","","key","f","16.674181102362084","683","380","f","true","match","img/square.png","弱我","弱我","prac_ALT2_ability","practice_ability","","","","","","","","",""
"null","<span style='color:GreenYellow; font-size: 70px;'>正确! </span>","null","html-keyboard-response","73","233863","0.0-8.0-1.0-1.0-0.0-1.31","5","4","6","5","7","5","4","4","5","4","5","-1","-2","0","0","-2","1","0","1","4","5","5","4","4","5","5","4","4","4","6","6","3","7","4","3","6","4","5","5","3","6","5","5","2","5","1","2","4","1","5","1","7","3","2","7","4","4","6","4","3","7","5","5","3","7","7","5","6","7","6","7","4","5","4","6","7","5","3","7","787463338580910082","周","440","Male","[""坏我"",""好他"",""好我"",""坏他""]","[""弱我"",""强他"",""强我"",""弱他""]","","","","","","","","","","","","","","","","","","","","","","","","","","","","","","feedback_test","","","","","","","","",""
"null","","null","psychophysics","74","236075","0.0-8.0-1.0-1.0-0.0-0.32","5","4","6","5","7","5","4","4","5","4","5","-1","-2","0","0","-2","1","0","1","4","5","5","4","4","5","5","4","4","4","6","6","3","7","4","3","6","4","5","5","3","6","5","5","2","5","1","2","4","1","5","1","7","3","2","7","4","4","6","4","3","7","5","5","3","7","7","5","6","7","6","7","4","5","4","6","7","5","3","7","787463338580910082","周","440","Male","[""坏我"",""好他"",""好我"",""坏他""]","[""弱我"",""强他"",""强我"",""弱他""]","","","","","","","","null","","","","","","","","","","key","null","16.669801526717603","683","380","j","false","nonmatch","img/circle.png","强他","弱他","prac_ALT2_ability","practice_ability","","","","","","","","",""
"null","<span class='add_' style='color:yellow; font-size: 70px;'> 太慢! </span>","null","html-keyboard-response","75","236583","0.0-8.0-1.0-1.0-0.0-1.32","5","4","6","5","7","5","4","4","5","4","5","-1","-2","0","0","-2","1","0","1","4","5","5","4","4","5","5","4","4","4","6","6","3","7","4","3","6","4","5","5","3","6","5","5","2","5","1","2","4","1","5","1","7","3","2","7","4","4","6","4","3","7","5","5","3","7","7","5","6","7","6","7","4","5","4","6","7","5","3","7","787463338580910082","周","440","Male","[""坏我"",""好他"",""好我"",""坏他""]","[""弱我"",""强他"",""强我"",""弱他""]","","","","","","","","","","","","","","","","","","","","","","","","","","","","","","feedback_test","","","","","","","","",""
"772","","f","psychophysics","76","238366","0.0-8.0-1.0-1.0-0.0-0.33","5","4","6","5","7","5","4","4","5","4","5","-1","-2","0","0","-2","1","0","1","4","5","5","4","4","5","5","4","4","4","6","6","3","7","4","3","6","4","5","5","3","6","5","5","2","5","1","2","4","1","5","1","7","3","2","7","4","4","6","4","3","7","5","5","3","7","7","5","6","7","6","7","4","5","4","6","7","5","3","7","787463338580910082","周","440","Male","[""坏我"",""好他"",""好我"",""坏他""]","[""弱我"",""强他"",""强我"",""弱他""]","","","","","","","","match","","","","","","","","","","key","f","16.83480952380951","683","380","f","true","match","img/diamond.png","强他","强他","prac_ALT2_ability","practice_ability","","","","","","","","",""
"null","<span style='color:GreenYellow; font-size: 70px;'>正确! </span>","null","html-keyboard-response","77","238871","0.0-8.0-1.0-1.0-0.0-1.33","5","4","6","5","7","5","4","4","5","4","5","-1","-2","0","0","-2","1","0","1","4","5","5","4","4","5","5","4","4","4","6","6","3","7","4","3","6","4","5","5","3","6","5","5","2","5","1","2","4","1","5","1","7","3","2","7","4","4","6","4","3","7","5","5","3","7","7","5","6","7","6","7","4","5","4","6","7","5","3","7","787463338580910082","周","440","Male","[""坏我"",""好他"",""好我"",""坏他""]","[""弱我"",""强他"",""强我"",""弱他""]","","","","","","","","","","","","","","","","","","","","","","","","","","","","","","feedback_test","","","","","","","","",""
"844","","f","psychophysics","78","240718","0.0-8.0-1.0-1.0-0.0-0.34","5","4","6","5","7","5","4","4","5","4","5","-1","-2","0","0","-2","1","0","1","4","5","5","4","4","5","5","4","4","4","6","6","3","7","4","3","6","4","5","5","3","6","5","5","2","5","1","2","4","1","5","1","7","3","2","7","4","4","6","4","3","7","5","5","3","7","7","5","6","7","6","7","4","5","4","6","7","5","3","7","787463338580910082","周","440","Male","[""坏我"",""好他"",""好我"",""坏他""]","[""弱我"",""强他"",""强我"",""弱他""]","","","","","","","","match","","","","","","","","","","key","f","16.674027522935887","683","380","f","true","match","img/circle.png","弱他","弱他","prac_ALT2_ability","practice_ability","","","","","","","","",""
"null","<span style='color:GreenYellow; font-size: 70px;'>正确! </span>","null","html-keyboard-response","79","241223","0.0-8.0-1.0-1.0-0.0-1.34","5","4","6","5","7","5","4","4","5","4","5","-1","-2","0","0","-2","1","0","1","4","5","5","4","4","5","5","4","4","4","6","6","3","7","4","3","6","4","5","5","3","6","5","5","2","5","1","2","4","1","5","1","7","3","2","7","4","4","6","4","3","7","5","5","3","7","7","5","6","7","6","7","4","5","4","6","7","5","3","7","787463338580910082","周","440","Male","[""坏我"",""好他"",""好我"",""坏他""]","[""弱我"",""强他"",""强我"",""弱他""]","","","","","","","","","","","","","","","","","","","","","","","","","","","","","","feedback_test","","","","","","","","",""
"1029","","j","psychophysics","80","243254","0.0-8.0-1.0-1.0-0.0-0.35","5","4","6","5","7","5","4","4","5","4","5","-1","-2","0","0","-2","1","0","1","4","5","5","4","4","5","5","4","4","4","6","6","3","7","4","3","6","4","5","5","3","6","5","5","2","5","1","2","4","1","5","1","7","3","2","7","4","4","6","4","3","7","5","5","3","7","7","5","6","7","6","7","4","5","4","6","7","5","3","7","787463338580910082","周","440","Male","[""坏我"",""好他"",""好我"",""坏他""]","[""弱我"",""强他"",""强我"",""弱他""]","","","","","","","","nonmatch","","","","","","","","","","key","j","16.664516666666653","683","380","j","true","nonmatch","img/diamond.png","弱他","强他","prac_ALT2_ability","practice_ability","","","","","","","","",""
"null","<span style='color:GreenYellow; font-size: 70px;'>正确! </span>","null","html-keyboard-response","81","243759","0.0-8.0-1.0-1.0-0.0-1.35","5","4","6","5","7","5","4","4","5","4","5","-1","-2","0","0","-2","1","0","1","4","5","5","4","4","5","5","4","4","4","6","6","3","7","4","3","6","4","5","5","3","6","5","5","2","5","1","2","4","1","5","1","7","3","2","7","4","4","6","4","3","7","5","5","3","7","7","5","6","7","6","7","4","5","4","6","7","5","3","7","787463338580910082","周","440","Male","[""坏我"",""好他"",""好我"",""坏他""]","[""弱我"",""强他"",""强我"",""弱他""]","","","","","","","","","","","","","","","","","","","","","","","","","","","","","","feedback_test","","","","","","","","",""
"1160","","j","psychophysics","82","245927","0.0-8.0-1.0-1.0-0.0-0.36","5","4","6","5","7","5","4","4","5","4","5","-1","-2","0","0","-2","1","0","1","4","5","5","4","4","5","5","4","4","4","6","6","3","7","4","3","6","4","5","5","3","6","5","5","2","5","1","2","4","1","5","1","7","3","2","7","4","4","6","4","3","7","5","5","3","7","7","5","6","7","6","7","4","5","4","6","7","5","3","7","787463338580910082","周","440","Male","[""坏我"",""好他"",""好我"",""坏他""]","[""弱我"",""强他"",""强我"",""弱他""]","","","","","","","","nonmatch","","","","","","","","","","key","j","16.662367187499967","683","380","j","true","nonmatch","img/diamond.png","弱我","强他","prac_ALT2_ability","practice_ability","","","","","","","","",""
"null","<span style='color:GreenYellow; font-size: 70px;'>正确! </span>","null","html-keyboard-response","83","246431","0.0-8.0-1.0-1.0-0.0-1.36","5","4","6","5","7","5","4","4","5","4","5","-1","-2","0","0","-2","1","0","1","4","5","5","4","4","5","5","4","4","4","6","6","3","7","4","3","6","4","5","5","3","6","5","5","2","5","1","2","4","1","5","1","7","3","2","7","4","4","6","4","3","7","5","5","3","7","7","5","6","7","6","7","4","5","4","6","7","5","3","7","787463338580910082","周","440","Male","[""坏我"",""好他"",""好我"",""坏他""]","[""弱我"",""强他"",""强我"",""弱他""]","","","","","","","","","","","","","","","","","","","","","","","","","","","","","","feedback_test","","","","","","","","",""
"1188","","j","psychophysics","84","248631","0.0-8.0-1.0-1.0-0.0-0.37","5","4","6","5","7","5","4","4","5","4","5","-1","-2","0","0","-2","1","0","1","4","5","5","4","4","5","5","4","4","4","6","6","3","7","4","3","6","4","5","5","3","6","5","5","2","5","1","2","4","1","5","1","7","3","2","7","4","4","6","4","3","7","5","5","3","7","7","5","6","7","6","7","4","5","4","6","7","5","3","7","787463338580910082","周","440","Male","[""坏我"",""好他"",""好我"",""坏他""]","[""弱我"",""强他"",""强我"",""弱他""]","","","","","","","","nonmatch","","","","","","","","","","key","j","16.666045801526778","683","380","f","false","match","img/diamond.png","强他","强他","prac_ALT2_ability","practice_ability","","","","","","","","",""
"null","<span style='color:red; font-size: 70px;'>错误! </span>","null","html-keyboard-response","85","249136","0.0-8.0-1.0-1.0-0.0-1.37","5","4","6","5","7","5","4","4","5","4","5","-1","-2","0","0","-2","1","0","1","4","5","5","4","4","5","5","4","4","4","6","6","3","7","4","3","6","4","5","5","3","6","5","5","2","5","1","2","4","1","5","1","7","3","2","7","4","4","6","4","3","7","5","5","3","7","7","5","6","7","6","7","4","5","4","6","7","5","3","7","787463338580910082","周","440","Male","[""坏我"",""好他"",""好我"",""坏他""]","[""弱我"",""强他"",""强我"",""弱他""]","","","","","","","","","","","","","","","","","","","","","","","","","","","","","","feedback_test","","","","","","","","",""
"1111","","j","psychophysics","86","251253","0.0-8.0-1.0-1.0-0.0-0.38","5","4","6","5","7","5","4","4","5","4","5","-1","-2","0","0","-2","1","0","1","4","5","5","4","4","5","5","4","4","4","6","6","3","7","4","3","6","4","5","5","3","6","5","5","2","5","1","2","4","1","5","1","7","3","2","7","4","4","6","4","3","7","5","5","3","7","7","5","6","7","6","7","4","5","4","6","7","5","3","7","787463338580910082","周","440","Male","[""坏我"",""好他"",""好我"",""坏他""]","[""弱我"",""强他"",""强我"",""弱他""]","","","","","","","","nonmatch","","","","","","","","","","key","j","16.65024193548391","683","380","j","true","nonmatch","img/pentagon.png","弱他","强我","prac_ALT2_ability","practice_ability","","","","","","","","",""
"null","<span style='color:GreenYellow; font-size: 70px;'>正确! </span>","null","html-keyboard-response","87","251759","0.0-8.0-1.0-1.0-0.0-1.38","5","4","6","5","7","5","4","4","5","4","5","-1","-2","0","0","-2","1","0","1","4","5","5","4","4","5","5","4","4","4","6","6","3","7","4","3","6","4","5","5","3","6","5","5","2","5","1","2","4","1","5","1","7","3","2","7","4","4","6","4","3","7","5","5","3","7","7","5","6","7","6","7","4","5","4","6","7","5","3","7","787463338580910082","周","440","Male","[""坏我"",""好他"",""好我"",""坏他""]","[""弱我"",""强他"",""强我"",""弱他""]","","","","","","","","","","","","","","","","","","","","","","","","","","","","","","feedback_test","","","","","","","","",""
"983","","f","psychophysics","88","253750","0.0-8.0-1.0-1.0-0.0-0.39","5","4","6","5","7","5","4","4","5","4","5","-1","-2","0","0","-2","1","0","1","4","5","5","4","4","5","5","4","4","4","6","6","3","7","4","3","6","4","5","5","3","6","5","5","2","5","1","2","4","1","5","1","7","3","2","7","4","4","6","4","3","7","5","5","3","7","7","5","6","7","6","7","4","5","4","6","7","5","3","7","787463338580910082","周","440","Male","[""坏我"",""好他"",""好我"",""坏他""]","[""弱我"",""强他"",""强我"",""弱他""]","","","","","","","","match","","","","","","","","","","key","f","16.671188034188116","683","380","j","false","nonmatch","img/square.png","强我","弱我","prac_ALT2_ability","practice_ability","","","","","","","","",""
"null","<span style='color:red; font-size: 70px;'>错误! </span>","null","html-keyboard-response","89","254255","0.0-8.0-1.0-1.0-0.0-1.39","5","4","6","5","7","5","4","4","5","4","5","-1","-2","0","0","-2","1","0","1","4","5","5","4","4","5","5","4","4","4","6","6","3","7","4","3","6","4","5","5","3","6","5","5","2","5","1","2","4","1","5","1","7","3","2","7","4","4","6","4","3","7","5","5","3","7","7","5","6","7","6","7","4","5","4","6","7","5","3","7","787463338580910082","周","440","Male","[""坏我"",""好他"",""好我"",""坏他""]","[""弱我"",""强他"",""强我"",""弱他""]","","","","","","","","","","","","","","","","","","","","","","","","","","","","","","feedback_test","","","","","","","","",""
"1003","","j","psychophysics","90","256261","0.0-8.0-1.0-1.0-0.0-0.40","5","4","6","5","7","5","4","4","5","4","5","-1","-2","0","0","-2","1","0","1","4","5","5","4","4","5","5","4","4","4","6","6","3","7","4","3","6","4","5","5","3","6","5","5","2","5","1","2","4","1","5","1","7","3","2","7","4","4","6","4","3","7","5","5","3","7","7","5","6","7","6","7","4","5","4","6","7","5","3","7","787463338580910082","周","440","Male","[""坏我"",""好他"",""好我"",""坏他""]","[""弱我"",""强他"",""强我"",""弱他""]","","","","","","","","nonmatch","","","","","","","","","","key","j","16.661159663865423","683","380","j","true","nonmatch","img/square.png","强他","弱我","prac_ALT2_ability","practice_ability","","","","","","","","",""
"null","<span style='color:GreenYellow; font-size: 70px;'>正确! </span>","null","html-keyboard-response","91","256767","0.0-8.0-1.0-1.0-0.0-1.40","5","4","6","5","7","5","4","4","5","4","5","-1","-2","0","0","-2","1","0","1","4","5","5","4","4","5","5","4","4","4","6","6","3","7","4","3","6","4","5","5","3","6","5","5","2","5","1","2","4","1","5","1","7","3","2","7","4","4","6","4","3","7","5","5","3","7","7","5","6","7","6","7","4","5","4","6","7","5","3","7","787463338580910082","周","440","Male","[""坏我"",""好他"",""好我"",""坏他""]","[""弱我"",""强他"",""强我"",""弱他""]","","","","","","","","","","","","","","","","","","","","","","","","","","","","","","feedback_test","","","","","","","","",""
"1178","","j","psychophysics","92","258950","0.0-8.0-1.0-1.0-0.0-0.41","5","4","6","5","7","5","4","4","5","4","5","-1","-2","0","0","-2","1","0","1","4","5","5","4","4","5","5","4","4","4","6","6","3","7","4","3","6","4","5","5","3","6","5","5","2","5","1","2","4","1","5","1","7","3","2","7","4","4","6","4","3","7","5","5","3","7","7","5","6","7","6","7","4","5","4","6","7","5","3","7","787463338580910082","周","440","Male","[""坏我"",""好他"",""好我"",""坏他""]","[""弱我"",""强他"",""强我"",""弱他""]","","","","","","","","nonmatch","","","","","","","","","","key","j","16.660116279069758","683","380","j","true","nonmatch","img/circle.png","强我","弱他","prac_ALT2_ability","practice_ability","","","","","","","","",""
"null","<span style='color:GreenYellow; font-size: 70px;'>正确! </span>","null","html-keyboard-response","93","259455","0.0-8.0-1.0-1.0-0.0-1.41","5","4","6","5","7","5","4","4","5","4","5","-1","-2","0","0","-2","1","0","1","4","5","5","4","4","5","5","4","4","4","6","6","3","7","4","3","6","4","5","5","3","6","5","5","2","5","1","2","4","1","5","1","7","3","2","7","4","4","6","4","3","7","5","5","3","7","7","5","6","7","6","7","4","5","4","6","7","5","3","7","787463338580910082","周","440","Male","[""坏我"",""好他"",""好我"",""坏他""]","[""弱我"",""强他"",""强我"",""弱他""]","","","","","","","","","","","","","","","","","","","","","","","","","","","","","","feedback_test","","","","","","","","",""
"924","","f","psychophysics","94","261382","0.0-8.0-1.0-1.0-0.0-0.42","5","4","6","5","7","5","4","4","5","4","5","-1","-2","0","0","-2","1","0","1","4","5","5","4","4","5","5","4","4","4","6","6","3","7","4","3","6","4","5","5","3","6","5","5","2","5","1","2","4","1","5","1","7","3","2","7","4","4","6","4","3","7","5","5","3","7","7","5","6","7","6","7","4","5","4","6","7","5","3","7","787463338580910082","周","440","Male","[""坏我"",""好他"",""好我"",""坏他""]","[""弱我"",""强他"",""强我"",""弱他""]","","","","","","","","match","","","","","","","","","","key","f","16.672114035087585","683","380","f","true","match","img/diamond.png","强他","强他","prac_ALT2_ability","practice_ability","","","","","","","","",""
"null","<span style='color:GreenYellow; font-size: 70px;'>正确! </span>","null","html-keyboard-response","95","261887","0.0-8.0-1.0-1.0-0.0-1.42","5","4","6","5","7","5","4","4","5","4","5","-1","-2","0","0","-2","1","0","1","4","5","5","4","4","5","5","4","4","4","6","6","3","7","4","3","6","4","5","5","3","6","5","5","2","5","1","2","4","1","5","1","7","3","2","7","4","4","6","4","3","7","5","5","3","7","7","5","6","7","6","7","4","5","4","6","7","5","3","7","787463338580910082","周","440","Male","[""坏我"",""好他"",""好我"",""坏他""]","[""弱我"",""强他"",""强我"",""弱他""]","","","","","","","","","","","","","","","","","","","","","","","","","","","","","","feedback_test","","","","","","","","",""
"994","","f","psychophysics","96","263885","0.0-8.0-1.0-1.0-0.0-0.43","5","4","6","5","7","5","4","4","5","4","5","-1","-2","0","0","-2","1","0","1","4","5","5","4","4","5","5","4","4","4","6","6","3","7","4","3","6","4","5","5","3","6","5","5","2","5","1","2","4","1","5","1","7","3","2","7","4","4","6","4","3","7","5","5","3","7","7","5","6","7","6","7","4","5","4","6","7","5","3","7","787463338580910082","周","440","Male","[""坏我"",""好他"",""好我"",""坏他""]","[""弱我"",""强他"",""强我"",""弱他""]","","","","","","","","match","","","","","","","","","","key","f","16.807923076923093","683","380","f","true","match","img/square.png","弱我","弱我","prac_ALT2_ability","practice_ability","","","","","","","","",""
"null","<span style='color:GreenYellow; font-size: 70px;'>正确! </span>","null","html-keyboard-response","97","264391","0.0-8.0-1.0-1.0-0.0-1.43","5","4","6","5","7","5","4","4","5","4","5","-1","-2","0","0","-2","1","0","1","4","5","5","4","4","5","5","4","4","4","6","6","3","7","4","3","6","4","5","5","3","6","5","5","2","5","1","2","4","1","5","1","7","3","2","7","4","4","6","4","3","7","5","5","3","7","7","5","6","7","6","7","4","5","4","6","7","5","3","7","787463338580910082","周","440","Male","[""坏我"",""好他"",""好我"",""坏他""]","[""弱我"",""强他"",""强我"",""弱他""]","","","","","","","","","","","","","","","","","","","","","","","","","","","","","","feedback_test","","","","","","","","",""
"1009","","j","psychophysics","98","266408","0.0-8.0-1.0-1.0-0.0-0.44","5","4","6","5","7","5","4","4","5","4","5","-1","-2","0","0","-2","1","0","1","4","5","5","4","4","5","5","4","4","4","6","6","3","7","4","3","6","4","5","5","3","6","5","5","2","5","1","2","4","1","5","1","7","3","2","7","4","4","6","4","3","7","5","5","3","7","7","5","6","7","6","7","4","5","4","6","7","5","3","7","787463338580910082","周","440","Male","[""坏我"",""好他"",""好我"",""坏他""]","[""弱我"",""强他"",""强我"",""弱他""]","","","","","","","","nonmatch","","","","","","","","","","key","j","16.667277310924515","683","380","j","true","nonmatch","img/pentagon.png","弱我","强我","prac_ALT2_ability","practice_ability","","","","","","","","",""
"null","<span style='color:GreenYellow; font-size: 70px;'>正确! </span>","null","html-keyboard-response","99","266911","0.0-8.0-1.0-1.0-0.0-1.44","5","4","6","5","7","5","4","4","5","4","5","-1","-2","0","0","-2","1","0","1","4","5","5","4","4","5","5","4","4","4","6","6","3","7","4","3","6","4","5","5","3","6","5","5","2","5","1","2","4","1","5","1","7","3","2","7","4","4","6","4","3","7","5","5","3","7","7","5","6","7","6","7","4","5","4","6","7","5","3","7","787463338580910082","周","440","Male","[""坏我"",""好他"",""好我"",""坏他""]","[""弱我"",""强他"",""强我"",""弱他""]","","","","","","","","","","","","","","","","","","","","","","","","","","","","","","feedback_test","","","","","","","","",""
"855","","f","psychophysics","100","268775","0.0-8.0-1.0-1.0-0.0-0.45","5","4","6","5","7","5","4","4","5","4","5","-1","-2","0","0","-2","1","0","1","4","5","5","4","4","5","5","4","4","4","6","6","3","7","4","3","6","4","5","5","3","6","5","5","2","5","1","2","4","1","5","1","7","3","2","7","4","4","6","4","3","7","5","5","3","7","7","5","6","7","6","7","4","5","4","6","7","5","3","7","787463338580910082","周","440","Male","[""坏我"",""好他"",""好我"",""坏他""]","[""弱我"",""强他"",""强我"",""弱他""]","","","","","","","","match","","","","","","","","","","key","f","16.653845454545014","683","380","f","true","match","img/pentagon.png","强我","强我","prac_ALT2_ability","practice_ability","","","","","","","","",""
"null","<span style='color:GreenYellow; font-size: 70px;'>正确! </span>","null","html-keyboard-response","101","269279","0.0-8.0-1.0-1.0-0.0-1.45","5","4","6","5","7","5","4","4","5","4","5","-1","-2","0","0","-2","1","0","1","4","5","5","4","4","5","5","4","4","4","6","6","3","7","4","3","6","4","5","5","3","6","5","5","2","5","1","2","4","1","5","1","7","3","2","7","4","4","6","4","3","7","5","5","3","7","7","5","6","7","6","7","4","5","4","6","7","5","3","7","787463338580910082","周","440","Male","[""坏我"",""好他"",""好我"",""坏他""]","[""弱我"",""强他"",""强我"",""弱他""]","","","","","","","","","","","","","","","","","","","","","","","","","","","","","","feedback_test","","","","","","","","",""
"759","","f","psychophysics","102","271046","0.0-8.0-1.0-1.0-0.0-0.46","5","4","6","5","7","5","4","4","5","4","5","-1","-2","0","0","-2","1","0","1","4","5","5","4","4","5","5","4","4","4","6","6","3","7","4","3","6","4","5","5","3","6","5","5","2","5","1","2","4","1","5","1","7","3","2","7","4","4","6","4","3","7","5","5","3","7","7","5","6","7","6","7","4","5","4","6","7","5","3","7","787463338580910082","周","440","Male","[""坏我"",""好他"",""好我"",""坏他""]","[""弱我"",""强他"",""强我"",""弱他""]","","","","","","","","match","","","","","","","","","","key","f","16.668378640776634","683","380","f","true","match","img/pentagon.png","强我","强我","prac_ALT2_ability","practice_ability","","","","","","","","",""
"null","<span style='color:GreenYellow; font-size: 70px;'>正确! </span>","null","html-keyboard-response","103","271551","0.0-8.0-1.0-1.0-0.0-1.46","5","4","6","5","7","5","4","4","5","4","5","-1","-2","0","0","-2","1","0","1","4","5","5","4","4","5","5","4","4","4","6","6","3","7","4","3","6","4","5","5","3","6","5","5","2","5","1","2","4","1","5","1","7","3","2","7","4","4","6","4","3","7","5","5","3","7","7","5","6","7","6","7","4","5","4","6","7","5","3","7","787463338580910082","周","440","Male","[""坏我"",""好他"",""好我"",""坏他""]","[""弱我"",""强他"",""强我"",""弱他""]","","","","","","","","","","","","","","","","","","","","","","","","","","","","","","feedback_test","","","","","","","","",""
"984","","j","psychophysics","104","273542","0.0-8.0-1.0-1.0-0.0-0.47","5","4","6","5","7","5","4","4","5","4","5","-1","-2","0","0","-2","1","0","1","4","5","5","4","4","5","5","4","4","4","6","6","3","7","4","3","6","4","5","5","3","6","5","5","2","5","1","2","4","1","5","1","7","3","2","7","4","4","6","4","3","7","5","5","3","7","7","5","6","7","6","7","4","5","4","6","7","5","3","7","787463338580910082","周","440","Male","[""坏我"",""好他"",""好我"",""坏他""]","[""弱我"",""强他"",""强我"",""弱他""]","","","","","","","","nonmatch","","","","","","","","","","key","j","16.662613445377865","683","380","j","true","nonmatch","img/pentagon.png","强他","强我","prac_ALT2_ability","practice_ability","","","","","","","","",""
"null","<span style='color:GreenYellow; font-size: 70px;'>正确! </span>","null","html-keyboard-response","105","274047","0.0-8.0-1.0-1.0-0.0-1.47","5","4","6","5","7","5","4","4","5","4","5","-1","-2","0","0","-2","1","0","1","4","5","5","4","4","5","5","4","4","4","6","6","3","7","4","3","6","4","5","5","3","6","5","5","2","5","1","2","4","1","5","1","7","3","2","7","4","4","6","4","3","7","5","5","3","7","7","5","6","7","6","7","4","5","4","6","7","5","3","7","787463338580910082","周","440","Male","[""坏我"",""好他"",""好我"",""坏他""]","[""弱我"",""强他"",""强我"",""弱他""]","","","","","","","","","","","","","","","","","","","","","","","","","","","","","","feedback_test","","","","","","","","",""
"2952","<style>.context{color:white; font-size: 35px; line-height:40px}</style>                          <div><p class='context'>您正确回答了65% 的试次。</p><p class='context'>您的平均反应时为996毫秒。</p><p class='context'>恭喜您完成练习。按空格键进入正式实验。</p><p class='footer' style='color:white;font-size: 35px; line-height:40px;'>请在进入正式实验实验之前将您的<span style='color: lightgreen;'>食指</span>放在电脑键盘的相应键位上进行按键。</p>"," ","html-keyboard-response","106","277038","0.0-8.0-1.0-2.0","5","4","6","5","7","5","4","4","5","4","5","-1","-2","0","0","-2","1","0","1","4","5","5","4","4","5","5","4","4","4","6","6","3","7","4","3","6","4","5","5","3","6","5","5","2","5","1","2","4","1","5","1","7","3","2","7","4","4","6","4","3","7","5","5","3","7","7","5","6","7","6","7","4","5","4","6","7","5","3","7","787463338580910082","周","440","Male","[""坏我"",""好他"",""好我"",""坏他""]","[""弱我"",""强他"",""强我"",""弱他""]","","","","","","","","","","","","","","","","","","","","","","","","","","","","","","","","","","","","","","",""
"753","
  <p style='color: white; font-size: 22px'>请您将手指放在按键上，准备进入正式的匹配任务。</p>
  <p> <div style = ""color: green""><按空格键进入下一阶段的匹配任务></div></p>
  "," ","html-keyboard-response","107","277806","0.0-8.0-1.0-3.0","5","4","6","5","7","5","4","4","5","4","5","-1","-2","0","0","-2","1","0","1","4","5","5","4","4","5","5","4","4","4","6","6","3","7","4","3","6","4","5","5","3","6","5","5","2","5","1","2","4","1","5","1","7","3","2","7","4","4","6","4","3","7","5","5","3","7","7","5","6","7","6","7","4","5","4","6","7","5","3","7","787463338580910082","周","440","Male","[""坏我"",""好他"",""好我"",""坏他""]","[""弱我"",""强他"",""强我"",""弱他""]","","","","","","","","","","","","","","","","","","","","","","","","","","","","","","","","","","","","","","",""
"927","","f","psychophysics","108","279742","0.0-8.0-1.0-4.0-0.0-0.0","5","4","6","5","7","5","4","4","5","4","5","-1","-2","0","0","-2","1","0","1","4","5","5","4","4","5","5","4","4","4","6","6","3","7","4","3","6","4","5","5","3","6","5","5","2","5","1","2","4","1","5","1","7","3","2","7","4","4","6","4","3","7","5","5","3","7","7","5","6","7","6","7","4","5","4","6","7","5","3","7","787463338580910082","周","440","Male","[""坏我"",""好他"",""好我"",""坏他""]","[""弱我"",""强他"",""强我"",""弱他""]","","","","","","","","match","","","","","","","","","","key","f","16.818201754385658","683","380","f","true","match","img/diamond.png","强他","强他","ALT2","ability","","","","","","","","",""
"null","<span style='color:GreenYellow; font-size: 70px;'>正确! </span>","null","html-keyboard-response","109","280247","0.0-8.0-1.0-4.0-0.0-1.0","5","4","6","5","7","5","4","4","5","4","5","-1","-2","0","0","-2","1","0","1","4","5","5","4","4","5","5","4","4","4","6","6","3","7","4","3","6","4","5","5","3","6","5","5","2","5","1","2","4","1","5","1","7","3","2","7","4","4","6","4","3","7","5","5","3","7","7","5","6","7","6","7","4","5","4","6","7","5","3","7","787463338580910082","周","440","Male","[""坏我"",""好他"",""好我"",""坏他""]","[""弱我"",""强他"",""强我"",""弱他""]","","","","","","","","","","","","","","","","","","","","","","","","","","","","","","feedback_test","","","","","","","","",""
"1068","","j","psychophysics","110","282326","0.0-8.0-1.0-4.0-0.0-0.1","5","4","6","5","7","5","4","4","5","4","5","-1","-2","0","0","-2","1","0","1","4","5","5","4","4","5","5","4","4","4","6","6","3","7","4","3","6","4","5","5","3","6","5","5","2","5","1","2","4","1","5","1","7","3","2","7","4","4","6","4","3","7","5","5","3","7","7","5","6","7","6","7","4","5","4","6","7","5","3","7","787463338580910082","周","440","Male","[""坏我"",""好他"",""好我"",""坏他""]","[""弱我"",""强他"",""强我"",""弱他""]","","","","","","","","nonmatch","","","","","","","","","","key","j","16.666879032258294","683","380","j","true","nonmatch","img/square.png","弱他","弱我","ALT2","ability","","","","","","","","",""
"null","<span style='color:GreenYellow; font-size: 70px;'>正确! </span>","null","html-keyboard-response","111","282831","0.0-8.0-1.0-4.0-0.0-1.1","5","4","6","5","7","5","4","4","5","4","5","-1","-2","0","0","-2","1","0","1","4","5","5","4","4","5","5","4","4","4","6","6","3","7","4","3","6","4","5","5","3","6","5","5","2","5","1","2","4","1","5","1","7","3","2","7","4","4","6","4","3","7","5","5","3","7","7","5","6","7","6","7","4","5","4","6","7","5","3","7","787463338580910082","周","440","Male","[""坏我"",""好他"",""好我"",""坏他""]","[""弱我"",""强他"",""强我"",""弱他""]","","","","","","","","","","","","","","","","","","","","","","","","","","","","","","feedback_test","","","","","","","","",""
"876","","j","psychophysics","112","284717","0.0-8.0-1.0-4.0-0.0-0.2","5","4","6","5","7","5","4","4","5","4","5","-1","-2","0","0","-2","1","0","1","4","5","5","4","4","5","5","4","4","4","6","6","3","7","4","3","6","4","5","5","3","6","5","5","2","5","1","2","4","1","5","1","7","3","2","7","4","4","6","4","3","7","5","5","3","7","7","5","6","7","6","7","4","5","4","6","7","5","3","7","787463338580910082","周","440","Male","[""坏我"",""好他"",""好我"",""坏他""]","[""弱我"",""强他"",""强我"",""弱他""]","","","","","","","","nonmatch","","","","","","","","","","key","j","16.66708928571461","683","380","j","true","nonmatch","img/diamond.png","弱我","强他","ALT2","ability","","","","","","","","",""
"null","<span style='color:GreenYellow; font-size: 70px;'>正确! </span>","null","html-keyboard-response","113","285223","0.0-8.0-1.0-4.0-0.0-1.2","5","4","6","5","7","5","4","4","5","4","5","-1","-2","0","0","-2","1","0","1","4","5","5","4","4","5","5","4","4","4","6","6","3","7","4","3","6","4","5","5","3","6","5","5","2","5","1","2","4","1","5","1","7","3","2","7","4","4","6","4","3","7","5","5","3","7","7","5","6","7","6","7","4","5","4","6","7","5","3","7","787463338580910082","周","440","Male","[""坏我"",""好他"",""好我"",""坏他""]","[""弱我"",""强他"",""强我"",""弱他""]","","","","","","","","","","","","","","","","","","","","","","","","","","","","","","feedback_test","","","","","","","","",""
"870","","j","psychophysics","114","287104","0.0-8.0-1.0-4.0-0.0-0.3","5","4","6","5","7","5","4","4","5","4","5","-1","-2","0","0","-2","1","0","1","4","5","5","4","4","5","5","4","4","4","6","6","3","7","4","3","6","4","5","5","3","6","5","5","2","5","1","2","4","1","5","1","7","3","2","7","4","4","6","4","3","7","5","5","3","7","7","5","6","7","6","7","4","5","4","6","7","5","3","7","787463338580910082","周","440","Male","[""坏我"",""好他"",""好我"",""坏他""]","[""弱我"",""强他"",""强我"",""弱他""]","","","","","","","","nonmatch","","","","","","","","","","key","j","16.656189189189185","683","380","j","true","nonmatch","img/diamond.png","弱他","强他","ALT2","ability","","","","","","","","",""
"null","<span style='color:GreenYellow; font-size: 70px;'>正确! </span>","null","html-keyboard-response","115","287607","0.0-8.0-1.0-4.0-0.0-1.3","5","4","6","5","7","5","4","4","5","4","5","-1","-2","0","0","-2","1","0","1","4","5","5","4","4","5","5","4","4","4","6","6","3","7","4","3","6","4","5","5","3","6","5","5","2","5","1","2","4","1","5","1","7","3","2","7","4","4","6","4","3","7","5","5","3","7","7","5","6","7","6","7","4","5","4","6","7","5","3","7","787463338580910082","周","440","Male","[""坏我"",""好他"",""好我"",""坏他""]","[""弱我"",""强他"",""强我"",""弱他""]","","","","","","","","","","","","","","","","","","","","","","","","","","","","","","feedback_test","","","","","","","","",""
"959","","j","psychophysics","116","289574","0.0-8.0-1.0-4.0-0.0-0.4","5","4","6","5","7","5","4","4","5","4","5","-1","-2","0","0","-2","1","0","1","4","5","5","4","4","5","5","4","4","4","6","6","3","7","4","3","6","4","5","5","3","6","5","5","2","5","1","2","4","1","5","1","7","3","2","7","4","4","6","4","3","7","5","5","3","7","7","5","6","7","6","7","4","5","4","6","7","5","3","7","787463338580910082","周","440","Male","[""坏我"",""好他"",""好我"",""坏他""]","[""弱我"",""强他"",""强我"",""弱他""]","","","","","","","","nonmatch","","","","","","","","","","key","j","16.671155172413727","683","380","j","true","nonmatch","img/pentagon.png","弱我","强我","ALT2","ability","","","","","","","","",""
"null","<span style='color:GreenYellow; font-size: 70px;'>正确! </span>","null","html-keyboard-response","117","290079","0.0-8.0-1.0-4.0-0.0-1.4","5","4","6","5","7","5","4","4","5","4","5","-1","-2","0","0","-2","1","0","1","4","5","5","4","4","5","5","4","4","4","6","6","3","7","4","3","6","4","5","5","3","6","5","5","2","5","1","2","4","1","5","1","7","3","2","7","4","4","6","4","3","7","5","5","3","7","7","5","6","7","6","7","4","5","4","6","7","5","3","7","787463338580910082","周","440","Male","[""坏我"",""好他"",""好我"",""坏他""]","[""弱我"",""强他"",""强我"",""弱他""]","","","","","","","","","","","","","","","","","","","","","","","","","","","","","","feedback_test","","","","","","","","",""
"1139","","f","psychophysics","118","292229","0.0-8.0-1.0-4.0-0.0-0.5","5","4","6","5","7","5","4","4","5","4","5","-1","-2","0","0","-2","1","0","1","4","5","5","4","4","5","5","4","4","4","6","6","3","7","4","3","6","4","5","5","3","6","5","5","2","5","1","2","4","1","5","1","7","3","2","7","4","4","6","4","3","7","5","5","3","7","7","5","6","7","6","7","4","5","4","6","7","5","3","7","787463338580910082","周","440","Male","[""坏我"",""好他"",""好我"",""坏他""]","[""弱我"",""强他"",""强我"",""弱他""]","","","","","","","","match","","","","","","","","","","key","f","16.65719685039353","683","380","f","true","match","img/square.png","弱我","弱我","ALT2","ability","","","","","","","","",""
"null","<span style='color:GreenYellow; font-size: 70px;'>正确! </span>","null","html-keyboard-response","119","292734","0.0-8.0-1.0-4.0-0.0-1.5","5","4","6","5","7","5","4","4","5","4","5","-1","-2","0","0","-2","1","0","1","4","5","5","4","4","5","5","4","4","4","6","6","3","7","4","3","6","4","5","5","3","6","5","5","2","5","1","2","4","1","5","1","7","3","2","7","4","4","6","4","3","7","5","5","3","7","7","5","6","7","6","7","4","5","4","6","7","5","3","7","787463338580910082","周","440","Male","[""坏我"",""好他"",""好我"",""坏他""]","[""弱我"",""强他"",""强我"",""弱他""]","","","","","","","","","","","","","","","","","","","","","","","","","","","","","","feedback_test","","","","","","","","",""
"939","","j","psychophysics","120","294678","0.0-8.0-1.0-4.0-0.0-0.6","5","4","6","5","7","5","4","4","5","4","5","-1","-2","0","0","-2","1","0","1","4","5","5","4","4","5","5","4","4","4","6","6","3","7","4","3","6","4","5","5","3","6","5","5","2","5","1","2","4","1","5","1","7","3","2","7","4","4","6","4","3","7","5","5","3","7","7","5","6","7","6","7","4","5","4","6","7","5","3","7","787463338580910082","周","440","Male","[""坏我"",""好他"",""好我"",""坏他""]","[""弱我"",""强他"",""强我"",""弱他""]","","","","","","","","nonmatch","","","","","","","","","","key","j","16.660368421052688","683","380","f","false","match","img/circle.png","弱他","弱他","ALT2","ability","","","","","","","","",""
"null","<span style='color:red; font-size: 70px;'>错误! </span>","null","html-keyboard-response","121","295182","0.0-8.0-1.0-4.0-0.0-1.6","5","4","6","5","7","5","4","4","5","4","5","-1","-2","0","0","-2","1","0","1","4","5","5","4","4","5","5","4","4","4","6","6","3","7","4","3","6","4","5","5","3","6","5","5","2","5","1","2","4","1","5","1","7","3","2","7","4","4","6","4","3","7","5","5","3","7","7","5","6","7","6","7","4","5","4","6","7","5","3","7","787463338580910082","周","440","Male","[""坏我"",""好他"",""好我"",""坏他""]","[""弱我"",""强他"",""强我"",""弱他""]","","","","","","","","","","","","","","","","","","","","","","","","","","","","","","feedback_test","","","","","","","","",""
"853","","j","psychophysics","122","297045","0.0-8.0-1.0-4.0-0.0-0.7","5","4","6","5","7","5","4","4","5","4","5","-1","-2","0","0","-2","1","0","1","4","5","5","4","4","5","5","4","4","4","6","6","3","7","4","3","6","4","5","5","3","6","5","5","2","5","1","2","4","1","5","1","7","3","2","7","4","4","6","4","3","7","5","5","3","7","7","5","6","7","6","7","4","5","4","6","7","5","3","7","787463338580910082","周","440","Male","[""坏我"",""好他"",""好我"",""坏他""]","[""弱我"",""强他"",""强我"",""弱他""]","","","","","","","","nonmatch","","","","","","","","","","key","j","16.662788990825742","683","380","j","true","nonmatch","img/circle.png","强他","弱他","ALT2","ability","","","","","","","","",""
"null","<span style='color:GreenYellow; font-size: 70px;'>正确! </span>","null","html-keyboard-response","123","297551","0.0-8.0-1.0-4.0-0.0-1.7","5","4","6","5","7","5","4","4","5","4","5","-1","-2","0","0","-2","1","0","1","4","5","5","4","4","5","5","4","4","4","6","6","3","7","4","3","6","4","5","5","3","6","5","5","2","5","1","2","4","1","5","1","7","3","2","7","4","4","6","4","3","7","5","5","3","7","7","5","6","7","6","7","4","5","4","6","7","5","3","7","787463338580910082","周","440","Male","[""坏我"",""好他"",""好我"",""坏他""]","[""弱我"",""强他"",""强我"",""弱他""]","","","","","","","","","","","","","","","","","","","","","","","","","","","","","","feedback_test","","","","","","","","",""
"976","","f","psychophysics","124","299533","0.0-8.0-1.0-4.0-0.0-0.8","5","4","6","5","7","5","4","4","5","4","5","-1","-2","0","0","-2","1","0","1","4","5","5","4","4","5","5","4","4","4","6","6","3","7","4","3","6","4","5","5","3","6","5","5","2","5","1","2","4","1","5","1","7","3","2","7","4","4","6","4","3","7","5","5","3","7","7","5","6","7","6","7","4","5","4","6","7","5","3","7","787463338580910082","周","440","Male","[""坏我"",""好他"",""好我"",""坏他""]","[""弱我"",""强他"",""强我"",""弱他""]","","","","","","","","match","","","","","","","","","","key","f","16.65791525423746","683","380","f","true","match","img/square.png","弱我","弱我","ALT2","ability","","","","","","","","",""
"null","<span style='color:GreenYellow; font-size: 70px;'>正确! </span>","null","html-keyboard-response","125","300039","0.0-8.0-1.0-4.0-0.0-1.8","5","4","6","5","7","5","4","4","5","4","5","-1","-2","0","0","-2","1","0","1","4","5","5","4","4","5","5","4","4","4","6","6","3","7","4","3","6","4","5","5","3","6","5","5","2","5","1","2","4","1","5","1","7","3","2","7","4","4","6","4","3","7","5","5","3","7","7","5","6","7","6","7","4","5","4","6","7","5","3","7","787463338580910082","周","440","Male","[""坏我"",""好他"",""好我"",""坏他""]","[""弱我"",""强他"",""强我"",""弱他""]","","","","","","","","","","","","","","","","","","","","","","","","","","","","","","feedback_test","","","","","","","","",""
"1070","","f","psychophysics","126","302117","0.0-8.0-1.0-4.0-0.0-0.9","5","4","6","5","7","5","4","4","5","4","5","-1","-2","0","0","-2","1","0","1","4","5","5","4","4","5","5","4","4","4","6","6","3","7","4","3","6","4","5","5","3","6","5","5","2","5","1","2","4","1","5","1","7","3","2","7","4","4","6","4","3","7","5","5","3","7","7","5","6","7","6","7","4","5","4","6","7","5","3","7","787463338580910082","周","440","Male","[""坏我"",""好他"",""好我"",""坏他""]","[""弱我"",""强他"",""强我"",""弱他""]","","","","","","","","match","","","","","","","","","","key","f","16.650631147540807","683","380","j","false","nonmatch","img/square.png","强我","弱我","ALT2","ability","","","","","","","","",""
"null","<span style='color:red; font-size: 70px;'>错误! </span>","null","html-keyboard-response","127","302623","0.0-8.0-1.0-4.0-0.0-1.9","5","4","6","5","7","5","4","4","5","4","5","-1","-2","0","0","-2","1","0","1","4","5","5","4","4","5","5","4","4","4","6","6","3","7","4","3","6","4","5","5","3","6","5","5","2","5","1","2","4","1","5","1","7","3","2","7","4","4","6","4","3","7","5","5","3","7","7","5","6","7","6","7","4","5","4","6","7","5","3","7","787463338580910082","周","440","Male","[""坏我"",""好他"",""好我"",""坏他""]","[""弱我"",""强他"",""强我"",""弱他""]","","","","","","","","","","","","","","","","","","","","","","","","","","","","","","feedback_test","","","","","","","","",""
"911","","f","psychophysics","128","304541","0.0-8.0-1.0-4.0-0.0-0.10","5","4","6","5","7","5","4","4","5","4","5","-1","-2","0","0","-2","1","0","1","4","5","5","4","4","5","5","4","4","4","6","6","3","7","4","3","6","4","5","5","3","6","5","5","2","5","1","2","4","1","5","1","7","3","2","7","4","4","6","4","3","7","5","5","3","7","7","5","6","7","6","7","4","5","4","6","7","5","3","7","787463338580910082","周","440","Male","[""坏我"",""好他"",""好我"",""坏他""]","[""弱我"",""强他"",""强我"",""弱他""]","","","","","","","","match","","","","","","","","","","key","f","16.660824561403786","683","380","f","true","match","img/diamond.png","强他","强他","ALT2","ability","","","","","","","","",""
"null","<span style='color:GreenYellow; font-size: 70px;'>正确! </span>","null","html-keyboard-response","129","305047","0.0-8.0-1.0-4.0-0.0-1.10","5","4","6","5","7","5","4","4","5","4","5","-1","-2","0","0","-2","1","0","1","4","5","5","4","4","5","5","4","4","4","6","6","3","7","4","3","6","4","5","5","3","6","5","5","2","5","1","2","4","1","5","1","7","3","2","7","4","4","6","4","3","7","5","5","3","7","7","5","6","7","6","7","4","5","4","6","7","5","3","7","787463338580910082","周","440","Male","[""坏我"",""好他"",""好我"",""坏他""]","[""弱我"",""强他"",""强我"",""弱他""]","","","","","","","","","","","","","","","","","","","","","","","","","","","","","","feedback_test","","","","","","","","",""
"934","","f","psychophysics","130","307024","0.0-8.0-1.0-4.0-0.0-0.11","5","4","6","5","7","5","4","4","5","4","5","-1","-2","0","0","-2","1","0","1","4","5","5","4","4","5","5","4","4","4","6","6","3","7","4","3","6","4","5","5","3","6","5","5","2","5","1","2","4","1","5","1","7","3","2","7","4","4","6","4","3","7","5","5","3","7","7","5","6","7","6","7","4","5","4","6","7","5","3","7","787463338580910082","周","440","Male","[""坏我"",""好他"",""好我"",""坏他""]","[""弱我"",""强他"",""强我"",""弱他""]","","","","","","","","match","","","","","","","","","","key","f","16.666777777777583","683","380","f","true","match","img/pentagon.png","强我","强我","ALT2","ability","","","","","","","","",""
"null","<span style='color:GreenYellow; font-size: 70px;'>正确! </span>","null","html-keyboard-response","131","307527","0.0-8.0-1.0-4.0-0.0-1.11","5","4","6","5","7","5","4","4","5","4","5","-1","-2","0","0","-2","1","0","1","4","5","5","4","4","5","5","4","4","4","6","6","3","7","4","3","6","4","5","5","3","6","5","5","2","5","1","2","4","1","5","1","7","3","2","7","4","4","6","4","3","7","5","5","3","7","7","5","6","7","6","7","4","5","4","6","7","5","3","7","787463338580910082","周","440","Male","[""坏我"",""好他"",""好我"",""坏他""]","[""弱我"",""强他"",""强我"",""弱他""]","","","","","","","","","","","","","","","","","","","","","","","","","","","","","","feedback_test","","","","","","","","",""
"972","","j","psychophysics","132","309509","0.0-8.0-1.0-4.0-0.0-0.12","5","4","6","5","7","5","4","4","5","4","5","-1","-2","0","0","-2","1","0","1","4","5","5","4","4","5","5","4","4","4","6","6","3","7","4","3","6","4","5","5","3","6","5","5","2","5","1","2","4","1","5","1","7","3","2","7","4","4","6","4","3","7","5","5","3","7","7","5","6","7","6","7","4","5","4","6","7","5","3","7","787463338580910082","周","440","Male","[""坏我"",""好他"",""好我"",""坏他""]","[""弱我"",""强他"",""强我"",""弱他""]","","","","","","","","nonmatch","","","","","","","","","","key","j","16.6634745762715","683","380","j","true","nonmatch","img/pentagon.png","强他","强我","ALT2","ability","","","","","","","","",""
"null","<span style='color:GreenYellow; font-size: 70px;'>正确! </span>","null","html-keyboard-response","133","310015","0.0-8.0-1.0-4.0-0.0-1.12","5","4","6","5","7","5","4","4","5","4","5","-1","-2","0","0","-2","1","0","1","4","5","5","4","4","5","5","4","4","4","6","6","3","7","4","3","6","4","5","5","3","6","5","5","2","5","1","2","4","1","5","1","7","3","2","7","4","4","6","4","3","7","5","5","3","7","7","5","6","7","6","7","4","5","4","6","7","5","3","7","787463338580910082","周","440","Male","[""坏我"",""好他"",""好我"",""坏他""]","[""弱我"",""强他"",""强我"",""弱他""]","","","","","","","","","","","","","","","","","","","","","","","","","","","","","","feedback_test","","","","","","","","",""
"1023","","f","psychophysics","134","312040","0.0-8.0-1.0-4.0-0.0-0.13","5","4","6","5","7","5","4","4","5","4","5","-1","-2","0","0","-2","1","0","1","4","5","5","4","4","5","5","4","4","4","6","6","3","7","4","3","6","4","5","5","3","6","5","5","2","5","1","2","4","1","5","1","7","3","2","7","4","4","6","4","3","7","5","5","3","7","7","5","6","7","6","7","4","5","4","6","7","5","3","7","787463338580910082","周","440","Male","[""坏我"",""好他"",""好我"",""坏他""]","[""弱我"",""强他"",""强我"",""弱他""]","","","","","","","","match","","","","","","","","","","key","f","16.670917355371756","683","380","f","true","match","img/pentagon.png","强我","强我","ALT2","ability","","","","","","","","",""
"null","<span style='color:GreenYellow; font-size: 70px;'>正确! </span>","null","html-keyboard-response","135","312542","0.0-8.0-1.0-4.0-0.0-1.13","5","4","6","5","7","5","4","4","5","4","5","-1","-2","0","0","-2","1","0","1","4","5","5","4","4","5","5","4","4","4","6","6","3","7","4","3","6","4","5","5","3","6","5","5","2","5","1","2","4","1","5","1","7","3","2","7","4","4","6","4","3","7","5","5","3","7","7","5","6","7","6","7","4","5","4","6","7","5","3","7","787463338580910082","周","440","Male","[""坏我"",""好他"",""好我"",""坏他""]","[""弱我"",""强他"",""强我"",""弱他""]","","","","","","","","","","","","","","","","","","","","","","","","","","","","","","feedback_test","","","","","","","","",""
"1047","","f","psychophysics","136","314597","0.0-8.0-1.0-4.0-0.0-0.14","5","4","6","5","7","5","4","4","5","4","5","-1","-2","0","0","-2","1","0","1","4","5","5","4","4","5","5","4","4","4","6","6","3","7","4","3","6","4","5","5","3","6","5","5","2","5","1","2","4","1","5","1","7","3","2","7","4","4","6","4","3","7","5","5","3","7","7","5","6","7","6","7","4","5","4","6","7","5","3","7","787463338580910082","周","440","Male","[""坏我"",""好他"",""好我"",""坏他""]","[""弱我"",""强他"",""强我"",""弱他""]","","","","","","","","match","","","","","","","","","","key","f","16.659231404958618","683","380","f","true","match","img/diamond.png","强他","强他","ALT2","ability","","","","","","","","",""
"null","<span style='color:GreenYellow; font-size: 70px;'>正确! </span>","null","html-keyboard-response","137","315102","0.0-8.0-1.0-4.0-0.0-1.14","5","4","6","5","7","5","4","4","5","4","5","-1","-2","0","0","-2","1","0","1","4","5","5","4","4","5","5","4","4","4","6","6","3","7","4","3","6","4","5","5","3","6","5","5","2","5","1","2","4","1","5","1","7","3","2","7","4","4","6","4","3","7","5","5","3","7","7","5","6","7","6","7","4","5","4","6","7","5","3","7","787463338580910082","周","440","Male","[""坏我"",""好他"",""好我"",""坏他""]","[""弱我"",""强他"",""强我"",""弱他""]","","","","","","","","","","","","","","","","","","","","","","","","","","","","","","feedback_test","","","","","","","","",""
