"rt","stimulus","response","trial_type","trial_index","time_elapsed","internal_node_id","swb_1","swb_2","swb_3","swb_4","swb_5","LOT_1","LOT_2","LOT_3","LOT_4","LOT_5","LOT_6","IPC_1","IPC_2","IPC_3","IPC_4","IPC_5","IPC_6","IPC_7","IPC_8","MorIden_1","MorIden_2","MorIden_3","MorIden_4","MorIden_5","MorIden_6","MorIden_7","MorIden_8","MorIden_9","MorIden_10","moralSeImag_1","moralSeImag_2","moralSeImag_3","moralSeImag_4","moralSeImag_5","moralSeImag_6","moralSeImag_7","moralSeImag_8","moralSeImag_9","sde_1","sde_2","sde_3","sde_4","sde_5","sde_6","sde_7","sde_8","sde_9","sde_10","trap2","sde_11","sde_12","sde_13","sde_14","sde_15","sde_16","sde_17","sde_18","sde_19","sde_20","IM_1","IM_2","IM_3","IM_4","IM_5","IM_6","IM_7","IM_8","IM_9","IM_10","IM_11","IM_12","IM_13","IM_14","IM_15","IM_16","IM_17","IM_18","IM_19","IM_20","subj_idx","friend_name","ParticipantID","Sex","Word","Word2","value","success","timeout","failed_images","failed_audio","failed_video","user_agent","responses","item_order","radio_event_ids","radio_event_times","key_event_times","mouse_event_times","straightlining","zigzagging","honeypot","view_history","response_type","key_press","avg_frame_time","center_x","center_y","correct_response","correct","identity","Image","word","condition","task_id","screen_id","time_stamp","person","valence","domain","math","status","duration","question_order","trap2_item"
"4173","
   <p><div style='color:white; font-size: 25px'>您好，欢迎参加本次实验。</div></p>
   <p><div style='color:white; font-size: 25px'>为充分保障您的权利，请确保您已经知晓并同意《参与实验同意书》以及《数据公开知情同意书》。</div></p>
   <p><div style='color:white; font-size: 25px'>如果您未见过上述内容，请咨询实验员。</div></p>
   <p style='color:white; font-size: 25px'>如果您选择继续实验，则表示您已经清楚两份知情同意书的内容并同意。</p>
   <p><div style = ""color: pink;font-size:30px;"">请确保您记得day0的实验编号，您将在本次实验输入该编号，若您忘记，请咨询实验员后作答。</div></p>
   <p><div style = ""color:lightblue;font-size:25px;"">请您尽可能认真地作答，我们将依据您在各问卷和按键任务中的作答质量发放报酬。</div></p>
   <p> <div style = ""color: green""><按空格键至下页></div> </p>
   "," ","html-keyboard-response","0","4174","0.0-0.0","4","4","4","3","3","4","3","3","4","4","4","1","0","0","1","-1","0","1","0","4","4","5","4","4","3","4","4","3","4","6","6","5","6","5","7","6","5","6","5","6","2","4","4","3","6","3","4","4","1","3","3","5","4","3","6","4","4","5","4","3","6","4","4","5","5","5","5","6","5","7","5","5","7","6","7","5","7","4","6","781892112919826433","z","105","Male","[""坏我"",""好他"",""坏他"",""好我""]","[""弱我"",""强他"",""弱他"",""强我""]","","","","","","","","","","","","","","","","","","","","","","","","","","","","","","","","","","","","","","",""
"","","","call-function","1","4176","0.0-1.0-0.0","4","4","4","3","3","4","3","3","4","4","4","1","0","0","1","-1","0","1","0","4","4","5","4","4","3","4","4","3","4","6","6","5","6","5","7","6","5","6","5","6","2","4","4","3","6","3","4","4","1","3","3","5","4","3","6","4","4","5","4","3","6","4","4","5","5","5","5","6","5","7","5","5","7","6","7","5","7","4","6","781892112919826433","z","105","Male","[""坏我"",""好他"",""坏他"",""好我""]","[""弱我"",""强他"",""弱他"",""强我""]","","","","","","","","","","","","","","","","","","","","","","","","","","","","","","","","","","","","","","",""
"48978","","[{""name"":""Sex"",""value"":""0""},{""name"":""friend_name"",""value"":""z""},{""name"":""ParticipantID"",""value"":""105""}]","survey-html-form","2","53154","0.0-1.0-1.0","4","4","4","3","3","4","3","3","4","4","4","1","0","0","1","-1","0","1","0","4","4","5","4","4","3","4","4","3","4","6","6","5","6","5","7","6","5","6","5","6","2","4","4","3","6","3","4","4","1","3","3","5","4","3","6","4","4","5","4","3","6","4","4","5","5","5","5","6","5","7","5","5","7","6","7","5","7","4","6","781892112919826433","z","105","Male","[""坏我"",""好他"",""坏他"",""好我""]","[""弱我"",""强他"",""弱他"",""强我""]","","","","","","","","","","","","","","","","","","","","","","","","","","","","","","","","","","","","","","",""
"","","","preload","3","54728","0.0-2.0","4","4","4","3","3","4","3","3","4","4","4","1","0","0","1","-1","0","1","0","4","4","5","4","4","3","4","4","3","4","6","6","5","6","5","7","6","5","6","5","6","2","4","4","3","6","3","4","4","1","3","3","5","4","3","6","4","4","5","4","3","6","4","4","5","5","5","5","6","5","7","5","5","7","6","7","5","7","4","6","781892112919826433","z","105","Male","[""坏我"",""好他"",""坏他"",""好我""]","[""弱我"",""强他"",""弱他"",""强我""]","","true","false","[]","[]","[]","","","","","","","","","","","","","","","","","","","","","","","","","","","","","","","","",""
"","","","fullscreen","4","63418","0.0-3.0","4","4","4","3","3","4","3","3","4","4","4","1","0","0","1","-1","0","1","0","4","4","5","4","4","3","4","4","3","4","6","6","5","6","5","7","6","5","6","5","6","2","4","4","3","6","3","4","4","1","3","3","5","4","3","6","4","4","5","4","3","6","4","4","5","5","5","5","6","5","7","5","5","7","6","7","5","7","4","6","781892112919826433","z","105","Male","[""坏我"",""好他"",""坏他"",""好我""]","[""弱我"",""强他"",""弱他"",""强我""]","","true","","","","","{}","","","","","","","","","","","","","","","","","","","","","","","","","","","","","","","",""
"24350.199999999255","","{""Q01"":""4"",""Q02"":""4"",""Q03"":""4"",""Q04"":""3"",""Q05"":""3""}","survey-template","5","87771","0.0-4.0","4","4","4","3","3","4","3","3","4","4","4","1","0","0","1","-1","0","1","0","4","4","5","4","4","3","4","4","3","4","6","6","5","6","5","7","6","5","6","5","6","2","4","4","3","6","3","4","4","1","3","3","5","4","3","6","4","4","5","4","3","6","4","4","5","5","5","5","6","5","7","5","5","7","6","7","5","7","4","6","781892112919826433","z","105","Male","[""坏我"",""好他"",""坏他"",""好我""]","[""弱我"",""强他"",""弱他"",""强我""]","","","","","","","","{""Q01"":""4"",""Q02"":""4"",""Q03"":""4"",""Q04"":""3"",""Q05"":""3""}","[0,1,2,3,4]","[""Q01"",""Q02"",""Q03"",""Q04"",""Q05""]","[3234,4275,7139.699999999255,9849,12390.89999999851]","[]","[3234,4275,7139.699999999255,9849,12390.89999999851,24349]","0.6","0.25","0","","","","","","","","","","","","","","","","","","","","","","",""
"24689.199999999255","","{""Q01"":""4"",""Q02"":""3"",""Q03"":""3"",""Q04"":""4"",""Q05"":""4"",""Q06"":""4""}","survey-template","6","112464","0.0-5.0","4","4","4","3","3","4","3","3","4","4","4","1","0","0","1","-1","0","1","0","4","4","5","4","4","3","4","4","3","4","6","6","5","6","5","7","6","5","6","5","6","2","4","4","3","6","3","4","4","1","3","3","5","4","3","6","4","4","5","4","3","6","4","4","5","5","5","5","6","5","7","5","5","7","6","7","5","7","4","6","781892112919826433","z","105","Male","[""坏我"",""好他"",""坏他"",""好我""]","[""弱我"",""强他"",""弱他"",""强我""]","","","","","","","","{""Q01"":""4"",""Q02"":""3"",""Q03"":""3"",""Q04"":""4"",""Q05"":""4"",""Q06"":""4""}","[0,1,2,3,4,5]","[""Q01"",""Q02"",""Q03"",""Q04"",""Q05"",""Q06""]","[3798.300000000745,8222.900000002235,10002.300000000745,13359.199999999255,15532.60000000149,20393.5]","[]","[3798.300000000745,8222.900000002235,10002.300000000745,13359.199999999255,15532.60000000149,20393.5,24688.300000000745]","0.3333333333333333","0.4","0","","","","","","","","","","","","","","","","","","","","","","",""
"55685.89999999851","","{""Q01"":""1"",""Q02"":""0"",""Q03"":""0"",""Q04"":""1"",""Q05"":""-1"",""Q06"":""0"",""Q07"":""1"",""Q08"":""0""}","survey-template","7","168154","0.0-6.0","4","4","4","3","3","4","3","3","4","4","4","1","0","0","1","-1","0","1","0","4","4","5","4","4","3","4","4","3","4","6","6","5","6","5","7","6","5","6","5","6","2","4","4","3","6","3","4","4","1","3","3","5","4","3","6","4","4","5","4","3","6","4","4","5","5","5","5","6","5","7","5","5","7","6","7","5","7","4","6","781892112919826433","z","105","Male","[""坏我"",""好他"",""坏他"",""好我""]","[""弱我"",""强他"",""弱他"",""强我""]","","","","","","","","{""Q01"":""1"",""Q02"":""0"",""Q03"":""0"",""Q04"":""1"",""Q05"":""-1"",""Q06"":""0"",""Q07"":""1"",""Q08"":""0""}","[0,1,2,3,4,5,6,7]","[""Q01"",""Q02"",""Q03"",""Q04"",""Q05"",""Q06"",""Q07"",""Q08""]","[7699.5,12202.800000000745,20783.699999999255,32486.800000000745,34974.699999999255,37026.800000000745,42707.699999999255,45872.699999999255]","[]","[7699.5,12202.800000000745,20783.699999999255,32486.800000000745,34974.699999999255,37026.800000000745,42707.699999999255,45872.699999999255,52378.300000000745,53677.599999997765,55684.699999999255]","0.5","0.7142857142857143","0","","","","","","","","","","","","","","","","","","","","","","",""
"20543","","","instructions","8","188700","0.0-7.0","4","4","4","3","3","4","3","3","4","4","4","1","0","0","1","-1","0","1","0","4","4","5","4","4","3","4","4","3","4","6","6","5","6","5","7","6","5","6","5","6","2","4","4","3","6","3","4","4","1","3","3","5","4","3","6","4","4","5","4","3","6","4","4","5","5","5","5","6","5","7","5","5","7","6","7","5","7","4","6","781892112919826433","z","105","Male","[""坏我"",""好他"",""坏他"",""好我""]","[""弱我"",""强他"",""弱他"",""强我""]","","","","","","","","","","","","","","","","","[{""page_index"":0,""viewing_time"":20542}]","","","","","","","","","","","","","","","","","","","","","",""
"80572","","","instructions","9","269273","0.0-8.0-0.0-0.0","4","4","4","3","3","4","3","3","4","4","4","1","0","0","1","-1","0","1","0","4","4","5","4","4","3","4","4","3","4","6","6","5","6","5","7","6","5","6","5","6","2","4","4","3","6","3","4","4","1","3","3","5","4","3","6","4","4","5","4","3","6","4","4","5","5","5","5","6","5","7","5","5","7","6","7","5","7","4","6","781892112919826433","z","105","Male","[""坏我"",""好他"",""坏他"",""好我""]","[""弱我"",""强他"",""弱他"",""强我""]","","","","","","","","","","","","","","","","","[{""page_index"":0,""viewing_time"":11705},{""page_index"":1,""viewing_time"":43067},{""page_index"":2,""viewing_time"":8270},{""page_index"":3,""viewing_time"":17529}]","","","","","","","","","","","","","","","","","","","","","",""
"764","","j","psychophysics","10","271041","0.0-8.0-0.0-1.0-0.0-0.0","4","4","4","3","3","4","3","3","4","4","4","1","0","0","1","-1","0","1","0","4","4","5","4","4","3","4","4","3","4","6","6","5","6","5","7","6","5","6","5","6","2","4","4","3","6","3","4","4","1","3","3","5","4","3","6","4","4","5","4","3","6","4","4","5","5","5","5","6","5","7","5","5","7","6","7","5","7","4","6","781892112919826433","z","105","Male","[""坏我"",""好他"",""坏他"",""好我""]","[""弱我"",""强他"",""弱他"",""强我""]","","","","","","","","match","","","","","","","","","","key","j","16.665714285713953","768","428","j","true","match","img/pentagon.png","好我","好我","prac_ALT2_moral","practice_moral","","","","","","","","",""
"null","<span style='color:GreenYellow; font-size: 70px;'>正确! </span>","null","html-keyboard-response","11","271545","0.0-8.0-0.0-1.0-0.0-1.0","4","4","4","3","3","4","3","3","4","4","4","1","0","0","1","-1","0","1","0","4","4","5","4","4","3","4","4","3","4","6","6","5","6","5","7","6","5","6","5","6","2","4","4","3","6","3","4","4","1","3","3","5","4","3","6","4","4","5","4","3","6","4","4","5","5","5","5","6","5","7","5","5","7","6","7","5","7","4","6","781892112919826433","z","105","Male","[""坏我"",""好他"",""坏他"",""好我""]","[""弱我"",""强他"",""弱他"",""强我""]","","","","","","","","","","","","","","","","","","","","","","","","","","","","","","feedback_test","","","","","","","","",""
"395","","f","psychophysics","12","272942","0.0-8.0-0.0-1.0-0.0-0.1","4","4","4","3","3","4","3","3","4","4","4","1","0","0","1","-1","0","1","0","4","4","5","4","4","3","4","4","3","4","6","6","5","6","5","7","6","5","6","5","6","2","4","4","3","6","3","4","4","1","3","3","5","4","3","6","4","4","5","4","3","6","4","4","5","5","5","5","6","5","7","5","5","7","6","7","5","7","4","6","781892112919826433","z","105","Male","[""坏我"",""好他"",""坏他"",""好我""]","[""弱我"",""强他"",""弱他"",""强我""]","","","","","","","","nonmatch","","","","","","","","","","key","f","16.665060240963996","768","428","j","false","match","img/circle.png","坏他","坏他","prac_ALT2_moral","practice_moral","","","","","","","","",""
"null","<span style='color:red; font-size: 70px;'>错误! </span>","null","html-keyboard-response","13","273443","0.0-8.0-0.0-1.0-0.0-1.1","4","4","4","3","3","4","3","3","4","4","4","1","0","0","1","-1","0","1","0","4","4","5","4","4","3","4","4","3","4","6","6","5","6","5","7","6","5","6","5","6","2","4","4","3","6","3","4","4","1","3","3","5","4","3","6","4","4","5","4","3","6","4","4","5","5","5","5","6","5","7","5","5","7","6","7","5","7","4","6","781892112919826433","z","105","Male","[""坏我"",""好他"",""坏他"",""好我""]","[""弱我"",""强他"",""弱他"",""强我""]","","","","","","","","","","","","","","","","","","","","","","","","","","","","","","feedback_test","","","","","","","","",""
"496","","j","psychophysics","14","274941","0.0-8.0-0.0-1.0-0.0-0.2","4","4","4","3","3","4","3","3","4","4","4","1","0","0","1","-1","0","1","0","4","4","5","4","4","3","4","4","3","4","6","6","5","6","5","7","6","5","6","5","6","2","4","4","3","6","3","4","4","1","3","3","5","4","3","6","4","4","5","4","3","6","4","4","5","5","5","5","6","5","7","5","5","7","6","7","5","7","4","6","781892112919826433","z","105","Male","[""坏我"",""好他"",""坏他"",""好我""]","[""弱我"",""强他"",""弱他"",""强我""]","","","","","","","","match","","","","","","","","","","key","j","16.665168539325318","768","428","f","false","nonmatch","img/pentagon.png","好他","好我","prac_ALT2_moral","practice_moral","","","","","","","","",""
"null","<span style='color:red; font-size: 70px;'>错误! </span>","null","html-keyboard-response","15","275443","0.0-8.0-0.0-1.0-0.0-1.2","4","4","4","3","3","4","3","3","4","4","4","1","0","0","1","-1","0","1","0","4","4","5","4","4","3","4","4","3","4","6","6","5","6","5","7","6","5","6","5","6","2","4","4","3","6","3","4","4","1","3","3","5","4","3","6","4","4","5","4","3","6","4","4","5","5","5","5","6","5","7","5","5","7","6","7","5","7","4","6","781892112919826433","z","105","Male","[""坏我"",""好他"",""坏他"",""好我""]","[""弱我"",""强他"",""弱他"",""强我""]","","","","","","","","","","","","","","","","","","","","","","","","","","","","","","feedback_test","","","","","","","","",""
"573","","j","psychophysics","16","277016","0.0-8.0-0.0-1.0-0.0-0.3","4","4","4","3","3","4","3","3","4","4","4","1","0","0","1","-1","0","1","0","4","4","5","4","4","3","4","4","3","4","6","6","5","6","5","7","6","5","6","5","6","2","4","4","3","6","3","4","4","1","3","3","5","4","3","6","4","4","5","4","3","6","4","4","5","5","5","5","6","5","7","5","5","7","6","7","5","7","4","6","781892112919826433","z","105","Male","[""坏我"",""好他"",""坏他"",""好我""]","[""弱我"",""强他"",""弱他"",""强我""]","","","","","","","","match","","","","","","","","","","key","j","16.664516129032133","768","428","f","false","nonmatch","img/square.png","好我","坏我","prac_ALT2_moral","practice_moral","","","","","","","","",""
"null","<span style='color:red; font-size: 70px;'>错误! </span>","null","html-keyboard-response","17","277517","0.0-8.0-0.0-1.0-0.0-1.3","4","4","4","3","3","4","3","3","4","4","4","1","0","0","1","-1","0","1","0","4","4","5","4","4","3","4","4","3","4","6","6","5","6","5","7","6","5","6","5","6","2","4","4","3","6","3","4","4","1","3","3","5","4","3","6","4","4","5","4","3","6","4","4","5","5","5","5","6","5","7","5","5","7","6","7","5","7","4","6","781892112919826433","z","105","Male","[""坏我"",""好他"",""坏他"",""好我""]","[""弱我"",""强他"",""弱他"",""强我""]","","","","","","","","","","","","","","","","","","","","","","","","","","","","","","feedback_test","","","","","","","","",""
"809","","f","psychophysics","18","279328","0.0-8.0-0.0-1.0-0.0-0.4","4","4","4","3","3","4","3","3","4","4","4","1","0","0","1","-1","0","1","0","4","4","5","4","4","3","4","4","3","4","6","6","5","6","5","7","6","5","6","5","6","2","4","4","3","6","3","4","4","1","3","3","5","4","3","6","4","4","5","4","3","6","4","4","5","5","5","5","6","5","7","5","5","7","6","7","5","7","4","6","781892112919826433","z","105","Male","[""坏我"",""好他"",""坏他"",""好我""]","[""弱我"",""强他"",""弱他"",""强我""]","","","","","","","","nonmatch","","","","","","","","","","key","f","16.663888888888998","768","428","f","true","nonmatch","img/trapezoid.png","坏他","好他","prac_ALT2_moral","practice_moral","","","","","","","","",""
"null","<span style='color:GreenYellow; font-size: 70px;'>正确! </span>","null","html-keyboard-response","19","279829","0.0-8.0-0.0-1.0-0.0-1.4","4","4","4","3","3","4","3","3","4","4","4","1","0","0","1","-1","0","1","0","4","4","5","4","4","3","4","4","3","4","6","6","5","6","5","7","6","5","6","5","6","2","4","4","3","6","3","4","4","1","3","3","5","4","3","6","4","4","5","4","3","6","4","4","5","5","5","5","6","5","7","5","5","7","6","7","5","7","4","6","781892112919826433","z","105","Male","[""坏我"",""好他"",""坏他"",""好我""]","[""弱我"",""强他"",""弱他"",""强我""]","","","","","","","","","","","","","","","","","","","","","","","","","","","","","","feedback_test","","","","","","","","",""
"984","","j","psychophysics","20","281814","0.0-8.0-0.0-1.0-0.0-0.5","4","4","4","3","3","4","3","3","4","4","4","1","0","0","1","-1","0","1","0","4","4","5","4","4","3","4","4","3","4","6","6","5","6","5","7","6","5","6","5","6","2","4","4","3","6","3","4","4","1","3","3","5","4","3","6","4","4","5","4","3","6","4","4","5","5","5","5","6","5","7","5","5","7","6","7","5","7","4","6","781892112919826433","z","105","Male","[""坏我"",""好他"",""坏他"",""好我""]","[""弱我"",""强他"",""弱他"",""强我""]","","","","","","","","match","","","","","","","","","","key","j","16.665254237288135","768","428","f","false","nonmatch","img/square.png","坏他","坏我","prac_ALT2_moral","practice_moral","","","","","","","","",""
"null","<span style='color:red; font-size: 70px;'>错误! </span>","null","html-keyboard-response","21","282316","0.0-8.0-0.0-1.0-0.0-1.5","4","4","4","3","3","4","3","3","4","4","4","1","0","0","1","-1","0","1","0","4","4","5","4","4","3","4","4","3","4","6","6","5","6","5","7","6","5","6","5","6","2","4","4","3","6","3","4","4","1","3","3","5","4","3","6","4","4","5","4","3","6","4","4","5","5","5","5","6","5","7","5","5","7","6","7","5","7","4","6","781892112919826433","z","105","Male","[""坏我"",""好他"",""坏他"",""好我""]","[""弱我"",""强他"",""弱他"",""强我""]","","","","","","","","","","","","","","","","","","","","","","","","","","","","","","feedback_test","","","","","","","","",""
"1166","","f","psychophysics","22","284484","0.0-8.0-0.0-1.0-0.0-0.6","4","4","4","3","3","4","3","3","4","4","4","1","0","0","1","-1","0","1","0","4","4","5","4","4","3","4","4","3","4","6","6","5","6","5","7","6","5","6","5","6","2","4","4","3","6","3","4","4","1","3","3","5","4","3","6","4","4","5","4","3","6","4","4","5","5","5","5","6","5","7","5","5","7","6","7","5","7","4","6","781892112919826433","z","105","Male","[""坏我"",""好他"",""坏他"",""好我""]","[""弱我"",""强他"",""弱他"",""强我""]","","","","","","","","nonmatch","","","","","","","","","","key","f","16.66434108527141","768","428","j","false","match","img/trapezoid.png","好他","好他","prac_ALT2_moral","practice_moral","","","","","","","","",""
"null","<span style='color:red; font-size: 70px;'>错误! </span>","null","html-keyboard-response","23","284985","0.0-8.0-0.0-1.0-0.0-1.6","4","4","4","3","3","4","3","3","4","4","4","1","0","0","1","-1","0","1","0","4","4","5","4","4","3","4","4","3","4","6","6","5","6","5","7","6","5","6","5","6","2","4","4","3","6","3","4","4","1","3","3","5","4","3","6","4","4","5","4","3","6","4","4","5","5","5","5","6","5","7","5","5","7","6","7","5","7","4","6","781892112919826433","z","105","Male","[""坏我"",""好他"",""坏他"",""好我""]","[""弱我"",""强他"",""弱他"",""强我""]","","","","","","","","","","","","","","","","","","","","","","","","","","","","","","feedback_test","","","","","","","","",""
"1074","","j","psychophysics","24","287060","0.0-8.0-0.0-1.0-0.0-0.7","4","4","4","3","3","4","3","3","4","4","4","1","0","0","1","-1","0","1","0","4","4","5","4","4","3","4","4","3","4","6","6","5","6","5","7","6","5","6","5","6","2","4","4","3","6","3","4","4","1","3","3","5","4","3","6","4","4","5","4","3","6","4","4","5","5","5","5","6","5","7","5","5","7","6","7","5","7","4","6","781892112919826433","z","105","Male","[""坏我"",""好他"",""坏他"",""好我""]","[""弱我"",""强他"",""弱他"",""强我""]","","","","","","","","match","","","","","","","","","","key","j","16.660162601626112","768","428","f","false","nonmatch","img/trapezoid.png","好我","好他","prac_ALT2_moral","practice_moral","","","","","","","","",""
"null","<span style='color:red; font-size: 70px;'>错误! </span>","null","html-keyboard-response","25","287562","0.0-8.0-0.0-1.0-0.0-1.7","4","4","4","3","3","4","3","3","4","4","4","1","0","0","1","-1","0","1","0","4","4","5","4","4","3","4","4","3","4","6","6","5","6","5","7","6","5","6","5","6","2","4","4","3","6","3","4","4","1","3","3","5","4","3","6","4","4","5","4","3","6","4","4","5","5","5","5","6","5","7","5","5","7","6","7","5","7","4","6","781892112919826433","z","105","Male","[""坏我"",""好他"",""坏他"",""好我""]","[""弱我"",""强他"",""弱他"",""强我""]","","","","","","","","","","","","","","","","","","","","","","","","","","","","","","feedback_test","","","","","","","","",""
"null","","null","psychophysics","26","289764","0.0-8.0-0.0-1.0-0.0-0.8","4","4","4","3","3","4","3","3","4","4","4","1","0","0","1","-1","0","1","0","4","4","5","4","4","3","4","4","3","4","6","6","5","6","5","7","6","5","6","5","6","2","4","4","3","6","3","4","4","1","3","3","5","4","3","6","4","4","5","4","3","6","4","4","5","5","5","5","6","5","7","5","5","7","6","7","5","7","4","6","781892112919826433","z","105","Male","[""坏我"",""好他"",""坏他"",""好我""]","[""弱我"",""强他"",""弱他"",""强我""]","","","","","","","","null","","","","","","","","","","key","null","16.665648854961923","768","428","j","false","match","img/square.png","坏我","坏我","prac_ALT2_moral","practice_moral","","","","","","","","",""
"null","<span class='add_' style='color:yellow; font-size: 70px;'> 太慢! </span>","null","html-keyboard-response","27","290266","0.0-8.0-0.0-1.0-0.0-1.8","4","4","4","3","3","4","3","3","4","4","4","1","0","0","1","-1","0","1","0","4","4","5","4","4","3","4","4","3","4","6","6","5","6","5","7","6","5","6","5","6","2","4","4","3","6","3","4","4","1","3","3","5","4","3","6","4","4","5","4","3","6","4","4","5","5","5","5","6","5","7","5","5","7","6","7","5","7","4","6","781892112919826433","z","105","Male","[""坏我"",""好他"",""坏他"",""好我""]","[""弱我"",""强他"",""弱他"",""强我""]","","","","","","","","","","","","","","","","","","","","","","","","","","","","","","feedback_test","","","","","","","","",""
"494","","j","psychophysics","28","291762","0.0-8.0-0.0-1.0-0.0-0.9","4","4","4","3","3","4","3","3","4","4","4","1","0","0","1","-1","0","1","0","4","4","5","4","4","3","4","4","3","4","6","6","5","6","5","7","6","5","6","5","6","2","4","4","3","6","3","4","4","1","3","3","5","4","3","6","4","4","5","4","3","6","4","4","5","5","5","5","6","5","7","5","5","7","6","7","5","7","4","6","781892112919826433","z","105","Male","[""坏我"",""好他"",""坏他"",""好我""]","[""弱我"",""强他"",""弱他"",""强我""]","","","","","","","","match","","","","","","","","","","key","j","16.664044943819963","768","428","f","false","nonmatch","img/pentagon.png","坏他","好我","prac_ALT2_moral","practice_moral","","","","","","","","",""
"null","<span style='color:red; font-size: 70px;'>错误! </span>","null","html-keyboard-response","29","292263","0.0-8.0-0.0-1.0-0.0-1.9","4","4","4","3","3","4","3","3","4","4","4","1","0","0","1","-1","0","1","0","4","4","5","4","4","3","4","4","3","4","6","6","5","6","5","7","6","5","6","5","6","2","4","4","3","6","3","4","4","1","3","3","5","4","3","6","4","4","5","4","3","6","4","4","5","5","5","5","6","5","7","5","5","7","6","7","5","7","4","6","781892112919826433","z","105","Male","[""坏我"",""好他"",""坏他"",""好我""]","[""弱我"",""强他"",""弱他"",""强我""]","","","","","","","","","","","","","","","","","","","","","","","","","","","","","","feedback_test","","","","","","","","",""
"587","","f","psychophysics","30","293852","0.0-8.0-0.0-1.0-0.0-0.10","4","4","4","3","3","4","3","3","4","4","4","1","0","0","1","-1","0","1","0","4","4","5","4","4","3","4","4","3","4","6","6","5","6","5","7","6","5","6","5","6","2","4","4","3","6","3","4","4","1","3","3","5","4","3","6","4","4","5","4","3","6","4","4","5","5","5","5","6","5","7","5","5","7","6","7","5","7","4","6","781892112919826433","z","105","Male","[""坏我"",""好他"",""坏他"",""好我""]","[""弱我"",""强他"",""弱他"",""强我""]","","","","","","","","nonmatch","","","","","","","","","","key","f","16.664210526315543","768","428","j","false","match","img/trapezoid.png","好他","好他","prac_ALT2_moral","practice_moral","","","","","","","","",""
"null","<span style='color:red; font-size: 70px;'>错误! </span>","null","html-keyboard-response","31","294354","0.0-8.0-0.0-1.0-0.0-1.10","4","4","4","3","3","4","3","3","4","4","4","1","0","0","1","-1","0","1","0","4","4","5","4","4","3","4","4","3","4","6","6","5","6","5","7","6","5","6","5","6","2","4","4","3","6","3","4","4","1","3","3","5","4","3","6","4","4","5","4","3","6","4","4","5","5","5","5","6","5","7","5","5","7","6","7","5","7","4","6","781892112919826433","z","105","Male","[""坏我"",""好他"",""坏他"",""好我""]","[""弱我"",""强他"",""弱他"",""强我""]","","","","","","","","","","","","","","","","","","","","","","","","","","","","","","feedback_test","","","","","","","","",""
"728","","j","psychophysics","32","296084","0.0-8.0-0.0-1.0-0.0-0.11","4","4","4","3","3","4","3","3","4","4","4","1","0","0","1","-1","0","1","0","4","4","5","4","4","3","4","4","3","4","6","6","5","6","5","7","6","5","6","5","6","2","4","4","3","6","3","4","4","1","3","3","5","4","3","6","4","4","5","4","3","6","4","4","5","5","5","5","6","5","7","5","5","7","6","7","5","7","4","6","781892112919826433","z","105","Male","[""坏我"",""好他"",""坏他"",""好我""]","[""弱我"",""强他"",""弱他"",""强我""]","","","","","","","","match","","","","","","","","","","key","j","16.66310679611639","768","428","j","true","match","img/pentagon.png","好我","好我","prac_ALT2_moral","practice_moral","","","","","","","","",""
"null","<span style='color:GreenYellow; font-size: 70px;'>正确! </span>","null","html-keyboard-response","33","296586","0.0-8.0-0.0-1.0-0.0-1.11","4","4","4","3","3","4","3","3","4","4","4","1","0","0","1","-1","0","1","0","4","4","5","4","4","3","4","4","3","4","6","6","5","6","5","7","6","5","6","5","6","2","4","4","3","6","3","4","4","1","3","3","5","4","3","6","4","4","5","4","3","6","4","4","5","5","5","5","6","5","7","5","5","7","6","7","5","7","4","6","781892112919826433","z","105","Male","[""坏我"",""好他"",""坏他"",""好我""]","[""弱我"",""强他"",""弱他"",""强我""]","","","","","","","","","","","","","","","","","","","","","","","","","","","","","","feedback_test","","","","","","","","",""
"749","","f","psychophysics","34","298336","0.0-8.0-0.0-1.0-0.0-0.12","4","4","4","3","3","4","3","3","4","4","4","1","0","0","1","-1","0","1","0","4","4","5","4","4","3","4","4","3","4","6","6","5","6","5","7","6","5","6","5","6","2","4","4","3","6","3","4","4","1","3","3","5","4","3","6","4","4","5","4","3","6","4","4","5","5","5","5","6","5","7","5","5","7","6","7","5","7","4","6","781892112919826433","z","105","Male","[""坏我"",""好他"",""坏他"",""好我""]","[""弱我"",""强他"",""弱他"",""强我""]","","","","","","","","nonmatch","","","","","","","","","","key","f","16.666346153846042","768","428","f","true","nonmatch","img/circle.png","好他","坏他","prac_ALT2_moral","practice_moral","","","","","","","","",""
"null","<span style='color:GreenYellow; font-size: 70px;'>正确! </span>","null","html-keyboard-response","35","298837","0.0-8.0-0.0-1.0-0.0-1.12","4","4","4","3","3","4","3","3","4","4","4","1","0","0","1","-1","0","1","0","4","4","5","4","4","3","4","4","3","4","6","6","5","6","5","7","6","5","6","5","6","2","4","4","3","6","3","4","4","1","3","3","5","4","3","6","4","4","5","4","3","6","4","4","5","5","5","5","6","5","7","5","5","7","6","7","5","7","4","6","781892112919826433","z","105","Male","[""坏我"",""好他"",""坏他"",""好我""]","[""弱我"",""强他"",""弱他"",""强我""]","","","","","","","","","","","","","","","","","","","","","","","","","","","","","","feedback_test","","","","","","","","",""
"872","","j","psychophysics","36","300710","0.0-8.0-0.0-1.0-0.0-0.13","4","4","4","3","3","4","3","3","4","4","4","1","0","0","1","-1","0","1","0","4","4","5","4","4","3","4","4","3","4","6","6","5","6","5","7","6","5","6","5","6","2","4","4","3","6","3","4","4","1","3","3","5","4","3","6","4","4","5","4","3","6","4","4","5","5","5","5","6","5","7","5","5","7","6","7","5","7","4","6","781892112919826433","z","105","Male","[""坏我"",""好他"",""坏他"",""好我""]","[""弱我"",""强他"",""弱他"",""强我""]","","","","","","","","match","","","","","","","","","","key","j","16.66486486486476","768","428","f","false","nonmatch","img/trapezoid.png","坏我","好他","prac_ALT2_moral","practice_moral","","","","","","","","",""
"null","<span style='color:red; font-size: 70px;'>错误! </span>","null","html-keyboard-response","37","301212","0.0-8.0-0.0-1.0-0.0-1.13","4","4","4","3","3","4","3","3","4","4","4","1","0","0","1","-1","0","1","0","4","4","5","4","4","3","4","4","3","4","6","6","5","6","5","7","6","5","6","5","6","2","4","4","3","6","3","4","4","1","3","3","5","4","3","6","4","4","5","4","3","6","4","4","5","5","5","5","6","5","7","5","5","7","6","7","5","7","4","6","781892112919826433","z","105","Male","[""坏我"",""好他"",""坏他"",""好我""]","[""弱我"",""强他"",""弱他"",""强我""]","","","","","","","","","","","","","","","","","","","","","","","","","","","","","","feedback_test","","","","","","","","",""
"1007","","j","psychophysics","38","303221","0.0-8.0-0.0-1.0-0.0-0.14","4","4","4","3","3","4","3","3","4","4","4","1","0","0","1","-1","0","1","0","4","4","5","4","4","3","4","4","3","4","6","6","5","6","5","7","6","5","6","5","6","2","4","4","3","6","3","4","4","1","3","3","5","4","3","6","4","4","5","4","3","6","4","4","5","5","5","5","6","5","7","5","5","7","6","7","5","7","4","6","781892112919826433","z","105","Male","[""坏我"",""好他"",""坏他"",""好我""]","[""弱我"",""强他"",""弱他"",""强我""]","","","","","","","","match","","","","","","","","","","key","j","16.664999999999903","768","428","f","false","nonmatch","img/pentagon.png","坏我","好我","prac_ALT2_moral","practice_moral","","","","","","","","",""
"null","<span style='color:red; font-size: 70px;'>错误! </span>","null","html-keyboard-response","39","303735","0.0-8.0-0.0-1.0-0.0-1.14","4","4","4","3","3","4","3","3","4","4","4","1","0","0","1","-1","0","1","0","4","4","5","4","4","3","4","4","3","4","6","6","5","6","5","7","6","5","6","5","6","2","4","4","3","6","3","4","4","1","3","3","5","4","3","6","4","4","5","4","3","6","4","4","5","5","5","5","6","5","7","5","5","7","6","7","5","7","4","6","781892112919826433","z","105","Male","[""坏我"",""好他"",""坏他"",""好我""]","[""弱我"",""强他"",""弱他"",""强我""]","","","","","","","","","","","","","","","","","","","","","","","","","","","","","","feedback_test","","","","","","","","",""
"976","","f","psychophysics","40","305712","0.0-8.0-0.0-1.0-0.0-0.15","4","4","4","3","3","4","3","3","4","4","4","1","0","0","1","-1","0","1","0","4","4","5","4","4","3","4","4","3","4","6","6","5","6","5","7","6","5","6","5","6","2","4","4","3","6","3","4","4","1","3","3","5","4","3","6","4","4","5","4","3","6","4","4","5","5","5","5","6","5","7","5","5","7","6","7","5","7","4","6","781892112919826433","z","105","Male","[""坏我"",""好他"",""坏他"",""好我""]","[""弱我"",""强他"",""弱他"",""强我""]","","","","","","","","nonmatch","","","","","","","","","","key","f","16.664102564102166","768","428","j","false","match","img/square.png","坏我","坏我","prac_ALT2_moral","practice_moral","","","","","","","","",""
"null","<span style='color:red; font-size: 70px;'>错误! </span>","null","html-keyboard-response","41","306213","0.0-8.0-0.0-1.0-0.0-1.15","4","4","4","3","3","4","3","3","4","4","4","1","0","0","1","-1","0","1","0","4","4","5","4","4","3","4","4","3","4","6","6","5","6","5","7","6","5","6","5","6","2","4","4","3","6","3","4","4","1","3","3","5","4","3","6","4","4","5","4","3","6","4","4","5","5","5","5","6","5","7","5","5","7","6","7","5","7","4","6","781892112919826433","z","105","Male","[""坏我"",""好他"",""坏他"",""好我""]","[""弱我"",""强他"",""弱他"",""强我""]","","","","","","","","","","","","","","","","","","","","","","","","","","","","","","feedback_test","","","","","","","","",""
"721","","j","psychophysics","42","307936","0.0-8.0-0.0-1.0-0.0-0.16","4","4","4","3","3","4","3","3","4","4","4","1","0","0","1","-1","0","1","0","4","4","5","4","4","3","4","4","3","4","6","6","5","6","5","7","6","5","6","5","6","2","4","4","3","6","3","4","4","1","3","3","5","4","3","6","4","4","5","4","3","6","4","4","5","5","5","5","6","5","7","5","5","7","6","7","5","7","4","6","781892112919826433","z","105","Male","[""坏我"",""好他"",""坏他"",""好我""]","[""弱我"",""强他"",""弱他"",""强我""]","","","","","","","","match","","","","","","","","","","key","j","16.66407766990314","768","428","j","true","match","img/pentagon.png","好我","好我","prac_ALT2_moral","practice_moral","","","","","","","","",""
"null","<span style='color:GreenYellow; font-size: 70px;'>正确! </span>","null","html-keyboard-response","43","308437","0.0-8.0-0.0-1.0-0.0-1.16","4","4","4","3","3","4","3","3","4","4","4","1","0","0","1","-1","0","1","0","4","4","5","4","4","3","4","4","3","4","6","6","5","6","5","7","6","5","6","5","6","2","4","4","3","6","3","4","4","1","3","3","5","4","3","6","4","4","5","4","3","6","4","4","5","5","5","5","6","5","7","5","5","7","6","7","5","7","4","6","781892112919826433","z","105","Male","[""坏我"",""好他"",""坏他"",""好我""]","[""弱我"",""强他"",""弱他"",""强我""]","","","","","","","","","","","","","","","","","","","","","","","","","","","","","","feedback_test","","","","","","","","",""
"807","","f","psychophysics","44","310245","0.0-8.0-0.0-1.0-0.0-0.17","4","4","4","3","3","4","3","3","4","4","4","1","0","0","1","-1","0","1","0","4","4","5","4","4","3","4","4","3","4","6","6","5","6","5","7","6","5","6","5","6","2","4","4","3","6","3","4","4","1","3","3","5","4","3","6","4","4","5","4","3","6","4","4","5","5","5","5","6","5","7","5","5","7","6","7","5","7","4","6","781892112919826433","z","105","Male","[""坏我"",""好他"",""坏他"",""好我""]","[""弱我"",""强他"",""弱他"",""强我""]","","","","","","","","nonmatch","","","","","","","","","","key","f","16.664485981308193","768","428","j","false","match","img/circle.png","坏他","坏他","prac_ALT2_moral","practice_moral","","","","","","","","",""
"null","<span style='color:red; font-size: 70px;'>错误! </span>","null","html-keyboard-response","45","310748","0.0-8.0-0.0-1.0-0.0-1.17","4","4","4","3","3","4","3","3","4","4","4","1","0","0","1","-1","0","1","0","4","4","5","4","4","3","4","4","3","4","6","6","5","6","5","7","6","5","6","5","6","2","4","4","3","6","3","4","4","1","3","3","5","4","3","6","4","4","5","4","3","6","4","4","5","5","5","5","6","5","7","5","5","7","6","7","5","7","4","6","781892112919826433","z","105","Male","[""坏我"",""好他"",""坏他"",""好我""]","[""弱我"",""强他"",""弱他"",""强我""]","","","","","","","","","","","","","","","","","","","","","","","","","","","","","","feedback_test","","","","","","","","",""
"939","","j","psychophysics","46","312688","0.0-8.0-0.0-1.0-0.0-0.18","4","4","4","3","3","4","3","3","4","4","4","1","0","0","1","-1","0","1","0","4","4","5","4","4","3","4","4","3","4","6","6","5","6","5","7","6","5","6","5","6","2","4","4","3","6","3","4","4","1","3","3","5","4","3","6","4","4","5","4","3","6","4","4","5","5","5","5","6","5","7","5","5","7","6","7","5","7","4","6","781892112919826433","z","105","Male","[""坏我"",""好他"",""坏他"",""好我""]","[""弱我"",""强他"",""弱他"",""强我""]","","","","","","","","match","","","","","","","","","","key","j","16.65391304347836","768","428","f","false","nonmatch","img/circle.png","坏我","坏他","prac_ALT2_moral","practice_moral","","","","","","","","",""
"null","<span style='color:red; font-size: 70px;'>错误! </span>","null","html-keyboard-response","47","313189","0.0-8.0-0.0-1.0-0.0-1.18","4","4","4","3","3","4","3","3","4","4","4","1","0","0","1","-1","0","1","0","4","4","5","4","4","3","4","4","3","4","6","6","5","6","5","7","6","5","6","5","6","2","4","4","3","6","3","4","4","1","3","3","5","4","3","6","4","4","5","4","3","6","4","4","5","5","5","5","6","5","7","5","5","7","6","7","5","7","4","6","781892112919826433","z","105","Male","[""坏我"",""好他"",""坏他"",""好我""]","[""弱我"",""强他"",""弱他"",""强我""]","","","","","","","","","","","","","","","","","","","","","","","","","","","","","","feedback_test","","","","","","","","",""
"778","","f","psychophysics","48","314968","0.0-8.0-0.0-1.0-0.0-0.19","4","4","4","3","3","4","3","3","4","4","4","1","0","0","1","-1","0","1","0","4","4","5","4","4","3","4","4","3","4","6","6","5","6","5","7","6","5","6","5","6","2","4","4","3","6","3","4","4","1","3","3","5","4","3","6","4","4","5","4","3","6","4","4","5","5","5","5","6","5","7","5","5","7","6","7","5","7","4","6","781892112919826433","z","105","Male","[""坏我"",""好他"",""坏他"",""好我""]","[""弱我"",""强他"",""弱他"",""强我""]","","","","","","","","nonmatch","","","","","","","","","","key","f","16.664150943395896","768","428","j","false","match","img/square.png","坏我","坏我","prac_ALT2_moral","practice_moral","","","","","","","","",""
"null","<span style='color:red; font-size: 70px;'>错误! </span>","null","html-keyboard-response","49","315483","0.0-8.0-0.0-1.0-0.0-1.19","4","4","4","3","3","4","3","3","4","4","4","1","0","0","1","-1","0","1","0","4","4","5","4","4","3","4","4","3","4","6","6","5","6","5","7","6","5","6","5","6","2","4","4","3","6","3","4","4","1","3","3","5","4","3","6","4","4","5","4","3","6","4","4","5","5","5","5","6","5","7","5","5","7","6","7","5","7","4","6","781892112919826433","z","105","Male","[""坏我"",""好他"",""坏他"",""好我""]","[""弱我"",""强他"",""弱他"",""强我""]","","","","","","","","","","","","","","","","","","","","","","","","","","","","","","feedback_test","","","","","","","","",""
"1081","","f","psychophysics","50","317565","0.0-8.0-0.0-1.0-0.0-0.20","4","4","4","3","3","4","3","3","4","4","4","1","0","0","1","-1","0","1","0","4","4","5","4","4","3","4","4","3","4","6","6","5","6","5","7","6","5","6","5","6","2","4","4","3","6","3","4","4","1","3","3","5","4","3","6","4","4","5","4","3","6","4","4","5","5","5","5","6","5","7","5","5","7","6","7","5","7","4","6","781892112919826433","z","105","Male","[""坏我"",""好他"",""坏他"",""好我""]","[""弱我"",""强他"",""弱他"",""强我""]","","","","","","","","nonmatch","","","","","","","","","","key","f","16.664516129031977","768","428","j","false","match","img/trapezoid.png","好他","好他","prac_ALT2_moral","practice_moral","","","","","","","","",""
"null","<span style='color:red; font-size: 70px;'>错误! </span>","null","html-keyboard-response","51","318067","0.0-8.0-0.0-1.0-0.0-1.20","4","4","4","3","3","4","3","3","4","4","4","1","0","0","1","-1","0","1","0","4","4","5","4","4","3","4","4","3","4","6","6","5","6","5","7","6","5","6","5","6","2","4","4","3","6","3","4","4","1","3","3","5","4","3","6","4","4","5","4","3","6","4","4","5","5","5","5","6","5","7","5","5","7","6","7","5","7","4","6","781892112919826433","z","105","Male","[""坏我"",""好他"",""坏他"",""好我""]","[""弱我"",""强他"",""弱他"",""强我""]","","","","","","","","","","","","","","","","","","","","","","","","","","","","","","feedback_test","","","","","","","","",""
"1104","","j","psychophysics","52","320172","0.0-8.0-0.0-1.0-0.0-0.21","4","4","4","3","3","4","3","3","4","4","4","1","0","0","1","-1","0","1","0","4","4","5","4","4","3","4","4","3","4","6","6","5","6","5","7","6","5","6","5","6","2","4","4","3","6","3","4","4","1","3","3","5","4","3","6","4","4","5","4","3","6","4","4","5","5","5","5","6","5","7","5","5","7","6","7","5","7","4","6","781892112919826433","z","105","Male","[""坏我"",""好他"",""坏他"",""好我""]","[""弱我"",""强他"",""弱他"",""强我""]","","","","","","","","match","","","","","","","","","","key","j","16.664799999999815","768","428","f","false","nonmatch","img/circle.png","好我","坏他","prac_ALT2_moral","practice_moral","","","","","","","","",""
"null","<span style='color:red; font-size: 70px;'>错误! </span>","null","html-keyboard-response","53","320673","0.0-8.0-0.0-1.0-0.0-1.21","4","4","4","3","3","4","3","3","4","4","4","1","0","0","1","-1","0","1","0","4","4","5","4","4","3","4","4","3","4","6","6","5","6","5","7","6","5","6","5","6","2","4","4","3","6","3","4","4","1","3","3","5","4","3","6","4","4","5","4","3","6","4","4","5","5","5","5","6","5","7","5","5","7","6","7","5","7","4","6","781892112919826433","z","105","Male","[""坏我"",""好他"",""坏他"",""好我""]","[""弱我"",""强他"",""弱他"",""强我""]","","","","","","","","","","","","","","","","","","","","","","","","","","","","","","feedback_test","","","","","","","","",""
"1035","","j","psychophysics","54","322710","0.0-8.0-0.0-1.0-0.0-0.22","4","4","4","3","3","4","3","3","4","4","4","1","0","0","1","-1","0","1","0","4","4","5","4","4","3","4","4","3","4","6","6","5","6","5","7","6","5","6","5","6","2","4","4","3","6","3","4","4","1","3","3","5","4","3","6","4","4","5","4","3","6","4","4","5","5","5","5","6","5","7","5","5","7","6","7","5","7","4","6","781892112919826433","z","105","Male","[""坏我"",""好他"",""坏他"",""好我""]","[""弱我"",""强他"",""弱他"",""强我""]","","","","","","","","match","","","","","","","","","","key","j","16.665289256198346","768","428","f","false","nonmatch","img/square.png","好他","坏我","prac_ALT2_moral","practice_moral","","","","","","","","",""
"null","<span style='color:red; font-size: 70px;'>错误! </span>","null","html-keyboard-response","55","323211","0.0-8.0-0.0-1.0-0.0-1.22","4","4","4","3","3","4","3","3","4","4","4","1","0","0","1","-1","0","1","0","4","4","5","4","4","3","4","4","3","4","6","6","5","6","5","7","6","5","6","5","6","2","4","4","3","6","3","4","4","1","3","3","5","4","3","6","4","4","5","4","3","6","4","4","5","5","5","5","6","5","7","5","5","7","6","7","5","7","4","6","781892112919826433","z","105","Male","[""坏我"",""好他"",""坏他"",""好我""]","[""弱我"",""强他"",""弱他"",""强我""]","","","","","","","","","","","","","","","","","","","","","","","","","","","","","","feedback_test","","","","","","","","",""
"405","","f","psychophysics","56","324618","0.0-8.0-0.0-1.0-0.0-0.23","4","4","4","3","3","4","3","3","4","4","4","1","0","0","1","-1","0","1","0","4","4","5","4","4","3","4","4","3","4","6","6","5","6","5","7","6","5","6","5","6","2","4","4","3","6","3","4","4","1","3","3","5","4","3","6","4","4","5","4","3","6","4","4","5","5","5","5","6","5","7","5","5","7","6","7","5","7","4","6","781892112919826433","z","105","Male","[""坏我"",""好他"",""坏他"",""好我""]","[""弱我"",""强他"",""弱他"",""强我""]","","","","","","","","nonmatch","","","","","","","","","","key","f","16.663095238095377","768","428","j","false","match","img/circle.png","坏他","坏他","prac_ALT2_moral","practice_moral","","","","","","","","",""
"null","<span style='color:red; font-size: 70px;'>错误! </span>","null","html-keyboard-response","57","325119","0.0-8.0-0.0-1.0-0.0-1.23","4","4","4","3","3","4","3","3","4","4","4","1","0","0","1","-1","0","1","0","4","4","5","4","4","3","4","4","3","4","6","6","5","6","5","7","6","5","6","5","6","2","4","4","3","6","3","4","4","1","3","3","5","4","3","6","4","4","5","4","3","6","4","4","5","5","5","5","6","5","7","5","5","7","6","7","5","7","4","6","781892112919826433","z","105","Male","[""坏我"",""好他"",""坏他"",""好我""]","[""弱我"",""强他"",""弱他"",""强我""]","","","","","","","","","","","","","","","","","","","","","","","","","","","","","","feedback_test","","","","","","","","",""
"1072","","j","psychophysics","58","327193","0.0-8.0-0.0-1.0-0.0-0.24","4","4","4","3","3","4","3","3","4","4","4","1","0","0","1","-1","0","1","0","4","4","5","4","4","3","4","4","3","4","6","6","5","6","5","7","6","5","6","5","6","2","4","4","3","6","3","4","4","1","3","3","5","4","3","6","4","4","5","4","3","6","4","4","5","5","5","5","6","5","7","5","5","7","6","7","5","7","4","6","781892112919826433","z","105","Male","[""坏我"",""好他"",""坏他"",""好我""]","[""弱我"",""强他"",""弱他"",""强我""]","","","","","","","","match","","","","","","","","","","key","j","16.66422764227652","768","428","f","false","nonmatch","img/circle.png","坏我","坏他","prac_ALT2_moral","practice_moral","","","","","","","","",""
"null","<span style='color:red; font-size: 70px;'>错误! </span>","null","html-keyboard-response","59","327694","0.0-8.0-0.0-1.0-0.0-1.24","4","4","4","3","3","4","3","3","4","4","4","1","0","0","1","-1","0","1","0","4","4","5","4","4","3","4","4","3","4","6","6","5","6","5","7","6","5","6","5","6","2","4","4","3","6","3","4","4","1","3","3","5","4","3","6","4","4","5","4","3","6","4","4","5","5","5","5","6","5","7","5","5","7","6","7","5","7","4","6","781892112919826433","z","105","Male","[""坏我"",""好他"",""坏他"",""好我""]","[""弱我"",""强他"",""弱他"",""强我""]","","","","","","","","","","","","","","","","","","","","","","","","","","","","","","feedback_test","","","","","","","","",""
"688","","f","psychophysics","60","329384","0.0-8.0-0.0-1.0-0.0-0.25","4","4","4","3","3","4","3","3","4","4","4","1","0","0","1","-1","0","1","0","4","4","5","4","4","3","4","4","3","4","6","6","5","6","5","7","6","5","6","5","6","2","4","4","3","6","3","4","4","1","3","3","5","4","3","6","4","4","5","4","3","6","4","4","5","5","5","5","6","5","7","5","5","7","6","7","5","7","4","6","781892112919826433","z","105","Male","[""坏我"",""好他"",""坏他"",""好我""]","[""弱我"",""强他"",""弱他"",""强我""]","","","","","","","","nonmatch","","","","","","","","","","key","f","16.66435643564391","768","428","j","false","match","img/trapezoid.png","好他","好他","prac_ALT2_moral","practice_moral","","","","","","","","",""
"null","<span style='color:red; font-size: 70px;'>错误! </span>","null","html-keyboard-response","61","329885","0.0-8.0-0.0-1.0-0.0-1.25","4","4","4","3","3","4","3","3","4","4","4","1","0","0","1","-1","0","1","0","4","4","5","4","4","3","4","4","3","4","6","6","5","6","5","7","6","5","6","5","6","2","4","4","3","6","3","4","4","1","3","3","5","4","3","6","4","4","5","4","3","6","4","4","5","5","5","5","6","5","7","5","5","7","6","7","5","7","4","6","781892112919826433","z","105","Male","[""坏我"",""好他"",""坏他"",""好我""]","[""弱我"",""强他"",""弱他"",""强我""]","","","","","","","","","","","","","","","","","","","","","","","","","","","","","","feedback_test","","","","","","","","",""
"878","","j","psychophysics","62","331764","0.0-8.0-0.0-1.0-0.0-0.26","4","4","4","3","3","4","3","3","4","4","4","1","0","0","1","-1","0","1","0","4","4","5","4","4","3","4","4","3","4","6","6","5","6","5","7","6","5","6","5","6","2","4","4","3","6","3","4","4","1","3","3","5","4","3","6","4","4","5","4","3","6","4","4","5","5","5","5","6","5","7","5","5","7","6","7","5","7","4","6","781892112919826433","z","105","Male","[""坏我"",""好他"",""坏他"",""好我""]","[""弱我"",""强他"",""弱他"",""强我""]","","","","","","","","match","","","","","","","","","","key","j","16.66607142857122","768","428","j","true","match","img/square.png","坏我","坏我","prac_ALT2_moral","practice_moral","","","","","","","","",""
"null","<span style='color:GreenYellow; font-size: 70px;'>正确! </span>","null","html-keyboard-response","63","332265","0.0-8.0-0.0-1.0-0.0-1.26","4","4","4","3","3","4","3","3","4","4","4","1","0","0","1","-1","0","1","0","4","4","5","4","4","3","4","4","3","4","6","6","5","6","5","7","6","5","6","5","6","2","4","4","3","6","3","4","4","1","3","3","5","4","3","6","4","4","5","4","3","6","4","4","5","5","5","5","6","5","7","5","5","7","6","7","5","7","4","6","781892112919826433","z","105","Male","[""坏我"",""好他"",""坏他"",""好我""]","[""弱我"",""强他"",""弱他"",""强我""]","","","","","","","","","","","","","","","","","","","","","","","","","","","","","","feedback_test","","","","","","","","",""
"589","","j","psychophysics","64","333856","0.0-8.0-0.0-1.0-0.0-0.27","4","4","4","3","3","4","3","3","4","4","4","1","0","0","1","-1","0","1","0","4","4","5","4","4","3","4","4","3","4","6","6","5","6","5","7","6","5","6","5","6","2","4","4","3","6","3","4","4","1","3","3","5","4","3","6","4","4","5","4","3","6","4","4","5","5","5","5","6","5","7","5","5","7","6","7","5","7","4","6","781892112919826433","z","105","Male","[""坏我"",""好他"",""坏他"",""好我""]","[""弱我"",""强他"",""弱他"",""强我""]","","","","","","","","match","","","","","","","","","","key","j","16.664893617021278","768","428","j","true","match","img/pentagon.png","好我","好我","prac_ALT2_moral","practice_moral","","","","","","","","",""
"null","<span style='color:GreenYellow; font-size: 70px;'>正确! </span>","null","html-keyboard-response","65","334357","0.0-8.0-0.0-1.0-0.0-1.27","4","4","4","3","3","4","3","3","4","4","4","1","0","0","1","-1","0","1","0","4","4","5","4","4","3","4","4","3","4","6","6","5","6","5","7","6","5","6","5","6","2","4","4","3","6","3","4","4","1","3","3","5","4","3","6","4","4","5","4","3","6","4","4","5","5","5","5","6","5","7","5","5","7","6","7","5","7","4","6","781892112919826433","z","105","Male","[""坏我"",""好他"",""坏他"",""好我""]","[""弱我"",""强他"",""弱他"",""强我""]","","","","","","","","","","","","","","","","","","","","","","","","","","","","","","feedback_test","","","","","","","","",""
"593","","j","psychophysics","66","335952","0.0-8.0-0.0-1.0-0.0-0.28","4","4","4","3","3","4","3","3","4","4","4","1","0","0","1","-1","0","1","0","4","4","5","4","4","3","4","4","3","4","6","6","5","6","5","7","6","5","6","5","6","2","4","4","3","6","3","4","4","1","3","3","5","4","3","6","4","4","5","4","3","6","4","4","5","5","5","5","6","5","7","5","5","7","6","7","5","7","4","6","781892112919826433","z","105","Male","[""坏我"",""好他"",""坏他"",""好我""]","[""弱我"",""强他"",""弱他"",""强我""]","","","","","","","","match","","","","","","","","","","key","j","16.66526315789486","768","428","j","true","match","img/square.png","坏我","坏我","prac_ALT2_moral","practice_moral","","","","","","","","",""
"null","<span style='color:GreenYellow; font-size: 70px;'>正确! </span>","null","html-keyboard-response","67","336453","0.0-8.0-0.0-1.0-0.0-1.28","4","4","4","3","3","4","3","3","4","4","4","1","0","0","1","-1","0","1","0","4","4","5","4","4","3","4","4","3","4","6","6","5","6","5","7","6","5","6","5","6","2","4","4","3","6","3","4","4","1","3","3","5","4","3","6","4","4","5","4","3","6","4","4","5","5","5","5","6","5","7","5","5","7","6","7","5","7","4","6","781892112919826433","z","105","Male","[""坏我"",""好他"",""坏他"",""好我""]","[""弱我"",""强他"",""弱他"",""强我""]","","","","","","","","","","","","","","","","","","","","","","","","","","","","","","feedback_test","","","","","","","","",""
"927","","f","psychophysics","68","338381","0.0-8.0-0.0-1.0-0.0-0.29","4","4","4","3","3","4","3","3","4","4","4","1","0","0","1","-1","0","1","0","4","4","5","4","4","3","4","4","3","4","6","6","5","6","5","7","6","5","6","5","6","2","4","4","3","6","3","4","4","1","3","3","5","4","3","6","4","4","5","4","3","6","4","4","5","5","5","5","6","5","7","5","5","7","6","7","5","7","4","6","781892112919826433","z","105","Male","[""坏我"",""好他"",""坏他"",""好我""]","[""弱我"",""强他"",""弱他"",""强我""]","","","","","","","","nonmatch","","","","","","","","","","key","f","16.66521739130435","768","428","f","true","nonmatch","img/trapezoid.png","坏我","好他","prac_ALT2_moral","practice_moral","","","","","","","","",""
"null","<span style='color:GreenYellow; font-size: 70px;'>正确! </span>","null","html-keyboard-response","69","338882","0.0-8.0-0.0-1.0-0.0-1.29","4","4","4","3","3","4","3","3","4","4","4","1","0","0","1","-1","0","1","0","4","4","5","4","4","3","4","4","3","4","6","6","5","6","5","7","6","5","6","5","6","2","4","4","3","6","3","4","4","1","3","3","5","4","3","6","4","4","5","4","3","6","4","4","5","5","5","5","6","5","7","5","5","7","6","7","5","7","4","6","781892112919826433","z","105","Male","[""坏我"",""好他"",""坏他"",""好我""]","[""弱我"",""强他"",""弱他"",""强我""]","","","","","","","","","","","","","","","","","","","","","","","","","","","","","","feedback_test","","","","","","","","",""
"941","","f","psychophysics","70","340824","0.0-8.0-0.0-1.0-0.0-0.30","4","4","4","3","3","4","3","3","4","4","4","1","0","0","1","-1","0","1","0","4","4","5","4","4","3","4","4","3","4","6","6","5","6","5","7","6","5","6","5","6","2","4","4","3","6","3","4","4","1","3","3","5","4","3","6","4","4","5","4","3","6","4","4","5","5","5","5","6","5","7","5","5","7","6","7","5","7","4","6","781892112919826433","z","105","Male","[""坏我"",""好他"",""坏他"",""好我""]","[""弱我"",""强他"",""弱他"",""强我""]","","","","","","","","nonmatch","","","","","","","","","","key","f","16.66434782608716","768","428","f","true","nonmatch","img/square.png","好他","坏我","prac_ALT2_moral","practice_moral","","","","","","","","",""
"null","<span style='color:GreenYellow; font-size: 70px;'>正确! </span>","null","html-keyboard-response","71","341325","0.0-8.0-0.0-1.0-0.0-1.30","4","4","4","3","3","4","3","3","4","4","4","1","0","0","1","-1","0","1","0","4","4","5","4","4","3","4","4","3","4","6","6","5","6","5","7","6","5","6","5","6","2","4","4","3","6","3","4","4","1","3","3","5","4","3","6","4","4","5","4","3","6","4","4","5","5","5","5","6","5","7","5","5","7","6","7","5","7","4","6","781892112919826433","z","105","Male","[""坏我"",""好他"",""坏他"",""好我""]","[""弱我"",""强他"",""弱他"",""强我""]","","","","","","","","","","","","","","","","","","","","","","","","","","","","","","feedback_test","","","","","","","","",""
"730","","j","psychophysics","72","343057","0.0-8.0-0.0-1.0-0.0-0.31","4","4","4","3","3","4","3","3","4","4","4","1","0","0","1","-1","0","1","0","4","4","5","4","4","3","4","4","3","4","6","6","5","6","5","7","6","5","6","5","6","2","4","4","3","6","3","4","4","1","3","3","5","4","3","6","4","4","5","4","3","6","4","4","5","5","5","5","6","5","7","5","5","7","6","7","5","7","4","6","781892112919826433","z","105","Male","[""坏我"",""好他"",""坏他"",""好我""]","[""弱我"",""强他"",""弱他"",""强我""]","","","","","","","","match","","","","","","","","","","key","j","16.66407766990314","768","428","j","true","match","img/pentagon.png","好我","好我","prac_ALT2_moral","practice_moral","","","","","","","","",""
"null","<span style='color:GreenYellow; font-size: 70px;'>正确! </span>","null","html-keyboard-response","73","343558","0.0-8.0-0.0-1.0-0.0-1.31","4","4","4","3","3","4","3","3","4","4","4","1","0","0","1","-1","0","1","0","4","4","5","4","4","3","4","4","3","4","6","6","5","6","5","7","6","5","6","5","6","2","4","4","3","6","3","4","4","1","3","3","5","4","3","6","4","4","5","4","3","6","4","4","5","5","5","5","6","5","7","5","5","7","6","7","5","7","4","6","781892112919826433","z","105","Male","[""坏我"",""好他"",""坏他"",""好我""]","[""弱我"",""强他"",""弱他"",""强我""]","","","","","","","","","","","","","","","","","","","","","","","","","","","","","","feedback_test","","","","","","","","",""
"735","","f","psychophysics","74","345296","0.0-8.0-0.0-1.0-0.0-0.32","4","4","4","3","3","4","3","3","4","4","4","1","0","0","1","-1","0","1","0","4","4","5","4","4","3","4","4","3","4","6","6","5","6","5","7","6","5","6","5","6","2","4","4","3","6","3","4","4","1","3","3","5","4","3","6","4","4","5","4","3","6","4","4","5","5","5","5","6","5","7","5","5","7","6","7","5","7","4","6","781892112919826433","z","105","Male","[""坏我"",""好他"",""坏他"",""好我""]","[""弱我"",""强他"",""弱他"",""强我""]","","","","","","","","nonmatch","","","","","","","","","","key","f","16.665384615384728","768","428","f","true","nonmatch","img/pentagon.png","坏他","好我","prac_ALT2_moral","practice_moral","","","","","","","","",""
"null","<span style='color:GreenYellow; font-size: 70px;'>正确! </span>","null","html-keyboard-response","75","345798","0.0-8.0-0.0-1.0-0.0-1.32","4","4","4","3","3","4","3","3","4","4","4","1","0","0","1","-1","0","1","0","4","4","5","4","4","3","4","4","3","4","6","6","5","6","5","7","6","5","6","5","6","2","4","4","3","6","3","4","4","1","3","3","5","4","3","6","4","4","5","4","3","6","4","4","5","5","5","5","6","5","7","5","5","7","6","7","5","7","4","6","781892112919826433","z","105","Male","[""坏我"",""好他"",""坏他"",""好我""]","[""弱我"",""强他"",""弱他"",""强我""]","","","","","","","","","","","","","","","","","","","","","","","","","","","","","","feedback_test","","","","","","","","",""
"798","","f","psychophysics","76","347598","0.0-8.0-0.0-1.0-0.0-0.33","4","4","4","3","3","4","3","3","4","4","4","1","0","0","1","-1","0","1","0","4","4","5","4","4","3","4","4","3","4","6","6","5","6","5","7","6","5","6","5","6","2","4","4","3","6","3","4","4","1","3","3","5","4","3","6","4","4","5","4","3","6","4","4","5","5","5","5","6","5","7","5","5","7","6","7","5","7","4","6","781892112919826433","z","105","Male","[""坏我"",""好他"",""坏他"",""好我""]","[""弱我"",""强他"",""弱他"",""强我""]","","","","","","","","nonmatch","","","","","","","","","","key","f","16.665420560747773","768","428","j","false","match","img/circle.png","坏他","坏他","prac_ALT2_moral","practice_moral","","","","","","","","",""
"null","<span style='color:red; font-size: 70px;'>错误! </span>","null","html-keyboard-response","77","348098","0.0-8.0-0.0-1.0-0.0-1.33","4","4","4","3","3","4","3","3","4","4","4","1","0","0","1","-1","0","1","0","4","4","5","4","4","3","4","4","3","4","6","6","5","6","5","7","6","5","6","5","6","2","4","4","3","6","3","4","4","1","3","3","5","4","3","6","4","4","5","4","3","6","4","4","5","5","5","5","6","5","7","5","5","7","6","7","5","7","4","6","781892112919826433","z","105","Male","[""坏我"",""好他"",""坏他"",""好我""]","[""弱我"",""强他"",""弱他"",""强我""]","","","","","","","","","","","","","","","","","","","","","","","","","","","","","","feedback_test","","","","","","","","",""
"1052","","j","psychophysics","78","350152","0.0-8.0-0.0-1.0-0.0-0.34","4","4","4","3","3","4","3","3","4","4","4","1","0","0","1","-1","0","1","0","4","4","5","4","4","3","4","4","3","4","6","6","5","6","5","7","6","5","6","5","6","2","4","4","3","6","3","4","4","1","3","3","5","4","3","6","4","4","5","4","3","6","4","4","5","5","5","5","6","5","7","5","5","7","6","7","5","7","4","6","781892112919826433","z","105","Male","[""坏我"",""好他"",""坏他"",""好我""]","[""弱我"",""强他"",""弱他"",""强我""]","","","","","","","","match","","","","","","","","","","key","j","16.66475409836094","768","428","f","false","nonmatch","img/square.png","好我","坏我","prac_ALT2_moral","practice_moral","","","","","","","","",""
"null","<span style='color:red; font-size: 70px;'>错误! </span>","null","html-keyboard-response","79","350653","0.0-8.0-0.0-1.0-0.0-1.34","4","4","4","3","3","4","3","3","4","4","4","1","0","0","1","-1","0","1","0","4","4","5","4","4","3","4","4","3","4","6","6","5","6","5","7","6","5","6","5","6","2","4","4","3","6","3","4","4","1","3","3","5","4","3","6","4","4","5","4","3","6","4","4","5","5","5","5","6","5","7","5","5","7","6","7","5","7","4","6","781892112919826433","z","105","Male","[""坏我"",""好他"",""坏他"",""好我""]","[""弱我"",""强他"",""弱他"",""强我""]","","","","","","","","","","","","","","","","","","","","","","","","","","","","","","feedback_test","","","","","","","","",""
"673","","f","psychophysics","80","352328","0.0-8.0-0.0-1.0-0.0-0.35","4","4","4","3","3","4","3","3","4","4","4","1","0","0","1","-1","0","1","0","4","4","5","4","4","3","4","4","3","4","6","6","5","6","5","7","6","5","6","5","6","2","4","4","3","6","3","4","4","1","3","3","5","4","3","6","4","4","5","4","3","6","4","4","5","5","5","5","6","5","7","5","5","7","6","7","5","7","4","6","781892112919826433","z","105","Male","[""坏我"",""好他"",""坏他"",""好我""]","[""弱我"",""强他"",""弱他"",""强我""]","","","","","","","","nonmatch","","","","","","","","","","key","f","16.665","768","428","j","false","match","img/circle.png","坏他","坏他","prac_ALT2_moral","practice_moral","","","","","","","","",""
"null","<span style='color:red; font-size: 70px;'>错误! </span>","null","html-keyboard-response","81","352830","0.0-8.0-0.0-1.0-0.0-1.35","4","4","4","3","3","4","3","3","4","4","4","1","0","0","1","-1","0","1","0","4","4","5","4","4","3","4","4","3","4","6","6","5","6","5","7","6","5","6","5","6","2","4","4","3","6","3","4","4","1","3","3","5","4","3","6","4","4","5","4","3","6","4","4","5","5","5","5","6","5","7","5","5","7","6","7","5","7","4","6","781892112919826433","z","105","Male","[""坏我"",""好他"",""坏他"",""好我""]","[""弱我"",""强他"",""弱他"",""强我""]","","","","","","","","","","","","","","","","","","","","","","","","","","","","","","feedback_test","","","","","","","","",""
"927","","j","psychophysics","82","354757","0.0-8.0-0.0-1.0-0.0-0.36","4","4","4","3","3","4","3","3","4","4","4","1","0","0","1","-1","0","1","0","4","4","5","4","4","3","4","4","3","4","6","6","5","6","5","7","6","5","6","5","6","2","4","4","3","6","3","4","4","1","3","3","5","4","3","6","4","4","5","4","3","6","4","4","5","5","5","5","6","5","7","5","5","7","6","7","5","7","4","6","781892112919826433","z","105","Male","[""坏我"",""好他"",""坏他"",""好我""]","[""弱我"",""强他"",""弱他"",""强我""]","","","","","","","","match","","","","","","","","","","key","j","16.6640350877194","768","428","f","false","nonmatch","img/circle.png","好我","坏他","prac_ALT2_moral","practice_moral","","","","","","","","",""
"null","<span style='color:red; font-size: 70px;'>错误! </span>","null","html-keyboard-response","83","355258","0.0-8.0-0.0-1.0-0.0-1.36","4","4","4","3","3","4","3","3","4","4","4","1","0","0","1","-1","0","1","0","4","4","5","4","4","3","4","4","3","4","6","6","5","6","5","7","6","5","6","5","6","2","4","4","3","6","3","4","4","1","3","3","5","4","3","6","4","4","5","4","3","6","4","4","5","5","5","5","6","5","7","5","5","7","6","7","5","7","4","6","781892112919826433","z","105","Male","[""坏我"",""好他"",""坏他"",""好我""]","[""弱我"",""强他"",""弱他"",""强我""]","","","","","","","","","","","","","","","","","","","","","","","","","","","","","","feedback_test","","","","","","","","",""
"1075","","f","psychophysics","84","357334","0.0-8.0-0.0-1.0-0.0-0.37","4","4","4","3","3","4","3","3","4","4","4","1","0","0","1","-1","0","1","0","4","4","5","4","4","3","4","4","3","4","6","6","5","6","5","7","6","5","6","5","6","2","4","4","3","6","3","4","4","1","3","3","5","4","3","6","4","4","5","4","3","6","4","4","5","5","5","5","6","5","7","5","5","7","6","7","5","7","4","6","781892112919826433","z","105","Male","[""坏我"",""好他"",""坏他"",""好我""]","[""弱我"",""强他"",""弱他"",""强我""]","","","","","","","","nonmatch","","","","","","","","","","key","f","16.65447154471545","768","428","f","true","nonmatch","img/pentagon.png","坏我","好我","prac_ALT2_moral","practice_moral","","","","","","","","",""
"null","<span style='color:GreenYellow; font-size: 70px;'>正确! </span>","null","html-keyboard-response","85","357836","0.0-8.0-0.0-1.0-0.0-1.37","4","4","4","3","3","4","3","3","4","4","4","1","0","0","1","-1","0","1","0","4","4","5","4","4","3","4","4","3","4","6","6","5","6","5","7","6","5","6","5","6","2","4","4","3","6","3","4","4","1","3","3","5","4","3","6","4","4","5","4","3","6","4","4","5","5","5","5","6","5","7","5","5","7","6","7","5","7","4","6","781892112919826433","z","105","Male","[""坏我"",""好他"",""坏他"",""好我""]","[""弱我"",""强他"",""弱他"",""强我""]","","","","","","","","","","","","","","","","","","","","","","","","","","","","","","feedback_test","","","","","","","","",""
"637","","j","psychophysics","86","359476","0.0-8.0-0.0-1.0-0.0-0.38","4","4","4","3","3","4","3","3","4","4","4","1","0","0","1","-1","0","1","0","4","4","5","4","4","3","4","4","3","4","6","6","5","6","5","7","6","5","6","5","6","2","4","4","3","6","3","4","4","1","3","3","5","4","3","6","4","4","5","4","3","6","4","4","5","5","5","5","6","5","7","5","5","7","6","7","5","7","4","6","781892112919826433","z","105","Male","[""坏我"",""好他"",""坏他"",""好我""]","[""弱我"",""强他"",""弱他"",""强我""]","","","","","","","","match","","","","","","","","","","key","j","16.6653061224491","768","428","j","true","match","img/pentagon.png","好我","好我","prac_ALT2_moral","practice_moral","","","","","","","","",""
"null","<span style='color:GreenYellow; font-size: 70px;'>正确! </span>","null","html-keyboard-response","87","359977","0.0-8.0-0.0-1.0-0.0-1.38","4","4","4","3","3","4","3","3","4","4","4","1","0","0","1","-1","0","1","0","4","4","5","4","4","3","4","4","3","4","6","6","5","6","5","7","6","5","6","5","6","2","4","4","3","6","3","4","4","1","3","3","5","4","3","6","4","4","5","4","3","6","4","4","5","5","5","5","6","5","7","5","5","7","6","7","5","7","4","6","781892112919826433","z","105","Male","[""坏我"",""好他"",""坏他"",""好我""]","[""弱我"",""强他"",""弱他"",""强我""]","","","","","","","","","","","","","","","","","","","","","","","","","","","","","","feedback_test","","","","","","","","",""
"1061","","j","psychophysics","88","362040","0.0-8.0-0.0-1.0-0.0-0.39","4","4","4","3","3","4","3","3","4","4","4","1","0","0","1","-1","0","1","0","4","4","5","4","4","3","4","4","3","4","6","6","5","6","5","7","6","5","6","5","6","2","4","4","3","6","3","4","4","1","3","3","5","4","3","6","4","4","5","4","3","6","4","4","5","5","5","5","6","5","7","5","5","7","6","7","5","7","4","6","781892112919826433","z","105","Male","[""坏我"",""好他"",""坏他"",""好我""]","[""弱我"",""强他"",""弱他"",""强我""]","","","","","","","","match","","","","","","","","","","key","j","16.664754098360465","768","428","f","false","nonmatch","img/trapezoid.png","坏他","好他","prac_ALT2_moral","practice_moral","","","","","","","","",""
"null","<span style='color:red; font-size: 70px;'>错误! </span>","null","html-keyboard-response","89","362541","0.0-8.0-0.0-1.0-0.0-1.39","4","4","4","3","3","4","3","3","4","4","4","1","0","0","1","-1","0","1","0","4","4","5","4","4","3","4","4","3","4","6","6","5","6","5","7","6","5","6","5","6","2","4","4","3","6","3","4","4","1","3","3","5","4","3","6","4","4","5","4","3","6","4","4","5","5","5","5","6","5","7","5","5","7","6","7","5","7","4","6","781892112919826433","z","105","Male","[""坏我"",""好他"",""坏他"",""好我""]","[""弱我"",""强他"",""弱他"",""强我""]","","","","","","","","","","","","","","","","","","","","","","","","","","","","","","feedback_test","","","","","","","","",""
"690","","f","psychophysics","90","364232","0.0-8.0-0.0-1.0-0.0-0.40","4","4","4","3","3","4","3","3","4","4","4","1","0","0","1","-1","0","1","0","4","4","5","4","4","3","4","4","3","4","6","6","5","6","5","7","6","5","6","5","6","2","4","4","3","6","3","4","4","1","3","3","5","4","3","6","4","4","5","4","3","6","4","4","5","5","5","5","6","5","7","5","5","7","6","7","5","7","4","6","781892112919826433","z","105","Male","[""坏我"",""好他"",""坏他"",""好我""]","[""弱我"",""强他"",""弱他"",""强我""]","","","","","","","","nonmatch","","","","","","","","","","key","f","16.66","768","428","j","false","match","img/trapezoid.png","好他","好他","prac_ALT2_moral","practice_moral","","","","","","","","",""
"null","<span style='color:red; font-size: 70px;'>错误! </span>","null","html-keyboard-response","91","364734","0.0-8.0-0.0-1.0-0.0-1.40","4","4","4","3","3","4","3","3","4","4","4","1","0","0","1","-1","0","1","0","4","4","5","4","4","3","4","4","3","4","6","6","5","6","5","7","6","5","6","5","6","2","4","4","3","6","3","4","4","1","3","3","5","4","3","6","4","4","5","4","3","6","4","4","5","5","5","5","6","5","7","5","5","7","6","7","5","7","4","6","781892112919826433","z","105","Male","[""坏我"",""好他"",""坏他"",""好我""]","[""弱我"",""强他"",""弱他"",""强我""]","","","","","","","","","","","","","","","","","","","","","","","","","","","","","","feedback_test","","","","","","","","",""
"584","","j","psychophysics","92","366321","0.0-8.0-0.0-1.0-0.0-0.41","4","4","4","3","3","4","3","3","4","4","4","1","0","0","1","-1","0","1","0","4","4","5","4","4","3","4","4","3","4","6","6","5","6","5","7","6","5","6","5","6","2","4","4","3","6","3","4","4","1","3","3","5","4","3","6","4","4","5","4","3","6","4","4","5","5","5","5","6","5","7","5","5","7","6","7","5","7","4","6","781892112919826433","z","105","Male","[""坏我"",""好他"",""坏他"",""好我""]","[""弱我"",""强他"",""弱他"",""强我""]","","","","","","","","match","","","","","","","","","","key","j","16.667021276595868","768","428","j","true","match","img/trapezoid.png","好他","好他","prac_ALT2_moral","practice_moral","","","","","","","","",""
"null","<span style='color:GreenYellow; font-size: 70px;'>正确! </span>","null","html-keyboard-response","93","366824","0.0-8.0-0.0-1.0-0.0-1.41","4","4","4","3","3","4","3","3","4","4","4","1","0","0","1","-1","0","1","0","4","4","5","4","4","3","4","4","3","4","6","6","5","6","5","7","6","5","6","5","6","2","4","4","3","6","3","4","4","1","3","3","5","4","3","6","4","4","5","4","3","6","4","4","5","5","5","5","6","5","7","5","5","7","6","7","5","7","4","6","781892112919826433","z","105","Male","[""坏我"",""好他"",""坏他"",""好我""]","[""弱我"",""强他"",""弱他"",""强我""]","","","","","","","","","","","","","","","","","","","","","","","","","","","","","","feedback_test","","","","","","","","",""
"770","","f","psychophysics","94","368595","0.0-8.0-0.0-1.0-0.0-0.42","4","4","4","3","3","4","3","3","4","4","4","1","0","0","1","-1","0","1","0","4","4","5","4","4","3","4","4","3","4","6","6","5","6","5","7","6","5","6","5","6","2","4","4","3","6","3","4","4","1","3","3","5","4","3","6","4","4","5","4","3","6","4","4","5","5","5","5","6","5","7","5","5","7","6","7","5","7","4","6","781892112919826433","z","105","Male","[""坏我"",""好他"",""坏他"",""好我""]","[""弱我"",""强他"",""弱他"",""强我""]","","","","","","","","nonmatch","","","","","","","","","","key","f","16.65714285714286","768","428","f","true","nonmatch","img/circle.png","好他","坏他","prac_ALT2_moral","practice_moral","","","","","","","","",""
"null","<span style='color:GreenYellow; font-size: 70px;'>正确! </span>","null","html-keyboard-response","95","369098","0.0-8.0-0.0-1.0-0.0-1.42","4","4","4","3","3","4","3","3","4","4","4","1","0","0","1","-1","0","1","0","4","4","5","4","4","3","4","4","3","4","6","6","5","6","5","7","6","5","6","5","6","2","4","4","3","6","3","4","4","1","3","3","5","4","3","6","4","4","5","4","3","6","4","4","5","5","5","5","6","5","7","5","5","7","6","7","5","7","4","6","781892112919826433","z","105","Male","[""坏我"",""好他"",""坏他"",""好我""]","[""弱我"",""强他"",""弱他"",""强我""]","","","","","","","","","","","","","","","","","","","","","","","","","","","","","","feedback_test","","","","","","","","",""
"726","","f","psychophysics","96","370825","0.0-8.0-0.0-1.0-0.0-0.43","4","4","4","3","3","4","3","3","4","4","4","1","0","0","1","-1","0","1","0","4","4","5","4","4","3","4","4","3","4","6","6","5","6","5","7","6","5","6","5","6","2","4","4","3","6","3","4","4","1","3","3","5","4","3","6","4","4","5","4","3","6","4","4","5","5","5","5","6","5","7","5","5","7","6","7","5","7","4","6","781892112919826433","z","105","Male","[""坏我"",""好他"",""坏他"",""好我""]","[""弱我"",""强他"",""弱他"",""强我""]","","","","","","","","nonmatch","","","","","","","","","","key","f","16.668627450979937","768","428","f","true","nonmatch","img/square.png","坏他","坏我","prac_ALT2_moral","practice_moral","","","","","","","","",""
"null","<span style='color:GreenYellow; font-size: 70px;'>正确! </span>","null","html-keyboard-response","97","371327","0.0-8.0-0.0-1.0-0.0-1.43","4","4","4","3","3","4","3","3","4","4","4","1","0","0","1","-1","0","1","0","4","4","5","4","4","3","4","4","3","4","6","6","5","6","5","7","6","5","6","5","6","2","4","4","3","6","3","4","4","1","3","3","5","4","3","6","4","4","5","4","3","6","4","4","5","5","5","5","6","5","7","5","5","7","6","7","5","7","4","6","781892112919826433","z","105","Male","[""坏我"",""好他"",""坏他"",""好我""]","[""弱我"",""强他"",""弱他"",""强我""]","","","","","","","","","","","","","","","","","","","","","","","","","","","","","","feedback_test","","","","","","","","",""
"715","","f","psychophysics","98","373045","0.0-8.0-0.0-1.0-0.0-0.44","4","4","4","3","3","4","3","3","4","4","4","1","0","0","1","-1","0","1","0","4","4","5","4","4","3","4","4","3","4","6","6","5","6","5","7","6","5","6","5","6","2","4","4","3","6","3","4","4","1","3","3","5","4","3","6","4","4","5","4","3","6","4","4","5","5","5","5","6","5","7","5","5","7","6","7","5","7","4","6","781892112919826433","z","105","Male","[""坏我"",""好他"",""坏他"",""好我""]","[""弱我"",""强他"",""弱他"",""强我""]","","","","","","","","nonmatch","","","","","","","","","","key","f","16.6647058823534","768","428","f","true","nonmatch","img/pentagon.png","好他","好我","prac_ALT2_moral","practice_moral","","","","","","","","",""
"null","<span style='color:GreenYellow; font-size: 70px;'>正确! </span>","null","html-keyboard-response","99","373547","0.0-8.0-0.0-1.0-0.0-1.44","4","4","4","3","3","4","3","3","4","4","4","1","0","0","1","-1","0","1","0","4","4","5","4","4","3","4","4","3","4","6","6","5","6","5","7","6","5","6","5","6","2","4","4","3","6","3","4","4","1","3","3","5","4","3","6","4","4","5","4","3","6","4","4","5","5","5","5","6","5","7","5","5","7","6","7","5","7","4","6","781892112919826433","z","105","Male","[""坏我"",""好他"",""坏他"",""好我""]","[""弱我"",""强他"",""弱他"",""强我""]","","","","","","","","","","","","","","","","","","","","","","","","","","","","","","feedback_test","","","","","","","","",""
"1182","","j","psychophysics","100","375730","0.0-8.0-0.0-1.0-0.0-0.45","4","4","4","3","3","4","3","3","4","4","4","1","0","0","1","-1","0","1","0","4","4","5","4","4","3","4","4","3","4","6","6","5","6","5","7","6","5","6","5","6","2","4","4","3","6","3","4","4","1","3","3","5","4","3","6","4","4","5","4","3","6","4","4","5","5","5","5","6","5","7","5","5","7","6","7","5","7","4","6","781892112919826433","z","105","Male","[""坏我"",""好他"",""坏他"",""好我""]","[""弱我"",""强他"",""弱他"",""强我""]","","","","","","","","match","","","","","","","","","","key","j","16.670000000000268","768","428","f","false","nonmatch","img/trapezoid.png","好我","好他","prac_ALT2_moral","practice_moral","","","","","","","","",""
"null","<span style='color:red; font-size: 70px;'>错误! </span>","null","html-keyboard-response","101","376232","0.0-8.0-0.0-1.0-0.0-1.45","4","4","4","3","3","4","3","3","4","4","4","1","0","0","1","-1","0","1","0","4","4","5","4","4","3","4","4","3","4","6","6","5","6","5","7","6","5","6","5","6","2","4","4","3","6","3","4","4","1","3","3","5","4","3","6","4","4","5","4","3","6","4","4","5","5","5","5","6","5","7","5","5","7","6","7","5","7","4","6","781892112919826433","z","105","Male","[""坏我"",""好他"",""坏他"",""好我""]","[""弱我"",""强他"",""弱他"",""强我""]","","","","","","","","","","","","","","","","","","","","","","","","","","","","","","feedback_test","","","","","","","","",""
"1025","","f","psychophysics","102","378258","0.0-8.0-0.0-1.0-0.0-0.46","4","4","4","3","3","4","3","3","4","4","4","1","0","0","1","-1","0","1","0","4","4","5","4","4","3","4","4","3","4","6","6","5","6","5","7","6","5","6","5","6","2","4","4","3","6","3","4","4","1","3","3","5","4","3","6","4","4","5","4","3","6","4","4","5","5","5","5","6","5","7","5","5","7","6","7","5","7","4","6","781892112919826433","z","105","Male","[""坏我"",""好他"",""坏他"",""好我""]","[""弱我"",""强他"",""弱他"",""强我""]","","","","","","","","nonmatch","","","","","","","","","","key","f","16.665289256198346","768","428","j","false","match","img/circle.png","坏他","坏他","prac_ALT2_moral","practice_moral","","","","","","","","",""
"null","<span style='color:red; font-size: 70px;'>错误! </span>","null","html-keyboard-response","103","378760","0.0-8.0-0.0-1.0-0.0-1.46","4","4","4","3","3","4","3","3","4","4","4","1","0","0","1","-1","0","1","0","4","4","5","4","4","3","4","4","3","4","6","6","5","6","5","7","6","5","6","5","6","2","4","4","3","6","3","4","4","1","3","3","5","4","3","6","4","4","5","4","3","6","4","4","5","5","5","5","6","5","7","5","5","7","6","7","5","7","4","6","781892112919826433","z","105","Male","[""坏我"",""好他"",""坏他"",""好我""]","[""弱我"",""强他"",""弱他"",""强我""]","","","","","","","","","","","","","","","","","","","","","","","","","","","","","","feedback_test","","","","","","","","",""
"777","","f","psychophysics","104","380537","0.0-8.0-0.0-1.0-0.0-0.47","4","4","4","3","3","4","3","3","4","4","4","1","0","0","1","-1","0","1","0","4","4","5","4","4","3","4","4","3","4","6","6","5","6","5","7","6","5","6","5","6","2","4","4","3","6","3","4","4","1","3","3","5","4","3","6","4","4","5","4","3","6","4","4","5","5","5","5","6","5","7","5","5","7","6","7","5","7","4","6","781892112919826433","z","105","Male","[""坏我"",""好他"",""坏他"",""好我""]","[""弱我"",""强他"",""弱他"",""强我""]","","","","","","","","nonmatch","","","","","","","","","","key","f","16.664761904761793","768","428","j","false","match","img/square.png","坏我","坏我","prac_ALT2_moral","practice_moral","","","","","","","","",""
"null","<span style='color:red; font-size: 70px;'>错误! </span>","null","html-keyboard-response","105","381039","0.0-8.0-0.0-1.0-0.0-1.47","4","4","4","3","3","4","3","3","4","4","4","1","0","0","1","-1","0","1","0","4","4","5","4","4","3","4","4","3","4","6","6","5","6","5","7","6","5","6","5","6","2","4","4","3","6","3","4","4","1","3","3","5","4","3","6","4","4","5","4","3","6","4","4","5","5","5","5","6","5","7","5","5","7","6","7","5","7","4","6","781892112919826433","z","105","Male","[""坏我"",""好他"",""坏他"",""好我""]","[""弱我"",""强他"",""弱他"",""强我""]","","","","","","","","","","","","","","","","","","","","","","","","","","","","","","feedback_test","","","","","","","","",""
"2850","<style>.context{color:white; font-size: 35px; line-height:40px}</style>                            <div><p class='context'>您正确回答了38% 的试次。</p><p class='context'>您的平均反应时为760毫秒。</p><p class='context'>按空格键继续。</p></div>"," ","html-keyboard-response","106","383891","0.0-8.0-0.0-1.0-1.0-0.0","4","4","4","3","3","4","3","3","4","4","4","1","0","0","1","-1","0","1","0","4","4","5","4","4","3","4","4","3","4","6","6","5","6","5","7","6","5","6","5","6","2","4","4","3","6","3","4","4","1","3","3","5","4","3","6","4","4","5","4","3","6","4","4","5","5","5","5","6","5","7","5","5","7","6","7","5","7","4","6","781892112919826433","z","105","Male","[""坏我"",""好他"",""坏他"",""好我""]","[""弱我"",""强他"",""弱他"",""强我""]","","","","","","","","","","","","","","","","","","","","","","","","","","","","","","","","","","","","","","",""
"48787","","","instructions","107","432680","0.0-8.0-0.0-1.0-1.0-1.0","4","4","4","3","3","4","3","3","4","4","4","1","0","0","1","-1","0","1","0","4","4","5","4","4","3","4","4","3","4","6","6","5","6","5","7","6","5","6","5","6","2","4","4","3","6","3","4","4","1","3","3","5","4","3","6","4","4","5","4","3","6","4","4","5","5","5","5","6","5","7","5","5","7","6","7","5","7","4","6","781892112919826433","z","105","Male","[""坏我"",""好他"",""坏他"",""好我""]","[""弱我"",""强他"",""弱他"",""强我""]","","","","","","","","","","","","","","","","","[{""page_index"":0,""viewing_time"":4388},{""page_index"":1,""viewing_time"":40243},{""page_index"":2,""viewing_time"":4155}]","","","","","","","","","","","","","","","","","","","","","",""
"824","","f","psychophysics","108","434507","0.0-8.0-0.0-1.1-0.1-0.48","4","4","4","3","3","4","3","3","4","4","4","1","0","0","1","-1","0","1","0","4","4","5","4","4","3","4","4","3","4","6","6","5","6","5","7","6","5","6","5","6","2","4","4","3","6","3","4","4","1","3","3","5","4","3","6","4","4","5","4","3","6","4","4","5","5","5","5","6","5","7","5","5","7","6","7","5","7","4","6","781892112919826433","z","105","Male","[""坏我"",""好他"",""坏他"",""好我""]","[""弱我"",""强他"",""弱他"",""强我""]","","","","","","","","nonmatch","","","","","","","","","","key","f","16.66605504587188","768","428","j","false","match","img/square.png","坏我","坏我","prac_ALT2_moral","practice_moral","","","","","","","","",""
"null","<span style='color:red; font-size: 70px;'>错误! </span>","null","html-keyboard-response","109","435009","0.0-8.0-0.0-1.1-0.1-1.48","4","4","4","3","3","4","3","3","4","4","4","1","0","0","1","-1","0","1","0","4","4","5","4","4","3","4","4","3","4","6","6","5","6","5","7","6","5","6","5","6","2","4","4","3","6","3","4","4","1","3","3","5","4","3","6","4","4","5","4","3","6","4","4","5","5","5","5","6","5","7","5","5","7","6","7","5","7","4","6","781892112919826433","z","105","Male","[""坏我"",""好他"",""坏他"",""好我""]","[""弱我"",""强他"",""弱他"",""强我""]","","","","","","","","","","","","","","","","","","","","","","","","","","","","","","feedback_test","","","","","","","","",""
"662","","f","psychophysics","110","436672","0.0-8.0-0.0-1.1-0.1-0.49","4","4","4","3","3","4","3","3","4","4","4","1","0","0","1","-1","0","1","0","4","4","5","4","4","3","4","4","3","4","6","6","5","6","5","7","6","5","6","5","6","2","4","4","3","6","3","4","4","1","3","3","5","4","3","6","4","4","5","4","3","6","4","4","5","5","5","5","6","5","7","5","5","7","6","7","5","7","4","6","781892112919826433","z","105","Male","[""坏我"",""好他"",""坏他"",""好我""]","[""弱我"",""强他"",""弱他"",""强我""]","","","","","","","","nonmatch","","","","","","","","","","key","f","16.6656565656568","768","428","f","true","nonmatch","img/circle.png","坏我","坏他","prac_ALT2_moral","practice_moral","","","","","","","","",""
"null","<span style='color:GreenYellow; font-size: 70px;'>正确! </span>","null","html-keyboard-response","111","437173","0.0-8.0-0.0-1.1-0.1-1.49","4","4","4","3","3","4","3","3","4","4","4","1","0","0","1","-1","0","1","0","4","4","5","4","4","3","4","4","3","4","6","6","5","6","5","7","6","5","6","5","6","2","4","4","3","6","3","4","4","1","3","3","5","4","3","6","4","4","5","4","3","6","4","4","5","5","5","5","6","5","7","5","5","7","6","7","5","7","4","6","781892112919826433","z","105","Male","[""坏我"",""好他"",""坏他"",""好我""]","[""弱我"",""强他"",""弱他"",""强我""]","","","","","","","","","","","","","","","","","","","","","","","","","","","","","","feedback_test","","","","","","","","",""
"975","","f","psychophysics","112","439151","0.0-8.0-0.0-1.1-0.1-0.50","4","4","4","3","3","4","3","3","4","4","4","1","0","0","1","-1","0","1","0","4","4","5","4","4","3","4","4","3","4","6","6","5","6","5","7","6","5","6","5","6","2","4","4","3","6","3","4","4","1","3","3","5","4","3","6","4","4","5","4","3","6","4","4","5","5","5","5","6","5","7","5","5","7","6","7","5","7","4","6","781892112919826433","z","105","Male","[""坏我"",""好他"",""坏他"",""好我""]","[""弱我"",""强他"",""弱他"",""强我""]","","","","","","","","nonmatch","","","","","","","","","","key","f","16.665254237288135","768","428","f","true","nonmatch","img/trapezoid.png","坏我","好他","prac_ALT2_moral","practice_moral","","","","","","","","",""
"null","<span style='color:GreenYellow; font-size: 70px;'>正确! </span>","null","html-keyboard-response","113","439651","0.0-8.0-0.0-1.1-0.1-1.50","4","4","4","3","3","4","3","3","4","4","4","1","0","0","1","-1","0","1","0","4","4","5","4","4","3","4","4","3","4","6","6","5","6","5","7","6","5","6","5","6","2","4","4","3","6","3","4","4","1","3","3","5","4","3","6","4","4","5","4","3","6","4","4","5","5","5","5","6","5","7","5","5","7","6","7","5","7","4","6","781892112919826433","z","105","Male","[""坏我"",""好他"",""坏他"",""好我""]","[""弱我"",""强他"",""弱他"",""强我""]","","","","","","","","","","","","","","","","","","","","","","","","","","","","","","feedback_test","","","","","","","","",""
"882","","j","psychophysics","114","441535","0.0-8.0-0.0-1.1-0.1-0.51","4","4","4","3","3","4","3","3","4","4","4","1","0","0","1","-1","0","1","0","4","4","5","4","4","3","4","4","3","4","6","6","5","6","5","7","6","5","6","5","6","2","4","4","3","6","3","4","4","1","3","3","5","4","3","6","4","4","5","4","3","6","4","4","5","5","5","5","6","5","7","5","5","7","6","7","5","7","4","6","781892112919826433","z","105","Male","[""坏我"",""好他"",""坏他"",""好我""]","[""弱我"",""强他"",""弱他"",""强我""]","","","","","","","","match","","","","","","","","","","key","j","16.66428571428592","768","428","j","true","match","img/trapezoid.png","好他","好他","prac_ALT2_moral","practice_moral","","","","","","","","",""
"null","<span style='color:GreenYellow; font-size: 70px;'>正确! </span>","null","html-keyboard-response","115","442037","0.0-8.0-0.0-1.1-0.1-1.51","4","4","4","3","3","4","3","3","4","4","4","1","0","0","1","-1","0","1","0","4","4","5","4","4","3","4","4","3","4","6","6","5","6","5","7","6","5","6","5","6","2","4","4","3","6","3","4","4","1","3","3","5","4","3","6","4","4","5","4","3","6","4","4","5","5","5","5","6","5","7","5","5","7","6","7","5","7","4","6","781892112919826433","z","105","Male","[""坏我"",""好他"",""坏他"",""好我""]","[""弱我"",""强他"",""弱他"",""强我""]","","","","","","","","","","","","","","","","","","","","","","","","","","","","","","feedback_test","","","","","","","","",""
"916","","f","psychophysics","116","443954","0.0-8.0-0.0-1.1-0.1-0.52","4","4","4","3","3","4","3","3","4","4","4","1","0","0","1","-1","0","1","0","4","4","5","4","4","3","4","4","3","4","6","6","5","6","5","7","6","5","6","5","6","2","4","4","3","6","3","4","4","1","3","3","5","4","3","6","4","4","5","4","3","6","4","4","5","5","5","5","6","5","7","5","5","7","6","7","5","7","4","6","781892112919826433","z","105","Male","[""坏我"",""好他"",""坏他"",""好我""]","[""弱我"",""强他"",""弱他"",""强我""]","","","","","","","","nonmatch","","","","","","","","","","key","f","16.666666666666668","768","428","f","true","nonmatch","img/trapezoid.png","好我","好他","prac_ALT2_moral","practice_moral","","","","","","","","",""
"null","<span style='color:GreenYellow; font-size: 70px;'>正确! </span>","null","html-keyboard-response","117","444456","0.0-8.0-0.0-1.1-0.1-1.52","4","4","4","3","3","4","3","3","4","4","4","1","0","0","1","-1","0","1","0","4","4","5","4","4","3","4","4","3","4","6","6","5","6","5","7","6","5","6","5","6","2","4","4","3","6","3","4","4","1","3","3","5","4","3","6","4","4","5","4","3","6","4","4","5","5","5","5","6","5","7","5","5","7","6","7","5","7","4","6","781892112919826433","z","105","Male","[""坏我"",""好他"",""坏他"",""好我""]","[""弱我"",""强他"",""弱他"",""强我""]","","","","","","","","","","","","","","","","","","","","","","","","","","","","","","feedback_test","","","","","","","","",""
"857","","f","psychophysics","118","446316","0.0-8.0-0.0-1.1-0.1-0.53","4","4","4","3","3","4","3","3","4","4","4","1","0","0","1","-1","0","1","0","4","4","5","4","4","3","4","4","3","4","6","6","5","6","5","7","6","5","6","5","6","2","4","4","3","6","3","4","4","1","3","3","5","4","3","6","4","4","5","4","3","6","4","4","5","5","5","5","6","5","7","5","5","7","6","7","5","7","4","6","781892112919826433","z","105","Male","[""坏我"",""好他"",""坏他"",""好我""]","[""弱我"",""强他"",""弱他"",""强我""]","","","","","","","","nonmatch","","","","","","","","","","key","f","16.666666666666668","768","428","f","true","nonmatch","img/circle.png","好他","坏他","prac_ALT2_moral","practice_moral","","","","","","","","",""
"null","<span style='color:GreenYellow; font-size: 70px;'>正确! </span>","null","html-keyboard-response","119","446819","0.0-8.0-0.0-1.1-0.1-1.53","4","4","4","3","3","4","3","3","4","4","4","1","0","0","1","-1","0","1","0","4","4","5","4","4","3","4","4","3","4","6","6","5","6","5","7","6","5","6","5","6","2","4","4","3","6","3","4","4","1","3","3","5","4","3","6","4","4","5","4","3","6","4","4","5","5","5","5","6","5","7","5","5","7","6","7","5","7","4","6","781892112919826433","z","105","Male","[""坏我"",""好他"",""坏他"",""好我""]","[""弱我"",""强他"",""弱他"",""强我""]","","","","","","","","","","","","","","","","","","","","","","","","","","","","","","feedback_test","","","","","","","","",""
"811","","j","psychophysics","120","448631","0.0-8.0-0.0-1.1-0.1-0.54","4","4","4","3","3","4","3","3","4","4","4","1","0","0","1","-1","0","1","0","4","4","5","4","4","3","4","4","3","4","6","6","5","6","5","7","6","5","6","5","6","2","4","4","3","6","3","4","4","1","3","3","5","4","3","6","4","4","5","4","3","6","4","4","5","5","5","5","6","5","7","5","5","7","6","7","5","7","4","6","781892112919826433","z","105","Male","[""坏我"",""好他"",""坏他"",""好我""]","[""弱我"",""强他"",""弱他"",""强我""]","","","","","","","","match","","","","","","","","","","key","j","16.663888888888998","768","428","j","true","match","img/circle.png","坏他","坏他","prac_ALT2_moral","practice_moral","","","","","","","","",""
"null","<span style='color:GreenYellow; font-size: 70px;'>正确! </span>","null","html-keyboard-response","121","449142","0.0-8.0-0.0-1.1-0.1-1.54","4","4","4","3","3","4","3","3","4","4","4","1","0","0","1","-1","0","1","0","4","4","5","4","4","3","4","4","3","4","6","6","5","6","5","7","6","5","6","5","6","2","4","4","3","6","3","4","4","1","3","3","5","4","3","6","4","4","5","4","3","6","4","4","5","5","5","5","6","5","7","5","5","7","6","7","5","7","4","6","781892112919826433","z","105","Male","[""坏我"",""好他"",""坏他"",""好我""]","[""弱我"",""强他"",""弱他"",""强我""]","","","","","","","","","","","","","","","","","","","","","","","","","","","","","","feedback_test","","","","","","","","",""
"1185","","j","psychophysics","122","451328","0.0-8.0-0.0-1.1-0.1-0.55","4","4","4","3","3","4","3","3","4","4","4","1","0","0","1","-1","0","1","0","4","4","5","4","4","3","4","4","3","4","6","6","5","6","5","7","6","5","6","5","6","2","4","4","3","6","3","4","4","1","3","3","5","4","3","6","4","4","5","4","3","6","4","4","5","5","5","5","6","5","7","5","5","7","6","7","5","7","4","6","781892112919826433","z","105","Male","[""坏我"",""好他"",""坏他"",""好我""]","[""弱我"",""强他"",""弱他"",""强我""]","","","","","","","","match","","","","","","","","","","key","j","16.67076923076932","768","428","f","false","nonmatch","img/square.png","好我","坏我","prac_ALT2_moral","practice_moral","","","","","","","","",""
"null","<span style='color:red; font-size: 70px;'>错误! </span>","null","html-keyboard-response","123","451829","0.0-8.0-0.0-1.1-0.1-1.55","4","4","4","3","3","4","3","3","4","4","4","1","0","0","1","-1","0","1","0","4","4","5","4","4","3","4","4","3","4","6","6","5","6","5","7","6","5","6","5","6","2","4","4","3","6","3","4","4","1","3","3","5","4","3","6","4","4","5","4","3","6","4","4","5","5","5","5","6","5","7","5","5","7","6","7","5","7","4","6","781892112919826433","z","105","Male","[""坏我"",""好他"",""坏他"",""好我""]","[""弱我"",""强他"",""弱他"",""强我""]","","","","","","","","","","","","","","","","","","","","","","","","","","","","","","feedback_test","","","","","","","","",""
"680","","f","psychophysics","124","453510","0.0-8.0-0.0-1.1-0.1-0.56","4","4","4","3","3","4","3","3","4","4","4","1","0","0","1","-1","0","1","0","4","4","5","4","4","3","4","4","3","4","6","6","5","6","5","7","6","5","6","5","6","2","4","4","3","6","3","4","4","1","3","3","5","4","3","6","4","4","5","4","3","6","4","4","5","5","5","5","6","5","7","5","5","7","6","7","5","7","4","6","781892112919826433","z","105","Male","[""坏我"",""好他"",""坏他"",""好我""]","[""弱我"",""强他"",""弱他"",""强我""]","","","","","","","","nonmatch","","","","","","","","","","key","f","16.66363636363648","768","428","j","false","match","img/square.png","坏我","坏我","prac_ALT2_moral","practice_moral","","","","","","","","",""
"null","<span style='color:red; font-size: 70px;'>错误! </span>","null","html-keyboard-response","125","454013","0.0-8.0-0.0-1.1-0.1-1.56","4","4","4","3","3","4","3","3","4","4","4","1","0","0","1","-1","0","1","0","4","4","5","4","4","3","4","4","3","4","6","6","5","6","5","7","6","5","6","5","6","2","4","4","3","6","3","4","4","1","3","3","5","4","3","6","4","4","5","4","3","6","4","4","5","5","5","5","6","5","7","5","5","7","6","7","5","7","4","6","781892112919826433","z","105","Male","[""坏我"",""好他"",""坏他"",""好我""]","[""弱我"",""强他"",""弱他"",""强我""]","","","","","","","","","","","","","","","","","","","","","","","","","","","","","","feedback_test","","","","","","","","",""
"873","","f","psychophysics","126","455887","0.0-8.0-0.0-1.1-0.1-0.57","4","4","4","3","3","4","3","3","4","4","4","1","0","0","1","-1","0","1","0","4","4","5","4","4","3","4","4","3","4","6","6","5","6","5","7","6","5","6","5","6","2","4","4","3","6","3","4","4","1","3","3","5","4","3","6","4","4","5","4","3","6","4","4","5","5","5","5","6","5","7","5","5","7","6","7","5","7","4","6","781892112919826433","z","105","Male","[""坏我"",""好他"",""坏他"",""好我""]","[""弱我"",""强他"",""弱他"",""强我""]","","","","","","","","nonmatch","","","","","","","","","","key","f","16.665765765765975","768","428","f","true","nonmatch","img/pentagon.png","坏他","好我","prac_ALT2_moral","practice_moral","","","","","","","","",""
"null","<span style='color:GreenYellow; font-size: 70px;'>正确! </span>","null","html-keyboard-response","127","456399","0.0-8.0-0.0-1.1-0.1-1.57","4","4","4","3","3","4","3","3","4","4","4","1","0","0","1","-1","0","1","0","4","4","5","4","4","3","4","4","3","4","6","6","5","6","5","7","6","5","6","5","6","2","4","4","3","6","3","4","4","1","3","3","5","4","3","6","4","4","5","4","3","6","4","4","5","5","5","5","6","5","7","5","5","7","6","7","5","7","4","6","781892112919826433","z","105","Male","[""坏我"",""好他"",""坏他"",""好我""]","[""弱我"",""强他"",""弱他"",""强我""]","","","","","","","","","","","","","","","","","","","","","","","","","","","","","","feedback_test","","","","","","","","",""
"903","","j","psychophysics","128","458304","0.0-8.0-0.0-1.1-0.1-0.58","4","4","4","3","3","4","3","3","4","4","4","1","0","0","1","-1","0","1","0","4","4","5","4","4","3","4","4","3","4","6","6","5","6","5","7","6","5","6","5","6","2","4","4","3","6","3","4","4","1","3","3","5","4","3","6","4","4","5","4","3","6","4","4","5","5","5","5","6","5","7","5","5","7","6","7","5","7","4","6","781892112919826433","z","105","Male","[""坏我"",""好他"",""坏他"",""好我""]","[""弱我"",""强他"",""弱他"",""强我""]","","","","","","","","match","","","","","","","","","","key","j","16.66548672566382","768","428","j","true","match","img/trapezoid.png","好他","好他","prac_ALT2_moral","practice_moral","","","","","","","","",""
"null","<span style='color:GreenYellow; font-size: 70px;'>正确! </span>","null","html-keyboard-response","129","458806","0.0-8.0-0.0-1.1-0.1-1.58","4","4","4","3","3","4","3","3","4","4","4","1","0","0","1","-1","0","1","0","4","4","5","4","4","3","4","4","3","4","6","6","5","6","5","7","6","5","6","5","6","2","4","4","3","6","3","4","4","1","3","3","5","4","3","6","4","4","5","4","3","6","4","4","5","5","5","5","6","5","7","5","5","7","6","7","5","7","4","6","781892112919826433","z","105","Male","[""坏我"",""好他"",""坏他"",""好我""]","[""弱我"",""强他"",""弱他"",""强我""]","","","","","","","","","","","","","","","","","","","","","","","","","","","","","","feedback_test","","","","","","","","",""
"1114","","j","psychophysics","130","460921","0.0-8.0-0.0-1.1-0.1-0.59","4","4","4","3","3","4","3","3","4","4","4","1","0","0","1","-1","0","1","0","4","4","5","4","4","3","4","4","3","4","6","6","5","6","5","7","6","5","6","5","6","2","4","4","3","6","3","4","4","1","3","3","5","4","3","6","4","4","5","4","3","6","4","4","5","5","5","5","6","5","7","5","5","7","6","7","5","7","4","6","781892112919826433","z","105","Male","[""坏我"",""好他"",""坏他"",""好我""]","[""弱我"",""强他"",""弱他"",""强我""]","","","","","","","","match","","","","","","","","","","key","j","16.669047619047525","768","428","j","true","match","img/circle.png","坏他","坏他","prac_ALT2_moral","practice_moral","","","","","","","","",""
"null","<span style='color:GreenYellow; font-size: 70px;'>正确! </span>","null","html-keyboard-response","131","461429","0.0-8.0-0.0-1.1-0.1-1.59","4","4","4","3","3","4","3","3","4","4","4","1","0","0","1","-1","0","1","0","4","4","5","4","4","3","4","4","3","4","6","6","5","6","5","7","6","5","6","5","6","2","4","4","3","6","3","4","4","1","3","3","5","4","3","6","4","4","5","4","3","6","4","4","5","5","5","5","6","5","7","5","5","7","6","7","5","7","4","6","781892112919826433","z","105","Male","[""坏我"",""好他"",""坏他"",""好我""]","[""弱我"",""强他"",""弱他"",""强我""]","","","","","","","","","","","","","","","","","","","","","","","","","","","","","","feedback_test","","","","","","","","",""
"798","","f","psychophysics","132","463229","0.0-8.0-0.0-1.1-0.1-0.60","4","4","4","3","3","4","3","3","4","4","4","1","0","0","1","-1","0","1","0","4","4","5","4","4","3","4","4","3","4","6","6","5","6","5","7","6","5","6","5","6","2","4","4","3","6","3","4","4","1","3","3","5","4","3","6","4","4","5","4","3","6","4","4","5","5","5","5","6","5","7","5","5","7","6","7","5","7","4","6","781892112919826433","z","105","Male","[""坏我"",""好他"",""坏他"",""好我""]","[""弱我"",""强他"",""弱他"",""强我""]","","","","","","","","nonmatch","","","","","","","","","","key","f","16.669811320754718","768","428","f","true","nonmatch","img/pentagon.png","坏我","好我","prac_ALT2_moral","practice_moral","","","","","","","","",""
"null","<span style='color:GreenYellow; font-size: 70px;'>正确! </span>","null","html-keyboard-response","133","463730","0.0-8.0-0.0-1.1-0.1-1.60","4","4","4","3","3","4","3","3","4","4","4","1","0","0","1","-1","0","1","0","4","4","5","4","4","3","4","4","3","4","6","6","5","6","5","7","6","5","6","5","6","2","4","4","3","6","3","4","4","1","3","3","5","4","3","6","4","4","5","4","3","6","4","4","5","5","5","5","6","5","7","5","5","7","6","7","5","7","4","6","781892112919826433","z","105","Male","[""坏我"",""好他"",""坏他"",""好我""]","[""弱我"",""强他"",""弱他"",""强我""]","","","","","","","","","","","","","","","","","","","","","","","","","","","","","","feedback_test","","","","","","","","",""
"719","","j","psychophysics","134","465450","0.0-8.0-0.0-1.1-0.1-0.61","4","4","4","3","3","4","3","3","4","4","4","1","0","0","1","-1","0","1","0","4","4","5","4","4","3","4","4","3","4","6","6","5","6","5","7","6","5","6","5","6","2","4","4","3","6","3","4","4","1","3","3","5","4","3","6","4","4","5","4","3","6","4","4","5","5","5","5","6","5","7","5","5","7","6","7","5","7","4","6","781892112919826433","z","105","Male","[""坏我"",""好他"",""坏他"",""好我""]","[""弱我"",""强他"",""弱他"",""强我""]","","","","","","","","match","","","","","","","","","","key","j","16.668627450980505","768","428","j","true","match","img/pentagon.png","好我","好我","prac_ALT2_moral","practice_moral","","","","","","","","",""
"null","<span style='color:GreenYellow; font-size: 70px;'>正确! </span>","null","html-keyboard-response","135","465951","0.0-8.0-0.0-1.1-0.1-1.61","4","4","4","3","3","4","3","3","4","4","4","1","0","0","1","-1","0","1","0","4","4","5","4","4","3","4","4","3","4","6","6","5","6","5","7","6","5","6","5","6","2","4","4","3","6","3","4","4","1","3","3","5","4","3","6","4","4","5","4","3","6","4","4","5","5","5","5","6","5","7","5","5","7","6","7","5","7","4","6","781892112919826433","z","105","Male","[""坏我"",""好他"",""坏他"",""好我""]","[""弱我"",""强他"",""弱他"",""强我""]","","","","","","","","","","","","","","","","","","","","","","","","","","","","","","feedback_test","","","","","","","","",""
"803","","f","psychophysics","136","467754","0.0-8.0-0.0-1.1-0.1-0.62","4","4","4","3","3","4","3","3","4","4","4","1","0","0","1","-1","0","1","0","4","4","5","4","4","3","4","4","3","4","6","6","5","6","5","7","6","5","6","5","6","2","4","4","3","6","3","4","4","1","3","3","5","4","3","6","4","4","5","4","3","6","4","4","5","5","5","5","6","5","7","5","5","7","6","7","5","7","4","6","781892112919826433","z","105","Male","[""坏我"",""好他"",""坏他"",""好我""]","[""弱我"",""强他"",""弱他"",""强我""]","","","","","","","","nonmatch","","","","","","","","","","key","f","16.670093457944034","768","428","f","true","nonmatch","img/square.png","坏他","坏我","prac_ALT2_moral","practice_moral","","","","","","","","",""
"null","<span style='color:GreenYellow; font-size: 70px;'>正确! </span>","null","html-keyboard-response","137","468255","0.0-8.0-0.0-1.1-0.1-1.62","4","4","4","3","3","4","3","3","4","4","4","1","0","0","1","-1","0","1","0","4","4","5","4","4","3","4","4","3","4","6","6","5","6","5","7","6","5","6","5","6","2","4","4","3","6","3","4","4","1","3","3","5","4","3","6","4","4","5","4","3","6","4","4","5","5","5","5","6","5","7","5","5","7","6","7","5","7","4","6","781892112919826433","z","105","Male","[""坏我"",""好他"",""坏他"",""好我""]","[""弱我"",""强他"",""弱他"",""强我""]","","","","","","","","","","","","","","","","","","","","","","","","","","","","","","feedback_test","","","","","","","","",""
"1097","","j","psychophysics","138","470355","0.0-8.0-0.0-1.1-0.1-0.63","4","4","4","3","3","4","3","3","4","4","4","1","0","0","1","-1","0","1","0","4","4","5","4","4","3","4","4","3","4","6","6","5","6","5","7","6","5","6","5","6","2","4","4","3","6","3","4","4","1","3","3","5","4","3","6","4","4","5","4","3","6","4","4","5","5","5","5","6","5","7","5","5","7","6","7","5","7","4","6","781892112919826433","z","105","Male","[""坏我"",""好他"",""坏他"",""好我""]","[""弱我"",""强他"",""弱他"",""强我""]","","","","","","","","match","","","","","","","","","","key","j","16.665600000000094","768","428","f","false","nonmatch","img/pentagon.png","好他","好我","prac_ALT2_moral","practice_moral","","","","","","","","",""
