"rt","stimulus","response","trial_type","trial_index","time_elapsed","internal_node_id","swb_1","swb_2","swb_3","swb_4","swb_5","LOT_1","LOT_2","LOT_3","LOT_4","LOT_5","LOT_6","IPC_1","IPC_2","IPC_3","IPC_4","IPC_5","IPC_6","IPC_7","IPC_8","MorIden_1","MorIden_2","MorIden_3","MorIden_4","MorIden_5","MorIden_6","MorIden_7","MorIden_8","MorIden_9","MorIden_10","moralSeImag_1","moralSeImag_2","moralSeImag_3","moralSeImag_4","moralSeImag_5","moralSeImag_6","moralSeImag_7","moralSeImag_8","moralSeImag_9","sde_1","sde_2","sde_3","sde_4","sde_5","sde_6","sde_7","sde_8","sde_9","sde_10","trap2","sde_11","sde_12","sde_13","sde_14","sde_15","sde_16","sde_17","sde_18","sde_19","sde_20","IM_1","IM_2","IM_3","IM_4","IM_5","IM_6","IM_7","IM_8","IM_9","IM_10","IM_11","IM_12","IM_13","IM_14","IM_15","IM_16","IM_17","IM_18","IM_19","IM_20","subj_idx","friend_name","ParticipantID","Sex","Word","Word2","value","success","timeout","failed_images","failed_audio","failed_video","user_agent","responses","item_order","radio_event_ids","radio_event_times","key_event_times","mouse_event_times","straightlining","zigzagging","honeypot","view_history","response_type","key_press","avg_frame_time","center_x","center_y","correct_response","correct","identity","Image","word","condition","task_id","screen_id","time_stamp","person","valence","domain","math","status","duration","question_order","trap2_item"
"2863","
   <p><div style='color:white; font-size: 25px'>您好，欢迎参加本次实验。</div></p>
   <p><div style='color:white; font-size: 25px'>为充分保障您的权利，请确保您已经知晓并同意《参与实验同意书》以及《数据公开知情同意书》。</div></p>
   <p><div style='color:white; font-size: 25px'>如果您未见过上述内容，请咨询实验员。</div></p>
   <p style='color:white; font-size: 25px'>如果您选择继续实验，则表示您已经清楚两份知情同意书的内容并同意。</p>
   <p><div style = ""color: pink;font-size:30px;"">请确保您记得day0的实验编号，您将在本次实验输入该编号，若您忘记，请咨询实验员后作答。</div></p>
   <p><div style = ""color:lightblue;font-size:25px;"">请您尽可能认真地作答，我们将依据您在各问卷和按键任务中的作答质量发放报酬。</div></p>
   <p> <div style = ""color: green""><按空格键至下页></div> </p>
   "," ","html-keyboard-response","0","2864","0.0-0.0","6","6","6","5","5","4","3","5","4","4","4","1","0","1","0","1","1","2","1","5","5","5","5","5","4","4","4","5","4","6","7","8","8","6","8","7","8","8","6","5","5","5","6","3","6","1","6","5","1","5","4","6","5","6","6","6","4","3","6","3","6","6","7","5","7","6","7","6","6","7","7","6","7","2","7","6","6","5","6","753363750240915458","韩","132","Male","[""好他"",""好我"",""坏我"",""坏他""]","[""强他"",""强我"",""弱我"",""弱他""]","","","","","","","","","","","","","","","","","","","","","","","","","","","","","","","","","","","","","","",""
"","","","call-function","1","2866","0.0-1.0-0.0","6","6","6","5","5","4","3","5","4","4","4","1","0","1","0","1","1","2","1","5","5","5","5","5","4","4","4","5","4","6","7","8","8","6","8","7","8","8","6","5","5","5","6","3","6","1","6","5","1","5","4","6","5","6","6","6","4","3","6","3","6","6","7","5","7","6","7","6","6","7","7","6","7","2","7","6","6","5","6","753363750240915458","韩","132","Male","[""好他"",""好我"",""坏我"",""坏他""]","[""强他"",""强我"",""弱我"",""弱他""]","","","","","","","","","","","","","","","","","","","","","","","","","","","","","","","","","","","","","","",""
"19273","","[{""name"":""Sex"",""value"":""0""},{""name"":""friend_name"",""value"":""韩""},{""name"":""ParticipantID"",""value"":""132""}]","survey-html-form","2","22140","0.0-1.0-1.0","6","6","6","5","5","4","3","5","4","4","4","1","0","1","0","1","1","2","1","5","5","5","5","5","4","4","4","5","4","6","7","8","8","6","8","7","8","8","6","5","5","5","6","3","6","1","6","5","1","5","4","6","5","6","6","6","4","3","6","3","6","6","7","5","7","6","7","6","6","7","7","6","7","2","7","6","6","5","6","753363750240915458","韩","132","Male","[""好他"",""好我"",""坏我"",""坏他""]","[""强他"",""强我"",""弱我"",""弱他""]","","","","","","","","","","","","","","","","","","","","","","","","","","","","","","","","","","","","","","",""
"","","","preload","3","22884","0.0-2.0","6","6","6","5","5","4","3","5","4","4","4","1","0","1","0","1","1","2","1","5","5","5","5","5","4","4","4","5","4","6","7","8","8","6","8","7","8","8","6","5","5","5","6","3","6","1","6","5","1","5","4","6","5","6","6","6","4","3","6","3","6","6","7","5","7","6","7","6","6","7","7","6","7","2","7","6","6","5","6","753363750240915458","韩","132","Male","[""好他"",""好我"",""坏我"",""坏他""]","[""强他"",""强我"",""弱我"",""弱他""]","","true","false","[]","[]","[]","","","","","","","","","","","","","","","","","","","","","","","","","","","","","","","","",""
"","","","fullscreen","4","24540","0.0-3.0","6","6","6","5","5","4","3","5","4","4","4","1","0","1","0","1","1","2","1","5","5","5","5","5","4","4","4","5","4","6","7","8","8","6","8","7","8","8","6","5","5","5","6","3","6","1","6","5","1","5","4","6","5","6","6","6","4","3","6","3","6","6","7","5","7","6","7","6","6","7","7","6","7","2","7","6","6","5","6","753363750240915458","韩","132","Male","[""好他"",""好我"",""坏我"",""坏他""]","[""强他"",""强我"",""弱我"",""弱他""]","","true","","","","","{}","","","","","","","","","","","","","","","","","","","","","","","","","","","","","","","",""
"28112.80000000447","","{""Q01"":""6"",""Q02"":""6"",""Q03"":""6"",""Q04"":""5"",""Q05"":""5""}","survey-template","5","54413","0.0-4.0","6","6","6","5","5","4","3","5","4","4","4","1","0","1","0","1","1","2","1","5","5","5","5","5","4","4","4","5","4","6","7","8","8","6","8","7","8","8","6","5","5","5","6","3","6","1","6","5","1","5","4","6","5","6","6","6","4","3","6","3","6","6","7","5","7","6","7","6","6","7","7","6","7","2","7","6","6","5","6","753363750240915458","韩","132","Male","[""好他"",""好我"",""坏我"",""坏他""]","[""强他"",""强我"",""弱我"",""弱他""]","","","","","","","","{""Q01"":""6"",""Q02"":""6"",""Q03"":""6"",""Q04"":""5"",""Q05"":""5""}","[0,1,2,3,4]","[""Q01"",""Q02"",""Q03"",""Q04"",""Q05""]","[4040.10000000149,6807.89999999851,8943.89999999851,12056.10000000149,23160.10000000149]","[]","[4040.10000000149,6439.60000000149,6807.89999999851,8296,8943.89999999851,12056.10000000149,21007.60000000149,22431.89999999851,23160.10000000149,28111.80000000447]","0.6","0.25","0","","","","","","","","","","","","","","","","","","","","","","",""
"23178.79999999702","","{""Q01"":""4"",""Q02"":""3"",""Q03"":""5"",""Q04"":""4"",""Q05"":""4"",""Q06"":""4""}","survey-template","6","77597","0.0-5.0","6","6","6","5","5","4","3","5","4","4","4","1","0","1","0","1","1","2","1","5","5","5","5","5","4","4","4","5","4","6","7","8","8","6","8","7","8","8","6","5","5","5","6","3","6","1","6","5","1","5","4","6","5","6","6","6","4","3","6","3","6","6","7","5","7","6","7","6","6","7","7","6","7","2","7","6","6","5","6","753363750240915458","韩","132","Male","[""好他"",""好我"",""坏我"",""坏他""]","[""强他"",""强我"",""弱我"",""弱他""]","","","","","","","","{""Q01"":""4"",""Q02"":""3"",""Q03"":""5"",""Q04"":""4"",""Q05"":""4"",""Q06"":""4""}","[0,1,2,3,4,5]","[""Q01"",""Q02"",""Q02"",""Q03"",""Q04"",""Q05"",""Q06""]","[3929.60000000149,7994,8865.79999999702,10522.5,13577.5,15682.69999999553,22049.5]","[]","[3929.60000000149,7994,8865.79999999702,10522.5,13577.5,15682.69999999553,22049.5,23178.19999999553]","0.3333333333333333","0.2","0","","","","","","","","","","","","","","","","","","","","","","",""
"26189.5","","{""Q01"":""1"",""Q02"":""0"",""Q03"":""1"",""Q04"":""0"",""Q05"":""1"",""Q06"":""1"",""Q07"":""2"",""Q08"":""1""}","survey-template","7","103791","0.0-6.0","6","6","6","5","5","4","3","5","4","4","4","1","0","1","0","1","1","2","1","5","5","5","5","5","4","4","4","5","4","6","7","8","8","6","8","7","8","8","6","5","5","5","6","3","6","1","6","5","1","5","4","6","5","6","6","6","4","3","6","3","6","6","7","5","7","6","7","6","6","7","7","6","7","2","7","6","6","5","6","753363750240915458","韩","132","Male","[""好他"",""好我"",""坏我"",""坏他""]","[""强他"",""强我"",""弱我"",""弱他""]","","","","","","","","{""Q01"":""1"",""Q02"":""0"",""Q03"":""1"",""Q04"":""0"",""Q05"":""1"",""Q06"":""1"",""Q07"":""2"",""Q08"":""1""}","[0,1,2,3,4,5,6,7]","[""Q01"",""Q01"",""Q02"",""Q03"",""Q04"",""Q05"",""Q06"",""Q07"",""Q08""]","[4355.39999999851,4650.89999999851,7955.19999999553,9514.89999999851,14578.60000000149,18290.5,19610.79999999702,22506.79999999702,25524.79999999702]","[]","[4355.39999999851,4650.89999999851,7955.19999999553,9514.89999999851,14578.60000000149,18290.5,19610.79999999702,22506.79999999702,25524.79999999702,26188.5]","0.625","0.8571428571428571","0","","","","","","","","","","","","","","","","","","","","","","",""
"17458","","","instructions","8","121253","0.0-7.0","6","6","6","5","5","4","3","5","4","4","4","1","0","1","0","1","1","2","1","5","5","5","5","5","4","4","4","5","4","6","7","8","8","6","8","7","8","8","6","5","5","5","6","3","6","1","6","5","1","5","4","6","5","6","6","6","4","3","6","3","6","6","7","5","7","6","7","6","6","7","7","6","7","2","7","6","6","5","6","753363750240915458","韩","132","Male","[""好他"",""好我"",""坏我"",""坏他""]","[""强他"",""强我"",""弱我"",""弱他""]","","","","","","","","","","","","","","","","","[{""page_index"":0,""viewing_time"":17458}]","","","","","","","","","","","","","","","","","","","","","",""
"241845","","","instructions","9","363099","0.0-8.0-0.0-0.0","6","6","6","5","5","4","3","5","4","4","4","1","0","1","0","1","1","2","1","5","5","5","5","5","4","4","4","5","4","6","7","8","8","6","8","7","8","8","6","5","5","5","6","3","6","1","6","5","1","5","4","6","5","6","6","6","4","3","6","3","6","6","7","5","7","6","7","6","6","7","7","6","7","2","7","6","6","5","6","753363750240915458","韩","132","Male","[""好他"",""好我"",""坏我"",""坏他""]","[""强他"",""强我"",""弱我"",""弱他""]","","","","","","","","","","","","","","","","","[{""page_index"":0,""viewing_time"":62869},{""page_index"":1,""viewing_time"":127153},{""page_index"":2,""viewing_time"":24462},{""page_index"":1,""viewing_time"":13544},{""page_index"":2,""viewing_time"":9832},{""page_index"":3,""viewing_time"":3984}]","","","","","","","","","","","","","","","","","","","","","",""
"null","","null","psychophysics","10","365307","0.0-8.0-0.0-1.0-0.0-0.0","6","6","6","5","5","4","3","5","4","4","4","1","0","1","0","1","1","2","1","5","5","5","5","5","4","4","4","5","4","6","7","8","8","6","8","7","8","8","6","5","5","5","6","3","6","1","6","5","1","5","4","6","5","6","6","6","4","3","6","3","6","6","7","5","7","6","7","6","6","7","7","6","7","2","7","6","6","5","6","753363750240915458","韩","132","Male","[""好他"",""好我"",""坏我"",""坏他""]","[""强他"",""强我"",""弱我"",""弱他""]","","","","","","","","null","","","","","","","","","","key","null","16.7954307692309","960","536","f","false","match","img/diamond.png","好我","好我","prac_ALT2_moral","practice_moral","","","","","","","","",""
"null","<span class='add_' style='color:yellow; font-size: 70px;'> 太慢! </span>","null","html-keyboard-response","11","365809","0.0-8.0-0.0-1.0-0.0-1.0","6","6","6","5","5","4","3","5","4","4","4","1","0","1","0","1","1","2","1","5","5","5","5","5","4","4","4","5","4","6","7","8","8","6","8","7","8","8","6","5","5","5","6","3","6","1","6","5","1","5","4","6","5","6","6","6","4","3","6","3","6","6","7","5","7","6","7","6","6","7","7","6","7","2","7","6","6","5","6","753363750240915458","韩","132","Male","[""好他"",""好我"",""坏我"",""坏他""]","[""强他"",""强我"",""弱我"",""弱他""]","","","","","","","","","","","","","","","","","","","","","","","","","","","","","","feedback_test","","","","","","","","",""
"903","","j","psychophysics","12","367715","0.0-8.0-0.0-1.0-0.0-0.1","6","6","6","5","5","4","3","5","4","4","4","1","0","1","0","1","1","2","1","5","5","5","5","5","4","4","4","5","4","6","7","8","8","6","8","7","8","8","6","5","5","5","6","3","6","1","6","5","1","5","4","6","5","6","6","6","4","3","6","3","6","6","7","5","7","6","7","6","6","7","7","6","7","2","7","6","6","5","6","753363750240915458","韩","132","Male","[""好他"",""好我"",""坏我"",""坏他""]","[""强他"",""强我"",""弱我"",""弱他""]","","","","","","","","nonmatch","","","","","","","","","","key","j","16.62024561403495","960","536","j","true","nonmatch","img/hexagon.png","坏我","坏他","prac_ALT2_moral","practice_moral","","","","","","","","",""
"null","<span style='color:GreenYellow; font-size: 70px;'>正确! </span>","null","html-keyboard-response","13","368218","0.0-8.0-0.0-1.0-0.0-1.1","6","6","6","5","5","4","3","5","4","4","4","1","0","1","0","1","1","2","1","5","5","5","5","5","4","4","4","5","4","6","7","8","8","6","8","7","8","8","6","5","5","5","6","3","6","1","6","5","1","5","4","6","5","6","6","6","4","3","6","3","6","6","7","5","7","6","7","6","6","7","7","6","7","2","7","6","6","5","6","753363750240915458","韩","132","Male","[""好他"",""好我"",""坏我"",""坏他""]","[""强他"",""强我"",""弱我"",""弱他""]","","","","","","","","","","","","","","","","","","","","","","","","","","","","","","feedback_test","","","","","","","","",""
"904","","f","psychophysics","14","370123","0.0-8.0-0.0-1.0-0.0-0.2","6","6","6","5","5","4","3","5","4","4","4","1","0","1","0","1","1","2","1","5","5","5","5","5","4","4","4","5","4","6","7","8","8","6","8","7","8","8","6","5","5","5","6","3","6","1","6","5","1","5","4","6","5","6","6","6","4","3","6","3","6","6","7","5","7","6","7","6","6","7","7","6","7","2","7","6","6","5","6","753363750240915458","韩","132","Male","[""好他"",""好我"",""坏我"",""坏他""]","[""强他"",""强我"",""弱我"",""弱他""]","","","","","","","","match","","","","","","","","","","key","f","16.667238938053494","960","536","f","true","match","img/diamond.png","好我","好我","prac_ALT2_moral","practice_moral","","","","","","","","",""
"null","<span style='color:GreenYellow; font-size: 70px;'>正确! </span>","null","html-keyboard-response","15","370625","0.0-8.0-0.0-1.0-0.0-1.2","6","6","6","5","5","4","3","5","4","4","4","1","0","1","0","1","1","2","1","5","5","5","5","5","4","4","4","5","4","6","7","8","8","6","8","7","8","8","6","5","5","5","6","3","6","1","6","5","1","5","4","6","5","6","6","6","4","3","6","3","6","6","7","5","7","6","7","6","6","7","7","6","7","2","7","6","6","5","6","753363750240915458","韩","132","Male","[""好他"",""好我"",""坏我"",""坏他""]","[""强他"",""强我"",""弱我"",""弱他""]","","","","","","","","","","","","","","","","","","","","","","","","","","","","","","feedback_test","","","","","","","","",""
"1028","","f","psychophysics","16","372654","0.0-8.0-0.0-1.0-0.0-0.3","6","6","6","5","5","4","3","5","4","4","4","1","0","1","0","1","1","2","1","5","5","5","5","5","4","4","4","5","4","6","7","8","8","6","8","7","8","8","6","5","5","5","6","3","6","1","6","5","1","5","4","6","5","6","6","6","4","3","6","3","6","6","7","5","7","6","7","6","6","7","7","6","7","2","7","6","6","5","6","753363750240915458","韩","132","Male","[""好他"",""好我"",""坏我"",""坏他""]","[""强他"",""强我"",""弱我"",""弱他""]","","","","","","","","match","","","","","","","","","","key","f","16.665458333333177","960","536","f","true","match","img/hexagon.png","坏他","坏他","prac_ALT2_moral","practice_moral","","","","","","","","",""
"null","<span style='color:GreenYellow; font-size: 70px;'>正确! </span>","null","html-keyboard-response","17","373159","0.0-8.0-0.0-1.0-0.0-1.3","6","6","6","5","5","4","3","5","4","4","4","1","0","1","0","1","1","2","1","5","5","5","5","5","4","4","4","5","4","6","7","8","8","6","8","7","8","8","6","5","5","5","6","3","6","1","6","5","1","5","4","6","5","6","6","6","4","3","6","3","6","6","7","5","7","6","7","6","6","7","7","6","7","2","7","6","6","5","6","753363750240915458","韩","132","Male","[""好他"",""好我"",""坏我"",""坏他""]","[""强他"",""强我"",""弱我"",""弱他""]","","","","","","","","","","","","","","","","","","","","","","","","","","","","","","feedback_test","","","","","","","","",""
"1115","","j","psychophysics","18","375276","0.0-8.0-0.0-1.0-0.0-0.4","6","6","6","5","5","4","3","5","4","4","4","1","0","1","0","1","1","2","1","5","5","5","5","5","4","4","4","5","4","6","7","8","8","6","8","7","8","8","6","5","5","5","6","3","6","1","6","5","1","5","4","6","5","6","6","6","4","3","6","3","6","6","7","5","7","6","7","6","6","7","7","6","7","2","7","6","6","5","6","753363750240915458","韩","132","Male","[""好他"",""好我"",""坏我"",""坏他""]","[""强他"",""强我"",""弱我"",""弱他""]","","","","","","","","nonmatch","","","","","","","","","","key","j","16.66660317460339","960","536","j","true","nonmatch","img/diamond.png","好他","好我","prac_ALT2_moral","practice_moral","","","","","","","","",""
"null","<span style='color:GreenYellow; font-size: 70px;'>正确! </span>","null","html-keyboard-response","19","375777","0.0-8.0-0.0-1.0-0.0-1.4","6","6","6","5","5","4","3","5","4","4","4","1","0","1","0","1","1","2","1","5","5","5","5","5","4","4","4","5","4","6","7","8","8","6","8","7","8","8","6","5","5","5","6","3","6","1","6","5","1","5","4","6","5","6","6","6","4","3","6","3","6","6","7","5","7","6","7","6","6","7","7","6","7","2","7","6","6","5","6","753363750240915458","韩","132","Male","[""好他"",""好我"",""坏我"",""坏他""]","[""强他"",""强我"",""弱我"",""弱他""]","","","","","","","","","","","","","","","","","","","","","","","","","","","","","","feedback_test","","","","","","","","",""
"null","","null","psychophysics","20","377980","0.0-8.0-0.0-1.0-0.0-0.5","6","6","6","5","5","4","3","5","4","4","4","1","0","1","0","1","1","2","1","5","5","5","5","5","4","4","4","5","4","6","7","8","8","6","8","7","8","8","6","5","5","5","6","3","6","1","6","5","1","5","4","6","5","6","6","6","4","3","6","3","6","6","7","5","7","6","7","6","6","7","7","6","7","2","7","6","6","5","6","753363750240915458","韩","132","Male","[""好他"",""好我"",""坏我"",""坏他""]","[""强他"",""强我"",""弱我"",""弱他""]","","","","","","","","null","","","","","","","","","","key","null","16.66678625954189","960","536","f","false","match","img/ellipse.png","坏我","坏我","prac_ALT2_moral","practice_moral","","","","","","","","",""
"null","<span class='add_' style='color:yellow; font-size: 70px;'> 太慢! </span>","null","html-keyboard-response","21","378482","0.0-8.0-0.0-1.0-0.0-1.5","6","6","6","5","5","4","3","5","4","4","4","1","0","1","0","1","1","2","1","5","5","5","5","5","4","4","4","5","4","6","7","8","8","6","8","7","8","8","6","5","5","5","6","3","6","1","6","5","1","5","4","6","5","6","6","6","4","3","6","3","6","6","7","5","7","6","7","6","6","7","7","6","7","2","7","6","6","5","6","753363750240915458","韩","132","Male","[""好他"",""好我"",""坏我"",""坏他""]","[""强他"",""强我"",""弱我"",""弱他""]","","","","","","","","","","","","","","","","","","","","","","","","","","","","","","feedback_test","","","","","","","","",""
"960","","f","psychophysics","22","380444","0.0-8.0-0.0-1.0-0.0-0.6","6","6","6","5","5","4","3","5","4","4","4","1","0","1","0","1","1","2","1","5","5","5","5","5","4","4","4","5","4","6","7","8","8","6","8","7","8","8","6","5","5","5","6","3","6","1","6","5","1","5","4","6","5","6","6","6","4","3","6","3","6","6","7","5","7","6","7","6","6","7","7","6","7","2","7","6","6","5","6","753363750240915458","韩","132","Male","[""好他"",""好我"",""坏我"",""坏他""]","[""强他"",""强我"",""弱我"",""弱他""]","","","","","","","","match","","","","","","","","","","key","f","16.66704273504269","960","536","f","true","match","img/triangle.png","好他","好他","prac_ALT2_moral","practice_moral","","","","","","","","",""
"null","<span style='color:GreenYellow; font-size: 70px;'>正确! </span>","null","html-keyboard-response","23","380947","0.0-8.0-0.0-1.0-0.0-1.6","6","6","6","5","5","4","3","5","4","4","4","1","0","1","0","1","1","2","1","5","5","5","5","5","4","4","4","5","4","6","7","8","8","6","8","7","8","8","6","5","5","5","6","3","6","1","6","5","1","5","4","6","5","6","6","6","4","3","6","3","6","6","7","5","7","6","7","6","6","7","7","6","7","2","7","6","6","5","6","753363750240915458","韩","132","Male","[""好他"",""好我"",""坏我"",""坏他""]","[""强他"",""强我"",""弱我"",""弱他""]","","","","","","","","","","","","","","","","","","","","","","","","","","","","","","feedback_test","","","","","","","","",""
"854","","j","psychophysics","24","382803","0.0-8.0-0.0-1.0-0.0-0.7","6","6","6","5","5","4","3","5","4","4","4","1","0","1","0","1","1","2","1","5","5","5","5","5","4","4","4","5","4","6","7","8","8","6","8","7","8","8","6","5","5","5","6","3","6","1","6","5","1","5","4","6","5","6","6","6","4","3","6","3","6","6","7","5","7","6","7","6","6","7","7","6","7","2","7","6","6","5","6","753363750240915458","韩","132","Male","[""好他"",""好我"",""坏我"",""坏他""]","[""强他"",""强我"",""弱我"",""弱他""]","","","","","","","","nonmatch","","","","","","","","","","key","j","16.666718181817984","960","536","j","true","nonmatch","img/ellipse.png","好我","坏我","prac_ALT2_moral","practice_moral","","","","","","","","",""
"null","<span style='color:GreenYellow; font-size: 70px;'>正确! </span>","null","html-keyboard-response","25","383304","0.0-8.0-0.0-1.0-0.0-1.7","6","6","6","5","5","4","3","5","4","4","4","1","0","1","0","1","1","2","1","5","5","5","5","5","4","4","4","5","4","6","7","8","8","6","8","7","8","8","6","5","5","5","6","3","6","1","6","5","1","5","4","6","5","6","6","6","4","3","6","3","6","6","7","5","7","6","7","6","6","7","7","6","7","2","7","6","6","5","6","753363750240915458","韩","132","Male","[""好他"",""好我"",""坏我"",""坏他""]","[""强他"",""强我"",""弱我"",""弱他""]","","","","","","","","","","","","","","","","","","","","","","","","","","","","","","feedback_test","","","","","","","","",""
"null","","null","psychophysics","26","385506","0.0-8.0-0.0-1.0-0.0-0.8","6","6","6","5","5","4","3","5","4","4","4","1","0","1","0","1","1","2","1","5","5","5","5","5","4","4","4","5","4","6","7","8","8","6","8","7","8","8","6","5","5","5","6","3","6","1","6","5","1","5","4","6","5","6","6","6","4","3","6","3","6","6","7","5","7","6","7","6","6","7","7","6","7","2","7","6","6","5","6","753363750240915458","韩","132","Male","[""好他"",""好我"",""坏我"",""坏他""]","[""强他"",""强我"",""弱我"",""弱他""]","","","","","","","","null","","","","","","","","","","key","null","16.66694656488546","960","536","f","false","match","img/ellipse.png","坏我","坏我","prac_ALT2_moral","practice_moral","","","","","","","","",""
"null","<span class='add_' style='color:yellow; font-size: 70px;'> 太慢! </span>","null","html-keyboard-response","27","386008","0.0-8.0-0.0-1.0-0.0-1.8","6","6","6","5","5","4","3","5","4","4","4","1","0","1","0","1","1","2","1","5","5","5","5","5","4","4","4","5","4","6","7","8","8","6","8","7","8","8","6","5","5","5","6","3","6","1","6","5","1","5","4","6","5","6","6","6","4","3","6","3","6","6","7","5","7","6","7","6","6","7","7","6","7","2","7","6","6","5","6","753363750240915458","韩","132","Male","[""好他"",""好我"",""坏我"",""坏他""]","[""强他"",""强我"",""弱我"",""弱他""]","","","","","","","","","","","","","","","","","","","","","","","","","","","","","","feedback_test","","","","","","","","",""
"1043","","f","psychophysics","28","388053","0.0-8.0-0.0-1.0-0.0-0.9","6","6","6","5","5","4","3","5","4","4","4","1","0","1","0","1","1","2","1","5","5","5","5","5","4","4","4","5","4","6","7","8","8","6","8","7","8","8","6","5","5","5","6","3","6","1","6","5","1","5","4","6","5","6","6","6","4","3","6","3","6","6","7","5","7","6","7","6","6","7","7","6","7","2","7","6","6","5","6","753363750240915458","韩","132","Male","[""好他"",""好我"",""坏我"",""坏他""]","[""强他"",""强我"",""弱我"",""弱他""]","","","","","","","","match","","","","","","","","","","key","f","16.66690909090906","960","536","f","true","match","img/triangle.png","好他","好他","prac_ALT2_moral","practice_moral","","","","","","","","",""
"null","<span style='color:GreenYellow; font-size: 70px;'>正确! </span>","null","html-keyboard-response","29","388554","0.0-8.0-0.0-1.0-0.0-1.9","6","6","6","5","5","4","3","5","4","4","4","1","0","1","0","1","1","2","1","5","5","5","5","5","4","4","4","5","4","6","7","8","8","6","8","7","8","8","6","5","5","5","6","3","6","1","6","5","1","5","4","6","5","6","6","6","4","3","6","3","6","6","7","5","7","6","7","6","6","7","7","6","7","2","7","6","6","5","6","753363750240915458","韩","132","Male","[""好他"",""好我"",""坏我"",""坏他""]","[""强他"",""强我"",""弱我"",""弱他""]","","","","","","","","","","","","","","","","","","","","","","","","","","","","","","feedback_test","","","","","","","","",""
"null","","null","psychophysics","30","390756","0.0-8.0-0.0-1.0-0.0-0.10","6","6","6","5","5","4","3","5","4","4","4","1","0","1","0","1","1","2","1","5","5","5","5","5","4","4","4","5","4","6","7","8","8","6","8","7","8","8","6","5","5","5","6","3","6","1","6","5","1","5","4","6","5","6","6","6","4","3","6","3","6","6","7","5","7","6","7","6","6","7","7","6","7","2","7","6","6","5","6","753363750240915458","韩","132","Male","[""好他"",""好我"",""坏我"",""坏他""]","[""强他"",""强我"",""弱我"",""弱他""]","","","","","","","","null","","","","","","","","","","key","null","16.66662595419876","960","536","j","false","nonmatch","img/ellipse.png","好他","坏我","prac_ALT2_moral","practice_moral","","","","","","","","",""
"null","<span class='add_' style='color:yellow; font-size: 70px;'> 太慢! </span>","null","html-keyboard-response","31","391258","0.0-8.0-0.0-1.0-0.0-1.10","6","6","6","5","5","4","3","5","4","4","4","1","0","1","0","1","1","2","1","5","5","5","5","5","4","4","4","5","4","6","7","8","8","6","8","7","8","8","6","5","5","5","6","3","6","1","6","5","1","5","4","6","5","6","6","6","4","3","6","3","6","6","7","5","7","6","7","6","6","7","7","6","7","2","7","6","6","5","6","753363750240915458","韩","132","Male","[""好他"",""好我"",""坏我"",""坏他""]","[""强他"",""强我"",""弱我"",""弱他""]","","","","","","","","","","","","","","","","","","","","","","","","","","","","","","feedback_test","","","","","","","","",""
"1120","","j","psychophysics","32","393380","0.0-8.0-0.0-1.0-0.0-0.11","6","6","6","5","5","4","3","5","4","4","4","1","0","1","0","1","1","2","1","5","5","5","5","5","4","4","4","5","4","6","7","8","8","6","8","7","8","8","6","5","5","5","6","3","6","1","6","5","1","5","4","6","5","6","6","6","4","3","6","3","6","6","7","5","7","6","7","6","6","7","7","6","7","2","7","6","6","5","6","753363750240915458","韩","132","Male","[""好他"",""好我"",""坏我"",""坏他""]","[""强他"",""强我"",""弱我"",""弱他""]","","","","","","","","nonmatch","","","","","","","","","","key","j","16.66649999999994","960","536","j","true","nonmatch","img/hexagon.png","好我","坏他","prac_ALT2_moral","practice_moral","","","","","","","","",""
"null","<span style='color:GreenYellow; font-size: 70px;'>正确! </span>","null","html-keyboard-response","33","393881","0.0-8.0-0.0-1.0-0.0-1.11","6","6","6","5","5","4","3","5","4","4","4","1","0","1","0","1","1","2","1","5","5","5","5","5","4","4","4","5","4","6","7","8","8","6","8","7","8","8","6","5","5","5","6","3","6","1","6","5","1","5","4","6","5","6","6","6","4","3","6","3","6","6","7","5","7","6","7","6","6","7","7","6","7","2","7","6","6","5","6","753363750240915458","韩","132","Male","[""好他"",""好我"",""坏我"",""坏他""]","[""强他"",""强我"",""弱我"",""弱他""]","","","","","","","","","","","","","","","","","","","","","","","","","","","","","","feedback_test","","","","","","","","",""
"1162","","f","psychophysics","34","396046","0.0-8.0-0.0-1.0-0.0-0.12","6","6","6","5","5","4","3","5","4","4","4","1","0","1","0","1","1","2","1","5","5","5","5","5","4","4","4","5","4","6","7","8","8","6","8","7","8","8","6","5","5","5","6","3","6","1","6","5","1","5","4","6","5","6","6","6","4","3","6","3","6","6","7","5","7","6","7","6","6","7","7","6","7","2","7","6","6","5","6","753363750240915458","韩","132","Male","[""好他"",""好我"",""坏我"",""坏他""]","[""强他"",""强我"",""弱我"",""弱他""]","","","","","","","","match","","","","","","","","","","key","f","16.667023255814197","960","536","f","true","match","img/triangle.png","好他","好他","prac_ALT2_moral","practice_moral","","","","","","","","",""
"null","<span style='color:GreenYellow; font-size: 70px;'>正确! </span>","null","html-keyboard-response","35","396548","0.0-8.0-0.0-1.0-0.0-1.12","6","6","6","5","5","4","3","5","4","4","4","1","0","1","0","1","1","2","1","5","5","5","5","5","4","4","4","5","4","6","7","8","8","6","8","7","8","8","6","5","5","5","6","3","6","1","6","5","1","5","4","6","5","6","6","6","4","3","6","3","6","6","7","5","7","6","7","6","6","7","7","6","7","2","7","6","6","5","6","753363750240915458","韩","132","Male","[""好他"",""好我"",""坏我"",""坏他""]","[""强他"",""强我"",""弱我"",""弱他""]","","","","","","","","","","","","","","","","","","","","","","","","","","","","","","feedback_test","","","","","","","","",""
"1069","","f","psychophysics","36","398620","0.0-8.0-0.0-1.0-0.0-0.13","6","6","6","5","5","4","3","5","4","4","4","1","0","1","0","1","1","2","1","5","5","5","5","5","4","4","4","5","4","6","7","8","8","6","8","7","8","8","6","5","5","5","6","3","6","1","6","5","1","5","4","6","5","6","6","6","4","3","6","3","6","6","7","5","7","6","7","6","6","7","7","6","7","2","7","6","6","5","6","753363750240915458","韩","132","Male","[""好他"",""好我"",""坏我"",""坏他""]","[""强他"",""强我"",""弱我"",""弱他""]","","","","","","","","match","","","","","","","","","","key","f","16.667040650406285","960","536","j","false","nonmatch","img/triangle.png","坏我","好他","prac_ALT2_moral","practice_moral","","","","","","","","",""
"null","<span style='color:red; font-size: 70px;'>错误! </span>","null","html-keyboard-response","37","399120","0.0-8.0-0.0-1.0-0.0-1.13","6","6","6","5","5","4","3","5","4","4","4","1","0","1","0","1","1","2","1","5","5","5","5","5","4","4","4","5","4","6","7","8","8","6","8","7","8","8","6","5","5","5","6","3","6","1","6","5","1","5","4","6","5","6","6","6","4","3","6","3","6","6","7","5","7","6","7","6","6","7","7","6","7","2","7","6","6","5","6","753363750240915458","韩","132","Male","[""好他"",""好我"",""坏我"",""坏他""]","[""强他"",""强我"",""弱我"",""弱他""]","","","","","","","","","","","","","","","","","","","","","","","","","","","","","","feedback_test","","","","","","","","",""
"null","","null","psychophysics","38","401323","0.0-8.0-0.0-1.0-0.0-0.14","6","6","6","5","5","4","3","5","4","4","4","1","0","1","0","1","1","2","1","5","5","5","5","5","4","4","4","5","4","6","7","8","8","6","8","7","8","8","6","5","5","5","6","3","6","1","6","5","1","5","4","6","5","6","6","6","4","3","6","3","6","6","7","5","7","6","7","6","6","7","7","6","7","2","7","6","6","5","6","753363750240915458","韩","132","Male","[""好他"",""好我"",""坏我"",""坏他""]","[""强他"",""强我"",""弱我"",""弱他""]","","","","","","","","null","","","","","","","","","","key","null","16.666954198473164","960","536","f","false","match","img/hexagon.png","坏他","坏他","prac_ALT2_moral","practice_moral","","","","","","","","",""
"null","<span class='add_' style='color:yellow; font-size: 70px;'> 太慢! </span>","null","html-keyboard-response","39","401824","0.0-8.0-0.0-1.0-0.0-1.14","6","6","6","5","5","4","3","5","4","4","4","1","0","1","0","1","1","2","1","5","5","5","5","5","4","4","4","5","4","6","7","8","8","6","8","7","8","8","6","5","5","5","6","3","6","1","6","5","1","5","4","6","5","6","6","6","4","3","6","3","6","6","7","5","7","6","7","6","6","7","7","6","7","2","7","6","6","5","6","753363750240915458","韩","132","Male","[""好他"",""好我"",""坏我"",""坏他""]","[""强他"",""强我"",""弱我"",""弱他""]","","","","","","","","","","","","","","","","","","","","","","","","","","","","","","feedback_test","","","","","","","","",""
"1137","","f","psychophysics","40","403973","0.0-8.0-0.0-1.0-0.0-0.15","6","6","6","5","5","4","3","5","4","4","4","1","0","1","0","1","1","2","1","5","5","5","5","5","4","4","4","5","4","6","7","8","8","6","8","7","8","8","6","5","5","5","6","3","6","1","6","5","1","5","4","6","5","6","6","6","4","3","6","3","6","6","7","5","7","6","7","6","6","7","7","6","7","2","7","6","6","5","6","753363750240915458","韩","132","Male","[""好他"",""好我"",""坏我"",""坏他""]","[""强他"",""强我"",""弱我"",""弱他""]","","","","","","","","match","","","","","","","","","","key","f","16.666267716535277","960","536","f","true","match","img/diamond.png","好我","好我","prac_ALT2_moral","practice_moral","","","","","","","","",""
"null","<span style='color:GreenYellow; font-size: 70px;'>正确! </span>","null","html-keyboard-response","41","404474","0.0-8.0-0.0-1.0-0.0-1.15","6","6","6","5","5","4","3","5","4","4","4","1","0","1","0","1","1","2","1","5","5","5","5","5","4","4","4","5","4","6","7","8","8","6","8","7","8","8","6","5","5","5","6","3","6","1","6","5","1","5","4","6","5","6","6","6","4","3","6","3","6","6","7","5","7","6","7","6","6","7","7","6","7","2","7","6","6","5","6","753363750240915458","韩","132","Male","[""好他"",""好我"",""坏我"",""坏他""]","[""强他"",""强我"",""弱我"",""弱他""]","","","","","","","","","","","","","","","","","","","","","","","","","","","","","","feedback_test","","","","","","","","",""
"1169","","f","psychophysics","42","406645","0.0-8.0-0.0-1.0-0.0-0.16","6","6","6","5","5","4","3","5","4","4","4","1","0","1","0","1","1","2","1","5","5","5","5","5","4","4","4","5","4","6","7","8","8","6","8","7","8","8","6","5","5","5","6","3","6","1","6","5","1","5","4","6","5","6","6","6","4","3","6","3","6","6","7","5","7","6","7","6","6","7","7","6","7","2","7","6","6","5","6","753363750240915458","韩","132","Male","[""好他"",""好我"",""坏我"",""坏他""]","[""强他"",""强我"",""弱我"",""弱他""]","","","","","","","","match","","","","","","","","","","key","f","16.666852713178105","960","536","f","true","match","img/hexagon.png","坏他","坏他","prac_ALT2_moral","practice_moral","","","","","","","","",""
"null","<span style='color:GreenYellow; font-size: 70px;'>正确! </span>","null","html-keyboard-response","43","407147","0.0-8.0-0.0-1.0-0.0-1.16","6","6","6","5","5","4","3","5","4","4","4","1","0","1","0","1","1","2","1","5","5","5","5","5","4","4","4","5","4","6","7","8","8","6","8","7","8","8","6","5","5","5","6","3","6","1","6","5","1","5","4","6","5","6","6","6","4","3","6","3","6","6","7","5","7","6","7","6","6","7","7","6","7","2","7","6","6","5","6","753363750240915458","韩","132","Male","[""好他"",""好我"",""坏我"",""坏他""]","[""强他"",""强我"",""弱我"",""弱他""]","","","","","","","","","","","","","","","","","","","","","","","","","","","","","","feedback_test","","","","","","","","",""
"null","","null","psychophysics","44","409350","0.0-8.0-0.0-1.0-0.0-0.17","6","6","6","5","5","4","3","5","4","4","4","1","0","1","0","1","1","2","1","5","5","5","5","5","4","4","4","5","4","6","7","8","8","6","8","7","8","8","6","5","5","5","6","3","6","1","6","5","1","5","4","6","5","6","6","6","4","3","6","3","6","6","7","5","7","6","7","6","6","7","7","6","7","2","7","6","6","5","6","753363750240915458","韩","132","Male","[""好他"",""好我"",""坏我"",""坏他""]","[""强他"",""强我"",""弱我"",""弱他""]","","","","","","","","null","","","","","","","","","","key","null","16.666160305343453","960","536","j","false","nonmatch","img/triangle.png","坏他","好他","prac_ALT2_moral","practice_moral","","","","","","","","",""
"null","<span class='add_' style='color:yellow; font-size: 70px;'> 太慢! </span>","null","html-keyboard-response","45","409851","0.0-8.0-0.0-1.0-0.0-1.17","6","6","6","5","5","4","3","5","4","4","4","1","0","1","0","1","1","2","1","5","5","5","5","5","4","4","4","5","4","6","7","8","8","6","8","7","8","8","6","5","5","5","6","3","6","1","6","5","1","5","4","6","5","6","6","6","4","3","6","3","6","6","7","5","7","6","7","6","6","7","7","6","7","2","7","6","6","5","6","753363750240915458","韩","132","Male","[""好他"",""好我"",""坏我"",""坏他""]","[""强他"",""强我"",""弱我"",""弱他""]","","","","","","","","","","","","","","","","","","","","","","","","","","","","","","feedback_test","","","","","","","","",""
"1198","","j","psychophysics","46","412052","0.0-8.0-0.0-1.0-0.0-0.18","6","6","6","5","5","4","3","5","4","4","4","1","0","1","0","1","1","2","1","5","5","5","5","5","4","4","4","5","4","6","7","8","8","6","8","7","8","8","6","5","5","5","6","3","6","1","6","5","1","5","4","6","5","6","6","6","4","3","6","3","6","6","7","5","7","6","7","6","6","7","7","6","7","2","7","6","6","5","6","753363750240915458","韩","132","Male","[""好他"",""好我"",""坏我"",""坏他""]","[""强他"",""强我"",""弱我"",""弱他""]","","","","","","","","nonmatch","","","","","","","","","","key","j","16.66688549618338","960","536","j","true","nonmatch","img/diamond.png","坏他","好我","prac_ALT2_moral","practice_moral","","","","","","","","",""
"null","<span style='color:GreenYellow; font-size: 70px;'>正确! </span>","null","html-keyboard-response","47","412553","0.0-8.0-0.0-1.0-0.0-1.18","6","6","6","5","5","4","3","5","4","4","4","1","0","1","0","1","1","2","1","5","5","5","5","5","4","4","4","5","4","6","7","8","8","6","8","7","8","8","6","5","5","5","6","3","6","1","6","5","1","5","4","6","5","6","6","6","4","3","6","3","6","6","7","5","7","6","7","6","6","7","7","6","7","2","7","6","6","5","6","753363750240915458","韩","132","Male","[""好他"",""好我"",""坏我"",""坏他""]","[""强他"",""强我"",""弱我"",""弱他""]","","","","","","","","","","","","","","","","","","","","","","","","","","","","","","feedback_test","","","","","","","","",""
"865","","f","psychophysics","48","414419","0.0-8.0-0.0-1.0-0.0-0.19","6","6","6","5","5","4","3","5","4","4","4","1","0","1","0","1","1","2","1","5","5","5","5","5","4","4","4","5","4","6","7","8","8","6","8","7","8","8","6","5","5","5","6","3","6","1","6","5","1","5","4","6","5","6","6","6","4","3","6","3","6","6","7","5","7","6","7","6","6","7","7","6","7","2","7","6","6","5","6","753363750240915458","韩","132","Male","[""好他"",""好我"",""坏我"",""坏他""]","[""强他"",""强我"",""弱我"",""弱他""]","","","","","","","","match","","","","","","","","","","key","f","16.6670000000001","960","536","f","true","match","img/ellipse.png","坏我","坏我","prac_ALT2_moral","practice_moral","","","","","","","","",""
"null","<span style='color:GreenYellow; font-size: 70px;'>正确! </span>","null","html-keyboard-response","49","414920","0.0-8.0-0.0-1.0-0.0-1.19","6","6","6","5","5","4","3","5","4","4","4","1","0","1","0","1","1","2","1","5","5","5","5","5","4","4","4","5","4","6","7","8","8","6","8","7","8","8","6","5","5","5","6","3","6","1","6","5","1","5","4","6","5","6","6","6","4","3","6","3","6","6","7","5","7","6","7","6","6","7","7","6","7","2","7","6","6","5","6","753363750240915458","韩","132","Male","[""好他"",""好我"",""坏我"",""坏他""]","[""强他"",""强我"",""弱我"",""弱他""]","","","","","","","","","","","","","","","","","","","","","","","","","","","","","","feedback_test","","","","","","","","",""
"850","","f","psychophysics","50","416772","0.0-8.0-0.0-1.0-0.0-0.20","6","6","6","5","5","4","3","5","4","4","4","1","0","1","0","1","1","2","1","5","5","5","5","5","4","4","4","5","4","6","7","8","8","6","8","7","8","8","6","5","5","5","6","3","6","1","6","5","1","5","4","6","5","6","6","6","4","3","6","3","6","6","7","5","7","6","7","6","6","7","7","6","7","2","7","6","6","5","6","753363750240915458","韩","132","Male","[""好他"",""好我"",""坏我"",""坏他""]","[""强他"",""强我"",""弱我"",""弱他""]","","","","","","","","match","","","","","","","","","","key","f","16.666690909091002","960","536","j","false","nonmatch","img/ellipse.png","坏他","坏我","prac_ALT2_moral","practice_moral","","","","","","","","",""
"null","<span style='color:red; font-size: 70px;'>错误! </span>","null","html-keyboard-response","51","417272","0.0-8.0-0.0-1.0-0.0-1.20","6","6","6","5","5","4","3","5","4","4","4","1","0","1","0","1","1","2","1","5","5","5","5","5","4","4","4","5","4","6","7","8","8","6","8","7","8","8","6","5","5","5","6","3","6","1","6","5","1","5","4","6","5","6","6","6","4","3","6","3","6","6","7","5","7","6","7","6","6","7","7","6","7","2","7","6","6","5","6","753363750240915458","韩","132","Male","[""好他"",""好我"",""坏我"",""坏他""]","[""强他"",""强我"",""弱我"",""弱他""]","","","","","","","","","","","","","","","","","","","","","","","","","","","","","","feedback_test","","","","","","","","",""
"1013","","f","psychophysics","52","419287","0.0-8.0-0.0-1.0-0.0-0.21","6","6","6","5","5","4","3","5","4","4","4","1","0","1","0","1","1","2","1","5","5","5","5","5","4","4","4","5","4","6","7","8","8","6","8","7","8","8","6","5","5","5","6","3","6","1","6","5","1","5","4","6","5","6","6","6","4","3","6","3","6","6","7","5","7","6","7","6","6","7","7","6","7","2","7","6","6","5","6","753363750240915458","韩","132","Male","[""好他"",""好我"",""坏我"",""坏他""]","[""强他"",""强我"",""弱我"",""弱他""]","","","","","","","","match","","","","","","","","","","key","f","16.666924999999658","960","536","j","false","nonmatch","img/triangle.png","好我","好他","prac_ALT2_moral","practice_moral","","","","","","","","",""
"null","<span style='color:red; font-size: 70px;'>错误! </span>","null","html-keyboard-response","53","419788","0.0-8.0-0.0-1.0-0.0-1.21","6","6","6","5","5","4","3","5","4","4","4","1","0","1","0","1","1","2","1","5","5","5","5","5","4","4","4","5","4","6","7","8","8","6","8","7","8","8","6","5","5","5","6","3","6","1","6","5","1","5","4","6","5","6","6","6","4","3","6","3","6","6","7","5","7","6","7","6","6","7","7","6","7","2","7","6","6","5","6","753363750240915458","韩","132","Male","[""好他"",""好我"",""坏我"",""坏他""]","[""强他"",""强我"",""弱我"",""弱他""]","","","","","","","","","","","","","","","","","","","","","","","","","","","","","","feedback_test","","","","","","","","",""
"1197","","j","psychophysics","54","421987","0.0-8.0-0.0-1.0-0.0-0.22","6","6","6","5","5","4","3","5","4","4","4","1","0","1","0","1","1","2","1","5","5","5","5","5","4","4","4","5","4","6","7","8","8","6","8","7","8","8","6","5","5","5","6","3","6","1","6","5","1","5","4","6","5","6","6","6","4","3","6","3","6","6","7","5","7","6","7","6","6","7","7","6","7","2","7","6","6","5","6","753363750240915458","韩","132","Male","[""好他"",""好我"",""坏我"",""坏他""]","[""强他"",""强我"",""弱我"",""弱他""]","","","","","","","","nonmatch","","","","","","","","","","key","j","16.66706106870236","960","536","j","true","nonmatch","img/diamond.png","坏我","好我","prac_ALT2_moral","practice_moral","","","","","","","","",""
"null","<span style='color:GreenYellow; font-size: 70px;'>正确! </span>","null","html-keyboard-response","55","422488","0.0-8.0-0.0-1.0-0.0-1.22","6","6","6","5","5","4","3","5","4","4","4","1","0","1","0","1","1","2","1","5","5","5","5","5","4","4","4","5","4","6","7","8","8","6","8","7","8","8","6","5","5","5","6","3","6","1","6","5","1","5","4","6","5","6","6","6","4","3","6","3","6","6","7","5","7","6","7","6","6","7","7","6","7","2","7","6","6","5","6","753363750240915458","韩","132","Male","[""好他"",""好我"",""坏我"",""坏他""]","[""强他"",""强我"",""弱我"",""弱他""]","","","","","","","","","","","","","","","","","","","","","","","","","","","","","","feedback_test","","","","","","","","",""
"1052","","f","psychophysics","56","424541","0.0-8.0-0.0-1.0-0.0-0.23","6","6","6","5","5","4","3","5","4","4","4","1","0","1","0","1","1","2","1","5","5","5","5","5","4","4","4","5","4","6","7","8","8","6","8","7","8","8","6","5","5","5","6","3","6","1","6","5","1","5","4","6","5","6","6","6","4","3","6","3","6","6","7","5","7","6","7","6","6","7","7","6","7","2","7","6","6","5","6","753363750240915458","韩","132","Male","[""好他"",""好我"",""坏我"",""坏他""]","[""强他"",""强我"",""弱我"",""弱他""]","","","","","","","","match","","","","","","","","","","key","f","16.66663934426243","960","536","j","false","nonmatch","img/hexagon.png","好他","坏他","prac_ALT2_moral","practice_moral","","","","","","","","",""
"null","<span style='color:red; font-size: 70px;'>错误! </span>","null","html-keyboard-response","57","425056","0.0-8.0-0.0-1.0-0.0-1.23","6","6","6","5","5","4","3","5","4","4","4","1","0","1","0","1","1","2","1","5","5","5","5","5","4","4","4","5","4","6","7","8","8","6","8","7","8","8","6","5","5","5","6","3","6","1","6","5","1","5","4","6","5","6","6","6","4","3","6","3","6","6","7","5","7","6","7","6","6","7","7","6","7","2","7","6","6","5","6","753363750240915458","韩","132","Male","[""好他"",""好我"",""坏我"",""坏他""]","[""强他"",""强我"",""弱我"",""弱他""]","","","","","","","","","","","","","","","","","","","","","","","","","","","","","","feedback_test","","","","","","","","",""
"1082","","j","psychophysics","58","427140","0.0-8.0-0.0-1.0-0.0-0.24","6","6","6","5","5","4","3","5","4","4","4","1","0","1","0","1","1","2","1","5","5","5","5","5","4","4","4","5","4","6","7","8","8","6","8","7","8","8","6","5","5","5","6","3","6","1","6","5","1","5","4","6","5","6","6","6","4","3","6","3","6","6","7","5","7","6","7","6","6","7","7","6","7","2","7","6","6","5","6","753363750240915458","韩","132","Male","[""好他"",""好我"",""坏我"",""坏他""]","[""强他"",""强我"",""弱我"",""弱他""]","","","","","","","","nonmatch","","","","","","","","","","key","j","16.666822580645057","960","536","j","true","nonmatch","img/triangle.png","坏他","好他","prac_ALT2_moral","practice_moral","","","","","","","","",""
"null","<span style='color:GreenYellow; font-size: 70px;'>正确! </span>","null","html-keyboard-response","59","427642","0.0-8.0-0.0-1.0-0.0-1.24","6","6","6","5","5","4","3","5","4","4","4","1","0","1","0","1","1","2","1","5","5","5","5","5","4","4","4","5","4","6","7","8","8","6","8","7","8","8","6","5","5","5","6","3","6","1","6","5","1","5","4","6","5","6","6","6","4","3","6","3","6","6","7","5","7","6","7","6","6","7","7","6","7","2","7","6","6","5","6","753363750240915458","韩","132","Male","[""好他"",""好我"",""坏我"",""坏他""]","[""强他"",""强我"",""弱我"",""弱他""]","","","","","","","","","","","","","","","","","","","","","","","","","","","","","","feedback_test","","","","","","","","",""
"1079","","f","psychophysics","60","429723","0.0-8.0-0.0-1.0-0.0-0.25","6","6","6","5","5","4","3","5","4","4","4","1","0","1","0","1","1","2","1","5","5","5","5","5","4","4","4","5","4","6","7","8","8","6","8","7","8","8","6","5","5","5","6","3","6","1","6","5","1","5","4","6","5","6","6","6","4","3","6","3","6","6","7","5","7","6","7","6","6","7","7","6","7","2","7","6","6","5","6","753363750240915458","韩","132","Male","[""好他"",""好我"",""坏我"",""坏他""]","[""强他"",""强我"",""弱我"",""弱他""]","","","","","","","","match","","","","","","","","","","key","f","16.667284552845537","960","536","f","true","match","img/ellipse.png","坏我","坏我","prac_ALT2_moral","practice_moral","","","","","","","","",""
"null","<span style='color:GreenYellow; font-size: 70px;'>正确! </span>","null","html-keyboard-response","61","430224","0.0-8.0-0.0-1.0-0.0-1.25","6","6","6","5","5","4","3","5","4","4","4","1","0","1","0","1","1","2","1","5","5","5","5","5","4","4","4","5","4","6","7","8","8","6","8","7","8","8","6","5","5","5","6","3","6","1","6","5","1","5","4","6","5","6","6","6","4","3","6","3","6","6","7","5","7","6","7","6","6","7","7","6","7","2","7","6","6","5","6","753363750240915458","韩","132","Male","[""好他"",""好我"",""坏我"",""坏他""]","[""强他"",""强我"",""弱我"",""弱他""]","","","","","","","","","","","","","","","","","","","","","","","","","","","","","","feedback_test","","","","","","","","",""
"1082","","j","psychophysics","62","432307","0.0-8.0-0.0-1.0-0.0-0.26","6","6","6","5","5","4","3","5","4","4","4","1","0","1","0","1","1","2","1","5","5","5","5","5","4","4","4","5","4","6","7","8","8","6","8","7","8","8","6","5","5","5","6","3","6","1","6","5","1","5","4","6","5","6","6","6","4","3","6","3","6","6","7","5","7","6","7","6","6","7","7","6","7","2","7","6","6","5","6","753363750240915458","韩","132","Male","[""好他"",""好我"",""坏我"",""坏他""]","[""强他"",""强我"",""弱我"",""弱他""]","","","","","","","","nonmatch","","","","","","","","","","key","j","16.666463414633956","960","536","j","true","nonmatch","img/ellipse.png","好他","坏我","prac_ALT2_moral","practice_moral","","","","","","","","",""
"null","<span style='color:GreenYellow; font-size: 70px;'>正确! </span>","null","html-keyboard-response","63","432808","0.0-8.0-0.0-1.0-0.0-1.26","6","6","6","5","5","4","3","5","4","4","4","1","0","1","0","1","1","2","1","5","5","5","5","5","4","4","4","5","4","6","7","8","8","6","8","7","8","8","6","5","5","5","6","3","6","1","6","5","1","5","4","6","5","6","6","6","4","3","6","3","6","6","7","5","7","6","7","6","6","7","7","6","7","2","7","6","6","5","6","753363750240915458","韩","132","Male","[""好他"",""好我"",""坏我"",""坏他""]","[""强他"",""强我"",""弱我"",""弱他""]","","","","","","","","","","","","","","","","","","","","","","","","","","","","","","feedback_test","","","","","","","","",""
"null","","null","psychophysics","64","435011","0.0-8.0-0.0-1.0-0.0-0.27","6","6","6","5","5","4","3","5","4","4","4","1","0","1","0","1","1","2","1","5","5","5","5","5","4","4","4","5","4","6","7","8","8","6","8","7","8","8","6","5","5","5","6","3","6","1","6","5","1","5","4","6","5","6","6","6","4","3","6","3","6","6","7","5","7","6","7","6","6","7","7","6","7","2","7","6","6","5","6","753363750240915458","韩","132","Male","[""好他"",""好我"",""坏我"",""坏他""]","[""强他"",""强我"",""弱我"",""弱他""]","","","","","","","","null","","","","","","","","","","key","null","16.666167938931604","960","536","j","false","nonmatch","img/ellipse.png","坏他","坏我","prac_ALT2_moral","practice_moral","","","","","","","","",""
"null","<span class='add_' style='color:yellow; font-size: 70px;'> 太慢! </span>","null","html-keyboard-response","65","435513","0.0-8.0-0.0-1.0-0.0-1.27","6","6","6","5","5","4","3","5","4","4","4","1","0","1","0","1","1","2","1","5","5","5","5","5","4","4","4","5","4","6","7","8","8","6","8","7","8","8","6","5","5","5","6","3","6","1","6","5","1","5","4","6","5","6","6","6","4","3","6","3","6","6","7","5","7","6","7","6","6","7","7","6","7","2","7","6","6","5","6","753363750240915458","韩","132","Male","[""好他"",""好我"",""坏我"",""坏他""]","[""强他"",""强我"",""弱我"",""弱他""]","","","","","","","","","","","","","","","","","","","","","","","","","","","","","","feedback_test","","","","","","","","",""
"1016","","f","psychophysics","66","437531","0.0-8.0-0.0-1.0-0.0-0.28","6","6","6","5","5","4","3","5","4","4","4","1","0","1","0","1","1","2","1","5","5","5","5","5","4","4","4","5","4","6","7","8","8","6","8","7","8","8","6","5","5","5","6","3","6","1","6","5","1","5","4","6","5","6","6","6","4","3","6","3","6","6","7","5","7","6","7","6","6","7","7","6","7","2","7","6","6","5","6","753363750240915458","韩","132","Male","[""好他"",""好我"",""坏我"",""坏他""]","[""强他"",""强我"",""弱我"",""弱他""]","","","","","","","","match","","","","","","","","","","key","f","16.666233333333608","960","536","f","true","match","img/ellipse.png","坏我","坏我","prac_ALT2_moral","practice_moral","","","","","","","","",""
"null","<span style='color:GreenYellow; font-size: 70px;'>正确! </span>","null","html-keyboard-response","67","438032","0.0-8.0-0.0-1.0-0.0-1.28","6","6","6","5","5","4","3","5","4","4","4","1","0","1","0","1","1","2","1","5","5","5","5","5","4","4","4","5","4","6","7","8","8","6","8","7","8","8","6","5","5","5","6","3","6","1","6","5","1","5","4","6","5","6","6","6","4","3","6","3","6","6","7","5","7","6","7","6","6","7","7","6","7","2","7","6","6","5","6","753363750240915458","韩","132","Male","[""好他"",""好我"",""坏我"",""坏他""]","[""强他"",""强我"",""弱我"",""弱他""]","","","","","","","","","","","","","","","","","","","","","","","","","","","","","","feedback_test","","","","","","","","",""
"906","","f","psychophysics","68","439940","0.0-8.0-0.0-1.0-0.0-0.29","6","6","6","5","5","4","3","5","4","4","4","1","0","1","0","1","1","2","1","5","5","5","5","5","4","4","4","5","4","6","7","8","8","6","8","7","8","8","6","5","5","5","6","3","6","1","6","5","1","5","4","6","5","6","6","6","4","3","6","3","6","6","7","5","7","6","7","6","6","7","7","6","7","2","7","6","6","5","6","753363750240915458","韩","132","Male","[""好他"",""好我"",""坏我"",""坏他""]","[""强他"",""强我"",""弱我"",""弱他""]","","","","","","","","match","","","","","","","","","","key","f","16.666398230088625","960","536","f","true","match","img/diamond.png","好我","好我","prac_ALT2_moral","practice_moral","","","","","","","","",""
"null","<span style='color:GreenYellow; font-size: 70px;'>正确! </span>","null","html-keyboard-response","69","440441","0.0-8.0-0.0-1.0-0.0-1.29","6","6","6","5","5","4","3","5","4","4","4","1","0","1","0","1","1","2","1","5","5","5","5","5","4","4","4","5","4","6","7","8","8","6","8","7","8","8","6","5","5","5","6","3","6","1","6","5","1","5","4","6","5","6","6","6","4","3","6","3","6","6","7","5","7","6","7","6","6","7","7","6","7","2","7","6","6","5","6","753363750240915458","韩","132","Male","[""好他"",""好我"",""坏我"",""坏他""]","[""强他"",""强我"",""弱我"",""弱他""]","","","","","","","","","","","","","","","","","","","","","","","","","","","","","","feedback_test","","","","","","","","",""
"1019","","j","psychophysics","70","442461","0.0-8.0-0.0-1.0-0.0-0.30","6","6","6","5","5","4","3","5","4","4","4","1","0","1","0","1","1","2","1","5","5","5","5","5","4","4","4","5","4","6","7","8","8","6","8","7","8","8","6","5","5","5","6","3","6","1","6","5","1","5","4","6","5","6","6","6","4","3","6","3","6","6","7","5","7","6","7","6","6","7","7","6","7","2","7","6","6","5","6","753363750240915458","韩","132","Male","[""好他"",""好我"",""坏我"",""坏他""]","[""强他"",""强我"",""弱我"",""弱他""]","","","","","","","","nonmatch","","","","","","","","","","key","j","16.666483333333357","960","536","j","true","nonmatch","img/hexagon.png","好他","坏他","prac_ALT2_moral","practice_moral","","","","","","","","",""
"null","<span style='color:GreenYellow; font-size: 70px;'>正确! </span>","null","html-keyboard-response","71","442963","0.0-8.0-0.0-1.0-0.0-1.30","6","6","6","5","5","4","3","5","4","4","4","1","0","1","0","1","1","2","1","5","5","5","5","5","4","4","4","5","4","6","7","8","8","6","8","7","8","8","6","5","5","5","6","3","6","1","6","5","1","5","4","6","5","6","6","6","4","3","6","3","6","6","7","5","7","6","7","6","6","7","7","6","7","2","7","6","6","5","6","753363750240915458","韩","132","Male","[""好他"",""好我"",""坏我"",""坏他""]","[""强他"",""强我"",""弱我"",""弱他""]","","","","","","","","","","","","","","","","","","","","","","","","","","","","","","feedback_test","","","","","","","","",""
"817","","f","psychophysics","72","444781","0.0-8.0-0.0-1.0-0.0-0.31","6","6","6","5","5","4","3","5","4","4","4","1","0","1","0","1","1","2","1","5","5","5","5","5","4","4","4","5","4","6","7","8","8","6","8","7","8","8","6","5","5","5","6","3","6","1","6","5","1","5","4","6","5","6","6","6","4","3","6","3","6","6","7","5","7","6","7","6","6","7","7","6","7","2","7","6","6","5","6","753363750240915458","韩","132","Male","[""好他"",""好我"",""坏我"",""坏他""]","[""强他"",""强我"",""弱我"",""弱他""]","","","","","","","","match","","","","","","","","","","key","f","16.66625925925931","960","536","f","true","match","img/diamond.png","好我","好我","prac_ALT2_moral","practice_moral","","","","","","","","",""
"null","<span style='color:GreenYellow; font-size: 70px;'>正确! </span>","null","html-keyboard-response","73","445283","0.0-8.0-0.0-1.0-0.0-1.31","6","6","6","5","5","4","3","5","4","4","4","1","0","1","0","1","1","2","1","5","5","5","5","5","4","4","4","5","4","6","7","8","8","6","8","7","8","8","6","5","5","5","6","3","6","1","6","5","1","5","4","6","5","6","6","6","4","3","6","3","6","6","7","5","7","6","7","6","6","7","7","6","7","2","7","6","6","5","6","753363750240915458","韩","132","Male","[""好他"",""好我"",""坏我"",""坏他""]","[""强他"",""强我"",""弱我"",""弱他""]","","","","","","","","","","","","","","","","","","","","","","","","","","","","","","feedback_test","","","","","","","","",""
"976","","j","psychophysics","74","447260","0.0-8.0-0.0-1.0-0.0-0.32","6","6","6","5","5","4","3","5","4","4","4","1","0","1","0","1","1","2","1","5","5","5","5","5","4","4","4","5","4","6","7","8","8","6","8","7","8","8","6","5","5","5","6","3","6","1","6","5","1","5","4","6","5","6","6","6","4","3","6","3","6","6","7","5","7","6","7","6","6","7","7","6","7","2","7","6","6","5","6","753363750240915458","韩","132","Male","[""好他"",""好我"",""坏我"",""坏他""]","[""强他"",""强我"",""弱我"",""弱他""]","","","","","","","","nonmatch","","","","","","","","","","key","j","16.66687288135586","960","536","j","true","nonmatch","img/triangle.png","好我","好他","prac_ALT2_moral","practice_moral","","","","","","","","",""
"null","<span style='color:GreenYellow; font-size: 70px;'>正确! </span>","null","html-keyboard-response","75","447763","0.0-8.0-0.0-1.0-0.0-1.32","6","6","6","5","5","4","3","5","4","4","4","1","0","1","0","1","1","2","1","5","5","5","5","5","4","4","4","5","4","6","7","8","8","6","8","7","8","8","6","5","5","5","6","3","6","1","6","5","1","5","4","6","5","6","6","6","4","3","6","3","6","6","7","5","7","6","7","6","6","7","7","6","7","2","7","6","6","5","6","753363750240915458","韩","132","Male","[""好他"",""好我"",""坏我"",""坏他""]","[""强他"",""强我"",""弱我"",""弱他""]","","","","","","","","","","","","","","","","","","","","","","","","","","","","","","feedback_test","","","","","","","","",""
"1032","","f","psychophysics","76","449796","0.0-8.0-0.0-1.0-0.0-0.33","6","6","6","5","5","4","3","5","4","4","4","1","0","1","0","1","1","2","1","5","5","5","5","5","4","4","4","5","4","6","7","8","8","6","8","7","8","8","6","5","5","5","6","3","6","1","6","5","1","5","4","6","5","6","6","6","4","3","6","3","6","6","7","5","7","6","7","6","6","7","7","6","7","2","7","6","6","5","6","753363750240915458","韩","132","Male","[""好他"",""好我"",""坏我"",""坏他""]","[""强他"",""强我"",""弱我"",""弱他""]","","","","","","","","match","","","","","","","","","","key","f","16.666942148760427","960","536","j","false","nonmatch","img/hexagon.png","坏我","坏他","prac_ALT2_moral","practice_moral","","","","","","","","",""
"null","<span style='color:red; font-size: 70px;'>错误! </span>","null","html-keyboard-response","77","450297","0.0-8.0-0.0-1.0-0.0-1.33","6","6","6","5","5","4","3","5","4","4","4","1","0","1","0","1","1","2","1","5","5","5","5","5","4","4","4","5","4","6","7","8","8","6","8","7","8","8","6","5","5","5","6","3","6","1","6","5","1","5","4","6","5","6","6","6","4","3","6","3","6","6","7","5","7","6","7","6","6","7","7","6","7","2","7","6","6","5","6","753363750240915458","韩","132","Male","[""好他"",""好我"",""坏我"",""坏他""]","[""强他"",""强我"",""弱我"",""弱他""]","","","","","","","","","","","","","","","","","","","","","","","","","","","","","","feedback_test","","","","","","","","",""
"null","","null","psychophysics","78","452499","0.0-8.0-0.0-1.0-0.0-0.34","6","6","6","5","5","4","3","5","4","4","4","1","0","1","0","1","1","2","1","5","5","5","5","5","4","4","4","5","4","6","7","8","8","6","8","7","8","8","6","5","5","5","6","3","6","1","6","5","1","5","4","6","5","6","6","6","4","3","6","3","6","6","7","5","7","6","7","6","6","7","7","6","7","2","7","6","6","5","6","753363750240915458","韩","132","Male","[""好他"",""好我"",""坏我"",""坏他""]","[""强他"",""强我"",""弱我"",""弱他""]","","","","","","","","null","","","","","","","","","","key","null","16.667083969465473","960","536","j","false","nonmatch","img/diamond.png","好他","好我","prac_ALT2_moral","practice_moral","","","","","","","","",""
"null","<span class='add_' style='color:yellow; font-size: 70px;'> 太慢! </span>","null","html-keyboard-response","79","453000","0.0-8.0-0.0-1.0-0.0-1.34","6","6","6","5","5","4","3","5","4","4","4","1","0","1","0","1","1","2","1","5","5","5","5","5","4","4","4","5","4","6","7","8","8","6","8","7","8","8","6","5","5","5","6","3","6","1","6","5","1","5","4","6","5","6","6","6","4","3","6","3","6","6","7","5","7","6","7","6","6","7","7","6","7","2","7","6","6","5","6","753363750240915458","韩","132","Male","[""好他"",""好我"",""坏我"",""坏他""]","[""强他"",""强我"",""弱我"",""弱他""]","","","","","","","","","","","","","","","","","","","","","","","","","","","","","","feedback_test","","","","","","","","",""
"1117","","j","psychophysics","80","455118","0.0-8.0-0.0-1.0-0.0-0.35","6","6","6","5","5","4","3","5","4","4","4","1","0","1","0","1","1","2","1","5","5","5","5","5","4","4","4","5","4","6","7","8","8","6","8","7","8","8","6","5","5","5","6","3","6","1","6","5","1","5","4","6","5","6","6","6","4","3","6","3","6","6","7","5","7","6","7","6","6","7","7","6","7","2","7","6","6","5","6","753363750240915458","韩","132","Male","[""好他"",""好我"",""坏我"",""坏他""]","[""强他"",""强我"",""弱我"",""弱他""]","","","","","","","","nonmatch","","","","","","","","","","key","j","16.665595238095165","960","536","j","true","nonmatch","img/hexagon.png","好我","坏他","prac_ALT2_moral","practice_moral","","","","","","","","",""
"null","<span style='color:GreenYellow; font-size: 70px;'>正确! </span>","null","html-keyboard-response","81","455618","0.0-8.0-0.0-1.0-0.0-1.35","6","6","6","5","5","4","3","5","4","4","4","1","0","1","0","1","1","2","1","5","5","5","5","5","4","4","4","5","4","6","7","8","8","6","8","7","8","8","6","5","5","5","6","3","6","1","6","5","1","5","4","6","5","6","6","6","4","3","6","3","6","6","7","5","7","6","7","6","6","7","7","6","7","2","7","6","6","5","6","753363750240915458","韩","132","Male","[""好他"",""好我"",""坏我"",""坏他""]","[""强他"",""强我"",""弱我"",""弱他""]","","","","","","","","","","","","","","","","","","","","","","","","","","","","","","feedback_test","","","","","","","","",""
"944","","f","psychophysics","82","457564","0.0-8.0-0.0-1.0-0.0-0.36","6","6","6","5","5","4","3","5","4","4","4","1","0","1","0","1","1","2","1","5","5","5","5","5","4","4","4","5","4","6","7","8","8","6","8","7","8","8","6","5","5","5","6","3","6","1","6","5","1","5","4","6","5","6","6","6","4","3","6","3","6","6","7","5","7","6","7","6","6","7","7","6","7","2","7","6","6","5","6","753363750240915458","韩","132","Male","[""好他"",""好我"",""坏我"",""坏他""]","[""强他"",""强我"",""弱我"",""弱他""]","","","","","","","","match","","","","","","","","","","key","f","16.66722413793142","960","536","f","true","match","img/hexagon.png","坏他","坏他","prac_ALT2_moral","practice_moral","","","","","","","","",""
"null","<span style='color:GreenYellow; font-size: 70px;'>正确! </span>","null","html-keyboard-response","83","458066","0.0-8.0-0.0-1.0-0.0-1.36","6","6","6","5","5","4","3","5","4","4","4","1","0","1","0","1","1","2","1","5","5","5","5","5","4","4","4","5","4","6","7","8","8","6","8","7","8","8","6","5","5","5","6","3","6","1","6","5","1","5","4","6","5","6","6","6","4","3","6","3","6","6","7","5","7","6","7","6","6","7","7","6","7","2","7","6","6","5","6","753363750240915458","韩","132","Male","[""好他"",""好我"",""坏我"",""坏他""]","[""强他"",""强我"",""弱我"",""弱他""]","","","","","","","","","","","","","","","","","","","","","","","","","","","","","","feedback_test","","","","","","","","",""
"1178","","j","psychophysics","84","460245","0.0-8.0-0.0-1.0-0.0-0.37","6","6","6","5","5","4","3","5","4","4","4","1","0","1","0","1","1","2","1","5","5","5","5","5","4","4","4","5","4","6","7","8","8","6","8","7","8","8","6","5","5","5","6","3","6","1","6","5","1","5","4","6","5","6","6","6","4","3","6","3","6","6","7","5","7","6","7","6","6","7","7","6","7","2","7","6","6","5","6","753363750240915458","韩","132","Male","[""好他"",""好我"",""坏我"",""坏他""]","[""强他"",""强我"",""弱我"",""弱他""]","","","","","","","","nonmatch","","","","","","","","","","key","j","16.66643846153837","960","536","f","false","match","img/triangle.png","好他","好他","prac_ALT2_moral","practice_moral","","","","","","","","",""
"null","<span style='color:red; font-size: 70px;'>错误! </span>","null","html-keyboard-response","85","460746","0.0-8.0-0.0-1.0-0.0-1.37","6","6","6","5","5","4","3","5","4","4","4","1","0","1","0","1","1","2","1","5","5","5","5","5","4","4","4","5","4","6","7","8","8","6","8","7","8","8","6","5","5","5","6","3","6","1","6","5","1","5","4","6","5","6","6","6","4","3","6","3","6","6","7","5","7","6","7","6","6","7","7","6","7","2","7","6","6","5","6","753363750240915458","韩","132","Male","[""好他"",""好我"",""坏我"",""坏他""]","[""强他"",""强我"",""弱我"",""弱他""]","","","","","","","","","","","","","","","","","","","","","","","","","","","","","","feedback_test","","","","","","","","",""
"1144","","f","psychophysics","86","462892","0.0-8.0-0.0-1.0-0.0-0.38","6","6","6","5","5","4","3","5","4","4","4","1","0","1","0","1","1","2","1","5","5","5","5","5","4","4","4","5","4","6","7","8","8","6","8","7","8","8","6","5","5","5","6","3","6","1","6","5","1","5","4","6","5","6","6","6","4","3","6","3","6","6","7","5","7","6","7","6","6","7","7","6","7","2","7","6","6","5","6","753363750240915458","韩","132","Male","[""好他"",""好我"",""坏我"",""坏他""]","[""强他"",""强我"",""弱我"",""弱他""]","","","","","","","","match","","","","","","","","","","key","f","16.666343750000124","960","536","f","true","match","img/ellipse.png","坏我","坏我","prac_ALT2_moral","practice_moral","","","","","","","","",""
"null","<span style='color:GreenYellow; font-size: 70px;'>正确! </span>","null","html-keyboard-response","87","463393","0.0-8.0-0.0-1.0-0.0-1.38","6","6","6","5","5","4","3","5","4","4","4","1","0","1","0","1","1","2","1","5","5","5","5","5","4","4","4","5","4","6","7","8","8","6","8","7","8","8","6","5","5","5","6","3","6","1","6","5","1","5","4","6","5","6","6","6","4","3","6","3","6","6","7","5","7","6","7","6","6","7","7","6","7","2","7","6","6","5","6","753363750240915458","韩","132","Male","[""好他"",""好我"",""坏我"",""坏他""]","[""强他"",""强我"",""弱我"",""弱他""]","","","","","","","","","","","","","","","","","","","","","","","","","","","","","","feedback_test","","","","","","","","",""
"953","","j","psychophysics","88","465347","0.0-8.0-0.0-1.0-0.0-0.39","6","6","6","5","5","4","3","5","4","4","4","1","0","1","0","1","1","2","1","5","5","5","5","5","4","4","4","5","4","6","7","8","8","6","8","7","8","8","6","5","5","5","6","3","6","1","6","5","1","5","4","6","5","6","6","6","4","3","6","3","6","6","7","5","7","6","7","6","6","7","7","6","7","2","7","6","6","5","6","753363750240915458","韩","132","Male","[""好他"",""好我"",""坏我"",""坏他""]","[""强他"",""强我"",""弱我"",""弱他""]","","","","","","","","nonmatch","","","","","","","","","","key","j","16.666629310345062","960","536","j","true","nonmatch","img/ellipse.png","好我","坏我","prac_ALT2_moral","practice_moral","","","","","","","","",""
"null","<span style='color:GreenYellow; font-size: 70px;'>正确! </span>","null","html-keyboard-response","89","465848","0.0-8.0-0.0-1.0-0.0-1.39","6","6","6","5","5","4","3","5","4","4","4","1","0","1","0","1","1","2","1","5","5","5","5","5","4","4","4","5","4","6","7","8","8","6","8","7","8","8","6","5","5","5","6","3","6","1","6","5","1","5","4","6","5","6","6","6","4","3","6","3","6","6","7","5","7","6","7","6","6","7","7","6","7","2","7","6","6","5","6","753363750240915458","韩","132","Male","[""好他"",""好我"",""坏我"",""坏他""]","[""强他"",""强我"",""弱我"",""弱他""]","","","","","","","","","","","","","","","","","","","","","","","","","","","","","","feedback_test","","","","","","","","",""
"845","","f","psychophysics","90","467695","0.0-8.0-0.0-1.0-0.0-0.40","6","6","6","5","5","4","3","5","4","4","4","1","0","1","0","1","1","2","1","5","5","5","5","5","4","4","4","5","4","6","7","8","8","6","8","7","8","8","6","5","5","5","6","3","6","1","6","5","1","5","4","6","5","6","6","6","4","3","6","3","6","6","7","5","7","6","7","6","6","7","7","6","7","2","7","6","6","5","6","753363750240915458","韩","132","Male","[""好他"",""好我"",""坏我"",""坏他""]","[""强他"",""强我"",""弱我"",""弱他""]","","","","","","","","match","","","","","","","","","","key","f","16.66739999999991","960","536","f","true","match","img/hexagon.png","坏他","坏他","prac_ALT2_moral","practice_moral","","","","","","","","",""
"null","<span style='color:GreenYellow; font-size: 70px;'>正确! </span>","null","html-keyboard-response","91","468196","0.0-8.0-0.0-1.0-0.0-1.40","6","6","6","5","5","4","3","5","4","4","4","1","0","1","0","1","1","2","1","5","5","5","5","5","4","4","4","5","4","6","7","8","8","6","8","7","8","8","6","5","5","5","6","3","6","1","6","5","1","5","4","6","5","6","6","6","4","3","6","3","6","6","7","5","7","6","7","6","6","7","7","6","7","2","7","6","6","5","6","753363750240915458","韩","132","Male","[""好他"",""好我"",""坏我"",""坏他""]","[""强他"",""强我"",""弱我"",""弱他""]","","","","","","","","","","","","","","","","","","","","","","","","","","","","","","feedback_test","","","","","","","","",""
"942","","j","psychophysics","92","470140","0.0-8.0-0.0-1.0-0.0-0.41","6","6","6","5","5","4","3","5","4","4","4","1","0","1","0","1","1","2","1","5","5","5","5","5","4","4","4","5","4","6","7","8","8","6","8","7","8","8","6","5","5","5","6","3","6","1","6","5","1","5","4","6","5","6","6","6","4","3","6","3","6","6","7","5","7","6","7","6","6","7","7","6","7","2","7","6","6","5","6","753363750240915458","韩","132","Male","[""好他"",""好我"",""坏我"",""坏他""]","[""强他"",""强我"",""弱我"",""弱他""]","","","","","","","","nonmatch","","","","","","","","","","key","j","16.667026086956383","960","536","f","false","match","img/triangle.png","好他","好他","prac_ALT2_moral","practice_moral","","","","","","","","",""
"null","<span style='color:red; font-size: 70px;'>错误! </span>","null","html-keyboard-response","93","470641","0.0-8.0-0.0-1.0-0.0-1.41","6","6","6","5","5","4","3","5","4","4","4","1","0","1","0","1","1","2","1","5","5","5","5","5","4","4","4","5","4","6","7","8","8","6","8","7","8","8","6","5","5","5","6","3","6","1","6","5","1","5","4","6","5","6","6","6","4","3","6","3","6","6","7","5","7","6","7","6","6","7","7","6","7","2","7","6","6","5","6","753363750240915458","韩","132","Male","[""好他"",""好我"",""坏我"",""坏他""]","[""强他"",""强我"",""弱我"",""弱他""]","","","","","","","","","","","","","","","","","","","","","","","","","","","","","","feedback_test","","","","","","","","",""
"1098","","f","psychophysics","94","472740","0.0-8.0-0.0-1.0-0.0-0.42","6","6","6","5","5","4","3","5","4","4","4","1","0","1","0","1","1","2","1","5","5","5","5","5","4","4","4","5","4","6","7","8","8","6","8","7","8","8","6","5","5","5","6","3","6","1","6","5","1","5","4","6","5","6","6","6","4","3","6","3","6","6","7","5","7","6","7","6","6","7","7","6","7","2","7","6","6","5","6","753363750240915458","韩","132","Male","[""好他"",""好我"",""坏我"",""坏他""]","[""强他"",""强我"",""弱我"",""弱他""]","","","","","","","","match","","","","","","","","","","key","f","16.666467741935424","960","536","f","true","match","img/hexagon.png","坏他","坏他","prac_ALT2_moral","practice_moral","","","","","","","","",""
"null","<span style='color:GreenYellow; font-size: 70px;'>正确! </span>","null","html-keyboard-response","95","473241","0.0-8.0-0.0-1.0-0.0-1.42","6","6","6","5","5","4","3","5","4","4","4","1","0","1","0","1","1","2","1","5","5","5","5","5","4","4","4","5","4","6","7","8","8","6","8","7","8","8","6","5","5","5","6","3","6","1","6","5","1","5","4","6","5","6","6","6","4","3","6","3","6","6","7","5","7","6","7","6","6","7","7","6","7","2","7","6","6","5","6","753363750240915458","韩","132","Male","[""好他"",""好我"",""坏我"",""坏他""]","[""强他"",""强我"",""弱我"",""弱他""]","","","","","","","","","","","","","","","","","","","","","","","","","","","","","","feedback_test","","","","","","","","",""
"946","","f","psychophysics","96","475188","0.0-8.0-0.0-1.0-0.0-0.43","6","6","6","5","5","4","3","5","4","4","4","1","0","1","0","1","1","2","1","5","5","5","5","5","4","4","4","5","4","6","7","8","8","6","8","7","8","8","6","5","5","5","6","3","6","1","6","5","1","5","4","6","5","6","6","6","4","3","6","3","6","6","7","5","7","6","7","6","6","7","7","6","7","2","7","6","6","5","6","753363750240915458","韩","132","Male","[""好他"",""好我"",""坏我"",""坏他""]","[""强他"",""强我"",""弱我"",""弱他""]","","","","","","","","match","","","","","","","","","","key","f","16.667017391304302","960","536","j","false","nonmatch","img/diamond.png","坏他","好我","prac_ALT2_moral","practice_moral","","","","","","","","",""
"null","<span style='color:red; font-size: 70px;'>错误! </span>","null","html-keyboard-response","97","475689","0.0-8.0-0.0-1.0-0.0-1.43","6","6","6","5","5","4","3","5","4","4","4","1","0","1","0","1","1","2","1","5","5","5","5","5","4","4","4","5","4","6","7","8","8","6","8","7","8","8","6","5","5","5","6","3","6","1","6","5","1","5","4","6","5","6","6","6","4","3","6","3","6","6","7","5","7","6","7","6","6","7","7","6","7","2","7","6","6","5","6","753363750240915458","韩","132","Male","[""好他"",""好我"",""坏我"",""坏他""]","[""强他"",""强我"",""弱我"",""弱他""]","","","","","","","","","","","","","","","","","","","","","","","","","","","","","","feedback_test","","","","","","","","",""
"1178","","j","psychophysics","98","477868","0.0-8.0-0.0-1.0-0.0-0.44","6","6","6","5","5","4","3","5","4","4","4","1","0","1","0","1","1","2","1","5","5","5","5","5","4","4","4","5","4","6","7","8","8","6","8","7","8","8","6","5","5","5","6","3","6","1","6","5","1","5","4","6","5","6","6","6","4","3","6","3","6","6","7","5","7","6","7","6","6","7","7","6","7","2","7","6","6","5","6","753363750240915458","韩","132","Male","[""好他"",""好我"",""坏我"",""坏他""]","[""强他"",""强我"",""弱我"",""弱他""]","","","","","","","","nonmatch","","","","","","","","","","key","j","16.666123076923228","960","536","j","true","nonmatch","img/triangle.png","坏我","好他","prac_ALT2_moral","practice_moral","","","","","","","","",""
"null","<span style='color:GreenYellow; font-size: 70px;'>正确! </span>","null","html-keyboard-response","99","478369","0.0-8.0-0.0-1.0-0.0-1.44","6","6","6","5","5","4","3","5","4","4","4","1","0","1","0","1","1","2","1","5","5","5","5","5","4","4","4","5","4","6","7","8","8","6","8","7","8","8","6","5","5","5","6","3","6","1","6","5","1","5","4","6","5","6","6","6","4","3","6","3","6","6","7","5","7","6","7","6","6","7","7","6","7","2","7","6","6","5","6","753363750240915458","韩","132","Male","[""好他"",""好我"",""坏我"",""坏他""]","[""强他"",""强我"",""弱我"",""弱他""]","","","","","","","","","","","","","","","","","","","","","","","","","","","","","","feedback_test","","","","","","","","",""
"1177","","f","psychophysics","100","480548","0.0-8.0-0.0-1.0-0.0-0.45","6","6","6","5","5","4","3","5","4","4","4","1","0","1","0","1","1","2","1","5","5","5","5","5","4","4","4","5","4","6","7","8","8","6","8","7","8","8","6","5","5","5","6","3","6","1","6","5","1","5","4","6","5","6","6","6","4","3","6","3","6","6","7","5","7","6","7","6","6","7","7","6","7","2","7","6","6","5","6","753363750240915458","韩","132","Male","[""好他"",""好我"",""坏我"",""坏他""]","[""强他"",""强我"",""弱我"",""弱他""]","","","","","","","","match","","","","","","","","","","key","f","16.666638461538465","960","536","j","false","nonmatch","img/diamond.png","坏我","好我","prac_ALT2_moral","practice_moral","","","","","","","","",""
"null","<span style='color:red; font-size: 70px;'>错误! </span>","null","html-keyboard-response","101","481049","0.0-8.0-0.0-1.0-0.0-1.45","6","6","6","5","5","4","3","5","4","4","4","1","0","1","0","1","1","2","1","5","5","5","5","5","4","4","4","5","4","6","7","8","8","6","8","7","8","8","6","5","5","5","6","3","6","1","6","5","1","5","4","6","5","6","6","6","4","3","6","3","6","6","7","5","7","6","7","6","6","7","7","6","7","2","7","6","6","5","6","753363750240915458","韩","132","Male","[""好他"",""好我"",""坏我"",""坏他""]","[""强他"",""强我"",""弱我"",""弱他""]","","","","","","","","","","","","","","","","","","","","","","","","","","","","","","feedback_test","","","","","","","","",""
"1073","","j","psychophysics","102","483124","0.0-8.0-0.0-1.0-0.0-0.46","6","6","6","5","5","4","3","5","4","4","4","1","0","1","0","1","1","2","1","5","5","5","5","5","4","4","4","5","4","6","7","8","8","6","8","7","8","8","6","5","5","5","6","3","6","1","6","5","1","5","4","6","5","6","6","6","4","3","6","3","6","6","7","5","7","6","7","6","6","7","7","6","7","2","7","6","6","5","6","753363750240915458","韩","132","Male","[""好他"",""好我"",""坏我"",""坏他""]","[""强他"",""强我"",""弱我"",""弱他""]","","","","","","","","nonmatch","","","","","","","","","","key","j","16.666463414633956","960","536","f","false","match","img/triangle.png","好他","好他","prac_ALT2_moral","practice_moral","","","","","","","","",""
"null","<span style='color:red; font-size: 70px;'>错误! </span>","null","html-keyboard-response","103","483625","0.0-8.0-0.0-1.0-0.0-1.46","6","6","6","5","5","4","3","5","4","4","4","1","0","1","0","1","1","2","1","5","5","5","5","5","4","4","4","5","4","6","7","8","8","6","8","7","8","8","6","5","5","5","6","3","6","1","6","5","1","5","4","6","5","6","6","6","4","3","6","3","6","6","7","5","7","6","7","6","6","7","7","6","7","2","7","6","6","5","6","753363750240915458","韩","132","Male","[""好他"",""好我"",""坏我"",""坏他""]","[""强他"",""强我"",""弱我"",""弱他""]","","","","","","","","","","","","","","","","","","","","","","","","","","","","","","feedback_test","","","","","","","","",""
"1074","","f","psychophysics","104","485700","0.0-8.0-0.0-1.0-0.0-0.47","6","6","6","5","5","4","3","5","4","4","4","1","0","1","0","1","1","2","1","5","5","5","5","5","4","4","4","5","4","6","7","8","8","6","8","7","8","8","6","5","5","5","6","3","6","1","6","5","1","5","4","6","5","6","6","6","4","3","6","3","6","6","7","5","7","6","7","6","6","7","7","6","7","2","7","6","6","5","6","753363750240915458","韩","132","Male","[""好他"",""好我"",""坏我"",""坏他""]","[""强他"",""强我"",""弱我"",""弱他""]","","","","","","","","match","","","","","","","","","","key","f","16.66665040650424","960","536","f","true","match","img/diamond.png","好我","好我","prac_ALT2_moral","practice_moral","","","","","","","","",""
"null","<span style='color:GreenYellow; font-size: 70px;'>正确! </span>","null","html-keyboard-response","105","486202","0.0-8.0-0.0-1.0-0.0-1.47","6","6","6","5","5","4","3","5","4","4","4","1","0","1","0","1","1","2","1","5","5","5","5","5","4","4","4","5","4","6","7","8","8","6","8","7","8","8","6","5","5","5","6","3","6","1","6","5","1","5","4","6","5","6","6","6","4","3","6","3","6","6","7","5","7","6","7","6","6","7","7","6","7","2","7","6","6","5","6","753363750240915458","韩","132","Male","[""好他"",""好我"",""坏我"",""坏他""]","[""强他"",""强我"",""弱我"",""弱他""]","","","","","","","","","","","","","","","","","","","","","","","","","","","","","","feedback_test","","","","","","","","",""
"21944","<style>.context{color:white; font-size: 35px; line-height:40px}</style>                            <div><p class='context'>您正确回答了63% 的试次。</p><p class='context'>您的平均反应时为1033毫秒。</p><p class='context'>恭喜您完成练习。按空格键进入正式实验。</p><p class='footer' style='font-size: 35px; line-height:40px;'>请在进入正式实验实验之前将您的<span style='color: lightgreen;'>食指</span>放在电脑键盘的相应键位上进行按键。</p>"," ","html-keyboard-response","106","508148","0.0-8.0-0.0-2.0","6","6","6","5","5","4","3","5","4","4","4","1","0","1","0","1","1","2","1","5","5","5","5","5","4","4","4","5","4","6","7","8","8","6","8","7","8","8","6","5","5","5","6","3","6","1","6","5","1","5","4","6","5","6","6","6","4","3","6","3","6","6","7","5","7","6","7","6","6","7","7","6","7","2","7","6","6","5","6","753363750240915458","韩","132","Male","[""好他"",""好我"",""坏我"",""坏他""]","[""强他"",""强我"",""弱我"",""弱他""]","","","","","","","","","","","","","","","","","","","","","","","","","","","","","","","","","","","","","","",""
"1036","
    <p style='color: white; font-size: 22px'>请您将手指放在按键上，准备进入正式的匹配任务。</p>
    <p> <div style = ""color: green""><按空格键进入下一阶段的匹配任务></div></p>
    "," ","html-keyboard-response","107","509187","0.0-8.0-0.0-3.0","6","6","6","5","5","4","3","5","4","4","4","1","0","1","0","1","1","2","1","5","5","5","5","5","4","4","4","5","4","6","7","8","8","6","8","7","8","8","6","5","5","5","6","3","6","1","6","5","1","5","4","6","5","6","6","6","4","3","6","3","6","6","7","5","7","6","7","6","6","7","7","6","7","2","7","6","6","5","6","753363750240915458","韩","132","Male","[""好他"",""好我"",""坏我"",""坏他""]","[""强他"",""强我"",""弱我"",""弱他""]","","","","","","","","","","","","","","","","","","","","","","","","","","","","","","","","","","","","","","",""
"1080","","f","psychophysics","108","511284","0.0-8.0-0.0-4.0-0.0-0.0","6","6","6","5","5","4","3","5","4","4","4","1","0","1","0","1","1","2","1","5","5","5","5","5","4","4","4","5","4","6","7","8","8","6","8","7","8","8","6","5","5","5","6","3","6","1","6","5","1","5","4","6","5","6","6","6","4","3","6","3","6","6","7","5","7","6","7","6","6","7","7","6","7","2","7","6","6","5","6","753363750240915458","韩","132","Male","[""好他"",""好我"",""坏我"",""坏他""]","[""强他"",""强我"",""弱我"",""弱他""]","","","","","","","","match","","","","","","","","","","key","f","18.78873636363635","960","536","j","false","nonmatch","img/hexagon.png","好他","坏他","ALT2","moral","","","","","","","","",""
"null","<span style='color:red; font-size: 70px;'>错误! </span>","null","html-keyboard-response","109","511786","0.0-8.0-0.0-4.0-0.0-1.0","6","6","6","5","5","4","3","5","4","4","4","1","0","1","0","1","1","2","1","5","5","5","5","5","4","4","4","5","4","6","7","8","8","6","8","7","8","8","6","5","5","5","6","3","6","1","6","5","1","5","4","6","5","6","6","6","4","3","6","3","6","6","7","5","7","6","7","6","6","7","7","6","7","2","7","6","6","5","6","753363750240915458","韩","132","Male","[""好他"",""好我"",""坏我"",""坏他""]","[""强他"",""强我"",""弱我"",""弱他""]","","","","","","","","","","","","","","","","","","","","","","","","","","","","","","feedback_test","","","","","","","","",""
"1159","","f","psychophysics","110","513947","0.0-8.0-0.0-4.0-0.0-0.1","6","6","6","5","5","4","3","5","4","4","4","1","0","1","0","1","1","2","1","5","5","5","5","5","4","4","4","5","4","6","7","8","8","6","8","7","8","8","6","5","5","5","6","3","6","1","6","5","1","5","4","6","5","6","6","6","4","3","6","3","6","6","7","5","7","6","7","6","6","7","7","6","7","2","7","6","6","5","6","753363750240915458","韩","132","Male","[""好他"",""好我"",""坏我"",""坏他""]","[""强他"",""强我"",""弱我"",""弱他""]","","","","","","","","match","","","","","","","","","","key","f","16.66672093023288","960","536","f","true","match","img/hexagon.png","坏他","坏他","ALT2","moral","","","","","","","","",""
"null","<span style='color:GreenYellow; font-size: 70px;'>正确! </span>","null","html-keyboard-response","111","514449","0.0-8.0-0.0-4.0-0.0-1.1","6","6","6","5","5","4","3","5","4","4","4","1","0","1","0","1","1","2","1","5","5","5","5","5","4","4","4","5","4","6","7","8","8","6","8","7","8","8","6","5","5","5","6","3","6","1","6","5","1","5","4","6","5","6","6","6","4","3","6","3","6","6","7","5","7","6","7","6","6","7","7","6","7","2","7","6","6","5","6","753363750240915458","韩","132","Male","[""好他"",""好我"",""坏我"",""坏他""]","[""强他"",""强我"",""弱我"",""弱他""]","","","","","","","","","","","","","","","","","","","","","","","","","","","","","","feedback_test","","","","","","","","",""
"1129","","j","psychophysics","112","516579","0.0-8.0-0.0-4.0-0.0-0.2","6","6","6","5","5","4","3","5","4","4","4","1","0","1","0","1","1","2","1","5","5","5","5","5","4","4","4","5","4","6","7","8","8","6","8","7","8","8","6","5","5","5","6","3","6","1","6","5","1","5","4","6","5","6","6","6","4","3","6","3","6","6","7","5","7","6","7","6","6","7","7","6","7","2","7","6","6","5","6","753363750240915458","韩","132","Male","[""好他"",""好我"",""坏我"",""坏他""]","[""强他"",""强我"",""弱我"",""弱他""]","","","","","","","","nonmatch","","","","","","","","","","key","j","16.66599999999996","960","536","j","true","nonmatch","img/diamond.png","坏我","好我","ALT2","moral","","","","","","","","",""
"null","<span style='color:GreenYellow; font-size: 70px;'>正确! </span>","null","html-keyboard-response","113","517080","0.0-8.0-0.0-4.0-0.0-1.2","6","6","6","5","5","4","3","5","4","4","4","1","0","1","0","1","1","2","1","5","5","5","5","5","4","4","4","5","4","6","7","8","8","6","8","7","8","8","6","5","5","5","6","3","6","1","6","5","1","5","4","6","5","6","6","6","4","3","6","3","6","6","7","5","7","6","7","6","6","7","7","6","7","2","7","6","6","5","6","753363750240915458","韩","132","Male","[""好他"",""好我"",""坏我"",""坏他""]","[""强他"",""强我"",""弱我"",""弱他""]","","","","","","","","","","","","","","","","","","","","","","","","","","","","","","feedback_test","","","","","","","","",""
"1147","","j","psychophysics","114","519229","0.0-8.0-0.0-4.0-0.0-0.3","6","6","6","5","5","4","3","5","4","4","4","1","0","1","0","1","1","2","1","5","5","5","5","5","4","4","4","5","4","6","7","8","8","6","8","7","8","8","6","5","5","5","6","3","6","1","6","5","1","5","4","6","5","6","6","6","4","3","6","3","6","6","7","5","7","6","7","6","6","7","7","6","7","2","7","6","6","5","6","753363750240915458","韩","132","Male","[""好他"",""好我"",""坏我"",""坏他""]","[""强他"",""强我"",""弱我"",""弱他""]","","","","","","","","nonmatch","","","","","","","","","","key","j","16.66660156250009","960","536","j","true","nonmatch","img/hexagon.png","好我","坏他","ALT2","moral","","","","","","","","",""
"null","<span style='color:GreenYellow; font-size: 70px;'>正确! </span>","null","html-keyboard-response","115","519730","0.0-8.0-0.0-4.0-0.0-1.3","6","6","6","5","5","4","3","5","4","4","4","1","0","1","0","1","1","2","1","5","5","5","5","5","4","4","4","5","4","6","7","8","8","6","8","7","8","8","6","5","5","5","6","3","6","1","6","5","1","5","4","6","5","6","6","6","4","3","6","3","6","6","7","5","7","6","7","6","6","7","7","6","7","2","7","6","6","5","6","753363750240915458","韩","132","Male","[""好他"",""好我"",""坏我"",""坏他""]","[""强他"",""强我"",""弱我"",""弱他""]","","","","","","","","","","","","","","","","","","","","","","","","","","","","","","feedback_test","","","","","","","","",""
"896","","j","psychophysics","116","521627","0.0-8.0-0.0-4.0-0.0-0.4","6","6","6","5","5","4","3","5","4","4","4","1","0","1","0","1","1","2","1","5","5","5","5","5","4","4","4","5","4","6","7","8","8","6","8","7","8","8","6","5","5","5","6","3","6","1","6","5","1","5","4","6","5","6","6","6","4","3","6","3","6","6","7","5","7","6","7","6","6","7","7","6","7","2","7","6","6","5","6","753363750240915458","韩","132","Male","[""好他"",""好我"",""坏我"",""坏他""]","[""强他"",""强我"",""弱我"",""弱他""]","","","","","","","","nonmatch","","","","","","","","","","key","j","16.666353982300972","960","536","j","true","nonmatch","img/triangle.png","坏我","好他","ALT2","moral","","","","","","","","",""
"null","<span style='color:GreenYellow; font-size: 70px;'>正确! </span>","null","html-keyboard-response","117","522129","0.0-8.0-0.0-4.0-0.0-1.4","6","6","6","5","5","4","3","5","4","4","4","1","0","1","0","1","1","2","1","5","5","5","5","5","4","4","4","5","4","6","7","8","8","6","8","7","8","8","6","5","5","5","6","3","6","1","6","5","1","5","4","6","5","6","6","6","4","3","6","3","6","6","7","5","7","6","7","6","6","7","7","6","7","2","7","6","6","5","6","753363750240915458","韩","132","Male","[""好他"",""好我"",""坏我"",""坏他""]","[""强他"",""强我"",""弱我"",""弱他""]","","","","","","","","","","","","","","","","","","","","","","","","","","","","","","feedback_test","","","","","","","","",""
"880","","j","psychophysics","118","524011","0.0-8.0-0.0-4.0-0.0-0.5","6","6","6","5","5","4","3","5","4","4","4","1","0","1","0","1","1","2","1","5","5","5","5","5","4","4","4","5","4","6","7","8","8","6","8","7","8","8","6","5","5","5","6","3","6","1","6","5","1","5","4","6","5","6","6","6","4","3","6","3","6","6","7","5","7","6","7","6","6","7","7","6","7","2","7","6","6","5","6","753363750240915458","韩","132","Male","[""好他"",""好我"",""坏我"",""坏他""]","[""强他"",""强我"",""弱我"",""弱他""]","","","","","","","","nonmatch","","","","","","","","","","key","j","16.66603571428589","960","536","j","true","nonmatch","img/ellipse.png","好他","坏我","ALT2","moral","","","","","","","","",""
"null","<span style='color:GreenYellow; font-size: 70px;'>正确! </span>","null","html-keyboard-response","119","524512","0.0-8.0-0.0-4.0-0.0-1.5","6","6","6","5","5","4","3","5","4","4","4","1","0","1","0","1","1","2","1","5","5","5","5","5","4","4","4","5","4","6","7","8","8","6","8","7","8","8","6","5","5","5","6","3","6","1","6","5","1","5","4","6","5","6","6","6","4","3","6","3","6","6","7","5","7","6","7","6","6","7","7","6","7","2","7","6","6","5","6","753363750240915458","韩","132","Male","[""好他"",""好我"",""坏我"",""坏他""]","[""强他"",""强我"",""弱我"",""弱他""]","","","","","","","","","","","","","","","","","","","","","","","","","","","","","","feedback_test","","","","","","","","",""
"786","","f","psychophysics","120","526300","0.0-8.0-0.0-4.0-0.0-0.6","6","6","6","5","5","4","3","5","4","4","4","1","0","1","0","1","1","2","1","5","5","5","5","5","4","4","4","5","4","6","7","8","8","6","8","7","8","8","6","5","5","5","6","3","6","1","6","5","1","5","4","6","5","6","6","6","4","3","6","3","6","6","7","5","7","6","7","6","6","7","7","6","7","2","7","6","6","5","6","753363750240915458","韩","132","Male","[""好他"",""好我"",""坏我"",""坏他""]","[""强他"",""强我"",""弱我"",""弱他""]","","","","","","","","match","","","","","","","","","","key","f","16.66682075471661","960","536","f","true","match","img/ellipse.png","坏我","坏我","ALT2","moral","","","","","","","","",""
"null","<span style='color:GreenYellow; font-size: 70px;'>正确! </span>","null","html-keyboard-response","121","526802","0.0-8.0-0.0-4.0-0.0-1.6","6","6","6","5","5","4","3","5","4","4","4","1","0","1","0","1","1","2","1","5","5","5","5","5","4","4","4","5","4","6","7","8","8","6","8","7","8","8","6","5","5","5","6","3","6","1","6","5","1","5","4","6","5","6","6","6","4","3","6","3","6","6","7","5","7","6","7","6","6","7","7","6","7","2","7","6","6","5","6","753363750240915458","韩","132","Male","[""好他"",""好我"",""坏我"",""坏他""]","[""强他"",""强我"",""弱我"",""弱他""]","","","","","","","","","","","","","","","","","","","","","","","","","","","","","","feedback_test","","","","","","","","",""
"784","","f","psychophysics","122","528588","0.0-8.0-0.0-4.0-0.0-0.7","6","6","6","5","5","4","3","5","4","4","4","1","0","1","0","1","1","2","1","5","5","5","5","5","4","4","4","5","4","6","7","8","8","6","8","7","8","8","6","5","5","5","6","3","6","1","6","5","1","5","4","6","5","6","6","6","4","3","6","3","6","6","7","5","7","6","7","6","6","7","7","6","7","2","7","6","6","5","6","753363750240915458","韩","132","Male","[""好他"",""好我"",""坏我"",""坏他""]","[""强他"",""强我"",""弱我"",""弱他""]","","","","","","","","match","","","","","","","","","","key","f","16.666330188679737","960","536","f","true","match","img/diamond.png","好我","好我","ALT2","moral","","","","","","","","",""
"null","<span style='color:GreenYellow; font-size: 70px;'>正确! </span>","null","html-keyboard-response","123","529089","0.0-8.0-0.0-4.0-0.0-1.7","6","6","6","5","5","4","3","5","4","4","4","1","0","1","0","1","1","2","1","5","5","5","5","5","4","4","4","5","4","6","7","8","8","6","8","7","8","8","6","5","5","5","6","3","6","1","6","5","1","5","4","6","5","6","6","6","4","3","6","3","6","6","7","5","7","6","7","6","6","7","7","6","7","2","7","6","6","5","6","753363750240915458","韩","132","Male","[""好他"",""好我"",""坏我"",""坏他""]","[""强他"",""强我"",""弱我"",""弱他""]","","","","","","","","","","","","","","","","","","","","","","","","","","","","","","feedback_test","","","","","","","","",""
"938","","f","psychophysics","124","531028","0.0-8.0-0.0-4.0-0.0-0.8","6","6","6","5","5","4","3","5","4","4","4","1","0","1","0","1","1","2","1","5","5","5","5","5","4","4","4","5","4","6","7","8","8","6","8","7","8","8","6","5","5","5","6","3","6","1","6","5","1","5","4","6","5","6","6","6","4","3","6","3","6","6","7","5","7","6","7","6","6","7","7","6","7","2","7","6","6","5","6","753363750240915458","韩","132","Male","[""好他"",""好我"",""坏我"",""坏他""]","[""强他"",""强我"",""弱我"",""弱他""]","","","","","","","","match","","","","","","","","","","key","f","16.667269565217683","960","536","f","true","match","img/ellipse.png","坏我","坏我","ALT2","moral","","","","","","","","",""
"null","<span style='color:GreenYellow; font-size: 70px;'>正确! </span>","null","html-keyboard-response","125","531529","0.0-8.0-0.0-4.0-0.0-1.8","6","6","6","5","5","4","3","5","4","4","4","1","0","1","0","1","1","2","1","5","5","5","5","5","4","4","4","5","4","6","7","8","8","6","8","7","8","8","6","5","5","5","6","3","6","1","6","5","1","5","4","6","5","6","6","6","4","3","6","3","6","6","7","5","7","6","7","6","6","7","7","6","7","2","7","6","6","5","6","753363750240915458","韩","132","Male","[""好他"",""好我"",""坏我"",""坏他""]","[""强他"",""强我"",""弱我"",""弱他""]","","","","","","","","","","","","","","","","","","","","","","","","","","","","","","feedback_test","","","","","","","","",""
"849","","j","psychophysics","126","533379","0.0-8.0-0.0-4.0-0.0-0.9","6","6","6","5","5","4","3","5","4","4","4","1","0","1","0","1","1","2","1","5","5","5","5","5","4","4","4","5","4","6","7","8","8","6","8","7","8","8","6","5","5","5","6","3","6","1","6","5","1","5","4","6","5","6","6","6","4","3","6","3","6","6","7","5","7","6","7","6","6","7","7","6","7","2","7","6","6","5","6","753363750240915458","韩","132","Male","[""好他"",""好我"",""坏我"",""坏他""]","[""强他"",""强我"",""弱我"",""弱他""]","","","","","","","","nonmatch","","","","","","","","","","key","j","16.667263636364474","960","536","j","true","nonmatch","img/triangle.png","坏他","好他","ALT2","moral","","","","","","","","",""
"null","<span style='color:GreenYellow; font-size: 70px;'>正确! </span>","null","html-keyboard-response","127","533880","0.0-8.0-0.0-4.0-0.0-1.9","6","6","6","5","5","4","3","5","4","4","4","1","0","1","0","1","1","2","1","5","5","5","5","5","4","4","4","5","4","6","7","8","8","6","8","7","8","8","6","5","5","5","6","3","6","1","6","5","1","5","4","6","5","6","6","6","4","3","6","3","6","6","7","5","7","6","7","6","6","7","7","6","7","2","7","6","6","5","6","753363750240915458","韩","132","Male","[""好他"",""好我"",""坏我"",""坏他""]","[""强他"",""强我"",""弱我"",""弱他""]","","","","","","","","","","","","","","","","","","","","","","","","","","","","","","feedback_test","","","","","","","","",""
"922","","f","psychophysics","128","535805","0.0-8.0-0.0-4.0-0.0-0.10","6","6","6","5","5","4","3","5","4","4","4","1","0","1","0","1","1","2","1","5","5","5","5","5","4","4","4","5","4","6","7","8","8","6","8","7","8","8","6","5","5","5","6","3","6","1","6","5","1","5","4","6","5","6","6","6","4","3","6","3","6","6","7","5","7","6","7","6","6","7","7","6","7","2","7","6","6","5","6","753363750240915458","韩","132","Male","[""好他"",""好我"",""坏我"",""坏他""]","[""强他"",""强我"",""弱我"",""弱他""]","","","","","","","","match","","","","","","","","","","key","f","16.666657894736424","960","536","j","false","nonmatch","img/hexagon.png","坏我","坏他","ALT2","moral","","","","","","","","",""
"null","<span style='color:red; font-size: 70px;'>错误! </span>","null","html-keyboard-response","129","536306","0.0-8.0-0.0-4.0-0.0-1.10","6","6","6","5","5","4","3","5","4","4","4","1","0","1","0","1","1","2","1","5","5","5","5","5","4","4","4","5","4","6","7","8","8","6","8","7","8","8","6","5","5","5","6","3","6","1","6","5","1","5","4","6","5","6","6","6","4","3","6","3","6","6","7","5","7","6","7","6","6","7","7","6","7","2","7","6","6","5","6","753363750240915458","韩","132","Male","[""好他"",""好我"",""坏我"",""坏他""]","[""强他"",""强我"",""弱我"",""弱他""]","","","","","","","","","","","","","","","","","","","","","","","","","","","","","","feedback_test","","","","","","","","",""
"928","","f","psychophysics","130","538235","0.0-8.0-0.0-4.0-0.0-0.11","6","6","6","5","5","4","3","5","4","4","4","1","0","1","0","1","1","2","1","5","5","5","5","5","4","4","4","5","4","6","7","8","8","6","8","7","8","8","6","5","5","5","6","3","6","1","6","5","1","5","4","6","5","6","6","6","4","3","6","3","6","6","7","5","7","6","7","6","6","7","7","6","7","2","7","6","6","5","6","753363750240915458","韩","132","Male","[""好他"",""好我"",""坏我"",""坏他""]","[""强他"",""强我"",""弱我"",""弱他""]","","","","","","","","match","","","","","","","","","","key","f","16.667394736842986","960","536","f","true","match","img/hexagon.png","坏他","坏他","ALT2","moral","","","","","","","","",""
"null","<span style='color:GreenYellow; font-size: 70px;'>正确! </span>","null","html-keyboard-response","131","538736","0.0-8.0-0.0-4.0-0.0-1.11","6","6","6","5","5","4","3","5","4","4","4","1","0","1","0","1","1","2","1","5","5","5","5","5","4","4","4","5","4","6","7","8","8","6","8","7","8","8","6","5","5","5","6","3","6","1","6","5","1","5","4","6","5","6","6","6","4","3","6","3","6","6","7","5","7","6","7","6","6","7","7","6","7","2","7","6","6","5","6","753363750240915458","韩","132","Male","[""好他"",""好我"",""坏我"",""坏他""]","[""强他"",""强我"",""弱我"",""弱他""]","","","","","","","","","","","","","","","","","","","","","","","","","","","","","","feedback_test","","","","","","","","",""
"1026","","f","psychophysics","132","540763","0.0-8.0-0.0-4.0-0.0-0.12","6","6","6","5","5","4","3","5","4","4","4","1","0","1","0","1","1","2","1","5","5","5","5","5","4","4","4","5","4","6","7","8","8","6","8","7","8","8","6","5","5","5","6","3","6","1","6","5","1","5","4","6","5","6","6","6","4","3","6","3","6","6","7","5","7","6","7","6","6","7","7","6","7","2","7","6","6","5","6","753363750240915458","韩","132","Male","[""好他"",""好我"",""坏我"",""坏他""]","[""强他"",""强我"",""弱我"",""弱他""]","","","","","","","","match","","","","","","","","","","key","f","16.66747933884309","960","536","f","true","match","img/triangle.png","好他","好他","ALT2","moral","","","","","","","","",""
"null","<span style='color:GreenYellow; font-size: 70px;'>正确! </span>","null","html-keyboard-response","133","541264","0.0-8.0-0.0-4.0-0.0-1.12","6","6","6","5","5","4","3","5","4","4","4","1","0","1","0","1","1","2","1","5","5","5","5","5","4","4","4","5","4","6","7","8","8","6","8","7","8","8","6","5","5","5","6","3","6","1","6","5","1","5","4","6","5","6","6","6","4","3","6","3","6","6","7","5","7","6","7","6","6","7","7","6","7","2","7","6","6","5","6","753363750240915458","韩","132","Male","[""好他"",""好我"",""坏我"",""坏他""]","[""强他"",""强我"",""弱我"",""弱他""]","","","","","","","","","","","","","","","","","","","","","","","","","","","","","","feedback_test","","","","","","","","",""
"899","","j","psychophysics","134","543164","0.0-8.0-0.0-4.0-0.0-0.13","6","6","6","5","5","4","3","5","4","4","4","1","0","1","0","1","1","2","1","5","5","5","5","5","4","4","4","5","4","6","7","8","8","6","8","7","8","8","6","5","5","5","6","3","6","1","6","5","1","5","4","6","5","6","6","6","4","3","6","3","6","6","7","5","7","6","7","6","6","7","7","6","7","2","7","6","6","5","6","753363750240915458","韩","132","Male","[""好他"",""好我"",""坏我"",""坏他""]","[""强他"",""强我"",""弱我"",""弱他""]","","","","","","","","nonmatch","","","","","","","","","","key","j","16.66685840707948","960","536","f","false","match","img/diamond.png","好我","好我","ALT2","moral","","","","","","","","",""
"null","<span style='color:red; font-size: 70px;'>错误! </span>","null","html-keyboard-response","135","543665","0.0-8.0-0.0-4.0-0.0-1.13","6","6","6","5","5","4","3","5","4","4","4","1","0","1","0","1","1","2","1","5","5","5","5","5","4","4","4","5","4","6","7","8","8","6","8","7","8","8","6","5","5","5","6","3","6","1","6","5","1","5","4","6","5","6","6","6","4","3","6","3","6","6","7","5","7","6","7","6","6","7","7","6","7","2","7","6","6","5","6","753363750240915458","韩","132","Male","[""好他"",""好我"",""坏我"",""坏他""]","[""强他"",""强我"",""弱我"",""弱他""]","","","","","","","","","","","","","","","","","","","","","","","","","","","","","","feedback_test","","","","","","","","",""
"840","","f","psychophysics","136","545507","0.0-8.0-0.0-4.0-0.0-0.14","6","6","6","5","5","4","3","5","4","4","4","1","0","1","0","1","1","2","1","5","5","5","5","5","4","4","4","5","4","6","7","8","8","6","8","7","8","8","6","5","5","5","6","3","6","1","6","5","1","5","4","6","5","6","6","6","4","3","6","3","6","6","7","5","7","6","7","6","6","7","7","6","7","2","7","6","6","5","6","753363750240915458","韩","132","Male","[""好他"",""好我"",""坏我"",""坏他""]","[""强他"",""强我"",""弱我"",""弱他""]","","","","","","","","match","","","","","","","","","","key","f","16.667183486238514","960","536","f","true","match","img/ellipse.png","坏我","坏我","ALT2","moral","","","","","","","","",""
"null","<span style='color:GreenYellow; font-size: 70px;'>正确! </span>","null","html-keyboard-response","137","546008","0.0-8.0-0.0-4.0-0.0-1.14","6","6","6","5","5","4","3","5","4","4","4","1","0","1","0","1","1","2","1","5","5","5","5","5","4","4","4","5","4","6","7","8","8","6","8","7","8","8","6","5","5","5","6","3","6","1","6","5","1","5","4","6","5","6","6","6","4","3","6","3","6","6","7","5","7","6","7","6","6","7","7","6","7","2","7","6","6","5","6","753363750240915458","韩","132","Male","[""好他"",""好我"",""坏我"",""坏他""]","[""强他"",""强我"",""弱我"",""弱他""]","","","","","","","","","","","","","","","","","","","","","","","","","","","","","","feedback_test","","","","","","","","",""
"1074","","f","psychophysics","138","548085","0.0-8.0-0.0-4.0-0.0-0.15","6","6","6","5","5","4","3","5","4","4","4","1","0","1","0","1","1","2","1","5","5","5","5","5","4","4","4","5","4","6","7","8","8","6","8","7","8","8","6","5","5","5","6","3","6","1","6","5","1","5","4","6","5","6","6","6","4","3","6","3","6","6","7","5","7","6","7","6","6","7","7","6","7","2","7","6","6","5","6","753363750240915458","韩","132","Male","[""好他"",""好我"",""坏我"",""坏他""]","[""强他"",""强我"",""弱我"",""弱他""]","","","","","","","","match","","","","","","","","","","key","f","16.667146341463482","960","536","j","false","nonmatch","img/ellipse.png","坏他","坏我","ALT2","moral","","","","","","","","",""
