"rt","stimulus","response","trial_type","trial_index","time_elapsed","internal_node_id","swb_1","swb_2","swb_3","swb_4","swb_5","LOT_1","LOT_2","LOT_3","LOT_4","LOT_5","LOT_6","IPC_1","IPC_2","IPC_3","IPC_4","IPC_5","IPC_6","IPC_7","IPC_8","MorIden_1","MorIden_2","MorIden_3","MorIden_4","MorIden_5","MorIden_6","MorIden_7","MorIden_8","MorIden_9","MorIden_10","moralSeImag_1","moralSeImag_2","moralSeImag_3","moralSeImag_4","moralSeImag_5","moralSeImag_6","moralSeImag_7","moralSeImag_8","moralSeImag_9","sde_1","sde_2","sde_3","sde_4","sde_5","sde_6","sde_7","sde_8","sde_9","sde_10","trap2","sde_11","sde_12","sde_13","sde_14","sde_15","sde_16","sde_17","sde_18","sde_19","sde_20","IM_1","IM_2","IM_3","IM_4","IM_5","IM_6","IM_7","IM_8","IM_9","IM_10","IM_11","IM_12","IM_13","IM_14","IM_15","IM_16","IM_17","IM_18","IM_19","IM_20","subj_idx","friend_name","ParticipantID","Sex","Word","Word2","value","success","timeout","failed_images","failed_audio","failed_video","user_agent","responses","item_order","radio_event_ids","radio_event_times","key_event_times","mouse_event_times","straightlining","zigzagging","honeypot","view_history","response_type","key_press","avg_frame_time","center_x","center_y","correct_response","correct","identity","Image","word","condition","task_id","screen_id","time_stamp","person","valence","domain","math","status","duration","question_order","trap2_item"
"1861","
   <p><div style='color:white; font-size: 25px'>您好，欢迎参加本次实验。</div></p>
   <p><div style='color:white; font-size: 25px'>为充分保障您的权利，请确保您已经知晓并同意《参与实验同意书》以及《数据公开知情同意书》。</div></p>
   <p><div style='color:white; font-size: 25px'>如果您未见过上述内容，请咨询实验员。</div></p>
   <p style='color:white; font-size: 25px'>如果您选择继续实验，则表示您已经清楚两份知情同意书的内容并同意。</p>
   <p><div style = ""color: pink;font-size:30px;"">请确保您记得day0的实验编号，您将在本次实验输入该编号，若您忘记，请咨询实验员后作答。</div></p>
   <p><div style = ""color:lightblue;font-size:25px;"">请您尽可能认真地作答，我们将依据您在各问卷和按键任务中的作答质量发放报酬。</div></p>
   <p> <div style = ""color: green""><按空格键至下页></div> </p>
   "," ","html-keyboard-response","0","1869","0.0-0.0","6","4","5","5","6","4","3","4","5","5","4","-3","-1","0","0","-3","2","1","1","4","5","4","4","5","4","4","5","4","4","5","4","4","4","3","4","4","3","4","6","3","6","5","5","3","6","2","3","3","1","5","2","6","3","2","7","5","4","5","4","3","6","5","6","3","5","6","6","5","5","5","6","4","5","6","6","5","5","3","6","771469560028336130","吴","696","Female","[""好我"",""坏我"",""好她"",""坏她""]","[""强我"",""弱我"",""强她"",""弱她""]","","","","","","","","","","","","","","","","","","","","","","","","","","","","","","","","","","","","","","",""
"","","","call-function","1","1871","0.0-1.0-0.0","6","4","5","5","6","4","3","4","5","5","4","-3","-1","0","0","-3","2","1","1","4","5","4","4","5","4","4","5","4","4","5","4","4","4","3","4","4","3","4","6","3","6","5","5","3","6","2","3","3","1","5","2","6","3","2","7","5","4","5","4","3","6","5","6","3","5","6","6","5","5","5","6","4","5","6","6","5","5","3","6","771469560028336130","吴","696","Female","[""好我"",""坏我"",""好她"",""坏她""]","[""强我"",""弱我"",""强她"",""弱她""]","","","","","","","","","","","","","","","","","","","","","","","","","","","","","","","","","","","","","","",""
"45403","","[{""name"":""Sex"",""value"":""1""},{""name"":""friend_name"",""value"":""吴""},{""name"":""ParticipantID"",""value"":""696""}]","survey-html-form","2","47277","0.0-1.0-1.0","6","4","5","5","6","4","3","4","5","5","4","-3","-1","0","0","-3","2","1","1","4","5","4","4","5","4","4","5","4","4","5","4","4","4","3","4","4","3","4","6","3","6","5","5","3","6","2","3","3","1","5","2","6","3","2","7","5","4","5","4","3","6","5","6","3","5","6","6","5","5","5","6","4","5","6","6","5","5","3","6","771469560028336130","吴","696","Female","[""好我"",""坏我"",""好她"",""坏她""]","[""强我"",""弱我"",""强她"",""弱她""]","","","","","","","","","","","","","","","","","","","","","","","","","","","","","","","","","","","","","","",""
"","","","preload","3","47682","0.0-2.0","6","4","5","5","6","4","3","4","5","5","4","-3","-1","0","0","-3","2","1","1","4","5","4","4","5","4","4","5","4","4","5","4","4","4","3","4","4","3","4","6","3","6","5","5","3","6","2","3","3","1","5","2","6","3","2","7","5","4","5","4","3","6","5","6","3","5","6","6","5","5","5","6","4","5","6","6","5","5","3","6","771469560028336130","吴","696","Female","[""好我"",""坏我"",""好她"",""坏她""]","[""强我"",""弱我"",""强她"",""弱她""]","","true","false","[]","[]","[]","","","","","","","","","","","","","","","","","","","","","","","","","","","","","","","","",""
"","","","fullscreen","4","48963","0.0-3.0","6","4","5","5","6","4","3","4","5","5","4","-3","-1","0","0","-3","2","1","1","4","5","4","4","5","4","4","5","4","4","5","4","4","4","3","4","4","3","4","6","3","6","5","5","3","6","2","3","3","1","5","2","6","3","2","7","5","4","5","4","3","6","5","6","3","5","6","6","5","5","5","6","4","5","6","6","5","5","3","6","771469560028336130","吴","696","Female","[""好我"",""坏我"",""好她"",""坏她""]","[""强我"",""弱我"",""强她"",""弱她""]","","true","","","","","{}","","","","","","","","","","","","","","","","","","","","","","","","","","","","","","","",""
"21956.699999999255","","{""Q01"":""6"",""Q02"":""4"",""Q03"":""5"",""Q04"":""5"",""Q05"":""6""}","survey-template","5","70929","0.0-4.0","6","4","5","5","6","4","3","4","5","5","4","-3","-1","0","0","-3","2","1","1","4","5","4","4","5","4","4","5","4","4","5","4","4","4","3","4","4","3","4","6","3","6","5","5","3","6","2","3","3","1","5","2","6","3","2","7","5","4","5","4","3","6","5","6","3","5","6","6","5","5","5","6","4","5","6","6","5","5","3","6","771469560028336130","吴","696","Female","[""好我"",""坏我"",""好她"",""坏她""]","[""强我"",""弱我"",""强她"",""弱她""]","","","","","","","","{""Q01"":""6"",""Q02"":""4"",""Q03"":""5"",""Q04"":""5"",""Q05"":""6""}","[0,1,2,3,4]","[""Q01"",""Q01"",""Q02"",""Q03"",""Q04"",""Q05""]","[5705.9000000003725,6673.4000000003725,7377.199999999255,10241,11449.199999999255,12297.099999999627]","[]","[5705.9000000003725,6673.4000000003725,7377.199999999255,10241,11449.199999999255,12297.099999999627,21953.099999999627]","0.4","0.5","0","","","","","","","","","","","","","","","","","","","","","","",""
"15788.199999999255","","{""Q01"":""4"",""Q02"":""3"",""Q03"":""4"",""Q04"":""5"",""Q05"":""5"",""Q06"":""4""}","survey-template","6","86733","0.0-5.0","6","4","5","5","6","4","3","4","5","5","4","-3","-1","0","0","-3","2","1","1","4","5","4","4","5","4","4","5","4","4","5","4","4","4","3","4","4","3","4","6","3","6","5","5","3","6","2","3","3","1","5","2","6","3","2","7","5","4","5","4","3","6","5","6","3","5","6","6","5","5","5","6","4","5","6","6","5","5","3","6","771469560028336130","吴","696","Female","[""好我"",""坏我"",""好她"",""坏她""]","[""强我"",""弱我"",""强她"",""弱她""]","","","","","","","","{""Q01"":""4"",""Q02"":""3"",""Q03"":""4"",""Q04"":""5"",""Q05"":""5"",""Q06"":""4""}","[0,1,2,3,4,5]","[""Q01"",""Q02"",""Q03"",""Q04"",""Q05"",""Q06""]","[2147.9000000003725,4916,6347.9000000003725,8251.800000000745,9331.699999999255,10203.900000000373]","[]","[2147.9000000003725,4916,6347.9000000003725,7692.0999999996275,8251.800000000745,8643.800000000745,9331.699999999255,10203.900000000373,15787.300000000745]","0.5","0.4","0","","","","","","","","","","","","","","","","","","","","","","",""
"19818.800000000745","","{""Q01"":""-3"",""Q02"":""-1"",""Q03"":""0"",""Q04"":""0"",""Q05"":""-3"",""Q06"":""2"",""Q07"":""1"",""Q08"":""1""}","survey-template","7","106561","0.0-6.0","6","4","5","5","6","4","3","4","5","5","4","-3","-1","0","0","-3","2","1","1","4","5","4","4","5","4","4","5","4","4","5","4","4","4","3","4","4","3","4","6","3","6","5","5","3","6","2","3","3","1","5","2","6","3","2","7","5","4","5","4","3","6","5","6","3","5","6","6","5","5","5","6","4","5","6","6","5","5","3","6","771469560028336130","吴","696","Female","[""好我"",""坏我"",""好她"",""坏她""]","[""强我"",""弱我"",""强她"",""弱她""]","","","","","","","","{""Q01"":""-3"",""Q02"":""-1"",""Q03"":""0"",""Q04"":""0"",""Q05"":""-3"",""Q06"":""2"",""Q07"":""1"",""Q08"":""1""}","[0,1,2,3,4,5,6,7]","[""Q01"",""Q02"",""Q03"",""Q03"",""Q04"",""Q05"",""Q06"",""Q07"",""Q08""]","[2927.4000000003725,3863.5999999996275,5703.5,6783.300000000745,8767.599999999627,9727.099999999627,11255.099999999627,12895.099999999627,14039]","[]","[2207.0999999996275,2927.4000000003725,3863.5999999996275,5703.5,6783.300000000745,8767.599999999627,9727.099999999627,11255.099999999627,12895.099999999627,14039,19815.300000000745]","0.25","0.42857142857142855","0","","","","","","","","","","","","","","","","","","","","","","",""
"16610","","","instructions","8","123181","0.0-7.0","6","4","5","5","6","4","3","4","5","5","4","-3","-1","0","0","-3","2","1","1","4","5","4","4","5","4","4","5","4","4","5","4","4","4","3","4","4","3","4","6","3","6","5","5","3","6","2","3","3","1","5","2","6","3","2","7","5","4","5","4","3","6","5","6","3","5","6","6","5","5","5","6","4","5","6","6","5","5","3","6","771469560028336130","吴","696","Female","[""好我"",""坏我"",""好她"",""坏她""]","[""强我"",""弱我"",""强她"",""弱她""]","","","","","","","","","","","","","","","","","[{""page_index"":0,""viewing_time"":16608}]","","","","","","","","","","","","","","","","","","","","","",""
"33529","","","instructions","9","156715","0.0-8.0-0.0-0.0","6","4","5","5","6","4","3","4","5","5","4","-3","-1","0","0","-3","2","1","1","4","5","4","4","5","4","4","5","4","4","5","4","4","4","3","4","4","3","4","6","3","6","5","5","3","6","2","3","3","1","5","2","6","3","2","7","5","4","5","4","3","6","5","6","3","5","6","6","5","5","5","6","4","5","6","6","5","5","3","6","771469560028336130","吴","696","Female","[""好我"",""坏我"",""好她"",""坏她""]","[""强我"",""弱我"",""强她"",""弱她""]","","","","","","","","","","","","","","","","","[{""page_index"":0,""viewing_time"":2153},{""page_index"":1,""viewing_time"":29056},{""page_index"":2,""viewing_time"":1400},{""page_index"":3,""viewing_time"":920}]","","","","","","","","","","","","","","","","","","","","","",""
"946","","f","psychophysics","10","158675","0.0-8.0-0.0-1.0-0.0-0.0","6","4","5","5","6","4","3","4","5","5","4","-3","-1","0","0","-3","2","1","1","4","5","4","4","5","4","4","5","4","4","5","4","4","4","3","4","4","3","4","6","3","6","5","5","3","6","2","3","3","1","5","2","6","3","2","7","5","4","5","4","3","6","5","6","3","5","6","6","5","5","5","6","4","5","6","6","5","5","3","6","771469560028336130","吴","696","Female","[""好我"",""坏我"",""好她"",""坏她""]","[""强我"",""弱我"",""强她"",""弱她""]","","","","","","","","match","","","","","","","","","","key","f","16.96107964601782","683","380","f","true","match","img/pentagon.png","好我","好我","prac_ALT2_moral","practice_moral","","","","","","","","",""
"null","<span style='color:GreenYellow; font-size: 70px;'>正确! </span>","null","html-keyboard-response","11","159177","0.0-8.0-0.0-1.0-0.0-1.0","6","4","5","5","6","4","3","4","5","5","4","-3","-1","0","0","-3","2","1","1","4","5","4","4","5","4","4","5","4","4","5","4","4","4","3","4","4","3","4","6","3","6","5","5","3","6","2","3","3","1","5","2","6","3","2","7","5","4","5","4","3","6","5","6","3","5","6","6","5","5","5","6","4","5","6","6","5","5","3","6","771469560028336130","吴","696","Female","[""好我"",""坏我"",""好她"",""坏她""]","[""强我"",""弱我"",""强她"",""弱她""]","","","","","","","","","","","","","","","","","","","","","","","","","","","","","","feedback_test","","","","","","","","",""
"745","","f","psychophysics","12","160930","0.0-8.0-0.0-1.0-0.0-0.1","6","4","5","5","6","4","3","4","5","5","4","-3","-1","0","0","-3","2","1","1","4","5","4","4","5","4","4","5","4","4","5","4","4","4","3","4","4","3","4","6","3","6","5","5","3","6","2","3","3","1","5","2","6","3","2","7","5","4","5","4","3","6","5","6","3","5","6","6","5","5","5","6","4","5","6","6","5","5","3","6","771469560028336130","吴","696","Female","[""好我"",""坏我"",""好她"",""坏她""]","[""强我"",""弱我"",""强她"",""弱她""]","","","","","","","","match","","","","","","","","","","key","f","16.661796116504934","683","380","j","false","nonmatch","img/diamond.png","坏我","好她","prac_ALT2_moral","practice_moral","","","","","","","","",""
"null","<span style='color:red; font-size: 70px;'>错误! </span>","null","html-keyboard-response","13","161433","0.0-8.0-0.0-1.0-0.0-1.1","6","4","5","5","6","4","3","4","5","5","4","-3","-1","0","0","-3","2","1","1","4","5","4","4","5","4","4","5","4","4","5","4","4","4","3","4","4","3","4","6","3","6","5","5","3","6","2","3","3","1","5","2","6","3","2","7","5","4","5","4","3","6","5","6","3","5","6","6","5","5","5","6","4","5","6","6","5","5","3","6","771469560028336130","吴","696","Female","[""好我"",""坏我"",""好她"",""坏她""]","[""强我"",""弱我"",""强她"",""弱她""]","","","","","","","","","","","","","","","","","","","","","","","","","","","","","","feedback_test","","","","","","","","",""
"923","","j","psychophysics","14","163363","0.0-8.0-0.0-1.0-0.0-0.2","6","4","5","5","6","4","3","4","5","5","4","-3","-1","0","0","-3","2","1","1","4","5","4","4","5","4","4","5","4","4","5","4","4","4","3","4","4","3","4","6","3","6","5","5","3","6","2","3","3","1","5","2","6","3","2","7","5","4","5","4","3","6","5","6","3","5","6","6","5","5","5","6","4","5","6","6","5","5","3","6","771469560028336130","吴","696","Female","[""好我"",""坏我"",""好她"",""坏她""]","[""强我"",""弱我"",""强她"",""弱她""]","","","","","","","","nonmatch","","","","","","","","","","key","j","16.81091228070191","683","380","j","true","nonmatch","img/triangle.png","好我","坏我","prac_ALT2_moral","practice_moral","","","","","","","","",""
"null","<span style='color:GreenYellow; font-size: 70px;'>正确! </span>","null","html-keyboard-response","15","163865","0.0-8.0-0.0-1.0-0.0-1.2","6","4","5","5","6","4","3","4","5","5","4","-3","-1","0","0","-3","2","1","1","4","5","4","4","5","4","4","5","4","4","5","4","4","4","3","4","4","3","4","6","3","6","5","5","3","6","2","3","3","1","5","2","6","3","2","7","5","4","5","4","3","6","5","6","3","5","6","6","5","5","5","6","4","5","6","6","5","5","3","6","771469560028336130","吴","696","Female","[""好我"",""坏我"",""好她"",""坏她""]","[""强我"",""弱我"",""强她"",""弱她""]","","","","","","","","","","","","","","","","","","","","","","","","","","","","","","feedback_test","","","","","","","","",""
"858","","j","psychophysics","16","165731","0.0-8.0-0.0-1.0-0.0-0.3","6","4","5","5","6","4","3","4","5","5","4","-3","-1","0","0","-3","2","1","1","4","5","4","4","5","4","4","5","4","4","5","4","4","4","3","4","4","3","4","6","3","6","5","5","3","6","2","3","3","1","5","2","6","3","2","7","5","4","5","4","3","6","5","6","3","5","6","6","5","5","5","6","4","5","6","6","5","5","3","6","771469560028336130","吴","696","Female","[""好我"",""坏我"",""好她"",""坏她""]","[""强我"",""弱我"",""强她"",""弱她""]","","","","","","","","nonmatch","","","","","","","","","","key","j","16.653587155963386","683","380","j","true","nonmatch","img/ellipse.png","好我","坏她","prac_ALT2_moral","practice_moral","","","","","","","","",""
"null","<span style='color:GreenYellow; font-size: 70px;'>正确! </span>","null","html-keyboard-response","17","166233","0.0-8.0-0.0-1.0-0.0-1.3","6","4","5","5","6","4","3","4","5","5","4","-3","-1","0","0","-3","2","1","1","4","5","4","4","5","4","4","5","4","4","5","4","4","4","3","4","4","3","4","6","3","6","5","5","3","6","2","3","3","1","5","2","6","3","2","7","5","4","5","4","3","6","5","6","3","5","6","6","5","5","5","6","4","5","6","6","5","5","3","6","771469560028336130","吴","696","Female","[""好我"",""坏我"",""好她"",""坏她""]","[""强我"",""弱我"",""强她"",""弱她""]","","","","","","","","","","","","","","","","","","","","","","","","","","","","","","feedback_test","","","","","","","","",""
"957","","j","psychophysics","18","168195","0.0-8.0-0.0-1.0-0.0-0.4","6","4","5","5","6","4","3","4","5","5","4","-3","-1","0","0","-3","2","1","1","4","5","4","4","5","4","4","5","4","4","5","4","4","4","3","4","4","3","4","6","3","6","5","5","3","6","2","3","3","1","5","2","6","3","2","7","5","4","5","4","3","6","5","6","3","5","6","6","5","5","5","6","4","5","6","6","5","5","3","6","771469560028336130","吴","696","Female","[""好我"",""坏我"",""好她"",""坏她""]","[""强我"",""弱我"",""强她"",""弱她""]","","","","","","","","nonmatch","","","","","","","","","","key","j","16.656939130434868","683","380","j","true","nonmatch","img/triangle.png","坏她","坏我","prac_ALT2_moral","practice_moral","","","","","","","","",""
"null","<span style='color:GreenYellow; font-size: 70px;'>正确! </span>","null","html-keyboard-response","19","168697","0.0-8.0-0.0-1.0-0.0-1.4","6","4","5","5","6","4","3","4","5","5","4","-3","-1","0","0","-3","2","1","1","4","5","4","4","5","4","4","5","4","4","5","4","4","4","3","4","4","3","4","6","3","6","5","5","3","6","2","3","3","1","5","2","6","3","2","7","5","4","5","4","3","6","5","6","3","5","6","6","5","5","5","6","4","5","6","6","5","5","3","6","771469560028336130","吴","696","Female","[""好我"",""坏我"",""好她"",""坏她""]","[""强我"",""弱我"",""强她"",""弱她""]","","","","","","","","","","","","","","","","","","","","","","","","","","","","","","feedback_test","","","","","","","","",""
"945","","j","psychophysics","20","170650","0.0-8.0-0.0-1.0-0.0-0.5","6","4","5","5","6","4","3","4","5","5","4","-3","-1","0","0","-3","2","1","1","4","5","4","4","5","4","4","5","4","4","5","4","4","4","3","4","4","3","4","6","3","6","5","5","3","6","2","3","3","1","5","2","6","3","2","7","5","4","5","4","3","6","5","6","3","5","6","6","5","5","5","6","4","5","6","6","5","5","3","6","771469560028336130","吴","696","Female","[""好我"",""坏我"",""好她"",""坏她""]","[""强我"",""弱我"",""强她"",""弱她""]","","","","","","","","nonmatch","","","","","","","","","","key","j","16.664931034482613","683","380","f","false","match","img/pentagon.png","好我","好我","prac_ALT2_moral","practice_moral","","","","","","","","",""
"null","<span style='color:red; font-size: 70px;'>错误! </span>","null","html-keyboard-response","21","171152","0.0-8.0-0.0-1.0-0.0-1.5","6","4","5","5","6","4","3","4","5","5","4","-3","-1","0","0","-3","2","1","1","4","5","4","4","5","4","4","5","4","4","5","4","4","4","3","4","4","3","4","6","3","6","5","5","3","6","2","3","3","1","5","2","6","3","2","7","5","4","5","4","3","6","5","6","3","5","6","6","5","5","5","6","4","5","6","6","5","5","3","6","771469560028336130","吴","696","Female","[""好我"",""坏我"",""好她"",""坏她""]","[""强我"",""弱我"",""强她"",""弱她""]","","","","","","","","","","","","","","","","","","","","","","","","","","","","","","feedback_test","","","","","","","","",""
"935","","j","psychophysics","22","173091","0.0-8.0-0.0-1.0-0.0-0.6","6","4","5","5","6","4","3","4","5","5","4","-3","-1","0","0","-3","2","1","1","4","5","4","4","5","4","4","5","4","4","5","4","4","4","3","4","4","3","4","6","3","6","5","5","3","6","2","3","3","1","5","2","6","3","2","7","5","4","5","4","3","6","5","6","3","5","6","6","5","5","5","6","4","5","6","6","5","5","3","6","771469560028336130","吴","696","Female","[""好我"",""坏我"",""好她"",""坏她""]","[""强我"",""弱我"",""强她"",""弱她""]","","","","","","","","nonmatch","","","","","","","","","","key","j","16.663938596491086","683","380","j","true","nonmatch","img/pentagon.png","坏她","好我","prac_ALT2_moral","practice_moral","","","","","","","","",""
"null","<span style='color:GreenYellow; font-size: 70px;'>正确! </span>","null","html-keyboard-response","23","173592","0.0-8.0-0.0-1.0-0.0-1.6","6","4","5","5","6","4","3","4","5","5","4","-3","-1","0","0","-3","2","1","1","4","5","4","4","5","4","4","5","4","4","5","4","4","4","3","4","4","3","4","6","3","6","5","5","3","6","2","3","3","1","5","2","6","3","2","7","5","4","5","4","3","6","5","6","3","5","6","6","5","5","5","6","4","5","6","6","5","5","3","6","771469560028336130","吴","696","Female","[""好我"",""坏我"",""好她"",""坏她""]","[""强我"",""弱我"",""强她"",""弱她""]","","","","","","","","","","","","","","","","","","","","","","","","","","","","","","feedback_test","","","","","","","","",""
"1090","","j","psychophysics","24","175691","0.0-8.0-0.0-1.0-0.0-0.7","6","4","5","5","6","4","3","4","5","5","4","-3","-1","0","0","-3","2","1","1","4","5","4","4","5","4","4","5","4","4","5","4","4","4","3","4","4","3","4","6","3","6","5","5","3","6","2","3","3","1","5","2","6","3","2","7","5","4","5","4","3","6","5","6","3","5","6","6","5","5","5","6","4","5","6","6","5","5","3","6","771469560028336130","吴","696","Female","[""好我"",""坏我"",""好她"",""坏她""]","[""强我"",""弱我"",""强她"",""弱她""]","","","","","","","","nonmatch","","","","","","","","","","key","j","16.665725806451753","683","380","j","true","nonmatch","img/pentagon.png","坏我","好我","prac_ALT2_moral","practice_moral","","","","","","","","",""
"null","<span style='color:GreenYellow; font-size: 70px;'>正确! </span>","null","html-keyboard-response","25","176193","0.0-8.0-0.0-1.0-0.0-1.7","6","4","5","5","6","4","3","4","5","5","4","-3","-1","0","0","-3","2","1","1","4","5","4","4","5","4","4","5","4","4","5","4","4","4","3","4","4","3","4","6","3","6","5","5","3","6","2","3","3","1","5","2","6","3","2","7","5","4","5","4","3","6","5","6","3","5","6","6","5","5","5","6","4","5","6","6","5","5","3","6","771469560028336130","吴","696","Female","[""好我"",""坏我"",""好她"",""坏她""]","[""强我"",""弱我"",""强她"",""弱她""]","","","","","","","","","","","","","","","","","","","","","","","","","","","","","","feedback_test","","","","","","","","",""
"923","","j","psychophysics","26","178124","0.0-8.0-0.0-1.0-0.0-0.8","6","4","5","5","6","4","3","4","5","5","4","-3","-1","0","0","-3","2","1","1","4","5","4","4","5","4","4","5","4","4","5","4","4","4","3","4","4","3","4","6","3","6","5","5","3","6","2","3","3","1","5","2","6","3","2","7","5","4","5","4","3","6","5","6","3","5","6","6","5","5","5","6","4","5","6","6","5","5","3","6","771469560028336130","吴","696","Female","[""好我"",""坏我"",""好她"",""坏她""]","[""强我"",""弱我"",""强她"",""弱她""]","","","","","","","","nonmatch","","","","","","","","","","key","j","16.66240000000006","683","380","j","true","nonmatch","img/triangle.png","好她","坏我","prac_ALT2_moral","practice_moral","","","","","","","","",""
"null","<span style='color:GreenYellow; font-size: 70px;'>正确! </span>","null","html-keyboard-response","27","178633","0.0-8.0-0.0-1.0-0.0-1.8","6","4","5","5","6","4","3","4","5","5","4","-3","-1","0","0","-3","2","1","1","4","5","4","4","5","4","4","5","4","4","5","4","4","4","3","4","4","3","4","6","3","6","5","5","3","6","2","3","3","1","5","2","6","3","2","7","5","4","5","4","3","6","5","6","3","5","6","6","5","5","5","6","4","5","6","6","5","5","3","6","771469560028336130","吴","696","Female","[""好我"",""坏我"",""好她"",""坏她""]","[""强我"",""弱我"",""强她"",""弱她""]","","","","","","","","","","","","","","","","","","","","","","","","","","","","","","feedback_test","","","","","","","","",""
"843","","f","psychophysics","28","180482","0.0-8.0-0.0-1.0-0.0-0.9","6","4","5","5","6","4","3","4","5","5","4","-3","-1","0","0","-3","2","1","1","4","5","4","4","5","4","4","5","4","4","5","4","4","4","3","4","4","3","4","6","3","6","5","5","3","6","2","3","3","1","5","2","6","3","2","7","5","4","5","4","3","6","5","6","3","5","6","6","5","5","5","6","4","5","6","6","5","5","3","6","771469560028336130","吴","696","Female","[""好我"",""坏我"",""好她"",""坏她""]","[""强我"",""弱我"",""强她"",""弱她""]","","","","","","","","match","","","","","","","","","","key","f","16.66737962962981","683","380","f","true","match","img/triangle.png","坏我","坏我","prac_ALT2_moral","practice_moral","","","","","","","","",""
"null","<span style='color:GreenYellow; font-size: 70px;'>正确! </span>","null","html-keyboard-response","29","180985","0.0-8.0-0.0-1.0-0.0-1.9","6","4","5","5","6","4","3","4","5","5","4","-3","-1","0","0","-3","2","1","1","4","5","4","4","5","4","4","5","4","4","5","4","4","4","3","4","4","3","4","6","3","6","5","5","3","6","2","3","3","1","5","2","6","3","2","7","5","4","5","4","3","6","5","6","3","5","6","6","5","5","5","6","4","5","6","6","5","5","3","6","771469560028336130","吴","696","Female","[""好我"",""坏我"",""好她"",""坏她""]","[""强我"",""弱我"",""强她"",""弱她""]","","","","","","","","","","","","","","","","","","","","","","","","","","","","","","feedback_test","","","","","","","","",""
"1078","","f","psychophysics","30","183066","0.0-8.0-0.0-1.0-0.0-0.10","6","4","5","5","6","4","3","4","5","5","4","-3","-1","0","0","-3","2","1","1","4","5","4","4","5","4","4","5","4","4","5","4","4","4","3","4","4","3","4","6","3","6","5","5","3","6","2","3","3","1","5","2","6","3","2","7","5","4","5","4","3","6","5","6","3","5","6","6","5","5","5","6","4","5","6","6","5","5","3","6","771469560028336130","吴","696","Female","[""好我"",""坏我"",""好她"",""坏她""]","[""强我"",""弱我"",""强她"",""弱她""]","","","","","","","","match","","","","","","","","","","key","f","16.666262295081847","683","380","f","true","match","img/diamond.png","好她","好她","prac_ALT2_moral","practice_moral","","","","","","","","",""
"null","<span style='color:GreenYellow; font-size: 70px;'>正确! </span>","null","html-keyboard-response","31","183570","0.0-8.0-0.0-1.0-0.0-1.10","6","4","5","5","6","4","3","4","5","5","4","-3","-1","0","0","-3","2","1","1","4","5","4","4","5","4","4","5","4","4","5","4","4","4","3","4","4","3","4","6","3","6","5","5","3","6","2","3","3","1","5","2","6","3","2","7","5","4","5","4","3","6","5","6","3","5","6","6","5","5","5","6","4","5","6","6","5","5","3","6","771469560028336130","吴","696","Female","[""好我"",""坏我"",""好她"",""坏她""]","[""强我"",""弱我"",""强她"",""弱她""]","","","","","","","","","","","","","","","","","","","","","","","","","","","","","","feedback_test","","","","","","","","",""
"821","","j","psychophysics","32","185394","0.0-8.0-0.0-1.0-0.0-0.11","6","4","5","5","6","4","3","4","5","5","4","-3","-1","0","0","-3","2","1","1","4","5","4","4","5","4","4","5","4","4","5","4","4","4","3","4","4","3","4","6","3","6","5","5","3","6","2","3","3","1","5","2","6","3","2","7","5","4","5","4","3","6","5","6","3","5","6","6","5","5","5","6","4","5","6","6","5","5","3","6","771469560028336130","吴","696","Female","[""好我"",""坏我"",""好她"",""坏她""]","[""强我"",""弱我"",""强她"",""弱她""]","","","","","","","","nonmatch","","","","","","","","","","key","j","16.666694444444417","683","380","j","true","nonmatch","img/diamond.png","坏她","好她","prac_ALT2_moral","practice_moral","","","","","","","","",""
"null","<span style='color:GreenYellow; font-size: 70px;'>正确! </span>","null","html-keyboard-response","33","185898","0.0-8.0-0.0-1.0-0.0-1.11","6","4","5","5","6","4","3","4","5","5","4","-3","-1","0","0","-3","2","1","1","4","5","4","4","5","4","4","5","4","4","5","4","4","4","3","4","4","3","4","6","3","6","5","5","3","6","2","3","3","1","5","2","6","3","2","7","5","4","5","4","3","6","5","6","3","5","6","6","5","5","5","6","4","5","6","6","5","5","3","6","771469560028336130","吴","696","Female","[""好我"",""坏我"",""好她"",""坏她""]","[""强我"",""弱我"",""强她"",""弱她""]","","","","","","","","","","","","","","","","","","","","","","","","","","","","","","feedback_test","","","","","","","","",""
"987","","j","psychophysics","34","187892","0.0-8.0-0.0-1.0-0.0-0.12","6","4","5","5","6","4","3","4","5","5","4","-3","-1","0","0","-3","2","1","1","4","5","4","4","5","4","4","5","4","4","5","4","4","4","3","4","4","3","4","6","3","6","5","5","3","6","2","3","3","1","5","2","6","3","2","7","5","4","5","4","3","6","5","6","3","5","6","6","5","5","5","6","4","5","6","6","5","5","3","6","771469560028336130","吴","696","Female","[""好我"",""坏我"",""好她"",""坏她""]","[""强我"",""弱我"",""强她"",""弱她""]","","","","","","","","nonmatch","","","","","","","","","","key","j","16.669220338982996","683","380","j","true","nonmatch","img/ellipse.png","坏我","坏她","prac_ALT2_moral","practice_moral","","","","","","","","",""
"null","<span style='color:GreenYellow; font-size: 70px;'>正确! </span>","null","html-keyboard-response","35","188394","0.0-8.0-0.0-1.0-0.0-1.12","6","4","5","5","6","4","3","4","5","5","4","-3","-1","0","0","-3","2","1","1","4","5","4","4","5","4","4","5","4","4","5","4","4","4","3","4","4","3","4","6","3","6","5","5","3","6","2","3","3","1","5","2","6","3","2","7","5","4","5","4","3","6","5","6","3","5","6","6","5","5","5","6","4","5","6","6","5","5","3","6","771469560028336130","吴","696","Female","[""好我"",""坏我"",""好她"",""坏她""]","[""强我"",""弱我"",""强她"",""弱她""]","","","","","","","","","","","","","","","","","","","","","","","","","","","","","","feedback_test","","","","","","","","",""
"972","","f","psychophysics","36","190375","0.0-8.0-0.0-1.0-0.0-0.13","6","4","5","5","6","4","3","4","5","5","4","-3","-1","0","0","-3","2","1","1","4","5","4","4","5","4","4","5","4","4","5","4","4","4","3","4","4","3","4","6","3","6","5","5","3","6","2","3","3","1","5","2","6","3","2","7","5","4","5","4","3","6","5","6","3","5","6","6","5","5","5","6","4","5","6","6","5","5","3","6","771469560028336130","吴","696","Female","[""好我"",""坏我"",""好她"",""坏她""]","[""强我"",""弱我"",""强她"",""弱她""]","","","","","","","","match","","","","","","","","","","key","f","16.81206837606852","683","380","f","true","match","img/ellipse.png","坏她","坏她","prac_ALT2_moral","practice_moral","","","","","","","","",""
"null","<span style='color:GreenYellow; font-size: 70px;'>正确! </span>","null","html-keyboard-response","37","190882","0.0-8.0-0.0-1.0-0.0-1.13","6","4","5","5","6","4","3","4","5","5","4","-3","-1","0","0","-3","2","1","1","4","5","4","4","5","4","4","5","4","4","5","4","4","4","3","4","4","3","4","6","3","6","5","5","3","6","2","3","3","1","5","2","6","3","2","7","5","4","5","4","3","6","5","6","3","5","6","6","5","5","5","6","4","5","6","6","5","5","3","6","771469560028336130","吴","696","Female","[""好我"",""坏我"",""好她"",""坏她""]","[""强我"",""弱我"",""强她"",""弱她""]","","","","","","","","","","","","","","","","","","","","","","","","","","","","","","feedback_test","","","","","","","","",""
"1029","","f","psychophysics","38","192915","0.0-8.0-0.0-1.0-0.0-0.14","6","4","5","5","6","4","3","4","5","5","4","-3","-1","0","0","-3","2","1","1","4","5","4","4","5","4","4","5","4","4","5","4","4","4","3","4","4","3","4","6","3","6","5","5","3","6","2","3","3","1","5","2","6","3","2","7","5","4","5","4","3","6","5","6","3","5","6","6","5","5","5","6","4","5","6","6","5","5","3","6","771469560028336130","吴","696","Female","[""好我"",""坏我"",""好她"",""坏她""]","[""强我"",""弱我"",""强她"",""弱她""]","","","","","","","","match","","","","","","","","","","key","f","16.666641666666692","683","380","f","true","match","img/triangle.png","坏我","坏我","prac_ALT2_moral","practice_moral","","","","","","","","",""
"null","<span style='color:GreenYellow; font-size: 70px;'>正确! </span>","null","html-keyboard-response","39","193417","0.0-8.0-0.0-1.0-0.0-1.14","6","4","5","5","6","4","3","4","5","5","4","-3","-1","0","0","-3","2","1","1","4","5","4","4","5","4","4","5","4","4","5","4","4","4","3","4","4","3","4","6","3","6","5","5","3","6","2","3","3","1","5","2","6","3","2","7","5","4","5","4","3","6","5","6","3","5","6","6","5","5","5","6","4","5","6","6","5","5","3","6","771469560028336130","吴","696","Female","[""好我"",""坏我"",""好她"",""坏她""]","[""强我"",""弱我"",""强她"",""弱她""]","","","","","","","","","","","","","","","","","","","","","","","","","","","","","","feedback_test","","","","","","","","",""
"974","","j","psychophysics","40","195395","0.0-8.0-0.0-1.0-0.0-0.15","6","4","5","5","6","4","3","4","5","5","4","-3","-1","0","0","-3","2","1","1","4","5","4","4","5","4","4","5","4","4","5","4","4","4","3","4","4","3","4","6","3","6","5","5","3","6","2","3","3","1","5","2","6","3","2","7","5","4","5","4","3","6","5","6","3","5","6","6","5","5","5","6","4","5","6","6","5","5","3","6","771469560028336130","吴","696","Female","[""好我"",""坏我"",""好她"",""坏她""]","[""强我"",""弱我"",""强她"",""弱她""]","","","","","","","","nonmatch","","","","","","","","","","key","j","16.6708103448277","683","380","j","true","nonmatch","img/ellipse.png","好她","坏她","prac_ALT2_moral","practice_moral","","","","","","","","",""
"null","<span style='color:GreenYellow; font-size: 70px;'>正确! </span>","null","html-keyboard-response","41","195897","0.0-8.0-0.0-1.0-0.0-1.15","6","4","5","5","6","4","3","4","5","5","4","-3","-1","0","0","-3","2","1","1","4","5","4","4","5","4","4","5","4","4","5","4","4","4","3","4","4","3","4","6","3","6","5","5","3","6","2","3","3","1","5","2","6","3","2","7","5","4","5","4","3","6","5","6","3","5","6","6","5","5","5","6","4","5","6","6","5","5","3","6","771469560028336130","吴","696","Female","[""好我"",""坏我"",""好她"",""坏她""]","[""强我"",""弱我"",""强她"",""弱她""]","","","","","","","","","","","","","","","","","","","","","","","","","","","","","","feedback_test","","","","","","","","",""
"1057","","j","psychophysics","42","197963","0.0-8.0-0.0-1.0-0.0-0.16","6","4","5","5","6","4","3","4","5","5","4","-3","-1","0","0","-3","2","1","1","4","5","4","4","5","4","4","5","4","4","5","4","4","4","3","4","4","3","4","6","3","6","5","5","3","6","2","3","3","1","5","2","6","3","2","7","5","4","5","4","3","6","5","6","3","5","6","6","5","5","5","6","4","5","6","6","5","5","3","6","771469560028336130","吴","696","Female","[""好我"",""坏我"",""好她"",""坏她""]","[""强我"",""弱我"",""强她"",""弱她""]","","","","","","","","nonmatch","","","","","","","","","","key","j","16.66869918699187","683","380","j","true","nonmatch","img/diamond.png","好我","好她","prac_ALT2_moral","practice_moral","","","","","","","","",""
"null","<span style='color:GreenYellow; font-size: 70px;'>正确! </span>","null","html-keyboard-response","43","198465","0.0-8.0-0.0-1.0-0.0-1.16","6","4","5","5","6","4","3","4","5","5","4","-3","-1","0","0","-3","2","1","1","4","5","4","4","5","4","4","5","4","4","5","4","4","4","3","4","4","3","4","6","3","6","5","5","3","6","2","3","3","1","5","2","6","3","2","7","5","4","5","4","3","6","5","6","3","5","6","6","5","5","5","6","4","5","6","6","5","5","3","6","771469560028336130","吴","696","Female","[""好我"",""坏我"",""好她"",""坏她""]","[""强我"",""弱我"",""强她"",""弱她""]","","","","","","","","","","","","","","","","","","","","","","","","","","","","","","feedback_test","","","","","","","","",""
"952","","f","psychophysics","44","200422","0.0-8.0-0.0-1.0-0.0-0.17","6","4","5","5","6","4","3","4","5","5","4","-3","-1","0","0","-3","2","1","1","4","5","4","4","5","4","4","5","4","4","5","4","4","4","3","4","4","3","4","6","3","6","5","5","3","6","2","3","3","1","5","2","6","3","2","7","5","4","5","4","3","6","5","6","3","5","6","6","5","5","5","6","4","5","6","6","5","5","3","6","771469560028336130","吴","696","Female","[""好我"",""坏我"",""好她"",""坏她""]","[""强我"",""弱我"",""强她"",""弱她""]","","","","","","","","match","","","","","","","","","","key","f","16.815965217391394","683","380","f","true","match","img/pentagon.png","好我","好我","prac_ALT2_moral","practice_moral","","","","","","","","",""
"null","<span style='color:GreenYellow; font-size: 70px;'>正确! </span>","null","html-keyboard-response","45","200929","0.0-8.0-0.0-1.0-0.0-1.17","6","4","5","5","6","4","3","4","5","5","4","-3","-1","0","0","-3","2","1","1","4","5","4","4","5","4","4","5","4","4","5","4","4","4","3","4","4","3","4","6","3","6","5","5","3","6","2","3","3","1","5","2","6","3","2","7","5","4","5","4","3","6","5","6","3","5","6","6","5","5","5","6","4","5","6","6","5","5","3","6","771469560028336130","吴","696","Female","[""好我"",""坏我"",""好她"",""坏她""]","[""强我"",""弱我"",""强她"",""弱她""]","","","","","","","","","","","","","","","","","","","","","","","","","","","","","","feedback_test","","","","","","","","",""
"882","","j","psychophysics","46","202821","0.0-8.0-0.0-1.0-0.0-0.18","6","4","5","5","6","4","3","4","5","5","4","-3","-1","0","0","-3","2","1","1","4","5","4","4","5","4","4","5","4","4","5","4","4","4","3","4","4","3","4","6","3","6","5","5","3","6","2","3","3","1","5","2","6","3","2","7","5","4","5","4","3","6","5","6","3","5","6","6","5","5","5","6","4","5","6","6","5","5","3","6","771469560028336130","吴","696","Female","[""好我"",""坏我"",""好她"",""坏她""]","[""强我"",""弱我"",""强她"",""弱她""]","","","","","","","","nonmatch","","","","","","","","","","key","j","16.66412612612633","683","380","j","true","nonmatch","img/pentagon.png","好她","好我","prac_ALT2_moral","practice_moral","","","","","","","","",""
"null","<span style='color:GreenYellow; font-size: 70px;'>正确! </span>","null","html-keyboard-response","47","203330","0.0-8.0-0.0-1.0-0.0-1.18","6","4","5","5","6","4","3","4","5","5","4","-3","-1","0","0","-3","2","1","1","4","5","4","4","5","4","4","5","4","4","5","4","4","4","3","4","4","3","4","6","3","6","5","5","3","6","2","3","3","1","5","2","6","3","2","7","5","4","5","4","3","6","5","6","3","5","6","6","5","5","5","6","4","5","6","6","5","5","3","6","771469560028336130","吴","696","Female","[""好我"",""坏我"",""好她"",""坏她""]","[""强我"",""弱我"",""强她"",""弱她""]","","","","","","","","","","","","","","","","","","","","","","","","","","","","","","feedback_test","","","","","","","","",""
"1020","","f","psychophysics","48","205356","0.0-8.0-0.0-1.0-0.0-0.19","6","4","5","5","6","4","3","4","5","5","4","-3","-1","0","0","-3","2","1","1","4","5","4","4","5","4","4","5","4","4","5","4","4","4","3","4","4","3","4","6","3","6","5","5","3","6","2","3","3","1","5","2","6","3","2","7","5","4","5","4","3","6","5","6","3","5","6","6","5","5","5","6","4","5","6","6","5","5","3","6","771469560028336130","吴","696","Female","[""好我"",""坏我"",""好她"",""坏她""]","[""强我"",""弱我"",""强她"",""弱她""]","","","","","","","","match","","","","","","","","","","key","f","16.794950000000004","683","380","f","true","match","img/ellipse.png","坏她","坏她","prac_ALT2_moral","practice_moral","","","","","","","","",""
"null","<span style='color:GreenYellow; font-size: 70px;'>正确! </span>","null","html-keyboard-response","49","205866","0.0-8.0-0.0-1.0-0.0-1.19","6","4","5","5","6","4","3","4","5","5","4","-3","-1","0","0","-3","2","1","1","4","5","4","4","5","4","4","5","4","4","5","4","4","4","3","4","4","3","4","6","3","6","5","5","3","6","2","3","3","1","5","2","6","3","2","7","5","4","5","4","3","6","5","6","3","5","6","6","5","5","5","6","4","5","6","6","5","5","3","6","771469560028336130","吴","696","Female","[""好我"",""坏我"",""好她"",""坏她""]","[""强我"",""弱我"",""强她"",""弱她""]","","","","","","","","","","","","","","","","","","","","","","","","","","","","","","feedback_test","","","","","","","","",""
"859","","f","psychophysics","50","207730","0.0-8.0-0.0-1.0-0.0-0.20","6","4","5","5","6","4","3","4","5","5","4","-3","-1","0","0","-3","2","1","1","4","5","4","4","5","4","4","5","4","4","5","4","4","4","3","4","4","3","4","6","3","6","5","5","3","6","2","3","3","1","5","2","6","3","2","7","5","4","5","4","3","6","5","6","3","5","6","6","5","5","5","6","4","5","6","6","5","5","3","6","771469560028336130","吴","696","Female","[""好我"",""坏我"",""好她"",""坏她""]","[""强我"",""弱我"",""强她"",""弱她""]","","","","","","","","match","","","","","","","","","","key","f","16.8304587155965","683","380","f","true","match","img/triangle.png","坏我","坏我","prac_ALT2_moral","practice_moral","","","","","","","","",""
"null","<span style='color:GreenYellow; font-size: 70px;'>正确! </span>","null","html-keyboard-response","51","208234","0.0-8.0-0.0-1.0-0.0-1.20","6","4","5","5","6","4","3","4","5","5","4","-3","-1","0","0","-3","2","1","1","4","5","4","4","5","4","4","5","4","4","5","4","4","4","3","4","4","3","4","6","3","6","5","5","3","6","2","3","3","1","5","2","6","3","2","7","5","4","5","4","3","6","5","6","3","5","6","6","5","5","5","6","4","5","6","6","5","5","3","6","771469560028336130","吴","696","Female","[""好我"",""坏我"",""好她"",""坏她""]","[""强我"",""弱我"",""强她"",""弱她""]","","","","","","","","","","","","","","","","","","","","","","","","","","","","","","feedback_test","","","","","","","","",""
"958","","f","psychophysics","52","210195","0.0-8.0-0.0-1.0-0.0-0.21","6","4","5","5","6","4","3","4","5","5","4","-3","-1","0","0","-3","2","1","1","4","5","4","4","5","4","4","5","4","4","5","4","4","4","3","4","4","3","4","6","3","6","5","5","3","6","2","3","3","1","5","2","6","3","2","7","5","4","5","4","3","6","5","6","3","5","6","6","5","5","5","6","4","5","6","6","5","5","3","6","771469560028336130","吴","696","Female","[""好我"",""坏我"",""好她"",""坏她""]","[""强我"",""弱我"",""强她"",""弱她""]","","","","","","","","match","","","","","","","","","","key","f","16.812991304347626","683","380","f","true","match","img/diamond.png","好她","好她","prac_ALT2_moral","practice_moral","","","","","","","","",""
"null","<span style='color:GreenYellow; font-size: 70px;'>正确! </span>","null","html-keyboard-response","53","210698","0.0-8.0-0.0-1.0-0.0-1.21","6","4","5","5","6","4","3","4","5","5","4","-3","-1","0","0","-3","2","1","1","4","5","4","4","5","4","4","5","4","4","5","4","4","4","3","4","4","3","4","6","3","6","5","5","3","6","2","3","3","1","5","2","6","3","2","7","5","4","5","4","3","6","5","6","3","5","6","6","5","5","5","6","4","5","6","6","5","5","3","6","771469560028336130","吴","696","Female","[""好我"",""坏我"",""好她"",""坏她""]","[""强我"",""弱我"",""强她"",""弱她""]","","","","","","","","","","","","","","","","","","","","","","","","","","","","","","feedback_test","","","","","","","","",""
"1071","","f","psychophysics","54","212773","0.0-8.0-0.0-1.0-0.0-0.22","6","4","5","5","6","4","3","4","5","5","4","-3","-1","0","0","-3","2","1","1","4","5","4","4","5","4","4","5","4","4","5","4","4","4","3","4","4","3","4","6","3","6","5","5","3","6","2","3","3","1","5","2","6","3","2","7","5","4","5","4","3","6","5","6","3","5","6","6","5","5","5","6","4","5","6","6","5","5","3","6","771469560028336130","吴","696","Female","[""好我"",""坏我"",""好她"",""坏她""]","[""强我"",""弱我"",""强她"",""弱她""]","","","","","","","","match","","","","","","","","","","key","f","16.93389344262293","683","380","f","true","match","img/ellipse.png","坏她","坏她","prac_ALT2_moral","practice_moral","","","","","","","","",""
"null","<span style='color:GreenYellow; font-size: 70px;'>正确! </span>","null","html-keyboard-response","55","213282","0.0-8.0-0.0-1.0-0.0-1.22","6","4","5","5","6","4","3","4","5","5","4","-3","-1","0","0","-3","2","1","1","4","5","4","4","5","4","4","5","4","4","5","4","4","4","3","4","4","3","4","6","3","6","5","5","3","6","2","3","3","1","5","2","6","3","2","7","5","4","5","4","3","6","5","6","3","5","6","6","5","5","5","6","4","5","6","6","5","5","3","6","771469560028336130","吴","696","Female","[""好我"",""坏我"",""好她"",""坏她""]","[""强我"",""弱我"",""强她"",""弱她""]","","","","","","","","","","","","","","","","","","","","","","","","","","","","","","feedback_test","","","","","","","","",""
"971","","j","psychophysics","56","215259","0.0-8.0-0.0-1.0-0.0-0.23","6","4","5","5","6","4","3","4","5","5","4","-3","-1","0","0","-3","2","1","1","4","5","4","4","5","4","4","5","4","4","5","4","4","4","3","4","4","3","4","6","3","6","5","5","3","6","2","3","3","1","5","2","6","3","2","7","5","4","5","4","3","6","5","6","3","5","6","6","5","5","5","6","4","5","6","6","5","5","3","6","771469560028336130","吴","696","Female","[""好我"",""坏我"",""好她"",""坏她""]","[""强我"",""弱我"",""强她"",""弱她""]","","","","","","","","nonmatch","","","","","","","","","","key","j","16.66405084745769","683","380","f","false","match","img/diamond.png","好她","好她","prac_ALT2_moral","practice_moral","","","","","","","","",""
"null","<span style='color:red; font-size: 70px;'>错误! </span>","null","html-keyboard-response","57","215761","0.0-8.0-0.0-1.0-0.0-1.23","6","4","5","5","6","4","3","4","5","5","4","-3","-1","0","0","-3","2","1","1","4","5","4","4","5","4","4","5","4","4","5","4","4","4","3","4","4","3","4","6","3","6","5","5","3","6","2","3","3","1","5","2","6","3","2","7","5","4","5","4","3","6","5","6","3","5","6","6","5","5","5","6","4","5","6","6","5","5","3","6","771469560028336130","吴","696","Female","[""好我"",""坏我"",""好她"",""坏她""]","[""强我"",""弱我"",""强她"",""弱她""]","","","","","","","","","","","","","","","","","","","","","","","","","","","","","","feedback_test","","","","","","","","",""
"890","","f","psychophysics","58","217659","0.0-8.0-0.0-1.0-0.0-0.24","6","4","5","5","6","4","3","4","5","5","4","-3","-1","0","0","-3","2","1","1","4","5","4","4","5","4","4","5","4","4","5","4","4","4","3","4","4","3","4","6","3","6","5","5","3","6","2","3","3","1","5","2","6","3","2","7","5","4","5","4","3","6","5","6","3","5","6","6","5","5","5","6","4","5","6","6","5","5","3","6","771469560028336130","吴","696","Female","[""好我"",""坏我"",""好她"",""坏她""]","[""强我"",""弱我"",""强她"",""弱她""]","","","","","","","","match","","","","","","","","","","key","f","16.671963963963865","683","380","f","true","match","img/triangle.png","坏我","坏我","prac_ALT2_moral","practice_moral","","","","","","","","",""
"null","<span style='color:GreenYellow; font-size: 70px;'>正确! </span>","null","html-keyboard-response","59","218161","0.0-8.0-0.0-1.0-0.0-1.24","6","4","5","5","6","4","3","4","5","5","4","-3","-1","0","0","-3","2","1","1","4","5","4","4","5","4","4","5","4","4","5","4","4","4","3","4","4","3","4","6","3","6","5","5","3","6","2","3","3","1","5","2","6","3","2","7","5","4","5","4","3","6","5","6","3","5","6","6","5","5","5","6","4","5","6","6","5","5","3","6","771469560028336130","吴","696","Female","[""好我"",""坏我"",""好她"",""坏她""]","[""强我"",""弱我"",""强她"",""弱她""]","","","","","","","","","","","","","","","","","","","","","","","","","","","","","","feedback_test","","","","","","","","",""
"1170","","j","psychophysics","60","220339","0.0-8.0-0.0-1.0-0.0-0.25","6","4","5","5","6","4","3","4","5","5","4","-3","-1","0","0","-3","2","1","1","4","5","4","4","5","4","4","5","4","4","5","4","4","4","3","4","4","3","4","6","3","6","5","5","3","6","2","3","3","1","5","2","6","3","2","7","5","4","5","4","3","6","5","6","3","5","6","6","5","5","5","6","4","5","6","6","5","5","3","6","771469560028336130","吴","696","Female","[""好我"",""坏我"",""好她"",""坏她""]","[""强我"",""弱我"",""强她"",""弱她""]","","","","","","","","nonmatch","","","","","","","","","","key","j","16.661746153846167","683","380","j","true","nonmatch","img/triangle.png","坏她","坏我","prac_ALT2_moral","practice_moral","","","","","","","","",""
"null","<span style='color:GreenYellow; font-size: 70px;'>正确! </span>","null","html-keyboard-response","61","220841","0.0-8.0-0.0-1.0-0.0-1.25","6","4","5","5","6","4","3","4","5","5","4","-3","-1","0","0","-3","2","1","1","4","5","4","4","5","4","4","5","4","4","5","4","4","4","3","4","4","3","4","6","3","6","5","5","3","6","2","3","3","1","5","2","6","3","2","7","5","4","5","4","3","6","5","6","3","5","6","6","5","5","5","6","4","5","6","6","5","5","3","6","771469560028336130","吴","696","Female","[""好我"",""坏我"",""好她"",""坏她""]","[""强我"",""弱我"",""强她"",""弱她""]","","","","","","","","","","","","","","","","","","","","","","","","","","","","","","feedback_test","","","","","","","","",""
"913","","f","psychophysics","62","222763","0.0-8.0-0.0-1.0-0.0-0.26","6","4","5","5","6","4","3","4","5","5","4","-3","-1","0","0","-3","2","1","1","4","5","4","4","5","4","4","5","4","4","5","4","4","4","3","4","4","3","4","6","3","6","5","5","3","6","2","3","3","1","5","2","6","3","2","7","5","4","5","4","3","6","5","6","3","5","6","6","5","5","5","6","4","5","6","6","5","5","3","6","771469560028336130","吴","696","Female","[""好我"",""坏我"",""好她"",""坏她""]","[""强我"",""弱我"",""强她"",""弱她""]","","","","","","","","match","","","","","","","","","","key","f","16.816053097345197","683","380","f","true","match","img/triangle.png","坏我","坏我","prac_ALT2_moral","practice_moral","","","","","","","","",""
"null","<span style='color:GreenYellow; font-size: 70px;'>正确! </span>","null","html-keyboard-response","63","223266","0.0-8.0-0.0-1.0-0.0-1.26","6","4","5","5","6","4","3","4","5","5","4","-3","-1","0","0","-3","2","1","1","4","5","4","4","5","4","4","5","4","4","5","4","4","4","3","4","4","3","4","6","3","6","5","5","3","6","2","3","3","1","5","2","6","3","2","7","5","4","5","4","3","6","5","6","3","5","6","6","5","5","5","6","4","5","6","6","5","5","3","6","771469560028336130","吴","696","Female","[""好我"",""坏我"",""好她"",""坏她""]","[""强我"",""弱我"",""强她"",""弱她""]","","","","","","","","","","","","","","","","","","","","","","","","","","","","","","feedback_test","","","","","","","","",""
"1125","","f","psychophysics","64","225395","0.0-8.0-0.0-1.0-0.0-0.27","6","4","5","5","6","4","3","4","5","5","4","-3","-1","0","0","-3","2","1","1","4","5","4","4","5","4","4","5","4","4","5","4","4","4","3","4","4","3","4","6","3","6","5","5","3","6","2","3","3","1","5","2","6","3","2","7","5","4","5","4","3","6","5","6","3","5","6","6","5","5","5","6","4","5","6","6","5","5","3","6","771469560028336130","吴","696","Female","[""好我"",""坏我"",""好她"",""坏她""]","[""强我"",""弱我"",""强她"",""弱她""]","","","","","","","","match","","","","","","","","","","key","f","16.930663999999872","683","380","j","false","nonmatch","img/diamond.png","坏她","好她","prac_ALT2_moral","practice_moral","","","","","","","","",""
"null","<span style='color:red; font-size: 70px;'>错误! </span>","null","html-keyboard-response","65","225898","0.0-8.0-0.0-1.0-0.0-1.27","6","4","5","5","6","4","3","4","5","5","4","-3","-1","0","0","-3","2","1","1","4","5","4","4","5","4","4","5","4","4","5","4","4","4","3","4","4","3","4","6","3","6","5","5","3","6","2","3","3","1","5","2","6","3","2","7","5","4","5","4","3","6","5","6","3","5","6","6","5","5","5","6","4","5","6","6","5","5","3","6","771469560028336130","吴","696","Female","[""好我"",""坏我"",""好她"",""坏她""]","[""强我"",""弱我"",""强她"",""弱她""]","","","","","","","","","","","","","","","","","","","","","","","","","","","","","","feedback_test","","","","","","","","",""
"918","","j","psychophysics","66","227821","0.0-8.0-0.0-1.0-0.0-0.28","6","4","5","5","6","4","3","4","5","5","4","-3","-1","0","0","-3","2","1","1","4","5","4","4","5","4","4","5","4","4","5","4","4","4","3","4","4","3","4","6","3","6","5","5","3","6","2","3","3","1","5","2","6","3","2","7","5","4","5","4","3","6","5","6","3","5","6","6","5","5","5","6","4","5","6","6","5","5","3","6","771469560028336130","吴","696","Female","[""好我"",""坏我"",""好她"",""坏她""]","[""强我"",""弱我"",""强她"",""弱她""]","","","","","","","","nonmatch","","","","","","","","","","key","j","16.81621238938069","683","380","j","true","nonmatch","img/ellipse.png","好我","坏她","prac_ALT2_moral","practice_moral","","","","","","","","",""
"null","<span style='color:GreenYellow; font-size: 70px;'>正确! </span>","null","html-keyboard-response","67","228330","0.0-8.0-0.0-1.0-0.0-1.28","6","4","5","5","6","4","3","4","5","5","4","-3","-1","0","0","-3","2","1","1","4","5","4","4","5","4","4","5","4","4","5","4","4","4","3","4","4","3","4","6","3","6","5","5","3","6","2","3","3","1","5","2","6","3","2","7","5","4","5","4","3","6","5","6","3","5","6","6","5","5","5","6","4","5","6","6","5","5","3","6","771469560028336130","吴","696","Female","[""好我"",""坏我"",""好她"",""坏她""]","[""强我"",""弱我"",""强她"",""弱她""]","","","","","","","","","","","","","","","","","","","","","","","","","","","","","","feedback_test","","","","","","","","",""
"722","","f","psychophysics","68","230059","0.0-8.0-0.0-1.0-0.0-0.29","6","4","5","5","6","4","3","4","5","5","4","-3","-1","0","0","-3","2","1","1","4","5","4","4","5","4","4","5","4","4","5","4","4","4","3","4","4","3","4","6","3","6","5","5","3","6","2","3","3","1","5","2","6","3","2","7","5","4","5","4","3","6","5","6","3","5","6","6","5","5","5","6","4","5","6","6","5","5","3","6","771469560028336130","吴","696","Female","[""好我"",""坏我"",""好她"",""坏她""]","[""强我"",""弱我"",""强她"",""弱她""]","","","","","","","","match","","","","","","","","","","key","f","16.995623762376425","683","380","f","true","match","img/ellipse.png","坏她","坏她","prac_ALT2_moral","practice_moral","","","","","","","","",""
"null","<span style='color:GreenYellow; font-size: 70px;'>正确! </span>","null","html-keyboard-response","69","230562","0.0-8.0-0.0-1.0-0.0-1.29","6","4","5","5","6","4","3","4","5","5","4","-3","-1","0","0","-3","2","1","1","4","5","4","4","5","4","4","5","4","4","5","4","4","4","3","4","4","3","4","6","3","6","5","5","3","6","2","3","3","1","5","2","6","3","2","7","5","4","5","4","3","6","5","6","3","5","6","6","5","5","5","6","4","5","6","6","5","5","3","6","771469560028336130","吴","696","Female","[""好我"",""坏我"",""好她"",""坏她""]","[""强我"",""弱我"",""强她"",""弱她""]","","","","","","","","","","","","","","","","","","","","","","","","","","","","","","feedback_test","","","","","","","","",""
"956","","j","psychophysics","70","232523","0.0-8.0-0.0-1.0-0.0-0.30","6","4","5","5","6","4","3","4","5","5","4","-3","-1","0","0","-3","2","1","1","4","5","4","4","5","4","4","5","4","4","5","4","4","4","3","4","4","3","4","6","3","6","5","5","3","6","2","3","3","1","5","2","6","3","2","7","5","4","5","4","3","6","5","6","3","5","6","6","5","5","5","6","4","5","6","6","5","5","3","6","771469560028336130","吴","696","Female","[""好我"",""坏我"",""好她"",""坏她""]","[""强我"",""弱我"",""强她"",""弱她""]","","","","","","","","nonmatch","","","","","","","","","","key","j","16.668247863247842","683","380","j","true","nonmatch","img/ellipse.png","好她","坏她","prac_ALT2_moral","practice_moral","","","","","","","","",""
"null","<span style='color:GreenYellow; font-size: 70px;'>正确! </span>","null","html-keyboard-response","71","233026","0.0-8.0-0.0-1.0-0.0-1.30","6","4","5","5","6","4","3","4","5","5","4","-3","-1","0","0","-3","2","1","1","4","5","4","4","5","4","4","5","4","4","5","4","4","4","3","4","4","3","4","6","3","6","5","5","3","6","2","3","3","1","5","2","6","3","2","7","5","4","5","4","3","6","5","6","3","5","6","6","5","5","5","6","4","5","6","6","5","5","3","6","771469560028336130","吴","696","Female","[""好我"",""坏我"",""好她"",""坏她""]","[""强我"",""弱我"",""强她"",""弱她""]","","","","","","","","","","","","","","","","","","","","","","","","","","","","","","feedback_test","","","","","","","","",""
"835","","j","psychophysics","72","234870","0.0-8.0-0.0-1.0-0.0-0.31","6","4","5","5","6","4","3","4","5","5","4","-3","-1","0","0","-3","2","1","1","4","5","4","4","5","4","4","5","4","4","5","4","4","4","3","4","4","3","4","6","3","6","5","5","3","6","2","3","3","1","5","2","6","3","2","7","5","4","5","4","3","6","5","6","3","5","6","6","5","5","5","6","4","5","6","6","5","5","3","6","771469560028336130","吴","696","Female","[""好我"",""坏我"",""好她"",""坏她""]","[""强我"",""弱我"",""强她"",""弱她""]","","","","","","","","nonmatch","","","","","","","","","","key","j","16.814518518518458","683","380","j","true","nonmatch","img/ellipse.png","坏我","坏她","prac_ALT2_moral","practice_moral","","","","","","","","",""
"null","<span style='color:GreenYellow; font-size: 70px;'>正确! </span>","null","html-keyboard-response","73","235377","0.0-8.0-0.0-1.0-0.0-1.31","6","4","5","5","6","4","3","4","5","5","4","-3","-1","0","0","-3","2","1","1","4","5","4","4","5","4","4","5","4","4","5","4","4","4","3","4","4","3","4","6","3","6","5","5","3","6","2","3","3","1","5","2","6","3","2","7","5","4","5","4","3","6","5","6","3","5","6","6","5","5","5","6","4","5","6","6","5","5","3","6","771469560028336130","吴","696","Female","[""好我"",""坏我"",""好她"",""坏她""]","[""强我"",""弱我"",""强她"",""弱她""]","","","","","","","","","","","","","","","","","","","","","","","","","","","","","","feedback_test","","","","","","","","",""
"758","","f","psychophysics","74","237147","0.0-8.0-0.0-1.0-0.0-0.32","6","4","5","5","6","4","3","4","5","5","4","-3","-1","0","0","-3","2","1","1","4","5","4","4","5","4","4","5","4","4","5","4","4","4","3","4","4","3","4","6","3","6","5","5","3","6","2","3","3","1","5","2","6","3","2","7","5","4","5","4","3","6","5","6","3","5","6","6","5","5","5","6","4","5","6","6","5","5","3","6","771469560028336130","吴","696","Female","[""好我"",""坏我"",""好她"",""坏她""]","[""强我"",""弱我"",""强她"",""弱她""]","","","","","","","","match","","","","","","","","","","key","f","17.001135922330082","683","380","f","true","match","img/pentagon.png","好我","好我","prac_ALT2_moral","practice_moral","","","","","","","","",""
"null","<span style='color:GreenYellow; font-size: 70px;'>正确! </span>","null","html-keyboard-response","75","237649","0.0-8.0-0.0-1.0-0.0-1.32","6","4","5","5","6","4","3","4","5","5","4","-3","-1","0","0","-3","2","1","1","4","5","4","4","5","4","4","5","4","4","5","4","4","4","3","4","4","3","4","6","3","6","5","5","3","6","2","3","3","1","5","2","6","3","2","7","5","4","5","4","3","6","5","6","3","5","6","6","5","5","5","6","4","5","6","6","5","5","3","6","771469560028336130","吴","696","Female","[""好我"",""坏我"",""好她"",""坏她""]","[""强我"",""弱我"",""强她"",""弱她""]","","","","","","","","","","","","","","","","","","","","","","","","","","","","","","feedback_test","","","","","","","","",""
"838","","j","psychophysics","76","239491","0.0-8.0-0.0-1.0-0.0-0.33","6","4","5","5","6","4","3","4","5","5","4","-3","-1","0","0","-3","2","1","1","4","5","4","4","5","4","4","5","4","4","5","4","4","4","3","4","4","3","4","6","3","6","5","5","3","6","2","3","3","1","5","2","6","3","2","7","5","4","5","4","3","6","5","6","3","5","6","6","5","5","5","6","4","5","6","6","5","5","3","6","771469560028336130","吴","696","Female","[""好我"",""坏我"",""好她"",""坏她""]","[""强我"",""弱我"",""强她"",""弱她""]","","","","","","","","nonmatch","","","","","","","","","","key","j","16.67009174311934","683","380","j","true","nonmatch","img/pentagon.png","好她","好我","prac_ALT2_moral","practice_moral","","","","","","","","",""
"null","<span style='color:GreenYellow; font-size: 70px;'>正确! </span>","null","html-keyboard-response","77","239993","0.0-8.0-0.0-1.0-0.0-1.33","6","4","5","5","6","4","3","4","5","5","4","-3","-1","0","0","-3","2","1","1","4","5","4","4","5","4","4","5","4","4","5","4","4","4","3","4","4","3","4","6","3","6","5","5","3","6","2","3","3","1","5","2","6","3","2","7","5","4","5","4","3","6","5","6","3","5","6","6","5","5","5","6","4","5","6","6","5","5","3","6","771469560028336130","吴","696","Female","[""好我"",""坏我"",""好她"",""坏她""]","[""强我"",""弱我"",""强她"",""弱她""]","","","","","","","","","","","","","","","","","","","","","","","","","","","","","","feedback_test","","","","","","","","",""
"874","","f","psychophysics","78","241874","0.0-8.0-0.0-1.0-0.0-0.34","6","4","5","5","6","4","3","4","5","5","4","-3","-1","0","0","-3","2","1","1","4","5","4","4","5","4","4","5","4","4","5","4","4","4","3","4","4","3","4","6","3","6","5","5","3","6","2","3","3","1","5","2","6","3","2","7","5","4","5","4","3","6","5","6","3","5","6","6","5","5","5","6","4","5","6","6","5","5","3","6","771469560028336130","吴","696","Female","[""好我"",""坏我"",""好她"",""坏她""]","[""强我"",""弱我"",""强她"",""弱她""]","","","","","","","","match","","","","","","","","","","key","f","16.677459459459495","683","380","f","true","match","img/pentagon.png","好我","好我","prac_ALT2_moral","practice_moral","","","","","","","","",""
"null","<span style='color:GreenYellow; font-size: 70px;'>正确! </span>","null","html-keyboard-response","79","242377","0.0-8.0-0.0-1.0-0.0-1.34","6","4","5","5","6","4","3","4","5","5","4","-3","-1","0","0","-3","2","1","1","4","5","4","4","5","4","4","5","4","4","5","4","4","4","3","4","4","3","4","6","3","6","5","5","3","6","2","3","3","1","5","2","6","3","2","7","5","4","5","4","3","6","5","6","3","5","6","6","5","5","5","6","4","5","6","6","5","5","3","6","771469560028336130","吴","696","Female","[""好我"",""坏我"",""好她"",""坏她""]","[""强我"",""弱我"",""强她"",""弱她""]","","","","","","","","","","","","","","","","","","","","","","","","","","","","","","feedback_test","","","","","","","","",""
"820","","f","psychophysics","80","244205","0.0-8.0-0.0-1.0-0.0-0.35","6","4","5","5","6","4","3","4","5","5","4","-3","-1","0","0","-3","2","1","1","4","5","4","4","5","4","4","5","4","4","5","4","4","4","3","4","4","3","4","6","3","6","5","5","3","6","2","3","3","1","5","2","6","3","2","7","5","4","5","4","3","6","5","6","3","5","6","6","5","5","5","6","4","5","6","6","5","5","3","6","771469560028336130","吴","696","Female","[""好我"",""坏我"",""好她"",""坏她""]","[""强我"",""弱我"",""强她"",""弱她""]","","","","","","","","match","","","","","","","","","","key","f","16.81891588785057","683","380","f","true","match","img/ellipse.png","坏她","坏她","prac_ALT2_moral","practice_moral","","","","","","","","",""
"null","<span style='color:GreenYellow; font-size: 70px;'>正确! </span>","null","html-keyboard-response","81","244714","0.0-8.0-0.0-1.0-0.0-1.35","6","4","5","5","6","4","3","4","5","5","4","-3","-1","0","0","-3","2","1","1","4","5","4","4","5","4","4","5","4","4","5","4","4","4","3","4","4","3","4","6","3","6","5","5","3","6","2","3","3","1","5","2","6","3","2","7","5","4","5","4","3","6","5","6","3","5","6","6","5","5","5","6","4","5","6","6","5","5","3","6","771469560028336130","吴","696","Female","[""好我"",""坏我"",""好她"",""坏她""]","[""强我"",""弱我"",""强她"",""弱她""]","","","","","","","","","","","","","","","","","","","","","","","","","","","","","","feedback_test","","","","","","","","",""
"814","","j","psychophysics","82","246531","0.0-8.0-0.0-1.0-0.0-0.36","6","4","5","5","6","4","3","4","5","5","4","-3","-1","0","0","-3","2","1","1","4","5","4","4","5","4","4","5","4","4","5","4","4","4","3","4","4","3","4","6","3","6","5","5","3","6","2","3","3","1","5","2","6","3","2","7","5","4","5","4","3","6","5","6","3","5","6","6","5","5","5","6","4","5","6","6","5","5","3","6","771469560028336130","吴","696","Female","[""好我"",""坏我"",""好她"",""坏她""]","[""强我"",""弱我"",""强她"",""弱她""]","","","","","","","","nonmatch","","","","","","","","","","key","j","16.677728971962548","683","380","j","true","nonmatch","img/triangle.png","好她","坏我","prac_ALT2_moral","practice_moral","","","","","","","","",""
"null","<span style='color:GreenYellow; font-size: 70px;'>正确! </span>","null","html-keyboard-response","83","247035","0.0-8.0-0.0-1.0-0.0-1.36","6","4","5","5","6","4","3","4","5","5","4","-3","-1","0","0","-3","2","1","1","4","5","4","4","5","4","4","5","4","4","5","4","4","4","3","4","4","3","4","6","3","6","5","5","3","6","2","3","3","1","5","2","6","3","2","7","5","4","5","4","3","6","5","6","3","5","6","6","5","5","5","6","4","5","6","6","5","5","3","6","771469560028336130","吴","696","Female","[""好我"",""坏我"",""好她"",""坏她""]","[""强我"",""弱我"",""强她"",""弱她""]","","","","","","","","","","","","","","","","","","","","","","","","","","","","","","feedback_test","","","","","","","","",""
"1017","","j","psychophysics","84","249054","0.0-8.0-0.0-1.0-0.0-0.37","6","4","5","5","6","4","3","4","5","5","4","-3","-1","0","0","-3","2","1","1","4","5","4","4","5","4","4","5","4","4","5","4","4","4","3","4","4","3","4","6","3","6","5","5","3","6","2","3","3","1","5","2","6","3","2","7","5","4","5","4","3","6","5","6","3","5","6","6","5","5","5","6","4","5","6","6","5","5","3","6","771469560028336130","吴","696","Female","[""好我"",""坏我"",""好她"",""坏她""]","[""强我"",""弱我"",""强她"",""弱她""]","","","","","","","","nonmatch","","","","","","","","","","key","j","16.669450000000023","683","380","j","true","nonmatch","img/diamond.png","好我","好她","prac_ALT2_moral","practice_moral","","","","","","","","",""
"null","<span style='color:GreenYellow; font-size: 70px;'>正确! </span>","null","html-keyboard-response","85","249563","0.0-8.0-0.0-1.0-0.0-1.37","6","4","5","5","6","4","3","4","5","5","4","-3","-1","0","0","-3","2","1","1","4","5","4","4","5","4","4","5","4","4","5","4","4","4","3","4","4","3","4","6","3","6","5","5","3","6","2","3","3","1","5","2","6","3","2","7","5","4","5","4","3","6","5","6","3","5","6","6","5","5","5","6","4","5","6","6","5","5","3","6","771469560028336130","吴","696","Female","[""好我"",""坏我"",""好她"",""坏她""]","[""强我"",""弱我"",""强她"",""弱她""]","","","","","","","","","","","","","","","","","","","","","","","","","","","","","","feedback_test","","","","","","","","",""
"985","","f","psychophysics","86","251555","0.0-8.0-0.0-1.0-0.0-0.38","6","4","5","5","6","4","3","4","5","5","4","-3","-1","0","0","-3","2","1","1","4","5","4","4","5","4","4","5","4","4","5","4","4","4","3","4","4","3","4","6","3","6","5","5","3","6","2","3","3","1","5","2","6","3","2","7","5","4","5","4","3","6","5","6","3","5","6","6","5","5","5","6","4","5","6","6","5","5","3","6","771469560028336130","吴","696","Female","[""好我"",""坏我"",""好她"",""坏她""]","[""强我"",""弱我"",""强她"",""弱她""]","","","","","","","","match","","","","","","","","","","key","f","16.661075630252142","683","380","j","false","nonmatch","img/triangle.png","好我","坏我","prac_ALT2_moral","practice_moral","","","","","","","","",""
"null","<span style='color:red; font-size: 70px;'>错误! </span>","null","html-keyboard-response","87","252059","0.0-8.0-0.0-1.0-0.0-1.38","6","4","5","5","6","4","3","4","5","5","4","-3","-1","0","0","-3","2","1","1","4","5","4","4","5","4","4","5","4","4","5","4","4","4","3","4","4","3","4","6","3","6","5","5","3","6","2","3","3","1","5","2","6","3","2","7","5","4","5","4","3","6","5","6","3","5","6","6","5","5","5","6","4","5","6","6","5","5","3","6","771469560028336130","吴","696","Female","[""好我"",""坏我"",""好她"",""坏她""]","[""强我"",""弱我"",""强她"",""弱她""]","","","","","","","","","","","","","","","","","","","","","","","","","","","","","","feedback_test","","","","","","","","",""
"975","","f","psychophysics","88","254043","0.0-8.0-0.0-1.0-0.0-0.39","6","4","5","5","6","4","3","4","5","5","4","-3","-1","0","0","-3","2","1","1","4","5","4","4","5","4","4","5","4","4","5","4","4","4","3","4","4","3","4","6","3","6","5","5","3","6","2","3","3","1","5","2","6","3","2","7","5","4","5","4","3","6","5","6","3","5","6","6","5","5","5","6","4","5","6","6","5","5","3","6","771469560028336130","吴","696","Female","[""好我"",""坏我"",""好她"",""坏她""]","[""强我"",""弱我"",""强她"",""弱她""]","","","","","","","","match","","","","","","","","","","key","f","16.813948275862113","683","380","f","true","match","img/ellipse.png","坏她","坏她","prac_ALT2_moral","practice_moral","","","","","","","","",""
"null","<span style='color:GreenYellow; font-size: 70px;'>正确! </span>","null","html-keyboard-response","89","254547","0.0-8.0-0.0-1.0-0.0-1.39","6","4","5","5","6","4","3","4","5","5","4","-3","-1","0","0","-3","2","1","1","4","5","4","4","5","4","4","5","4","4","5","4","4","4","3","4","4","3","4","6","3","6","5","5","3","6","2","3","3","1","5","2","6","3","2","7","5","4","5","4","3","6","5","6","3","5","6","6","5","5","5","6","4","5","6","6","5","5","3","6","771469560028336130","吴","696","Female","[""好我"",""坏我"",""好她"",""坏她""]","[""强我"",""弱我"",""强她"",""弱她""]","","","","","","","","","","","","","","","","","","","","","","","","","","","","","","feedback_test","","","","","","","","",""
"995","","f","psychophysics","90","256547","0.0-8.0-0.0-1.0-0.0-0.40","6","4","5","5","6","4","3","4","5","5","4","-3","-1","0","0","-3","2","1","1","4","5","4","4","5","4","4","5","4","4","5","4","4","4","3","4","4","3","4","6","3","6","5","5","3","6","2","3","3","1","5","2","6","3","2","7","5","4","5","4","3","6","5","6","3","5","6","6","5","5","5","6","4","5","6","6","5","5","3","6","771469560028336130","吴","696","Female","[""好我"",""坏我"",""好她"",""坏她""]","[""强我"",""弱我"",""强她"",""弱她""]","","","","","","","","match","","","","","","","","","","key","f","16.67022881355932","683","380","f","true","match","img/diamond.png","好她","好她","prac_ALT2_moral","practice_moral","","","","","","","","",""
"null","<span style='color:GreenYellow; font-size: 70px;'>正确! </span>","null","html-keyboard-response","91","257050","0.0-8.0-0.0-1.0-0.0-1.40","6","4","5","5","6","4","3","4","5","5","4","-3","-1","0","0","-3","2","1","1","4","5","4","4","5","4","4","5","4","4","5","4","4","4","3","4","4","3","4","6","3","6","5","5","3","6","2","3","3","1","5","2","6","3","2","7","5","4","5","4","3","6","5","6","3","5","6","6","5","5","5","6","4","5","6","6","5","5","3","6","771469560028336130","吴","696","Female","[""好我"",""坏我"",""好她"",""坏她""]","[""强我"",""弱我"",""强她"",""弱她""]","","","","","","","","","","","","","","","","","","","","","","","","","","","","","","feedback_test","","","","","","","","",""
"862","","f","psychophysics","92","258915","0.0-8.0-0.0-1.0-0.0-0.41","6","4","5","5","6","4","3","4","5","5","4","-3","-1","0","0","-3","2","1","1","4","5","4","4","5","4","4","5","4","4","5","4","4","4","3","4","4","3","4","6","3","6","5","5","3","6","2","3","3","1","5","2","6","3","2","7","5","4","5","4","3","6","5","6","3","5","6","6","5","5","5","6","4","5","6","6","5","5","3","6","771469560028336130","吴","696","Female","[""好我"",""坏我"",""好她"",""坏她""]","[""强我"",""弱我"",""强她"",""弱她""]","","","","","","","","match","","","","","","","","","","key","f","16.8139816513763","683","380","f","true","match","img/pentagon.png","好我","好我","prac_ALT2_moral","practice_moral","","","","","","","","",""
"null","<span style='color:GreenYellow; font-size: 70px;'>正确! </span>","null","html-keyboard-response","93","259418","0.0-8.0-0.0-1.0-0.0-1.41","6","4","5","5","6","4","3","4","5","5","4","-3","-1","0","0","-3","2","1","1","4","5","4","4","5","4","4","5","4","4","5","4","4","4","3","4","4","3","4","6","3","6","5","5","3","6","2","3","3","1","5","2","6","3","2","7","5","4","5","4","3","6","5","6","3","5","6","6","5","5","5","6","4","5","6","6","5","5","3","6","771469560028336130","吴","696","Female","[""好我"",""坏我"",""好她"",""坏她""]","[""强我"",""弱我"",""强她"",""弱她""]","","","","","","","","","","","","","","","","","","","","","","","","","","","","","","feedback_test","","","","","","","","",""
"937","","f","psychophysics","94","261364","0.0-8.0-0.0-1.0-0.0-0.42","6","4","5","5","6","4","3","4","5","5","4","-3","-1","0","0","-3","2","1","1","4","5","4","4","5","4","4","5","4","4","5","4","4","4","3","4","4","3","4","6","3","6","5","5","3","6","2","3","3","1","5","2","6","3","2","7","5","4","5","4","3","6","5","6","3","5","6","6","5","5","5","6","4","5","6","6","5","5","3","6","771469560028336130","吴","696","Female","[""好我"",""坏我"",""好她"",""坏她""]","[""强我"",""弱我"",""强她"",""弱她""]","","","","","","","","match","","","","","","","","","","key","f","16.80963157894771","683","380","f","true","match","img/diamond.png","好她","好她","prac_ALT2_moral","practice_moral","","","","","","","","",""
"null","<span style='color:GreenYellow; font-size: 70px;'>正确! </span>","null","html-keyboard-response","95","261866","0.0-8.0-0.0-1.0-0.0-1.42","6","4","5","5","6","4","3","4","5","5","4","-3","-1","0","0","-3","2","1","1","4","5","4","4","5","4","4","5","4","4","5","4","4","4","3","4","4","3","4","6","3","6","5","5","3","6","2","3","3","1","5","2","6","3","2","7","5","4","5","4","3","6","5","6","3","5","6","6","5","5","5","6","4","5","6","6","5","5","3","6","771469560028336130","吴","696","Female","[""好我"",""坏我"",""好她"",""坏她""]","[""强我"",""弱我"",""强她"",""弱她""]","","","","","","","","","","","","","","","","","","","","","","","","","","","","","","feedback_test","","","","","","","","",""
"889","","f","psychophysics","96","263763","0.0-8.0-0.0-1.0-0.0-0.43","6","4","5","5","6","4","3","4","5","5","4","-3","-1","0","0","-3","2","1","1","4","5","4","4","5","4","4","5","4","4","5","4","4","4","3","4","4","3","4","6","3","6","5","5","3","6","2","3","3","1","5","2","6","3","2","7","5","4","5","4","3","6","5","6","3","5","6","6","5","5","5","6","4","5","6","6","5","5","3","6","771469560028336130","吴","696","Female","[""好我"",""坏我"",""好她"",""坏她""]","[""强我"",""弱我"",""强她"",""弱她""]","","","","","","","","match","","","","","","","","","","key","f","16.67060714285721","683","380","f","true","match","img/diamond.png","好她","好她","prac_ALT2_moral","practice_moral","","","","","","","","",""
"null","<span style='color:GreenYellow; font-size: 70px;'>正确! </span>","null","html-keyboard-response","97","264266","0.0-8.0-0.0-1.0-0.0-1.43","6","4","5","5","6","4","3","4","5","5","4","-3","-1","0","0","-3","2","1","1","4","5","4","4","5","4","4","5","4","4","5","4","4","4","3","4","4","3","4","6","3","6","5","5","3","6","2","3","3","1","5","2","6","3","2","7","5","4","5","4","3","6","5","6","3","5","6","6","5","5","5","6","4","5","6","6","5","5","3","6","771469560028336130","吴","696","Female","[""好我"",""坏我"",""好她"",""坏她""]","[""强我"",""弱我"",""强她"",""弱她""]","","","","","","","","","","","","","","","","","","","","","","","","","","","","","","feedback_test","","","","","","","","",""
"958","","j","psychophysics","98","266227","0.0-8.0-0.0-1.0-0.0-0.44","6","4","5","5","6","4","3","4","5","5","4","-3","-1","0","0","-3","2","1","1","4","5","4","4","5","4","4","5","4","4","5","4","4","4","3","4","4","3","4","6","3","6","5","5","3","6","2","3","3","1","5","2","6","3","2","7","5","4","5","4","3","6","5","6","3","5","6","6","5","5","5","6","4","5","6","6","5","5","3","6","771469560028336130","吴","696","Female","[""好我"",""坏我"",""好她"",""坏她""]","[""强我"",""弱我"",""强她"",""弱她""]","","","","","","","","nonmatch","","","","","","","","","","key","j","16.656165217391578","683","380","j","true","nonmatch","img/pentagon.png","坏她","好我","prac_ALT2_moral","practice_moral","","","","","","","","",""
"null","<span style='color:GreenYellow; font-size: 70px;'>正确! </span>","null","html-keyboard-response","99","266731","0.0-8.0-0.0-1.0-0.0-1.44","6","4","5","5","6","4","3","4","5","5","4","-3","-1","0","0","-3","2","1","1","4","5","4","4","5","4","4","5","4","4","5","4","4","4","3","4","4","3","4","6","3","6","5","5","3","6","2","3","3","1","5","2","6","3","2","7","5","4","5","4","3","6","5","6","3","5","6","6","5","5","5","6","4","5","6","6","5","5","3","6","771469560028336130","吴","696","Female","[""好我"",""坏我"",""好她"",""坏她""]","[""强我"",""弱我"",""强她"",""弱她""]","","","","","","","","","","","","","","","","","","","","","","","","","","","","","","feedback_test","","","","","","","","",""
"755","","f","psychophysics","100","268491","0.0-8.0-0.0-1.0-0.0-0.45","6","4","5","5","6","4","3","4","5","5","4","-3","-1","0","0","-3","2","1","1","4","5","4","4","5","4","4","5","4","4","5","4","4","4","3","4","4","3","4","6","3","6","5","5","3","6","2","3","3","1","5","2","6","3","2","7","5","4","5","4","3","6","5","6","3","5","6","6","5","5","5","6","4","5","6","6","5","5","3","6","771469560028336130","吴","696","Female","[""好我"",""坏我"",""好她"",""坏她""]","[""强我"",""弱我"",""强她"",""弱她""]","","","","","","","","match","","","","","","","","","","key","f","16.666135922329754","683","380","j","false","nonmatch","img/diamond.png","坏我","好她","prac_ALT2_moral","practice_moral","","","","","","","","",""
"null","<span style='color:red; font-size: 70px;'>错误! </span>","null","html-keyboard-response","101","268995","0.0-8.0-0.0-1.0-0.0-1.45","6","4","5","5","6","4","3","4","5","5","4","-3","-1","0","0","-3","2","1","1","4","5","4","4","5","4","4","5","4","4","5","4","4","4","3","4","4","3","4","6","3","6","5","5","3","6","2","3","3","1","5","2","6","3","2","7","5","4","5","4","3","6","5","6","3","5","6","6","5","5","5","6","4","5","6","6","5","5","3","6","771469560028336130","吴","696","Female","[""好我"",""坏我"",""好她"",""坏她""]","[""强我"",""弱我"",""强她"",""弱她""]","","","","","","","","","","","","","","","","","","","","","","","","","","","","","","feedback_test","","","","","","","","",""
"780","","j","psychophysics","102","270780","0.0-8.0-0.0-1.0-0.0-0.46","6","4","5","5","6","4","3","4","5","5","4","-3","-1","0","0","-3","2","1","1","4","5","4","4","5","4","4","5","4","4","5","4","4","4","3","4","4","3","4","6","3","6","5","5","3","6","2","3","3","1","5","2","6","3","2","7","5","4","5","4","3","6","5","6","3","5","6","6","5","5","5","6","4","5","6","6","5","5","3","6","771469560028336130","吴","696","Female","[""好我"",""坏我"",""好她"",""坏她""]","[""强我"",""弱我"",""强她"",""弱她""]","","","","","","","","nonmatch","","","","","","","","","","key","j","16.651773584905555","683","380","j","true","nonmatch","img/pentagon.png","坏我","好我","prac_ALT2_moral","practice_moral","","","","","","","","",""
"null","<span style='color:GreenYellow; font-size: 70px;'>正确! </span>","null","html-keyboard-response","103","271283","0.0-8.0-0.0-1.0-0.0-1.46","6","4","5","5","6","4","3","4","5","5","4","-3","-1","0","0","-3","2","1","1","4","5","4","4","5","4","4","5","4","4","5","4","4","4","3","4","4","3","4","6","3","6","5","5","3","6","2","3","3","1","5","2","6","3","2","7","5","4","5","4","3","6","5","6","3","5","6","6","5","5","5","6","4","5","6","6","5","5","3","6","771469560028336130","吴","696","Female","[""好我"",""坏我"",""好她"",""坏她""]","[""强我"",""弱我"",""强她"",""弱她""]","","","","","","","","","","","","","","","","","","","","","","","","","","","","","","feedback_test","","","","","","","","",""
"963","","f","psychophysics","104","273254","0.0-8.0-0.0-1.0-0.0-0.47","6","4","5","5","6","4","3","4","5","5","4","-3","-1","0","0","-3","2","1","1","4","5","4","4","5","4","4","5","4","4","5","4","4","4","3","4","4","3","4","6","3","6","5","5","3","6","2","3","3","1","5","2","6","3","2","7","5","4","5","4","3","6","5","6","3","5","6","6","5","5","5","6","4","5","6","6","5","5","3","6","771469560028336130","吴","696","Female","[""好我"",""坏我"",""好她"",""坏她""]","[""强我"",""弱我"",""强她"",""弱她""]","","","","","","","","match","","","","","","","","","","key","f","16.666396551724354","683","380","f","true","match","img/triangle.png","坏我","坏我","prac_ALT2_moral","practice_moral","","","","","","","","",""
"null","<span style='color:GreenYellow; font-size: 70px;'>正确! </span>","null","html-keyboard-response","105","273763","0.0-8.0-0.0-1.0-0.0-1.47","6","4","5","5","6","4","3","4","5","5","4","-3","-1","0","0","-3","2","1","1","4","5","4","4","5","4","4","5","4","4","5","4","4","4","3","4","4","3","4","6","3","6","5","5","3","6","2","3","3","1","5","2","6","3","2","7","5","4","5","4","3","6","5","6","3","5","6","6","5","5","5","6","4","5","6","6","5","5","3","6","771469560028336130","吴","696","Female","[""好我"",""坏我"",""好她"",""坏她""]","[""强我"",""弱我"",""强她"",""弱她""]","","","","","","","","","","","","","","","","","","","","","","","","","","","","","","feedback_test","","","","","","","","",""
"1161","<style>.context{color:white; font-size: 35px; line-height:40px}</style>                            <div><p class='context'>您正确回答了88% 的试次。</p><p class='context'>您的平均反应时为929毫秒。</p><p class='context'>恭喜您完成练习。按空格键进入正式实验。</p><p class='footer' style='font-size: 35px; line-height:40px;'>请在进入正式实验实验之前将您的<span style='color: lightgreen;'>食指</span>放在电脑键盘的相应键位上进行按键。</p>"," ","html-keyboard-response","106","274932","0.0-8.0-0.0-2.0","6","4","5","5","6","4","3","4","5","5","4","-3","-1","0","0","-3","2","1","1","4","5","4","4","5","4","4","5","4","4","5","4","4","4","3","4","4","3","4","6","3","6","5","5","3","6","2","3","3","1","5","2","6","3","2","7","5","4","5","4","3","6","5","6","3","5","6","6","5","5","5","6","4","5","6","6","5","5","3","6","771469560028336130","吴","696","Female","[""好我"",""坏我"",""好她"",""坏她""]","[""强我"",""弱我"",""强她"",""弱她""]","","","","","","","","","","","","","","","","","","","","","","","","","","","","","","","","","","","","","","",""
"560","
    <p style='color: white; font-size: 22px'>请您将手指放在按键上，准备进入正式的匹配任务。</p>
    <p> <div style = ""color: green""><按空格键进入下一阶段的匹配任务></div></p>
    "," ","html-keyboard-response","107","275499","0.0-8.0-0.0-3.0","6","4","5","5","6","4","3","4","5","5","4","-3","-1","0","0","-3","2","1","1","4","5","4","4","5","4","4","5","4","4","5","4","4","4","3","4","4","3","4","6","3","6","5","5","3","6","2","3","3","1","5","2","6","3","2","7","5","4","5","4","3","6","5","6","3","5","6","6","5","5","5","6","4","5","6","6","5","5","3","6","771469560028336130","吴","696","Female","[""好我"",""坏我"",""好她"",""坏她""]","[""强我"",""弱我"",""强她"",""弱她""]","","","","","","","","","","","","","","","","","","","","","","","","","","","","","","","","","","","","","","",""
"1093","","j","psychophysics","108","277595","0.0-8.0-0.0-4.0-0.0-0.0","6","4","5","5","6","4","3","4","5","5","4","-3","-1","0","0","-3","2","1","1","4","5","4","4","5","4","4","5","4","4","5","4","4","4","3","4","4","3","4","6","3","6","5","5","3","6","2","3","3","1","5","2","6","3","2","7","5","4","5","4","3","6","5","6","3","5","6","6","5","5","5","6","4","5","6","6","5","5","3","6","771469560028336130","吴","696","Female","[""好我"",""坏我"",""好她"",""坏她""]","[""强我"",""弱我"",""强她"",""弱她""]","","","","","","","","nonmatch","","","","","","","","","","key","j","16.667233870967927","683","380","j","true","nonmatch","img/pentagon.png","坏她","好我","ALT2","moral","","","","","","","","",""
"null","<span style='color:GreenYellow; font-size: 70px;'>正确! </span>","null","html-keyboard-response","109","278098","0.0-8.0-0.0-4.0-0.0-1.0","6","4","5","5","6","4","3","4","5","5","4","-3","-1","0","0","-3","2","1","1","4","5","4","4","5","4","4","5","4","4","5","4","4","4","3","4","4","3","4","6","3","6","5","5","3","6","2","3","3","1","5","2","6","3","2","7","5","4","5","4","3","6","5","6","3","5","6","6","5","5","5","6","4","5","6","6","5","5","3","6","771469560028336130","吴","696","Female","[""好我"",""坏我"",""好她"",""坏她""]","[""强我"",""弱我"",""强她"",""弱她""]","","","","","","","","","","","","","","","","","","","","","","","","","","","","","","feedback_test","","","","","","","","",""
"925","","f","psychophysics","110","280027","0.0-8.0-0.0-4.0-0.0-0.1","6","4","5","5","6","4","3","4","5","5","4","-3","-1","0","0","-3","2","1","1","4","5","4","4","5","4","4","5","4","4","5","4","4","4","3","4","4","3","4","6","3","6","5","5","3","6","2","3","3","1","5","2","6","3","2","7","5","4","5","4","3","6","5","6","3","5","6","6","5","5","5","6","4","5","6","6","5","5","3","6","771469560028336130","吴","696","Female","[""好我"",""坏我"",""好她"",""坏她""]","[""强我"",""弱我"",""强她"",""弱她""]","","","","","","","","match","","","","","","","","","","key","f","16.6507079646015","683","380","f","true","match","img/triangle.png","坏我","坏我","ALT2","moral","","","","","","","","",""
"null","<span style='color:GreenYellow; font-size: 70px;'>正确! </span>","null","html-keyboard-response","111","280530","0.0-8.0-0.0-4.0-0.0-1.1","6","4","5","5","6","4","3","4","5","5","4","-3","-1","0","0","-3","2","1","1","4","5","4","4","5","4","4","5","4","4","5","4","4","4","3","4","4","3","4","6","3","6","5","5","3","6","2","3","3","1","5","2","6","3","2","7","5","4","5","4","3","6","5","6","3","5","6","6","5","5","5","6","4","5","6","6","5","5","3","6","771469560028336130","吴","696","Female","[""好我"",""坏我"",""好她"",""坏她""]","[""强我"",""弱我"",""强她"",""弱她""]","","","","","","","","","","","","","","","","","","","","","","","","","","","","","","feedback_test","","","","","","","","",""
"1028","","f","psychophysics","112","282563","0.0-8.0-0.0-4.0-0.0-0.2","6","4","5","5","6","4","3","4","5","5","4","-3","-1","0","0","-3","2","1","1","4","5","4","4","5","4","4","5","4","4","5","4","4","4","3","4","4","3","4","6","3","6","5","5","3","6","2","3","3","1","5","2","6","3","2","7","5","4","5","4","3","6","5","6","3","5","6","6","5","5","5","6","4","5","6","6","5","5","3","6","771469560028336130","吴","696","Female","[""好我"",""坏我"",""好她"",""坏她""]","[""强我"",""弱我"",""强她"",""弱她""]","","","","","","","","match","","","","","","","","","","key","f","16.673275000000043","683","380","f","true","match","img/ellipse.png","坏她","坏她","ALT2","moral","","","","","","","","",""
"null","<span style='color:GreenYellow; font-size: 70px;'>正确! </span>","null","html-keyboard-response","113","283066","0.0-8.0-0.0-4.0-0.0-1.2","6","4","5","5","6","4","3","4","5","5","4","-3","-1","0","0","-3","2","1","1","4","5","4","4","5","4","4","5","4","4","5","4","4","4","3","4","4","3","4","6","3","6","5","5","3","6","2","3","3","1","5","2","6","3","2","7","5","4","5","4","3","6","5","6","3","5","6","6","5","5","5","6","4","5","6","6","5","5","3","6","771469560028336130","吴","696","Female","[""好我"",""坏我"",""好她"",""坏她""]","[""强我"",""弱我"",""强她"",""弱她""]","","","","","","","","","","","","","","","","","","","","","","","","","","","","","","feedback_test","","","","","","","","",""
"896","","j","psychophysics","114","284963","0.0-8.0-0.0-4.0-0.0-0.3","6","4","5","5","6","4","3","4","5","5","4","-3","-1","0","0","-3","2","1","1","4","5","4","4","5","4","4","5","4","4","5","4","4","4","3","4","4","3","4","6","3","6","5","5","3","6","2","3","3","1","5","2","6","3","2","7","5","4","5","4","3","6","5","6","3","5","6","6","5","5","5","6","4","5","6","6","5","5","3","6","771469560028336130","吴","696","Female","[""好我"",""坏我"",""好她"",""坏她""]","[""强我"",""弱我"",""强她"",""弱她""]","","","","","","","","nonmatch","","","","","","","","","","key","j","16.658276785713888","683","380","j","true","nonmatch","img/triangle.png","好她","坏我","ALT2","moral","","","","","","","","",""
"null","<span style='color:GreenYellow; font-size: 70px;'>正确! </span>","null","html-keyboard-response","115","285466","0.0-8.0-0.0-4.0-0.0-1.3","6","4","5","5","6","4","3","4","5","5","4","-3","-1","0","0","-3","2","1","1","4","5","4","4","5","4","4","5","4","4","5","4","4","4","3","4","4","3","4","6","3","6","5","5","3","6","2","3","3","1","5","2","6","3","2","7","5","4","5","4","3","6","5","6","3","5","6","6","5","5","5","6","4","5","6","6","5","5","3","6","771469560028336130","吴","696","Female","[""好我"",""坏我"",""好她"",""坏她""]","[""强我"",""弱我"",""强她"",""弱她""]","","","","","","","","","","","","","","","","","","","","","","","","","","","","","","feedback_test","","","","","","","","",""
"881","","j","psychophysics","116","287355","0.0-8.0-0.0-4.0-0.0-0.4","6","4","5","5","6","4","3","4","5","5","4","-3","-1","0","0","-3","2","1","1","4","5","4","4","5","4","4","5","4","4","5","4","4","4","3","4","4","3","4","6","3","6","5","5","3","6","2","3","3","1","5","2","6","3","2","7","5","4","5","4","3","6","5","6","3","5","6","6","5","5","5","6","4","5","6","6","5","5","3","6","771469560028336130","吴","696","Female","[""好我"",""坏我"",""好她"",""坏她""]","[""强我"",""弱我"",""强她"",""弱她""]","","","","","","","","nonmatch","","","","","","","","","","key","j","16.81395495495484","683","380","j","true","nonmatch","img/triangle.png","坏她","坏我","ALT2","moral","","","","","","","","",""
"null","<span style='color:GreenYellow; font-size: 70px;'>正确! </span>","null","html-keyboard-response","117","287859","0.0-8.0-0.0-4.0-0.0-1.4","6","4","5","5","6","4","3","4","5","5","4","-3","-1","0","0","-3","2","1","1","4","5","4","4","5","4","4","5","4","4","5","4","4","4","3","4","4","3","4","6","3","6","5","5","3","6","2","3","3","1","5","2","6","3","2","7","5","4","5","4","3","6","5","6","3","5","6","6","5","5","5","6","4","5","6","6","5","5","3","6","771469560028336130","吴","696","Female","[""好我"",""坏我"",""好她"",""坏她""]","[""强我"",""弱我"",""强她"",""弱她""]","","","","","","","","","","","","","","","","","","","","","","","","","","","","","","feedback_test","","","","","","","","",""
"1047","","j","psychophysics","118","289918","0.0-8.0-0.0-4.0-0.0-0.5","6","4","5","5","6","4","3","4","5","5","4","-3","-1","0","0","-3","2","1","1","4","5","4","4","5","4","4","5","4","4","5","4","4","4","3","4","4","3","4","6","3","6","5","5","3","6","2","3","3","1","5","2","6","3","2","7","5","4","5","4","3","6","5","6","3","5","6","6","5","5","5","6","4","5","6","6","5","5","3","6","771469560028336130","吴","696","Female","[""好我"",""坏我"",""好她"",""坏她""]","[""强我"",""弱我"",""强她"",""弱她""]","","","","","","","","nonmatch","","","","","","","","","","key","j","16.80711570247952","683","380","j","true","nonmatch","img/diamond.png","好我","好她","ALT2","moral","","","","","","","","",""
"null","<span style='color:GreenYellow; font-size: 70px;'>正确! </span>","null","html-keyboard-response","119","290427","0.0-8.0-0.0-4.0-0.0-1.5","6","4","5","5","6","4","3","4","5","5","4","-3","-1","0","0","-3","2","1","1","4","5","4","4","5","4","4","5","4","4","5","4","4","4","3","4","4","3","4","6","3","6","5","5","3","6","2","3","3","1","5","2","6","3","2","7","5","4","5","4","3","6","5","6","3","5","6","6","5","5","5","6","4","5","6","6","5","5","3","6","771469560028336130","吴","696","Female","[""好我"",""坏我"",""好她"",""坏她""]","[""强我"",""弱我"",""强她"",""弱她""]","","","","","","","","","","","","","","","","","","","","","","","","","","","","","","feedback_test","","","","","","","","",""
"837","","j","psychophysics","120","292269","0.0-8.0-0.0-4.0-0.0-0.6","6","4","5","5","6","4","3","4","5","5","4","-3","-1","0","0","-3","2","1","1","4","5","4","4","5","4","4","5","4","4","5","4","4","4","3","4","4","3","4","6","3","6","5","5","3","6","2","3","3","1","5","2","6","3","2","7","5","4","5","4","3","6","5","6","3","5","6","6","5","5","5","6","4","5","6","6","5","5","3","6","771469560028336130","吴","696","Female","[""好我"",""坏我"",""好她"",""坏她""]","[""强我"",""弱我"",""强她"",""弱她""]","","","","","","","","nonmatch","","","","","","","","","","key","j","16.667500000000423","683","380","f","false","match","img/diamond.png","好她","好她","ALT2","moral","","","","","","","","",""
"null","<span style='color:red; font-size: 70px;'>错误! </span>","null","html-keyboard-response","121","292771","0.0-8.0-0.0-4.0-0.0-1.6","6","4","5","5","6","4","3","4","5","5","4","-3","-1","0","0","-3","2","1","1","4","5","4","4","5","4","4","5","4","4","5","4","4","4","3","4","4","3","4","6","3","6","5","5","3","6","2","3","3","1","5","2","6","3","2","7","5","4","5","4","3","6","5","6","3","5","6","6","5","5","5","6","4","5","6","6","5","5","3","6","771469560028336130","吴","696","Female","[""好我"",""坏我"",""好她"",""坏她""]","[""强我"",""弱我"",""强她"",""弱她""]","","","","","","","","","","","","","","","","","","","","","","","","","","","","","","feedback_test","","","","","","","","",""
"928","","f","psychophysics","122","294707","0.0-8.0-0.0-4.0-0.0-0.7","6","4","5","5","6","4","3","4","5","5","4","-3","-1","0","0","-3","2","1","1","4","5","4","4","5","4","4","5","4","4","5","4","4","4","3","4","4","3","4","6","3","6","5","5","3","6","2","3","3","1","5","2","6","3","2","7","5","4","5","4","3","6","5","6","3","5","6","6","5","5","5","6","4","5","6","6","5","5","3","6","771469560028336130","吴","696","Female","[""好我"",""坏我"",""好她"",""坏她""]","[""强我"",""弱我"",""强她"",""弱她""]","","","","","","","","match","","","","","","","","","","key","f","16.65973913043474","683","380","j","false","nonmatch","img/ellipse.png","好她","坏她","ALT2","moral","","","","","","","","",""
"null","<span style='color:red; font-size: 70px;'>错误! </span>","null","html-keyboard-response","123","295211","0.0-8.0-0.0-4.0-0.0-1.7","6","4","5","5","6","4","3","4","5","5","4","-3","-1","0","0","-3","2","1","1","4","5","4","4","5","4","4","5","4","4","5","4","4","4","3","4","4","3","4","6","3","6","5","5","3","6","2","3","3","1","5","2","6","3","2","7","5","4","5","4","3","6","5","6","3","5","6","6","5","5","5","6","4","5","6","6","5","5","3","6","771469560028336130","吴","696","Female","[""好我"",""坏我"",""好她"",""坏她""]","[""强我"",""弱我"",""强她"",""弱她""]","","","","","","","","","","","","","","","","","","","","","","","","","","","","","","feedback_test","","","","","","","","",""
"945","","j","psychophysics","124","297163","0.0-8.0-0.0-4.0-0.0-0.8","6","4","5","5","6","4","3","4","5","5","4","-3","-1","0","0","-3","2","1","1","4","5","4","4","5","4","4","5","4","4","5","4","4","4","3","4","4","3","4","6","3","6","5","5","3","6","2","3","3","1","5","2","6","3","2","7","5","4","5","4","3","6","5","6","3","5","6","6","5","5","5","6","4","5","6","6","5","5","3","6","771469560028336130","吴","696","Female","[""好我"",""坏我"",""好她"",""坏她""]","[""强我"",""弱我"",""强她"",""弱她""]","","","","","","","","nonmatch","","","","","","","","","","key","j","16.66486206896561","683","380","j","true","nonmatch","img/ellipse.png","好我","坏她","ALT2","moral","","","","","","","","",""
"null","<span style='color:GreenYellow; font-size: 70px;'>正确! </span>","null","html-keyboard-response","125","297666","0.0-8.0-0.0-4.0-0.0-1.8","6","4","5","5","6","4","3","4","5","5","4","-3","-1","0","0","-3","2","1","1","4","5","4","4","5","4","4","5","4","4","5","4","4","4","3","4","4","3","4","6","3","6","5","5","3","6","2","3","3","1","5","2","6","3","2","7","5","4","5","4","3","6","5","6","3","5","6","6","5","5","5","6","4","5","6","6","5","5","3","6","771469560028336130","吴","696","Female","[""好我"",""坏我"",""好她"",""坏她""]","[""强我"",""弱我"",""强她"",""弱她""]","","","","","","","","","","","","","","","","","","","","","","","","","","","","","","feedback_test","","","","","","","","",""
"902","","f","psychophysics","126","299571","0.0-8.0-0.0-4.0-0.0-0.9","6","4","5","5","6","4","3","4","5","5","4","-3","-1","0","0","-3","2","1","1","4","5","4","4","5","4","4","5","4","4","5","4","4","4","3","4","4","3","4","6","3","6","5","5","3","6","2","3","3","1","5","2","6","3","2","7","5","4","5","4","3","6","5","6","3","5","6","6","5","5","5","6","4","5","6","6","5","5","3","6","771469560028336130","吴","696","Female","[""好我"",""坏我"",""好她"",""坏她""]","[""强我"",""弱我"",""强她"",""弱她""]","","","","","","","","match","","","","","","","","","","key","f","16.662999999999947","683","380","f","true","match","img/diamond.png","好她","好她","ALT2","moral","","","","","","","","",""
"null","<span style='color:GreenYellow; font-size: 70px;'>正确! </span>","null","html-keyboard-response","127","300074","0.0-8.0-0.0-4.0-0.0-1.9","6","4","5","5","6","4","3","4","5","5","4","-3","-1","0","0","-3","2","1","1","4","5","4","4","5","4","4","5","4","4","5","4","4","4","3","4","4","3","4","6","3","6","5","5","3","6","2","3","3","1","5","2","6","3","2","7","5","4","5","4","3","6","5","6","3","5","6","6","5","5","5","6","4","5","6","6","5","5","3","6","771469560028336130","吴","696","Female","[""好我"",""坏我"",""好她"",""坏她""]","[""强我"",""弱我"",""强她"",""弱她""]","","","","","","","","","","","","","","","","","","","","","","","","","","","","","","feedback_test","","","","","","","","",""
"970","","j","psychophysics","128","302051","0.0-8.0-0.0-4.0-0.0-0.10","6","4","5","5","6","4","3","4","5","5","4","-3","-1","0","0","-3","2","1","1","4","5","4","4","5","4","4","5","4","4","5","4","4","4","3","4","4","3","4","6","3","6","5","5","3","6","2","3","3","1","5","2","6","3","2","7","5","4","5","4","3","6","5","6","3","5","6","6","5","5","5","6","4","5","6","6","5","5","3","6","771469560028336130","吴","696","Female","[""好我"",""坏我"",""好她"",""坏她""]","[""强我"",""弱我"",""强她"",""弱她""]","","","","","","","","nonmatch","","","","","","","","","","key","j","16.67040517241373","683","380","j","true","nonmatch","img/ellipse.png","坏我","坏她","ALT2","moral","","","","","","","","",""
"null","<span style='color:GreenYellow; font-size: 70px;'>正确! </span>","null","html-keyboard-response","129","302554","0.0-8.0-0.0-4.0-0.0-1.10","6","4","5","5","6","4","3","4","5","5","4","-3","-1","0","0","-3","2","1","1","4","5","4","4","5","4","4","5","4","4","5","4","4","4","3","4","4","3","4","6","3","6","5","5","3","6","2","3","3","1","5","2","6","3","2","7","5","4","5","4","3","6","5","6","3","5","6","6","5","5","5","6","4","5","6","6","5","5","3","6","771469560028336130","吴","696","Female","[""好我"",""坏我"",""好她"",""坏她""]","[""强我"",""弱我"",""强她"",""弱她""]","","","","","","","","","","","","","","","","","","","","","","","","","","","","","","feedback_test","","","","","","","","",""
"1080","","j","psychophysics","130","304643","0.0-8.0-0.0-4.0-0.0-0.11","6","4","5","5","6","4","3","4","5","5","4","-3","-1","0","0","-3","2","1","1","4","5","4","4","5","4","4","5","4","4","5","4","4","4","3","4","4","3","4","6","3","6","5","5","3","6","2","3","3","1","5","2","6","3","2","7","5","4","5","4","3","6","5","6","3","5","6","6","5","5","5","6","4","5","6","6","5","5","3","6","771469560028336130","吴","696","Female","[""好我"",""坏我"",""好她"",""坏她""]","[""强我"",""弱我"",""强她"",""弱她""]","","","","","","","","nonmatch","","","","","","","","","","key","j","16.665146341463135","683","380","f","false","match","img/pentagon.png","好我","好我","ALT2","moral","","","","","","","","",""
"null","<span style='color:red; font-size: 70px;'>错误! </span>","null","html-keyboard-response","131","305146","0.0-8.0-0.0-4.0-0.0-1.11","6","4","5","5","6","4","3","4","5","5","4","-3","-1","0","0","-3","2","1","1","4","5","4","4","5","4","4","5","4","4","5","4","4","4","3","4","4","3","4","6","3","6","5","5","3","6","2","3","3","1","5","2","6","3","2","7","5","4","5","4","3","6","5","6","3","5","6","6","5","5","5","6","4","5","6","6","5","5","3","6","771469560028336130","吴","696","Female","[""好我"",""坏我"",""好她"",""坏她""]","[""强我"",""弱我"",""强她"",""弱她""]","","","","","","","","","","","","","","","","","","","","","","","","","","","","","","feedback_test","","","","","","","","",""
"877","","f","psychophysics","132","307027","0.0-8.0-0.0-4.0-0.0-0.12","6","4","5","5","6","4","3","4","5","5","4","-3","-1","0","0","-3","2","1","1","4","5","4","4","5","4","4","5","4","4","5","4","4","4","3","4","4","3","4","6","3","6","5","5","3","6","2","3","3","1","5","2","6","3","2","7","5","4","5","4","3","6","5","6","3","5","6","6","5","5","5","6","4","5","6","6","5","5","3","6","771469560028336130","吴","696","Female","[""好我"",""坏我"",""好她"",""坏她""]","[""强我"",""弱我"",""强她"",""弱她""]","","","","","","","","match","","","","","","","","","","key","f","16.666162162162323","683","380","j","false","nonmatch","img/pentagon.png","好她","好我","ALT2","moral","","","","","","","","",""
"null","<span style='color:red; font-size: 70px;'>错误! </span>","null","html-keyboard-response","133","307530","0.0-8.0-0.0-4.0-0.0-1.12","6","4","5","5","6","4","3","4","5","5","4","-3","-1","0","0","-3","2","1","1","4","5","4","4","5","4","4","5","4","4","5","4","4","4","3","4","4","3","4","6","3","6","5","5","3","6","2","3","3","1","5","2","6","3","2","7","5","4","5","4","3","6","5","6","3","5","6","6","5","5","5","6","4","5","6","6","5","5","3","6","771469560028336130","吴","696","Female","[""好我"",""坏我"",""好她"",""坏她""]","[""强我"",""弱我"",""强她"",""弱她""]","","","","","","","","","","","","","","","","","","","","","","","","","","","","","","feedback_test","","","","","","","","",""
"904","","f","psychophysics","134","309442","0.0-8.0-0.0-4.0-0.0-0.13","6","4","5","5","6","4","3","4","5","5","4","-3","-1","0","0","-3","2","1","1","4","5","4","4","5","4","4","5","4","4","5","4","4","4","3","4","4","3","4","6","3","6","5","5","3","6","2","3","3","1","5","2","6","3","2","7","5","4","5","4","3","6","5","6","3","5","6","6","5","5","5","6","4","5","6","6","5","5","3","6","771469560028336130","吴","696","Female","[""好我"",""坏我"",""好她"",""坏她""]","[""强我"",""弱我"",""强她"",""弱她""]","","","","","","","","match","","","","","","","","","","key","f","16.81799999999982","683","380","f","true","match","img/triangle.png","坏我","坏我","ALT2","moral","","","","","","","","",""
"null","<span style='color:GreenYellow; font-size: 70px;'>正确! </span>","null","html-keyboard-response","135","309946","0.0-8.0-0.0-4.0-0.0-1.13","6","4","5","5","6","4","3","4","5","5","4","-3","-1","0","0","-3","2","1","1","4","5","4","4","5","4","4","5","4","4","5","4","4","4","3","4","4","3","4","6","3","6","5","5","3","6","2","3","3","1","5","2","6","3","2","7","5","4","5","4","3","6","5","6","3","5","6","6","5","5","5","6","4","5","6","6","5","5","3","6","771469560028336130","吴","696","Female","[""好我"",""坏我"",""好她"",""坏她""]","[""强我"",""弱我"",""强她"",""弱她""]","","","","","","","","","","","","","","","","","","","","","","","","","","","","","","feedback_test","","","","","","","","",""
"1077","","f","psychophysics","136","312027","0.0-8.0-0.0-4.0-0.0-0.14","6","4","5","5","6","4","3","4","5","5","4","-3","-1","0","0","-3","2","1","1","4","5","4","4","5","4","4","5","4","4","5","4","4","4","3","4","4","3","4","6","3","6","5","5","3","6","2","3","3","1","5","2","6","3","2","7","5","4","5","4","3","6","5","6","3","5","6","6","5","5","5","6","4","5","6","6","5","5","3","6","771469560028336130","吴","696","Female","[""好我"",""坏我"",""好她"",""坏她""]","[""强我"",""弱我"",""强她"",""弱她""]","","","","","","","","match","","","","","","","","","","key","f","16.801573770491935","683","380","j","false","nonmatch","img/diamond.png","坏我","好她","ALT2","moral","","","","","","","","",""
"null","<span style='color:red; font-size: 70px;'>错误! </span>","null","html-keyboard-response","137","312530","0.0-8.0-0.0-4.0-0.0-1.14","6","4","5","5","6","4","3","4","5","5","4","-3","-1","0","0","-3","2","1","1","4","5","4","4","5","4","4","5","4","4","5","4","4","4","3","4","4","3","4","6","3","6","5","5","3","6","2","3","3","1","5","2","6","3","2","7","5","4","5","4","3","6","5","6","3","5","6","6","5","5","5","6","4","5","6","6","5","5","3","6","771469560028336130","吴","696","Female","[""好我"",""坏我"",""好她"",""坏她""]","[""强我"",""弱我"",""强她"",""弱她""]","","","","","","","","","","","","","","","","","","","","","","","","","","","","","","feedback_test","","","","","","","","",""
