"rt","stimulus","response","trial_type","trial_index","time_elapsed","internal_node_id","swb_1","swb_2","swb_3","swb_4","swb_5","LOT_1","LOT_2","LOT_3","LOT_4","LOT_5","LOT_6","IPC_1","IPC_2","IPC_3","IPC_4","IPC_5","IPC_6","IPC_7","IPC_8","MorIden_1","MorIden_2","MorIden_3","MorIden_4","MorIden_5","MorIden_6","MorIden_7","MorIden_8","MorIden_9","MorIden_10","moralSeImag_1","moralSeImag_2","moralSeImag_3","moralSeImag_4","moralSeImag_5","moralSeImag_6","moralSeImag_7","moralSeImag_8","moralSeImag_9","sde_1","sde_2","sde_3","sde_4","sde_5","sde_6","sde_7","sde_8","sde_9","sde_10","trap2","sde_11","sde_12","sde_13","sde_14","sde_15","sde_16","sde_17","sde_18","sde_19","sde_20","IM_1","IM_2","IM_3","IM_4","IM_5","IM_6","IM_7","IM_8","IM_9","IM_10","IM_11","IM_12","IM_13","IM_14","IM_15","IM_16","IM_17","IM_18","IM_19","IM_20","subj_idx","friend_name","ParticipantID","Sex","Word","Word2","value","success","timeout","failed_images","failed_audio","failed_video","user_agent","responses","item_order","radio_event_ids","radio_event_times","key_event_times","mouse_event_times","straightlining","zigzagging","honeypot","task_id","screen_id","time_stamp","response_type","key_press","avg_frame_time","center_x","center_y","person","word","valence","domain","math","correct_response","correct","status","view_history","identity","duration","Image","condition","question_order","trap2_item"
"970","
   <p><div style='color:white; font-size: 25px'>您好，欢迎参加本次实验。</div></p>
   <p><div style='color:white; font-size: 25px'>为充分保障您的权利，请确保您已经知晓并同意《参与实验同意书》以及《数据公开知情同意书》。</div></p>
   <p><div style='color:white; font-size: 25px'>如果您未见过上述内容，请咨询实验员。</div></p>
   <p style='color:white; font-size: 25px'>如果您选择继续实验，则表示您已经清楚两份知情同意书的内容并同意。</p>
   <p><div style = ""color: pink;font-size:30px;"">请确保您记得day0的实验编号，您将在本次实验输入该编号，若您忘记，请咨询实验员后作答。</div></p>
   <p><div style = ""color:lightblue;font-size:25px;"">请您尽可能认真地作答，我们将依据您在各问卷和按键任务中的作答质量发放报酬。</div></p>
   <p> <div style = ""color: green""><按空格键至下页></div> </p>
   "," ","html-keyboard-response","0","972","0.0-0.0","7","7","7","7","6","5","5","5","5","5","5","2","1","2","2","2","2","2","2","5","5","5","5","5","5","5","5","4","5","8","7","8","7","8","6","8","9","8","7","7","7","7","7","7","6","1","7","7","1","7","6","7","7","7","7","7","7","7","7","7","7","7","7","7","7","7","7","7","7","7","6","7","7","7","7","7","7","7","7","633775896922161152","唐","289","Male","[""好我"",""坏我"",""坏他"",""好他""]","[""强我"",""弱我"",""弱他"",""强他""]","","","","","","","","","","","","","","","","","","","","","","","","","","","","","","","","","","","","","","",""
"","","","call-function","1","973","0.0-1.0-0.0","7","7","7","7","6","5","5","5","5","5","5","2","1","2","2","2","2","2","2","5","5","5","5","5","5","5","5","4","5","8","7","8","7","8","6","8","9","8","7","7","7","7","7","7","6","1","7","7","1","7","6","7","7","7","7","7","7","7","7","7","7","7","7","7","7","7","7","7","7","7","6","7","7","7","7","7","7","7","7","633775896922161152","唐","289","Male","[""好我"",""坏我"",""坏他"",""好他""]","[""强我"",""弱我"",""弱他"",""强他""]","","","","","","","","","","","","","","","","","","","","","","","","","","","","","","","","","","","","","","",""
"15703","","[{""name"":""Sex"",""value"":""0""},{""name"":""friend_name"",""value"":""唐""},{""name"":""ParticipantID"",""value"":""289""}]","survey-html-form","2","16677","0.0-1.0-1.0","7","7","7","7","6","5","5","5","5","5","5","2","1","2","2","2","2","2","2","5","5","5","5","5","5","5","5","4","5","8","7","8","7","8","6","8","9","8","7","7","7","7","7","7","6","1","7","7","1","7","6","7","7","7","7","7","7","7","7","7","7","7","7","7","7","7","7","7","7","7","6","7","7","7","7","7","7","7","7","633775896922161152","唐","289","Male","[""好我"",""坏我"",""坏他"",""好他""]","[""强我"",""弱我"",""弱他"",""强他""]","","","","","","","","","","","","","","","","","","","","","","","","","","","","","","","","","","","","","","",""
"","","","preload","3","17059","0.0-2.0","7","7","7","7","6","5","5","5","5","5","5","2","1","2","2","2","2","2","2","5","5","5","5","5","5","5","5","4","5","8","7","8","7","8","6","8","9","8","7","7","7","7","7","7","6","1","7","7","1","7","6","7","7","7","7","7","7","7","7","7","7","7","7","7","7","7","7","7","7","7","6","7","7","7","7","7","7","7","7","633775896922161152","唐","289","Male","[""好我"",""坏我"",""坏他"",""好他""]","[""强我"",""弱我"",""弱他"",""强他""]","","true","false","[]","[]","[]","","","","","","","","","","","","","","","","","","","","","","","","","","","","","","","","",""
"","","","fullscreen","4","20161","0.0-3.0","7","7","7","7","6","5","5","5","5","5","5","2","1","2","2","2","2","2","2","5","5","5","5","5","5","5","5","4","5","8","7","8","7","8","6","8","9","8","7","7","7","7","7","7","6","1","7","7","1","7","6","7","7","7","7","7","7","7","7","7","7","7","7","7","7","7","7","7","7","7","6","7","7","7","7","7","7","7","7","633775896922161152","唐","289","Male","[""好我"",""坏我"",""坏他"",""好他""]","[""强我"",""弱我"",""弱他"",""强他""]","","true","","","","","{}","","","","","","","","","","","","","","","","","","","","","","","","","","","","","","","",""
"6859.799999952316","","{""Q01"":""7"",""Q02"":""7"",""Q03"":""7"",""Q04"":""7"",""Q05"":""6""}","survey-template","5","27022","0.0-4.0","7","7","7","7","6","5","5","5","5","5","5","2","1","2","2","2","2","2","2","5","5","5","5","5","5","5","5","4","5","8","7","8","7","8","6","8","9","8","7","7","7","7","7","7","6","1","7","7","1","7","6","7","7","7","7","7","7","7","7","7","7","7","7","7","7","7","7","7","7","7","6","7","7","7","7","7","7","7","7","633775896922161152","唐","289","Male","[""好我"",""坏我"",""坏他"",""好他""]","[""强我"",""弱我"",""弱他"",""强他""]","","","","","","","","{""Q01"":""7"",""Q02"":""7"",""Q03"":""7"",""Q04"":""7"",""Q05"":""6""}","[0,1,2,3,4]","[""Q01"",""Q02"",""Q03"",""Q04"",""Q05""]","[2282.5,2866.599999964237,3482.2999999523163,4850.299999952316,5914.199999988079]","[]","[2282.5,2866.599999964237,3482.2999999523163,4026.199999988079,4578.399999976158,4850.299999952316,5659.199999988079,5914.199999988079,6858.599999964237]","0.8","0.25","0","","","","","","","","","","","","","","","","","","","","","","",""
"9602.899999976158","","{""Q01"":""5"",""Q02"":""5"",""Q03"":""5"",""Q04"":""5"",""Q05"":""5"",""Q06"":""5""}","survey-template","6","36629","0.0-5.0","7","7","7","7","6","5","5","5","5","5","5","2","1","2","2","2","2","2","2","5","5","5","5","5","5","5","5","4","5","8","7","8","7","8","6","8","9","8","7","7","7","7","7","7","6","1","7","7","1","7","6","7","7","7","7","7","7","7","7","7","7","7","7","7","7","7","7","7","7","7","6","7","7","7","7","7","7","7","7","633775896922161152","唐","289","Male","[""好我"",""坏我"",""坏他"",""好他""]","[""强我"",""弱我"",""弱他"",""强他""]","","","","","","","","{""Q01"":""5"",""Q02"":""5"",""Q03"":""5"",""Q04"":""5"",""Q05"":""5"",""Q06"":""5""}","[0,1,2,3,4,5]","[""Q01"",""Q02"",""Q04"",""Q05"",""Q03"",""Q06""]","[1026,2147.399999976158,4394.300000011921,4971,7738,8666.099999964237]","[]","[1026,2147.399999976158,3106,4394.300000011921,4971,6042.300000011921,7738,8666.099999964237,9602.399999976158]","0.5","0.8","0","","","","","","","","","","","","","","","","","","","","","","",""
"12350.399999976158","","{""Q01"":""2"",""Q02"":""1"",""Q03"":""2"",""Q04"":""2"",""Q05"":""2"",""Q06"":""2"",""Q07"":""2"",""Q08"":""2""}","survey-template","7","48982","0.0-6.0","7","7","7","7","6","5","5","5","5","5","5","2","1","2","2","2","2","2","2","5","5","5","5","5","5","5","5","4","5","8","7","8","7","8","6","8","9","8","7","7","7","7","7","7","6","1","7","7","1","7","6","7","7","7","7","7","7","7","7","7","7","7","7","7","7","7","7","7","7","7","6","7","7","7","7","7","7","7","7","633775896922161152","唐","289","Male","[""好我"",""坏我"",""坏他"",""好他""]","[""强我"",""弱我"",""弱他"",""强他""]","","","","","","","","{""Q01"":""2"",""Q02"":""1"",""Q03"":""2"",""Q04"":""2"",""Q05"":""2"",""Q06"":""2"",""Q07"":""2"",""Q08"":""2""}","[0,1,2,3,4,5,6,7]","[""Q01"",""Q01"",""Q02"",""Q02"",""Q03"",""Q04"",""Q05"",""Q06"",""Q07"",""Q08""]","[1212.699999988079,1286.3999999761581,2557,2612.599999964237,3692.599999964237,4333.5,8133.699999988079,8813,10012.699999988079,10580.899999976158]","[]","[1212.699999988079,1286.3999999761581,1909.0999999642372,2309.099999964237,2557,2612.599999964237,3492.5,3692.599999964237,4077.5,4333.5,4645.199999988079,4861.399999976158,5268.799999952316,5436.399999976158,5517.599999964237,5844.899999976158,6612.5,7700.5,8133.699999988079,8813,9437.099999964237,10012.699999988079,10580.899999976158,12349.399999976158]","0.875","0.2857142857142857","0","","","","","","","","","","","","","","","","","","","","","","",""
"70445","
    <p><div style='color:white;font-size:35px; line-height:20px;'>词汇评估任务</div></p><br>
    <p><div style='color:white;font-size:25px; line-height:20px;'>请再次回忆该亲密的朋友，你们至少2年前就认识了，并且最近2年经常见面。</div></p>
    <p><div style='color:white;font-size:25px; line-height:20px;'>在本实验中，您将会看到一些形容词。</div></p>
    <p><div style='color:yellow;font-size:25px; line-height:20px;'>您的任务是判断这些形容词是否符合对您自己或您的朋友的描述。</div></p><p style='font-size:35px'>符合按<span style=""color:lightgreen""> j 键</span>，不符合按<span style=""color:red""> f 键</span></p>","0","html-button-response","8","119428","0.0-7.0-0.0","7","7","7","7","6","5","5","5","5","5","5","2","1","2","2","2","2","2","2","5","5","5","5","5","5","5","5","4","5","8","7","8","7","8","6","8","9","8","7","7","7","7","7","7","6","1","7","7","1","7","6","7","7","7","7","7","7","7","7","7","7","7","7","7","7","7","7","7","7","7","6","7","7","7","7","7","7","7","7","633775896922161152","唐","289","Male","[""好我"",""坏我"",""坏他"",""好他""]","[""强我"",""弱我"",""弱他"",""强他""]","","","","","","","","","","","","","","","","","SRET_EW","EW_instructions","Sat Jan 20 2024 22:54:00 GMT+0800 (中国标准时间)","","","","","","","","","","","","","","","","","","","",""
"803","","j","psychophysics","9","121236","0.0-7.0-1.0-0.0","7","7","7","7","6","5","5","5","5","5","5","2","1","2","2","2","2","2","2","5","5","5","5","5","5","5","5","4","5","8","7","8","7","8","6","8","9","8","7","7","7","7","7","7","6","1","7","7","1","7","6","7","7","7","7","7","7","7","7","7","7","7","7","7","7","7","7","7","7","7","6","7","7","7","7","7","7","7","7","633775896922161152","唐","289","Male","[""好我"",""坏我"",""坏他"",""好他""]","[""强我"",""弱我"",""弱他"",""强他""]","","","","","","","","yes","","","","","","","","","SRET_EW","EW_practice","","key","j","16.647222222222304","768","428","朋友","忠实","Positive","morality","","","","","","","","","","",""
"662","","j","psychophysics","10","122899","0.0-7.0-1.0-0.1","7","7","7","7","6","5","5","5","5","5","5","2","1","2","2","2","2","2","2","5","5","5","5","5","5","5","5","4","5","8","7","8","7","8","6","8","9","8","7","7","7","7","7","7","6","1","7","7","1","7","6","7","7","7","7","7","7","7","7","7","7","7","7","7","7","7","7","7","7","7","6","7","7","7","7","7","7","7","7","633775896922161152","唐","289","Male","[""好我"",""坏我"",""坏他"",""好他""]","[""强我"",""弱我"",""弱他"",""强他""]","","","","","","","","yes","","","","","","","","","SRET_EW","EW_practice","","key","j","16.652525252525166","768","428","自己","严谨","Positive","ability","","","","","","","","","","",""
"607","","f","psychophysics","11","124508","0.0-7.0-1.0-0.2","7","7","7","7","6","5","5","5","5","5","5","2","1","2","2","2","2","2","2","5","5","5","5","5","5","5","5","4","5","8","7","8","7","8","6","8","9","8","7","7","7","7","7","7","6","1","7","7","1","7","6","7","7","7","7","7","7","7","7","7","7","7","7","7","7","7","7","7","7","7","6","7","7","7","7","7","7","7","7","633775896922161152","唐","289","Male","[""好我"",""坏我"",""坏他"",""好他""]","[""强我"",""弱我"",""弱他"",""强他""]","","","","","","","","no","","","","","","","","","SRET_EW","EW_practice","","key","f","16.65625","768","428","朋友","徇私","Negative","morality","","","","","","","","","","",""
"751","","f","psychophysics","12","126260","0.0-7.0-1.0-0.3","7","7","7","7","6","5","5","5","5","5","5","2","1","2","2","2","2","2","2","5","5","5","5","5","5","5","5","4","5","8","7","8","7","8","6","8","9","8","7","7","7","7","7","7","6","1","7","7","1","7","6","7","7","7","7","7","7","7","7","7","7","7","7","7","7","7","7","7","7","7","6","7","7","7","7","7","7","7","7","633775896922161152","唐","289","Male","[""好我"",""坏我"",""坏他"",""好他""]","[""强我"",""弱我"",""弱他"",""强他""]","","","","","","","","no","","","","","","","","","SRET_EW","EW_practice","","key","f","16.64615384615382","768","428","自己","刻板","Negative","ability","","","","","","","","","","",""
"2808","
    <p><div style='color:white;font-size:35px; line-height:20px;'>请您再次阅读实验要求</div></p><br>
    <p><div style='color:white;font-size:25px; line-height:20px;'>请回忆某一个亲密的朋友，你们至少2年前就认识了，并且最近2年经常见面。</div></p>
    <p><div style='color:white;font-size:25px; line-height:20px;'>在本实验中，您将会看到一些形容词。</div></p>
    <p><div style='color:yellow;font-size:25px; line-height:20px;'>您的任务是判断这些形容词是否符合对您自己或您的朋友的描述。</div></p>
    <p><div class='footer' style='font-size:25px; line-height:20px;'>如果对本实验还有不清楚之处，请立即向实验员咨询。</p><p style='font-size:25px; line-height:20px;'>如果您明白了规则：</p><p style='font-size:22px; line-height:20px;'>请按 继续 进入正式实验</p>
    </div>
    <p style='font-size:35px'>符合按<span style=""color:lightgreen""> j 键</span>，不符合按<span style=""color:red""> f 键</span></p>","0","html-button-response","13","129068","0.0-7.0-2.0","7","7","7","7","6","5","5","5","5","5","5","2","1","2","2","2","2","2","2","5","5","5","5","5","5","5","5","4","5","8","7","8","7","8","6","8","9","8","7","7","7","7","7","7","6","1","7","7","1","7","6","7","7","7","7","7","7","7","7","7","7","7","7","7","7","7","7","7","7","7","6","7","7","7","7","7","7","7","7","633775896922161152","唐","289","Male","[""好我"",""坏我"",""坏他"",""好他""]","[""强我"",""弱我"",""弱他"",""强他""]","","","","","","","","","","","","","","","","","SRET_EW","prac_instructions","Sat Jan 20 2024 22:54:00 GMT+0800 (中国标准时间)","","","","","","","","","","","","","","","","","","","",""
"1078","","j","psychophysics","14","131148","0.0-7.0-3.0-0.0","7","7","7","7","6","5","5","5","5","5","5","2","1","2","2","2","2","2","2","5","5","5","5","5","5","5","5","4","5","8","7","8","7","8","6","8","9","8","7","7","7","7","7","7","6","1","7","7","1","7","6","7","7","7","7","7","7","7","7","7","7","7","7","7","7","7","7","7","7","7","6","7","7","7","7","7","7","7","7","633775896922161152","唐","289","Male","[""好我"",""坏我"",""坏他"",""好他""]","[""强我"",""弱我"",""弱他"",""强他""]","","","","","","","","yes","","","","","","","","","SRET","EW_formal","","key","j","16.6419354838709","768","428","朋友","务实","Positive","ability","","","","","","","","","","",""
"567","","j","psychophysics","15","132716","0.0-7.0-3.0-0.1","7","7","7","7","6","5","5","5","5","5","5","2","1","2","2","2","2","2","2","5","5","5","5","5","5","5","5","4","5","8","7","8","7","8","6","8","9","8","7","7","7","7","7","7","6","1","7","7","1","7","6","7","7","7","7","7","7","7","7","7","7","7","7","7","7","7","7","7","7","7","6","7","7","7","7","7","7","7","7","633775896922161152","唐","289","Male","[""好我"",""坏我"",""坏他"",""好他""]","[""强我"",""弱我"",""弱他"",""强他""]","","","","","","","","yes","","","","","","","","","SRET","EW_formal","","key","j","16.652127659574344","768","428","自己","坚贞","Positive","morality","","","","","","","","","","",""
"606","","f","psychophysics","16","134324","0.0-7.0-3.0-0.2","7","7","7","7","6","5","5","5","5","5","5","2","1","2","2","2","2","2","2","5","5","5","5","5","5","5","5","4","5","8","7","8","7","8","6","8","9","8","7","7","7","7","7","7","6","1","7","7","1","7","6","7","7","7","7","7","7","7","7","7","7","7","7","7","7","7","7","7","7","7","6","7","7","7","7","7","7","7","7","633775896922161152","唐","289","Male","[""好我"",""坏我"",""坏他"",""好他""]","[""强我"",""弱我"",""弱他"",""强他""]","","","","","","","","no","","","","","","","","","SRET","EW_formal","","key","f","16.647368421052633","768","428","自己","说谎","Negative","morality","","","","","","","","","","",""
"727","","f","psychophysics","17","136052","0.0-7.0-3.0-0.3","7","7","7","7","6","5","5","5","5","5","5","2","1","2","2","2","2","2","2","5","5","5","5","5","5","5","5","4","5","8","7","8","7","8","6","8","9","8","7","7","7","7","7","7","6","1","7","7","1","7","6","7","7","7","7","7","7","7","7","7","7","7","7","7","7","7","7","7","7","7","6","7","7","7","7","7","7","7","7","633775896922161152","唐","289","Male","[""好我"",""坏我"",""坏他"",""好他""]","[""强我"",""弱我"",""弱他"",""强他""]","","","","","","","","no","","","","","","","","","SRET","EW_formal","","key","f","16.655339805825243","768","428","朋友","迷糊","Negative","ability","","","","","","","","","","",""
"1046","","j","psychophysics","18","138100","0.0-7.0-3.0-0.4","7","7","7","7","6","5","5","5","5","5","5","2","1","2","2","2","2","2","2","5","5","5","5","5","5","5","5","4","5","8","7","8","7","8","6","8","9","8","7","7","7","7","7","7","6","1","7","7","1","7","6","7","7","7","7","7","7","7","7","7","7","7","7","7","7","7","7","7","7","7","6","7","7","7","7","7","7","7","7","633775896922161152","唐","289","Male","[""好我"",""坏我"",""坏他"",""好他""]","[""强我"",""弱我"",""弱他"",""强他""]","","","","","","","","yes","","","","","","","","","SRET","EW_formal","","key","j","16.650819672131338","768","428","朋友","忠诚","Positive","morality","","","","","","","","","","",""
"1119","","f","psychophysics","19","140220","0.0-7.0-3.0-0.5","7","7","7","7","6","5","5","5","5","5","5","2","1","2","2","2","2","2","2","5","5","5","5","5","5","5","5","4","5","8","7","8","7","8","6","8","9","8","7","7","7","7","7","7","6","1","7","7","1","7","6","7","7","7","7","7","7","7","7","7","7","7","7","7","7","7","7","7","7","7","6","7","7","7","7","7","7","7","7","633775896922161152","唐","289","Male","[""好我"",""坏我"",""坏他"",""好他""]","[""强我"",""弱我"",""弱他"",""强他""]","","","","","","","","no","","","","","","","","","SRET","EW_formal","","key","f","16.647619047619095","768","428","朋友","不孝","Negative","morality","","","","","","","","","","",""
"991","","f","psychophysics","20","142212","0.0-7.0-3.0-0.6","7","7","7","7","6","5","5","5","5","5","5","2","1","2","2","2","2","2","2","5","5","5","5","5","5","5","5","4","5","8","7","8","7","8","6","8","9","8","7","7","7","7","7","7","6","1","7","7","1","7","6","7","7","7","7","7","7","7","7","7","7","7","7","7","7","7","7","7","7","7","6","7","7","7","7","7","7","7","7","633775896922161152","唐","289","Male","[""好我"",""坏我"",""坏他"",""好他""]","[""强我"",""弱我"",""弱他"",""强他""]","","","","","","","","no","","","","","","","","","SRET","EW_formal","","key","f","16.65126050420168","768","428","自己","虚伪","Negative","morality","","","","","","","","","","",""
"999","","f","psychophysics","21","144212","0.0-7.0-3.0-0.7","7","7","7","7","6","5","5","5","5","5","5","2","1","2","2","2","2","2","2","5","5","5","5","5","5","5","5","4","5","8","7","8","7","8","6","8","9","8","7","7","7","7","7","7","6","1","7","7","1","7","6","7","7","7","7","7","7","7","7","7","7","7","7","7","7","7","7","7","7","7","6","7","7","7","7","7","7","7","7","633775896922161152","唐","289","Male","[""好我"",""坏我"",""坏他"",""好他""]","[""强我"",""弱我"",""弱他"",""强他""]","","","","","","","","no","","","","","","","","","SRET","EW_formal","","key","f","16.652941176470442","768","428","自己","伪善","Negative","morality","","","","","","","","","","",""
"696","","f","psychophysics","22","145908","0.0-7.0-3.0-0.8","7","7","7","7","6","5","5","5","5","5","5","2","1","2","2","2","2","2","2","5","5","5","5","5","5","5","5","4","5","8","7","8","7","8","6","8","9","8","7","7","7","7","7","7","6","1","7","7","1","7","6","7","7","7","7","7","7","7","7","7","7","7","7","7","7","7","7","7","7","7","6","7","7","7","7","7","7","7","7","633775896922161152","唐","289","Male","[""好我"",""坏我"",""坏他"",""好他""]","[""强我"",""弱我"",""弱他"",""强他""]","","","","","","","","no","","","","","","","","","SRET","EW_formal","","key","f","16.650495049505064","768","428","自己","黑心","Negative","morality","","","","","","","","","","",""
"631","","f","psychophysics","23","147540","0.0-7.0-3.0-0.9","7","7","7","7","6","5","5","5","5","5","5","2","1","2","2","2","2","2","2","5","5","5","5","5","5","5","5","4","5","8","7","8","7","8","6","8","9","8","7","7","7","7","7","7","6","1","7","7","1","7","6","7","7","7","7","7","7","7","7","7","7","7","7","7","7","7","7","7","7","7","6","7","7","7","7","7","7","7","7","633775896922161152","唐","289","Male","[""好我"",""坏我"",""坏他"",""好他""]","[""强我"",""弱我"",""弱他"",""强他""]","","","","","","","","no","","","","","","","","","SRET","EW_formal","","key","f","16.651546391752397","768","428","自己","恶劣","Negative","morality","","","","","","","","","","",""
"991","","f","psychophysics","24","149532","0.0-7.0-3.0-0.10","7","7","7","7","6","5","5","5","5","5","5","2","1","2","2","2","2","2","2","5","5","5","5","5","5","5","5","4","5","8","7","8","7","8","6","8","9","8","7","7","7","7","7","7","6","1","7","7","1","7","6","7","7","7","7","7","7","7","7","7","7","7","7","7","7","7","7","7","7","7","6","7","7","7","7","7","7","7","7","633775896922161152","唐","289","Male","[""好我"",""坏我"",""坏他"",""好他""]","[""强我"",""弱我"",""弱他"",""强他""]","","","","","","","","no","","","","","","","","","SRET","EW_formal","","key","f","16.647899159663915","768","428","自己","贪污","Negative","morality","","","","","","","","","","",""
"543","","j","psychophysics","25","151077","0.0-7.0-3.0-0.11","7","7","7","7","6","5","5","5","5","5","5","2","1","2","2","2","2","2","2","5","5","5","5","5","5","5","5","4","5","8","7","8","7","8","6","8","9","8","7","7","7","7","7","7","6","1","7","7","1","7","6","7","7","7","7","7","7","7","7","7","7","7","7","7","7","7","7","7","7","7","6","7","7","7","7","7","7","7","7","633775896922161152","唐","289","Male","[""好我"",""坏我"",""坏他"",""好他""]","[""强我"",""弱我"",""弱他"",""强他""]","","","","","","","","yes","","","","","","","","","SRET","EW_formal","","key","j","16.65274725274751","768","428","朋友","廉正","Positive","morality","","","","","","","","","","",""
"661","","f","psychophysics","26","152740","0.0-7.0-3.0-0.12","7","7","7","7","6","5","5","5","5","5","5","2","1","2","2","2","2","2","2","5","5","5","5","5","5","5","5","4","5","8","7","8","7","8","6","8","9","8","7","7","7","7","7","7","6","1","7","7","1","7","6","7","7","7","7","7","7","7","7","7","7","7","7","7","7","7","7","7","7","7","6","7","7","7","7","7","7","7","7","633775896922161152","唐","289","Male","[""好我"",""坏我"",""坏他"",""好他""]","[""强我"",""弱我"",""弱他"",""强他""]","","","","","","","","no","","","","","","","","","SRET","EW_formal","","key","f","16.65252525252531","768","428","朋友","诡诈","Negative","morality","","","","","","","","","","",""
"870","","f","psychophysics","27","154612","0.0-7.0-3.0-0.13","7","7","7","7","6","5","5","5","5","5","5","2","1","2","2","2","2","2","2","5","5","5","5","5","5","5","5","4","5","8","7","8","7","8","6","8","9","8","7","7","7","7","7","7","6","1","7","7","1","7","6","7","7","7","7","7","7","7","7","7","7","7","7","7","7","7","7","7","7","7","6","7","7","7","7","7","7","7","7","633775896922161152","唐","289","Male","[""好我"",""坏我"",""坏他"",""好他""]","[""强我"",""弱我"",""弱他"",""强他""]","","","","","","","","no","","","","","","","","","SRET","EW_formal","","key","f","16.65446428571418","768","428","朋友","不仁","Negative","morality","","","","","","","","","","",""
"895","","f","psychophysics","28","156508","0.0-7.0-3.0-0.14","7","7","7","7","6","5","5","5","5","5","5","2","1","2","2","2","2","2","2","5","5","5","5","5","5","5","5","4","5","8","7","8","7","8","6","8","9","8","7","7","7","7","7","7","6","1","7","7","1","7","6","7","7","7","7","7","7","7","7","7","7","7","7","7","7","7","7","7","7","7","6","7","7","7","7","7","7","7","7","633775896922161152","唐","289","Male","[""好我"",""坏我"",""坏他"",""好他""]","[""强我"",""弱我"",""弱他"",""强他""]","","","","","","","","no","","","","","","","","","SRET","EW_formal","","key","f","16.652678571428364","768","428","朋友","刻薄","Negative","morality","","","","","","","","","","",""
"655","","j","psychophysics","29","158164","0.0-7.0-3.0-0.15","7","7","7","7","6","5","5","5","5","5","5","2","1","2","2","2","2","2","2","5","5","5","5","5","5","5","5","4","5","8","7","8","7","8","6","8","9","8","7","7","7","7","7","7","6","1","7","7","1","7","6","7","7","7","7","7","7","7","7","7","7","7","7","7","7","7","7","7","7","7","6","7","7","7","7","7","7","7","7","633775896922161152","唐","289","Male","[""好我"",""坏我"",""坏他"",""好他""]","[""强我"",""弱我"",""弱他"",""强他""]","","","","","","","","yes","","","","","","","","","SRET","EW_formal","","key","j","16.651515151515152","768","428","朋友","孝顺","Positive","morality","","","","","","","","","","",""
"855","","j","psychophysics","30","160020","0.0-7.0-3.0-0.16","7","7","7","7","6","5","5","5","5","5","5","2","1","2","2","2","2","2","2","5","5","5","5","5","5","5","5","4","5","8","7","8","7","8","6","8","9","8","7","7","7","7","7","7","6","1","7","7","1","7","6","7","7","7","7","7","7","7","7","7","7","7","7","7","7","7","7","7","7","7","6","7","7","7","7","7","7","7","7","633775896922161152","唐","289","Male","[""好我"",""坏我"",""坏他"",""好他""]","[""强我"",""弱我"",""弱他"",""强他""]","","","","","","","","yes","","","","","","","","","SRET","EW_formal","","key","j","16.64818181818198","768","428","朋友","懂行","Positive","ability","","","","","","","","","","",""
"1118","","f","psychophysics","31","162140","0.0-7.0-3.0-0.17","7","7","7","7","6","5","5","5","5","5","5","2","1","2","2","2","2","2","2","5","5","5","5","5","5","5","5","4","5","8","7","8","7","8","6","8","9","8","7","7","7","7","7","7","6","1","7","7","1","7","6","7","7","7","7","7","7","7","7","7","7","7","7","7","7","7","7","7","7","7","6","7","7","7","7","7","7","7","7","633775896922161152","唐","289","Male","[""好我"",""坏我"",""坏他"",""好他""]","[""强我"",""弱我"",""弱他"",""强他""]","","","","","","","","no","","","","","","","","","SRET","EW_formal","","key","f","16.654330708661462","768","428","朋友","势利","Negative","morality","","","","","","","","","","",""
"662","","j","psychophysics","32","163804","0.0-7.0-3.0-0.18","7","7","7","7","6","5","5","5","5","5","5","2","1","2","2","2","2","2","2","5","5","5","5","5","5","5","5","4","5","8","7","8","7","8","6","8","9","8","7","7","7","7","7","7","6","1","7","7","1","7","6","7","7","7","7","7","7","7","7","7","7","7","7","7","7","7","7","7","7","7","6","7","7","7","7","7","7","7","7","633775896922161152","唐","289","Male","[""好我"",""坏我"",""坏他"",""好他""]","[""强我"",""弱我"",""弱他"",""强他""]","","","","","","","","yes","","","","","","","","","SRET","EW_formal","","key","j","16.650505050504993","768","428","朋友","坚持","Positive","ability","","","","","","","","","","",""
"1086","","j","psychophysics","33","165892","0.0-7.0-3.0-0.19","7","7","7","7","6","5","5","5","5","5","5","2","1","2","2","2","2","2","2","5","5","5","5","5","5","5","5","4","5","8","7","8","7","8","6","8","9","8","7","7","7","7","7","7","6","1","7","7","1","7","6","7","7","7","7","7","7","7","7","7","7","7","7","7","7","7","7","7","7","7","6","7","7","7","7","7","7","7","7","633775896922161152","唐","289","Male","[""好我"",""坏我"",""坏他"",""好他""]","[""强我"",""弱我"",""弱他"",""强他""]","","","","","","","","yes","","","","","","","","","SRET","EW_formal","","key","j","16.65161290322571","768","428","朋友","热心","Positive","morality","","","","","","","","","","",""
"1031","","j","psychophysics","34","167924","0.0-7.0-3.0-0.20","7","7","7","7","6","5","5","5","5","5","5","2","1","2","2","2","2","2","2","5","5","5","5","5","5","5","5","4","5","8","7","8","7","8","6","8","9","8","7","7","7","7","7","7","6","1","7","7","1","7","6","7","7","7","7","7","7","7","7","7","7","7","7","7","7","7","7","7","7","7","6","7","7","7","7","7","7","7","7","633775896922161152","唐","289","Male","[""好我"",""坏我"",""坏他"",""好他""]","[""强我"",""弱我"",""弱他"",""强他""]","","","","","","","","yes","","","","","","","","","SRET","EW_formal","","key","j","16.649586776859554","768","428","自己","侠义","Positive","morality","","","","","","","","","","",""
"791","","j","psychophysics","35","169716","0.0-7.0-3.0-0.21","7","7","7","7","6","5","5","5","5","5","5","2","1","2","2","2","2","2","2","5","5","5","5","5","5","5","5","4","5","8","7","8","7","8","6","8","9","8","7","7","7","7","7","7","6","1","7","7","1","7","6","7","7","7","7","7","7","7","7","7","7","7","7","7","7","7","7","7","7","7","6","7","7","7","7","7","7","7","7","633775896922161152","唐","289","Male","[""好我"",""坏我"",""坏他"",""好他""]","[""强我"",""弱我"",""弱他"",""强他""]","","","","","","","","yes","","","","","","","","","SRET","EW_formal","","key","j","16.65233644859802","768","428","朋友","远见","Positive","ability","","","","","","","","","","",""
"934","","f","psychophysics","36","171652","0.0-7.0-3.0-0.22","7","7","7","7","6","5","5","5","5","5","5","2","1","2","2","2","2","2","2","5","5","5","5","5","5","5","5","4","5","8","7","8","7","8","6","8","9","8","7","7","7","7","7","7","6","1","7","7","1","7","6","7","7","7","7","7","7","7","7","7","7","7","7","7","7","7","7","7","7","7","6","7","7","7","7","7","7","7","7","633775896922161152","唐","289","Male","[""好我"",""坏我"",""坏他"",""好他""]","[""强我"",""弱我"",""弱他"",""强他""]","","","","","","","","no","","","","","","","","","SRET","EW_formal","","key","f","16.65391304347836","768","428","自己","业余","Negative","ability","","","","","","","","","","",""
"640","","j","psychophysics","37","173293","0.0-7.0-3.0-0.23","7","7","7","7","6","5","5","5","5","5","5","2","1","2","2","2","2","2","2","5","5","5","5","5","5","5","5","4","5","8","7","8","7","8","6","8","9","8","7","7","7","7","7","7","6","1","7","7","1","7","6","7","7","7","7","7","7","7","7","7","7","7","7","7","7","7","7","7","7","7","6","7","7","7","7","7","7","7","7","633775896922161152","唐","289","Male","[""好我"",""坏我"",""坏他"",""好他""]","[""强我"",""弱我"",""弱他"",""强他""]","","","","","","","","yes","","","","","","","","","SRET","EW_formal","","key","j","16.64639175257744","768","428","朋友","努力","Positive","ability","","","","","","","","","","",""
"669","","f","psychophysics","38","174964","0.0-7.0-3.0-0.24","7","7","7","7","6","5","5","5","5","5","5","2","1","2","2","2","2","2","2","5","5","5","5","5","5","5","5","4","5","8","7","8","7","8","6","8","9","8","7","7","7","7","7","7","6","1","7","7","1","7","6","7","7","7","7","7","7","7","7","7","7","7","7","7","7","7","7","7","7","7","6","7","7","7","7","7","7","7","7","633775896922161152","唐","289","Male","[""好我"",""坏我"",""坏他"",""好他""]","[""强我"",""弱我"",""弱他"",""强他""]","","","","","","","","no","","","","","","","","","SRET","EW_formal","","key","f","16.654000000000234","768","428","朋友","无知","Negative","ability","","","","","","","","","","",""
"702","","f","psychophysics","39","176668","0.0-7.0-3.0-0.25","7","7","7","7","6","5","5","5","5","5","5","2","1","2","2","2","2","2","2","5","5","5","5","5","5","5","5","4","5","8","7","8","7","8","6","8","9","8","7","7","7","7","7","7","6","1","7","7","1","7","6","7","7","7","7","7","7","7","7","7","7","7","7","7","7","7","7","7","7","7","6","7","7","7","7","7","7","7","7","633775896922161152","唐","289","Male","[""好我"",""坏我"",""坏他"",""好他""]","[""强我"",""弱我"",""弱他"",""强他""]","","","","","","","","no","","","","","","","","","SRET","EW_formal","","key","f","16.64851485148515","768","428","朋友","盲目","Negative","ability","","","","","","","","","","",""
"905","","j","psychophysics","40","178574","0.0-7.0-3.0-0.26","7","7","7","7","6","5","5","5","5","5","5","2","1","2","2","2","2","2","2","5","5","5","5","5","5","5","5","4","5","8","7","8","7","8","6","8","9","8","7","7","7","7","7","7","6","1","7","7","1","7","6","7","7","7","7","7","7","7","7","7","7","7","7","7","7","7","7","7","7","7","6","7","7","7","7","7","7","7","7","633775896922161152","唐","289","Male","[""好我"",""坏我"",""坏他"",""好他""]","[""强我"",""弱我"",""弱他"",""强他""]","","","","","","","","yes","","","","","","","","","SRET","EW_formal","","key","j","16.652631578947318","768","428","自己","扎实","Positive","ability","","","","","","","","","","",""
"693","","f","psychophysics","41","180268","0.0-7.0-3.0-0.27","7","7","7","7","6","5","5","5","5","5","5","2","1","2","2","2","2","2","2","5","5","5","5","5","5","5","5","4","5","8","7","8","7","8","6","8","9","8","7","7","7","7","7","7","6","1","7","7","1","7","6","7","7","7","7","7","7","7","7","7","7","7","7","7","7","7","7","7","7","7","6","7","7","7","7","7","7","7","7","633775896922161152","唐","289","Male","[""好我"",""坏我"",""坏他"",""好他""]","[""强我"",""弱我"",""弱他"",""强他""]","","","","","","","","no","","","","","","","","","SRET","EW_formal","","key","f","16.652999999999885","768","428","自己","拖拉","Negative","ability","","","","","","","","","","",""
"616","","j","psychophysics","42","181884","0.0-7.0-3.0-0.28","7","7","7","7","6","5","5","5","5","5","5","2","1","2","2","2","2","2","2","5","5","5","5","5","5","5","5","4","5","8","7","8","7","8","6","8","9","8","7","7","7","7","7","7","6","1","7","7","1","7","6","7","7","7","7","7","7","7","7","7","7","7","7","7","7","7","7","7","7","7","6","7","7","7","7","7","7","7","7","633775896922161152","唐","289","Male","[""好我"",""坏我"",""坏他"",""好他""]","[""强我"",""弱我"",""弱他"",""强他""]","","","","","","","","yes","","","","","","","","","SRET","EW_formal","","key","j","16.65625","768","428","朋友","高明","Positive","ability","","","","","","","","","","",""
"591","","j","psychophysics","43","183476","0.0-7.0-3.0-0.29","7","7","7","7","6","5","5","5","5","5","5","2","1","2","2","2","2","2","2","5","5","5","5","5","5","5","5","4","5","8","7","8","7","8","6","8","9","8","7","7","7","7","7","7","6","1","7","7","1","7","6","7","7","7","7","7","7","7","7","7","7","7","7","7","7","7","7","7","7","7","6","7","7","7","7","7","7","7","7","633775896922161152","唐","289","Male","[""好我"",""坏我"",""坏他"",""好他""]","[""强我"",""弱我"",""弱他"",""强他""]","","","","","","","","yes","","","","","","","","","SRET","EW_formal","","key","j","16.65157894736836","768","428","朋友","守时","Positive","morality","","","","","","","","","","",""
"1287","","j","psychophysics","44","185764","0.0-7.0-3.0-0.30","7","7","7","7","6","5","5","5","5","5","5","2","1","2","2","2","2","2","2","5","5","5","5","5","5","5","5","4","5","8","7","8","7","8","6","8","9","8","7","7","7","7","7","7","6","1","7","7","1","7","6","7","7","7","7","7","7","7","7","7","7","7","7","7","7","7","7","7","7","7","6","7","7","7","7","7","7","7","7","633775896922161152","唐","289","Male","[""好我"",""坏我"",""坏他"",""好他""]","[""强我"",""弱我"",""弱他"",""强他""]","","","","","","","","yes","","","","","","","","","SRET","EW_formal","","key","j","16.650000000000173","768","428","自己","利落","Positive","ability","","","","","","","","","","",""
"623","","f","psychophysics","45","187388","0.0-7.0-3.0-0.31","7","7","7","7","6","5","5","5","5","5","5","2","1","2","2","2","2","2","2","5","5","5","5","5","5","5","5","4","5","8","7","8","7","8","6","8","9","8","7","7","7","7","7","7","6","1","7","7","1","7","6","7","7","7","7","7","7","7","7","7","7","7","7","7","7","7","7","7","7","7","6","7","7","7","7","7","7","7","7","633775896922161152","唐","289","Male","[""好我"",""坏我"",""坏他"",""好他""]","[""强我"",""弱我"",""弱他"",""强他""]","","","","","","","","no","","","","","","","","","SRET","EW_formal","","key","f","16.65463917525773","768","428","自己","无耻","Negative","morality","","","","","","","","","","",""
"758","","f","psychophysics","46","189148","0.0-7.0-3.0-0.32","7","7","7","7","6","5","5","5","5","5","5","2","1","2","2","2","2","2","2","5","5","5","5","5","5","5","5","4","5","8","7","8","7","8","6","8","9","8","7","7","7","7","7","7","6","1","7","7","1","7","6","7","7","7","7","7","7","7","7","7","7","7","7","7","7","7","7","7","7","7","6","7","7","7","7","7","7","7","7","633775896922161152","唐","289","Male","[""好我"",""坏我"",""坏他"",""好他""]","[""强我"",""弱我"",""弱他"",""强他""]","","","","","","","","no","","","","","","","","","SRET","EW_formal","","key","f","16.649523809523643","768","428","朋友","低劣","Negative","morality","","","","","","","","","","",""
"1445","","j","psychophysics","47","191596","0.0-7.0-3.0-0.33","7","7","7","7","6","5","5","5","5","5","5","2","1","2","2","2","2","2","2","5","5","5","5","5","5","5","5","4","5","8","7","8","7","8","6","8","9","8","7","7","7","7","7","7","6","1","7","7","1","7","6","7","7","7","7","7","7","7","7","7","7","7","7","7","7","7","7","7","7","7","6","7","7","7","7","7","7","7","7","633775896922161152","唐","289","Male","[""好我"",""坏我"",""坏他"",""好他""]","[""强我"",""弱我"",""弱他"",""强他""]","","","","","","","","yes","","","","","","","","","SRET","EW_formal","","key","j","16.651369863013738","768","428","朋友","逞强","Negative","ability","","","","","","","","","","",""
"1301","","j","psychophysics","48","193900","0.0-7.0-3.0-0.34","7","7","7","7","6","5","5","5","5","5","5","2","1","2","2","2","2","2","2","5","5","5","5","5","5","5","5","4","5","8","7","8","7","8","6","8","9","8","7","7","7","7","7","7","6","1","7","7","1","7","6","7","7","7","7","7","7","7","7","7","7","7","7","7","7","7","7","7","7","7","6","7","7","7","7","7","7","7","7","633775896922161152","唐","289","Male","[""好我"",""坏我"",""坏他"",""好他""]","[""强我"",""弱我"",""弱他"",""强他""]","","","","","","","","yes","","","","","","","","","SRET","EW_formal","","key","j","16.64963503649635","768","428","自己","干练","Positive","ability","","","","","","","","","","",""
"1031","","j","psychophysics","49","195932","0.0-7.0-3.0-0.35","7","7","7","7","6","5","5","5","5","5","5","2","1","2","2","2","2","2","2","5","5","5","5","5","5","5","5","4","5","8","7","8","7","8","6","8","9","8","7","7","7","7","7","7","6","1","7","7","1","7","6","7","7","7","7","7","7","7","7","7","7","7","7","7","7","7","7","7","7","7","6","7","7","7","7","7","7","7","7","633775896922161152","唐","289","Male","[""好我"",""坏我"",""坏他"",""好他""]","[""强我"",""弱我"",""弱他"",""强他""]","","","","","","","","yes","","","","","","","","","SRET","EW_formal","","key","j","16.65123966942139","768","428","朋友","博识","Positive","ability","","","","","","","","","","",""
"695","","j","psychophysics","50","197628","0.0-7.0-3.0-0.36","7","7","7","7","6","5","5","5","5","5","5","2","1","2","2","2","2","2","2","5","5","5","5","5","5","5","5","4","5","8","7","8","7","8","6","8","9","8","7","7","7","7","7","7","6","1","7","7","1","7","6","7","7","7","7","7","7","7","7","7","7","7","7","7","7","7","7","7","7","7","6","7","7","7","7","7","7","7","7","633775896922161152","唐","289","Male","[""好我"",""坏我"",""坏他"",""好他""]","[""强我"",""弱我"",""弱他"",""强他""]","","","","","","","","yes","","","","","","","","","SRET","EW_formal","","key","j","16.652475247524983","768","428","自己","果决","Positive","ability","","","","","","","","","","",""
"654","","f","psychophysics","51","199284","0.0-7.0-3.0-0.37","7","7","7","7","6","5","5","5","5","5","5","2","1","2","2","2","2","2","2","5","5","5","5","5","5","5","5","4","5","8","7","8","7","8","6","8","9","8","7","7","7","7","7","7","6","1","7","7","1","7","6","7","7","7","7","7","7","7","7","7","7","7","7","7","7","7","7","7","7","7","6","7","7","7","7","7","7","7","7","633775896922161152","唐","289","Male","[""好我"",""坏我"",""坏他"",""好他""]","[""强我"",""弱我"",""弱他"",""强他""]","","","","","","","","no","","","","","","","","","SRET","EW_formal","","key","f","16.648979591836795","768","428","自己","缺德","Negative","morality","","","","","","","","","","",""
"719","","j","psychophysics","52","201004","0.0-7.0-3.0-0.38","7","7","7","7","6","5","5","5","5","5","5","2","1","2","2","2","2","2","2","5","5","5","5","5","5","5","5","4","5","8","7","8","7","8","6","8","9","8","7","7","7","7","7","7","6","1","7","7","1","7","6","7","7","7","7","7","7","7","7","7","7","7","7","7","7","7","7","7","7","7","6","7","7","7","7","7","7","7","7","633775896922161152","唐","289","Male","[""好我"",""坏我"",""坏他"",""好他""]","[""强我"",""弱我"",""弱他"",""强他""]","","","","","","","","yes","","","","","","","","","SRET","EW_formal","","key","j","16.653398058252314","768","428","自己","仁厚","Positive","morality","","","","","","","","","","",""
"655","","f","psychophysics","53","202660","0.0-7.0-3.0-0.39","7","7","7","7","6","5","5","5","5","5","5","2","1","2","2","2","2","2","2","5","5","5","5","5","5","5","5","4","5","8","7","8","7","8","6","8","9","8","7","7","7","7","7","7","6","1","7","7","1","7","6","7","7","7","7","7","7","7","7","7","7","7","7","7","7","7","7","7","7","7","6","7","7","7","7","7","7","7","7","633775896922161152","唐","289","Male","[""好我"",""坏我"",""坏他"",""好他""]","[""强我"",""弱我"",""弱他"",""强他""]","","","","","","","","no","","","","","","","","","SRET","EW_formal","","key","f","16.646938775510442","768","428","自己","犹豫","Negative","ability","","","","","","","","","","",""
"799","","j","psychophysics","54","204460","0.0-7.0-3.0-0.40","7","7","7","7","6","5","5","5","5","5","5","2","1","2","2","2","2","2","2","5","5","5","5","5","5","5","5","4","5","8","7","8","7","8","6","8","9","8","7","7","7","7","7","7","6","1","7","7","1","7","6","7","7","7","7","7","7","7","7","7","7","7","7","7","7","7","7","7","7","7","6","7","7","7","7","7","7","7","7","633775896922161152","唐","289","Male","[""好我"",""坏我"",""坏他"",""好他""]","[""强我"",""弱我"",""弱他"",""强他""]","","","","","","","","yes","","","","","","","","","SRET","EW_formal","","key","j","16.652336448598295","768","428","自己","有力","Positive","ability","","","","","","","","","","",""
"1055","","j","psychophysics","55","206517","0.0-7.0-3.0-0.41","7","7","7","7","6","5","5","5","5","5","5","2","1","2","2","2","2","2","2","5","5","5","5","5","5","5","5","4","5","8","7","8","7","8","6","8","9","8","7","7","7","7","7","7","6","1","7","7","1","7","6","7","7","7","7","7","7","7","7","7","7","7","7","7","7","7","7","7","7","7","6","7","7","7","7","7","7","7","7","633775896922161152","唐","289","Male","[""好我"",""坏我"",""坏他"",""好他""]","[""强我"",""弱我"",""弱他"",""强他""]","","","","","","","","yes","","","","","","","","","SRET","EW_formal","","key","j","16.652845528455188","768","428","朋友","勤恳","Positive","morality","","","","","","","","","","",""
"646","","f","psychophysics","56","208164","0.0-7.0-3.0-0.42","7","7","7","7","6","5","5","5","5","5","5","2","1","2","2","2","2","2","2","5","5","5","5","5","5","5","5","4","5","8","7","8","7","8","6","8","9","8","7","7","7","7","7","7","6","1","7","7","1","7","6","7","7","7","7","7","7","7","7","7","7","7","7","7","7","7","7","7","7","7","6","7","7","7","7","7","7","7","7","633775896922161152","唐","289","Male","[""好我"",""坏我"",""坏他"",""好他""]","[""强我"",""弱我"",""弱他"",""强他""]","","","","","","","","no","","","","","","","","","SRET","EW_formal","","key","f","16.647959183673468","768","428","朋友","弱智","Negative","ability","","","","","","","","","","",""
"718","","j","psychophysics","57","209884","0.0-7.0-3.0-0.43","7","7","7","7","6","5","5","5","5","5","5","2","1","2","2","2","2","2","2","5","5","5","5","5","5","5","5","4","5","8","7","8","7","8","6","8","9","8","7","7","7","7","7","7","6","1","7","7","1","7","6","7","7","7","7","7","7","7","7","7","7","7","7","7","7","7","7","7","7","7","6","7","7","7","7","7","7","7","7","633775896922161152","唐","289","Male","[""好我"",""坏我"",""坏他"",""好他""]","[""强我"",""弱我"",""弱他"",""强他""]","","","","","","","","yes","","","","","","","","","SRET","EW_formal","","key","j","16.653921568627567","768","428","自己","坦荡","Positive","morality","","","","","","","","","","",""
"631","","j","psychophysics","58","211516","0.0-7.0-3.0-0.44","7","7","7","7","6","5","5","5","5","5","5","2","1","2","2","2","2","2","2","5","5","5","5","5","5","5","5","4","5","8","7","8","7","8","6","8","9","8","7","7","7","7","7","7","6","1","7","7","1","7","6","7","7","7","7","7","7","7","7","7","7","7","7","7","7","7","7","7","7","7","6","7","7","7","7","7","7","7","7","633775896922161152","唐","289","Male","[""好我"",""坏我"",""坏他"",""好他""]","[""强我"",""弱我"",""弱他"",""强他""]","","","","","","","","yes","","","","","","","","","SRET","EW_formal","","key","j","16.650515463917586","768","428","自己","厚道","Positive","morality","","","","","","","","","","",""
"654","","j","psychophysics","59","213172","0.0-7.0-3.0-0.45","7","7","7","7","6","5","5","5","5","5","5","2","1","2","2","2","2","2","2","5","5","5","5","5","5","5","5","4","5","8","7","8","7","8","6","8","9","8","7","7","7","7","7","7","6","1","7","7","1","7","6","7","7","7","7","7","7","7","7","7","7","7","7","7","7","7","7","7","7","7","6","7","7","7","7","7","7","7","7","633775896922161152","唐","289","Male","[""好我"",""坏我"",""坏他"",""好他""]","[""强我"",""弱我"",""弱他"",""强他""]","","","","","","","","yes","","","","","","","","","SRET","EW_formal","","key","j","16.652040816326767","768","428","自己","好心","Positive","morality","","","","","","","","","","",""
"768","","f","psychophysics","60","214941","0.0-7.0-3.0-0.46","7","7","7","7","6","5","5","5","5","5","5","2","1","2","2","2","2","2","2","5","5","5","5","5","5","5","5","4","5","8","7","8","7","8","6","8","9","8","7","7","7","7","7","7","6","1","7","7","1","7","6","7","7","7","7","7","7","7","7","7","7","7","7","7","7","7","7","7","7","7","6","7","7","7","7","7","7","7","7","633775896922161152","唐","289","Male","[""好我"",""坏我"",""坏他"",""好他""]","[""强我"",""弱我"",""弱他"",""强他""]","","","","","","","","no","","","","","","","","","SRET","EW_formal","","key","f","16.65471698113202","768","428","朋友","虚假","Negative","morality","","","","","","","","","","",""
"798","","j","psychophysics","61","216740","0.0-7.0-3.0-0.47","7","7","7","7","6","5","5","5","5","5","5","2","1","2","2","2","2","2","2","5","5","5","5","5","5","5","5","4","5","8","7","8","7","8","6","8","9","8","7","7","7","7","7","7","6","1","7","7","1","7","6","7","7","7","7","7","7","7","7","7","7","7","7","7","7","7","7","7","7","7","6","7","7","7","7","7","7","7","7","633775896922161152","唐","289","Male","[""好我"",""坏我"",""坏他"",""好他""]","[""强我"",""弱我"",""弱他"",""强他""]","","","","","","","","yes","","","","","","","","","SRET","EW_formal","","key","j","16.65140186915899","768","428","朋友","奉献","Positive","morality","","","","","","","","","","",""
"551","","j","psychophysics","62","218292","0.0-7.0-3.0-0.48","7","7","7","7","6","5","5","5","5","5","5","2","1","2","2","2","2","2","2","5","5","5","5","5","5","5","5","4","5","8","7","8","7","8","6","8","9","8","7","7","7","7","7","7","6","1","7","7","1","7","6","7","7","7","7","7","7","7","7","7","7","7","7","7","7","7","7","7","7","7","6","7","7","7","7","7","7","7","7","633775896922161152","唐","289","Male","[""好我"",""坏我"",""坏他"",""好他""]","[""强我"",""弱我"",""弱他"",""强他""]","","","","","","","","yes","","","","","","","","","SRET","EW_formal","","key","j","16.651086956521993","768","428","朋友","中用","Positive","ability","","","","","","","","","","",""
"841","","f","psychophysics","63","220135","0.0-7.0-3.0-0.49","7","7","7","7","6","5","5","5","5","5","5","2","1","2","2","2","2","2","2","5","5","5","5","5","5","5","5","4","5","8","7","8","7","8","6","8","9","8","7","7","7","7","7","7","6","1","7","7","1","7","6","7","7","7","7","7","7","7","7","7","7","7","7","7","7","7","7","7","7","7","6","7","7","7","7","7","7","7","7","633775896922161152","唐","289","Male","[""好我"",""坏我"",""坏他"",""好他""]","[""强我"",""弱我"",""弱他"",""强他""]","","","","","","","","no","","","","","","","","","SRET","EW_formal","","key","f","16.65","768","428","朋友","窝囊","Negative","ability","","","","","","","","","","",""
"731","","j","psychophysics","64","221868","0.0-7.0-3.0-0.50","7","7","7","7","6","5","5","5","5","5","5","2","1","2","2","2","2","2","2","5","5","5","5","5","5","5","5","4","5","8","7","8","7","8","6","8","9","8","7","7","7","7","7","7","6","1","7","7","1","7","6","7","7","7","7","7","7","7","7","7","7","7","7","7","7","7","7","7","7","7","6","7","7","7","7","7","7","7","7","633775896922161152","唐","289","Male","[""好我"",""坏我"",""坏他"",""好他""]","[""强我"",""弱我"",""弱他"",""强他""]","","","","","","","","yes","","","","","","","","","SRET","EW_formal","","key","j","16.653398058252314","768","428","自己","娴熟","Positive","ability","","","","","","","","","","",""
"656","","j","psychophysics","65","223524","0.0-7.0-3.0-0.51","7","7","7","7","6","5","5","5","5","5","5","2","1","2","2","2","2","2","2","5","5","5","5","5","5","5","5","4","5","8","7","8","7","8","6","8","9","8","7","7","7","7","7","7","6","1","7","7","1","7","6","7","7","7","7","7","7","7","7","7","7","7","7","7","7","7","7","7","7","7","6","7","7","7","7","7","7","7","7","633775896922161152","唐","289","Male","[""好我"",""坏我"",""坏他"",""好他""]","[""强我"",""弱我"",""弱他"",""强他""]","","","","","","","","yes","","","","","","","","","SRET","EW_formal","","key","j","16.646938775510144","768","428","自己","清廉","Positive","morality","","","","","","","","","","",""
"534","","j","psychophysics","66","225060","0.0-7.0-3.0-0.52","7","7","7","7","6","5","5","5","5","5","5","2","1","2","2","2","2","2","2","5","5","5","5","5","5","5","5","4","5","8","7","8","7","8","6","8","9","8","7","7","7","7","7","7","6","1","7","7","1","7","6","7","7","7","7","7","7","7","7","7","7","7","7","7","7","7","7","7","7","7","6","7","7","7","7","7","7","7","7","633775896922161152","唐","289","Male","[""好我"",""坏我"",""坏他"",""好他""]","[""强我"",""弱我"",""弱他"",""强他""]","","","","","","","","yes","","","","","","","","","SRET","EW_formal","","key","j","16.653846153846153","768","428","朋友","正气","Positive","morality","","","","","","","","","","",""
"680","","j","psychophysics","67","226740","0.0-7.0-3.0-0.53","7","7","7","7","6","5","5","5","5","5","5","2","1","2","2","2","2","2","2","5","5","5","5","5","5","5","5","4","5","8","7","8","7","8","6","8","9","8","7","7","7","7","7","7","6","1","7","7","1","7","6","7","7","7","7","7","7","7","7","7","7","7","7","7","7","7","7","7","7","7","6","7","7","7","7","7","7","7","7","633775896922161152","唐","289","Male","[""好我"",""坏我"",""坏他"",""好他""]","[""强我"",""弱我"",""弱他"",""强他""]","","","","","","","","yes","","","","","","","","","SRET","EW_formal","","key","j","16.655","768","428","自己","沉着","Positive","ability","","","","","","","","","","",""
"919","","f","psychophysics","68","228660","0.0-7.0-3.0-0.54","7","7","7","7","6","5","5","5","5","5","5","2","1","2","2","2","2","2","2","5","5","5","5","5","5","5","5","4","5","8","7","8","7","8","6","8","9","8","7","7","7","7","7","7","6","1","7","7","1","7","6","7","7","7","7","7","7","7","7","7","7","7","7","7","7","7","7","7","7","7","6","7","7","7","7","7","7","7","7","633775896922161152","唐","289","Male","[""好我"",""坏我"",""坏他"",""好他""]","[""强我"",""弱我"",""弱他"",""强他""]","","","","","","","","no","","","","","","","","","SRET","EW_formal","","key","f","16.651304347826038","768","428","朋友","迟钝","Negative","ability","","","","","","","","","","",""
"670","","j","psychophysics","69","230332","0.0-7.0-3.0-0.55","7","7","7","7","6","5","5","5","5","5","5","2","1","2","2","2","2","2","2","5","5","5","5","5","5","5","5","4","5","8","7","8","7","8","6","8","9","8","7","7","7","7","7","7","6","1","7","7","1","7","6","7","7","7","7","7","7","7","7","7","7","7","7","7","7","7","7","7","7","7","6","7","7","7","7","7","7","7","7","633775896922161152","唐","289","Male","[""好我"",""坏我"",""坏他"",""好他""]","[""强我"",""弱我"",""弱他"",""强他""]","","","","","","","","yes","","","","","","","","","SRET","EW_formal","","key","j","16.655555555555498","768","428","自己","慈悲","Positive","morality","","","","","","","","","","",""
"687","","f","psychophysics","70","232020","0.0-7.0-3.0-0.56","7","7","7","7","6","5","5","5","5","5","5","2","1","2","2","2","2","2","2","5","5","5","5","5","5","5","5","4","5","8","7","8","7","8","6","8","9","8","7","7","7","7","7","7","6","1","7","7","1","7","6","7","7","7","7","7","7","7","7","7","7","7","7","7","7","7","7","7","7","7","6","7","7","7","7","7","7","7","7","633775896922161152","唐","289","Male","[""好我"",""坏我"",""坏他"",""好他""]","[""强我"",""弱我"",""弱他"",""强他""]","","","","","","","","no","","","","","","","","","SRET","EW_formal","","key","f","16.653999999999943","768","428","自己","新手","Negative","ability","","","","","","","","","","",""
"551","","j","psychophysics","71","233572","0.0-7.0-3.0-0.57","7","7","7","7","6","5","5","5","5","5","5","2","1","2","2","2","2","2","2","5","5","5","5","5","5","5","5","4","5","8","7","8","7","8","6","8","9","8","7","7","7","7","7","7","6","1","7","7","1","7","6","7","7","7","7","7","7","7","7","7","7","7","7","7","7","7","7","7","7","7","6","7","7","7","7","7","7","7","7","633775896922161152","唐","289","Male","[""好我"",""坏我"",""坏他"",""好他""]","[""强我"",""弱我"",""弱他"",""强他""]","","","","","","","","yes","","","","","","","","","SRET","EW_formal","","key","j","16.655913978494624","768","428","朋友","慷慨","Positive","morality","","","","","","","","","","",""
"566","","j","psychophysics","72","235140","0.0-7.0-3.0-0.58","7","7","7","7","6","5","5","5","5","5","5","2","1","2","2","2","2","2","2","5","5","5","5","5","5","5","5","4","5","8","7","8","7","8","6","8","9","8","7","7","7","7","7","7","6","1","7","7","1","7","6","7","7","7","7","7","7","7","7","7","7","7","7","7","7","7","7","7","7","7","6","7","7","7","7","7","7","7","7","633775896922161152","唐","289","Male","[""好我"",""坏我"",""坏他"",""好他""]","[""强我"",""弱我"",""弱他"",""强他""]","","","","","","","","yes","","","","","","","","","SRET","EW_formal","","key","j","16.648387096774382","768","428","自己","毅力","Positive","ability","","","","","","","","","","",""
"991","","f","psychophysics","73","237132","0.0-7.0-3.0-0.59","7","7","7","7","6","5","5","5","5","5","5","2","1","2","2","2","2","2","2","5","5","5","5","5","5","5","5","4","5","8","7","8","7","8","6","8","9","8","7","7","7","7","7","7","6","1","7","7","1","7","6","7","7","7","7","7","7","7","7","7","7","7","7","7","7","7","7","7","7","7","6","7","7","7","7","7","7","7","7","633775896922161152","唐","289","Male","[""好我"",""坏我"",""坏他"",""好他""]","[""强我"",""弱我"",""弱他"",""强他""]","","","","","","","","no","","","","","","","","","SRET","EW_formal","","key","f","16.65084745762727","768","428","朋友","无敌","Positive","ability","","","","","","","","","","",""
"null","","null","psychophysics","74","240133","0.0-7.0-3.0-0.60","7","7","7","7","6","5","5","5","5","5","5","2","1","2","2","2","2","2","2","5","5","5","5","5","5","5","5","4","5","8","7","8","7","8","6","8","9","8","7","7","7","7","7","7","6","1","7","7","1","7","6","7","7","7","7","7","7","7","7","7","7","7","7","7","7","7","7","7","7","7","6","7","7","7","7","7","7","7","7","633775896922161152","唐","289","Male","[""好我"",""坏我"",""坏他"",""好他""]","[""强我"",""弱我"",""弱他"",""强他""]","","","","","","","","","","","","","","","","","SRET","EW_formal","","key","null","16.651111111111177","768","428","自己","依靠","Negative","ability","","","","","","","","","","",""
"910","","f","psychophysics","75","242045","0.0-7.0-3.0-0.61","7","7","7","7","6","5","5","5","5","5","5","2","1","2","2","2","2","2","2","5","5","5","5","5","5","5","5","4","5","8","7","8","7","8","6","8","9","8","7","7","7","7","7","7","6","1","7","7","1","7","6","7","7","7","7","7","7","7","7","7","7","7","7","7","7","7","7","7","7","7","6","7","7","7","7","7","7","7","7","633775896922161152","唐","289","Male","[""好我"",""坏我"",""坏他"",""好他""]","[""强我"",""弱我"",""弱他"",""强他""]","","","","","","","","no","","","","","","","","","SRET","EW_formal","","key","f","16.652212389380633","768","428","自己","短浅","Negative","ability","","","","","","","","","","",""
"1078","","f","psychophysics","76","244124","0.0-7.0-3.0-0.62","7","7","7","7","6","5","5","5","5","5","5","2","1","2","2","2","2","2","2","5","5","5","5","5","5","5","5","4","5","8","7","8","7","8","6","8","9","8","7","7","7","7","7","7","6","1","7","7","1","7","6","7","7","7","7","7","7","7","7","7","7","7","7","7","7","7","7","7","7","7","6","7","7","7","7","7","7","7","7","633775896922161152","唐","289","Male","[""好我"",""坏我"",""坏他"",""好他""]","[""强我"",""弱我"",""弱他"",""强他""]","","","","","","","","no","","","","","","","","","SRET","EW_formal","","key","f","16.654838709677513","768","428","朋友","拖延","Negative","ability","","","","","","","","","","",""
"790","","f","psychophysics","77","245916","0.0-7.0-3.0-0.63","7","7","7","7","6","5","5","5","5","5","5","2","1","2","2","2","2","2","2","5","5","5","5","5","5","5","5","4","5","8","7","8","7","8","6","8","9","8","7","7","7","7","7","7","6","1","7","7","1","7","6","7","7","7","7","7","7","7","7","7","7","7","7","7","7","7","7","7","7","7","6","7","7","7","7","7","7","7","7","633775896922161152","唐","289","Male","[""好我"",""坏我"",""坏他"",""好他""]","[""强我"",""弱我"",""弱他"",""强他""]","","","","","","","","no","","","","","","","","","SRET","EW_formal","","key","f","16.651401869158715","768","428","朋友","卑鄙","Negative","morality","","","","","","","","","","",""
"719","","f","psychophysics","78","247636","0.0-7.0-3.0-0.64","7","7","7","7","6","5","5","5","5","5","5","2","1","2","2","2","2","2","2","5","5","5","5","5","5","5","5","4","5","8","7","8","7","8","6","8","9","8","7","7","7","7","7","7","6","1","7","7","1","7","6","7","7","7","7","7","7","7","7","7","7","7","7","7","7","7","7","7","7","7","6","7","7","7","7","7","7","7","7","633775896922161152","唐","289","Male","[""好我"",""坏我"",""坏他"",""好他""]","[""强我"",""弱我"",""弱他"",""强他""]","","","","","","","","no","","","","","","","","","SRET","EW_formal","","key","f","16.647058823529413","768","428","自己","粗心","Negative","ability","","","","","","","","","","",""
"798","","f","psychophysics","79","249436","0.0-7.0-3.0-0.65","7","7","7","7","6","5","5","5","5","5","5","2","1","2","2","2","2","2","2","5","5","5","5","5","5","5","5","4","5","8","7","8","7","8","6","8","9","8","7","7","7","7","7","7","6","1","7","7","1","7","6","7","7","7","7","7","7","7","7","7","7","7","7","7","7","7","7","7","7","7","6","7","7","7","7","7","7","7","7","633775896922161152","唐","289","Male","[""好我"",""坏我"",""坏他"",""好他""]","[""强我"",""弱我"",""弱他"",""强他""]","","","","","","","","no","","","","","","","","","SRET","EW_formal","","key","f","16.65140186915899","768","428","朋友","无赖","Negative","morality","","","","","","","","","","",""
"551","","j","psychophysics","80","250987","0.0-7.0-3.0-0.66","7","7","7","7","6","5","5","5","5","5","5","2","1","2","2","2","2","2","2","5","5","5","5","5","5","5","5","4","5","8","7","8","7","8","6","8","9","8","7","7","7","7","7","7","6","1","7","7","1","7","6","7","7","7","7","7","7","7","7","7","7","7","7","7","7","7","7","7","7","7","6","7","7","7","7","7","7","7","7","633775896922161152","唐","289","Male","[""好我"",""坏我"",""坏他"",""好他""]","[""强我"",""弱我"",""弱他"",""强他""]","","","","","","","","yes","","","","","","","","","SRET","EW_formal","","key","j","16.652688172043135","768","428","自己","仗义","Positive","morality","","","","","","","","","","",""
"591","","j","psychophysics","81","252580","0.0-7.0-3.0-0.67","7","7","7","7","6","5","5","5","5","5","5","2","1","2","2","2","2","2","2","5","5","5","5","5","5","5","5","4","5","8","7","8","7","8","6","8","9","8","7","7","7","7","7","7","6","1","7","7","1","7","6","7","7","7","7","7","7","7","7","7","7","7","7","7","7","7","7","7","7","7","6","7","7","7","7","7","7","7","7","633775896922161152","唐","289","Male","[""好我"",""坏我"",""坏他"",""好他""]","[""强我"",""弱我"",""弱他"",""强他""]","","","","","","","","yes","","","","","","","","","SRET","EW_formal","","key","j","16.655319148935924","768","428","自己","高洁","Positive","morality","","","","","","","","","","",""
"671","","f","psychophysics","82","254251","0.0-7.0-3.0-0.68","7","7","7","7","6","5","5","5","5","5","5","2","1","2","2","2","2","2","2","5","5","5","5","5","5","5","5","4","5","8","7","8","7","8","6","8","9","8","7","7","7","7","7","7","6","1","7","7","1","7","6","7","7","7","7","7","7","7","7","7","7","7","7","7","7","7","7","7","7","7","6","7","7","7","7","7","7","7","7","633775896922161152","唐","289","Male","[""好我"",""坏我"",""坏他"",""好他""]","[""强我"",""弱我"",""弱他"",""强他""]","","","","","","","","no","","","","","","","","","SRET","EW_formal","","key","f","16.653999999999943","768","428","朋友","怠惰","Negative","ability","","","","","","","","","","",""
"1183","","j","psychophysics","83","256436","0.0-7.0-3.0-0.69","7","7","7","7","6","5","5","5","5","5","5","2","1","2","2","2","2","2","2","5","5","5","5","5","5","5","5","4","5","8","7","8","7","8","6","8","9","8","7","7","7","7","7","7","6","1","7","7","1","7","6","7","7","7","7","7","7","7","7","7","7","7","7","7","7","7","7","7","7","7","6","7","7","7","7","7","7","7","7","633775896922161152","唐","289","Male","[""好我"",""坏我"",""坏他"",""好他""]","[""强我"",""弱我"",""弱他"",""强他""]","","","","","","","","yes","","","","","","","","","SRET","EW_formal","","key","j","16.65","768","428","朋友","刻苦","Positive","ability","","","","","","","","","","",""
"846","","f","psychophysics","84","258284","0.0-7.0-3.0-0.70","7","7","7","7","6","5","5","5","5","5","5","2","1","2","2","2","2","2","2","5","5","5","5","5","5","5","5","4","5","8","7","8","7","8","6","8","9","8","7","7","7","7","7","7","6","1","7","7","1","7","6","7","7","7","7","7","7","7","7","7","7","7","7","7","7","7","7","7","7","7","6","7","7","7","7","7","7","7","7","633775896922161152","唐","289","Male","[""好我"",""坏我"",""坏他"",""好他""]","[""强我"",""弱我"",""弱他"",""强他""]","","","","","","","","no","","","","","","","","","SRET","EW_formal","","key","f","16.651818181818022","768","428","自己","才尽","Negative","ability","","","","","","","","","","",""
"639","","f","psychophysics","85","259924","0.0-7.0-3.0-0.71","7","7","7","7","6","5","5","5","5","5","5","2","1","2","2","2","2","2","2","5","5","5","5","5","5","5","5","4","5","8","7","8","7","8","6","8","9","8","7","7","7","7","7","7","6","1","7","7","1","7","6","7","7","7","7","7","7","7","7","7","7","7","7","7","7","7","7","7","7","7","6","7","7","7","7","7","7","7","7","633775896922161152","唐","289","Male","[""好我"",""坏我"",""坏他"",""好他""]","[""强我"",""弱我"",""弱他"",""强他""]","","","","","","","","no","","","","","","","","","SRET","EW_formal","","key","f","16.65463917525773","768","428","自己","贪腐","Negative","morality","","","","","","","","","","",""
"759","","f","psychophysics","86","261684","0.0-7.0-3.0-0.72","7","7","7","7","6","5","5","5","5","5","5","2","1","2","2","2","2","2","2","5","5","5","5","5","5","5","5","4","5","8","7","8","7","8","6","8","9","8","7","7","7","7","7","7","6","1","7","7","1","7","6","7","7","7","7","7","7","7","7","7","7","7","7","7","7","7","7","7","7","7","6","7","7","7","7","7","7","7","7","633775896922161152","唐","289","Male","[""好我"",""坏我"",""坏他"",""好他""]","[""强我"",""弱我"",""弱他"",""强他""]","","","","","","","","no","","","","","","","","","SRET","EW_formal","","key","f","16.652380952380952","768","428","自己","草率","Negative","ability","","","","","","","","","","",""
"878","","f","psychophysics","87","263563","0.0-7.0-3.0-0.73","7","7","7","7","6","5","5","5","5","5","5","2","1","2","2","2","2","2","2","5","5","5","5","5","5","5","5","4","5","8","7","8","7","8","6","8","9","8","7","7","7","7","7","7","6","1","7","7","1","7","6","7","7","7","7","7","7","7","7","7","7","7","7","7","7","7","7","7","7","7","6","7","7","7","7","7","7","7","7","633775896922161152","唐","289","Male","[""好我"",""坏我"",""坏他"",""好他""]","[""强我"",""弱我"",""弱他"",""强他""]","","","","","","","","no","","","","","","","","","SRET","EW_formal","","key","f","16.647321428571427","768","428","朋友","腐败","Negative","morality","","","","","","","","","","",""
"662","","j","psychophysics","88","265228","0.0-7.0-3.0-0.74","7","7","7","7","6","5","5","5","5","5","5","2","1","2","2","2","2","2","2","5","5","5","5","5","5","5","5","4","5","8","7","8","7","8","6","8","9","8","7","7","7","7","7","7","6","1","7","7","1","7","6","7","7","7","7","7","7","7","7","7","7","7","7","7","7","7","7","7","7","7","6","7","7","7","7","7","7","7","7","633775896922161152","唐","289","Male","[""好我"",""坏我"",""坏他"",""好他""]","[""强我"",""弱我"",""弱他"",""强他""]","","","","","","","","yes","","","","","","","","","SRET","EW_formal","","key","j","16.64444444444433","768","428","自己","忠义","Positive","morality","","","","","","","","","","",""
"934","","j","psychophysics","89","267164","0.0-7.0-3.0-0.75","7","7","7","7","6","5","5","5","5","5","5","2","1","2","2","2","2","2","2","5","5","5","5","5","5","5","5","4","5","8","7","8","7","8","6","8","9","8","7","7","7","7","7","7","6","1","7","7","1","7","6","7","7","7","7","7","7","7","7","7","7","7","7","7","7","7","7","7","7","7","6","7","7","7","7","7","7","7","7","633775896922161152","唐","289","Male","[""好我"",""坏我"",""坏他"",""好他""]","[""强我"",""弱我"",""弱他"",""强他""]","","","","","","","","yes","","","","","","","","","SRET","EW_formal","","key","j","16.653043478260667","768","428","自己","果断","Positive","ability","","","","","","","","","","",""
"1135","","f","psychophysics","90","269300","0.0-7.0-3.0-0.76","7","7","7","7","6","5","5","5","5","5","5","2","1","2","2","2","2","2","2","5","5","5","5","5","5","5","5","4","5","8","7","8","7","8","6","8","9","8","7","7","7","7","7","7","6","1","7","7","1","7","6","7","7","7","7","7","7","7","7","7","7","7","7","7","7","7","7","7","7","7","6","7","7","7","7","7","7","7","7","633775896922161152","唐","289","Male","[""好我"",""坏我"",""坏他"",""好他""]","[""强我"",""弱我"",""弱他"",""强他""]","","","","","","","","no","","","","","","","","","SRET","EW_formal","","key","f","16.6496062992126","768","428","朋友","愚蠢","Negative","ability","","","","","","","","","","",""
"711","","f","psychophysics","91","271012","0.0-7.0-3.0-0.77","7","7","7","7","6","5","5","5","5","5","5","2","1","2","2","2","2","2","2","5","5","5","5","5","5","5","5","4","5","8","7","8","7","8","6","8","9","8","7","7","7","7","7","7","6","1","7","7","1","7","6","7","7","7","7","7","7","7","7","7","7","7","7","7","7","7","7","7","7","7","6","7","7","7","7","7","7","7","7","633775896922161152","唐","289","Male","[""好我"",""坏我"",""坏他"",""好他""]","[""强我"",""弱我"",""弱他"",""强他""]","","","","","","","","no","","","","","","","","","SRET","EW_formal","","key","f","16.653921568627567","768","428","自己","毛糙","Negative","ability","","","","","","","","","","",""
"623","","j","psychophysics","92","272636","0.0-7.0-3.0-0.78","7","7","7","7","6","5","5","5","5","5","5","2","1","2","2","2","2","2","2","5","5","5","5","5","5","5","5","4","5","8","7","8","7","8","6","8","9","8","7","7","7","7","7","7","6","1","7","7","1","7","6","7","7","7","7","7","7","7","7","7","7","7","7","7","7","7","7","7","7","7","6","7","7","7","7","7","7","7","7","633775896922161152","唐","289","Male","[""好我"",""坏我"",""坏他"",""好他""]","[""强我"",""弱我"",""弱他"",""强他""]","","","","","","","","yes","","","","","","","","","SRET","EW_formal","","key","j","16.649484536082475","768","428","朋友","变通","Positive","ability","","","","","","","","","","",""
"687","","j","psychophysics","93","274324","0.0-7.0-3.0-0.79","7","7","7","7","6","5","5","5","5","5","5","2","1","2","2","2","2","2","2","5","5","5","5","5","5","5","5","4","5","8","7","8","7","8","6","8","9","8","7","7","7","7","7","7","6","1","7","7","1","7","6","7","7","7","7","7","7","7","7","7","7","7","7","7","7","7","7","7","7","7","6","7","7","7","7","7","7","7","7","633775896922161152","唐","289","Male","[""好我"",""坏我"",""坏他"",""好他""]","[""强我"",""弱我"",""弱他"",""强他""]","","","","","","","","yes","","","","","","","","","SRET","EW_formal","","key","j","16.65","768","428","朋友","守信","Positive","morality","","","","","","","","","","",""
"974","","f","psychophysics","94","276299","0.0-7.0-3.0-0.80","7","7","7","7","6","5","5","5","5","5","5","2","1","2","2","2","2","2","2","5","5","5","5","5","5","5","5","4","5","8","7","8","7","8","6","8","9","8","7","7","7","7","7","7","6","1","7","7","1","7","6","7","7","7","7","7","7","7","7","7","7","7","7","7","7","7","7","7","7","7","6","7","7","7","7","7","7","7","7","633775896922161152","唐","289","Male","[""好我"",""坏我"",""坏他"",""好他""]","[""强我"",""弱我"",""弱他"",""强他""]","","","","","","","","no","","","","","","","","","SRET","EW_formal","","key","f","16.65084745762702","768","428","自己","偏私","Negative","morality","","","","","","","","","","",""
"527","","f","psychophysics","95","277828","0.0-7.0-3.0-0.81","7","7","7","7","6","5","5","5","5","5","5","2","1","2","2","2","2","2","2","5","5","5","5","5","5","5","5","4","5","8","7","8","7","8","6","8","9","8","7","7","7","7","7","7","6","1","7","7","1","7","6","7","7","7","7","7","7","7","7","7","7","7","7","7","7","7","7","7","7","7","6","7","7","7","7","7","7","7","7","633775896922161152","唐","289","Male","[""好我"",""坏我"",""坏他"",""好他""]","[""强我"",""弱我"",""弱他"",""强他""]","","","","","","","","no","","","","","","","","","SRET","EW_formal","","key","f","16.653333333333205","768","428","自己","下流","Negative","morality","","","","","","","","","","",""
"665","","f","psychophysics","96","279493","0.0-7.0-3.0-0.82","7","7","7","7","6","5","5","5","5","5","5","2","1","2","2","2","2","2","2","5","5","5","5","5","5","5","5","4","5","8","7","8","7","8","6","8","9","8","7","7","7","7","7","7","6","1","7","7","1","7","6","7","7","7","7","7","7","7","7","7","7","7","7","7","7","7","7","7","7","7","6","7","7","7","7","7","7","7","7","633775896922161152","唐","289","Male","[""好我"",""坏我"",""坏他"",""好他""]","[""强我"",""弱我"",""弱他"",""强他""]","","","","","","","","no","","","","","","","","","SRET","EW_formal","","key","f","16.654545454545335","768","428","朋友","畏难","Negative","ability","","","","","","","","","","",""
"852","","j","psychophysics","97","281348","0.0-7.0-3.0-0.83","7","7","7","7","6","5","5","5","5","5","5","2","1","2","2","2","2","2","2","5","5","5","5","5","5","5","5","4","5","8","7","8","7","8","6","8","9","8","7","7","7","7","7","7","6","1","7","7","1","7","6","7","7","7","7","7","7","7","7","7","7","7","7","7","7","7","7","7","7","7","6","7","7","7","7","7","7","7","7","633775896922161152","唐","289","Male","[""好我"",""坏我"",""坏他"",""好他""]","[""强我"",""弱我"",""弱他"",""强他""]","","","","","","","","yes","","","","","","","","","SRET","EW_formal","","key","j","16.650450450450556","768","428","自己","全才","Positive","ability","","","","","","","","","","",""
"799","","j","psychophysics","98","283148","0.0-7.0-3.0-0.84","7","7","7","7","6","5","5","5","5","5","5","2","1","2","2","2","2","2","2","5","5","5","5","5","5","5","5","4","5","8","7","8","7","8","6","8","9","8","7","7","7","7","7","7","6","1","7","7","1","7","6","7","7","7","7","7","7","7","7","7","7","7","7","7","7","7","7","7","7","7","6","7","7","7","7","7","7","7","7","633775896922161152","唐","289","Male","[""好我"",""坏我"",""坏他"",""好他""]","[""强我"",""弱我"",""弱他"",""强他""]","","","","","","","","yes","","","","","","","","","SRET","EW_formal","","key","j","16.65046728971941","768","428","自己","主见","Positive","ability","","","","","","","","","","",""
"567","","j","psychophysics","99","284716","0.0-7.0-3.0-0.85","7","7","7","7","6","5","5","5","5","5","5","2","1","2","2","2","2","2","2","5","5","5","5","5","5","5","5","4","5","8","7","8","7","8","6","8","9","8","7","7","7","7","7","7","6","1","7","7","1","7","6","7","7","7","7","7","7","7","7","7","7","7","7","7","7","7","7","7","7","7","6","7","7","7","7","7","7","7","7","633775896922161152","唐","289","Male","[""好我"",""坏我"",""坏他"",""好他""]","[""强我"",""弱我"",""弱他"",""强他""]","","","","","","","","yes","","","","","","","","","SRET","EW_formal","","key","j","16.651612903226184","768","428","朋友","素养","Positive","morality","","","","","","","","","","",""
"566","","f","psychophysics","100","286285","0.0-7.0-3.0-0.86","7","7","7","7","6","5","5","5","5","5","5","2","1","2","2","2","2","2","2","5","5","5","5","5","5","5","5","4","5","8","7","8","7","8","6","8","9","8","7","7","7","7","7","7","6","1","7","7","1","7","6","7","7","7","7","7","7","7","7","7","7","7","7","7","7","7","7","7","7","7","6","7","7","7","7","7","7","7","7","633775896922161152","唐","289","Male","[""好我"",""坏我"",""坏他"",""好他""]","[""强我"",""弱我"",""弱他"",""强他""]","","","","","","","","no","","","","","","","","","SRET","EW_formal","","key","f","16.65483870967767","768","428","自己","缓慢","Negative","ability","","","","","","","","","","",""
"533","","f","psychophysics","101","287820","0.0-7.0-3.0-0.87","7","7","7","7","6","5","5","5","5","5","5","2","1","2","2","2","2","2","2","5","5","5","5","5","5","5","5","4","5","8","7","8","7","8","6","8","9","8","7","7","7","7","7","7","6","1","7","7","1","7","6","7","7","7","7","7","7","7","7","7","7","7","7","7","7","7","7","7","7","7","6","7","7","7","7","7","7","7","7","633775896922161152","唐","289","Male","[""好我"",""坏我"",""坏他"",""好他""]","[""强我"",""弱我"",""弱他"",""强他""]","","","","","","","","no","","","","","","","","","SRET","EW_formal","","key","f","16.65652173913069","768","428","朋友","低俗","Negative","morality","","","","","","","","","","",""
"4023","
    <p><div style='color:white;font-size:35px; line-height:20px;'>计算任务</div></p><br>
    <p><div style='color:red;font-size:25px; line-height:20px;'>接下来，您将看到一些四则运算题，<b>请从键盘选择 0-9 进行反应。</b></div></p>
    <p><div style='color:red;font-size:25px; line-height:20px;'>请尽可能快地进行计算，计算的速度和正确率将影响报酬的发放。</div></p>
    <p><div class='footer' style='color:white;font-size:25px; line-height:20px;'>如果对本实验还有不清楚之处，请立即向实验员咨询。</p><p style='color:white;font-size:25px; line-height:20px;'>如果您明白了规则：</p><p style='color:white;font-size:22px; line-height:20px;'>请按 继续 进入练习</p>
    </div>
    ","0","html-button-response","102","291844","0.0-7.0-4.0","7","7","7","7","6","5","5","5","5","5","5","2","1","2","2","2","2","2","2","5","5","5","5","5","5","5","5","4","5","8","7","8","7","8","6","8","9","8","7","7","7","7","7","7","6","1","7","7","1","7","6","7","7","7","7","7","7","7","7","7","7","7","7","7","7","7","7","7","7","7","6","7","7","7","7","7","7","7","7","633775896922161152","唐","289","Male","[""好我"",""坏我"",""坏他"",""好他""]","[""强我"",""弱我"",""弱他"",""强他""]","","","","","","","","","","","","","","","","","SRET_math","math_instructions","Sat Jan 20 2024 22:54:00 GMT+0800 (中国标准时间)","","","","","","","","","","","","","","","","","","","",""
"2158","","7","psychophysics","103","294004","0.0-7.0-5.0-0.0","7","7","7","7","6","5","5","5","5","5","5","2","1","2","2","2","2","2","2","5","5","5","5","5","5","5","5","4","5","8","7","8","7","8","6","8","9","8","7","7","7","7","7","7","6","1","7","7","1","7","6","7","7","7","7","7","7","7","7","7","7","7","7","7","7","7","7","7","7","7","6","7","7","7","7","7","7","7","7","633775896922161152","唐","289","Male","[""好我"",""坏我"",""坏他"",""好他""]","[""强我"",""弱我"",""弱他"",""强他""]","","","","","","","","7","","","","","","","","","SRET","SRET_math_calculate","","key","7","16.65153846153855","768","428","","","","","49/7 = ?","7","1","","","","","","","",""
"1743","","5","psychophysics","104","295748","0.0-7.0-5.0-0.1","7","7","7","7","6","5","5","5","5","5","5","2","1","2","2","2","2","2","2","5","5","5","5","5","5","5","5","4","5","8","7","8","7","8","6","8","9","8","7","7","7","7","7","7","6","1","7","7","1","7","6","7","7","7","7","7","7","7","7","7","7","7","7","7","7","7","7","7","7","7","6","7","7","7","7","7","7","7","7","633775896922161152","唐","289","Male","[""好我"",""坏我"",""坏他"",""好他""]","[""强我"",""弱我"",""弱他"",""强他""]","","","","","","","","5","","","","","","","","","SRET","SRET_math_calculate","","key","5","16.65096153846165","768","428","","","","","4+1= ?","5","1","","","","","","","",""
"1759","","6","psychophysics","105","297508","0.0-7.0-5.0-0.2","7","7","7","7","6","5","5","5","5","5","5","2","1","2","2","2","2","2","2","5","5","5","5","5","5","5","5","4","5","8","7","8","7","8","6","8","9","8","7","7","7","7","7","7","6","1","7","7","1","7","6","7","7","7","7","7","7","7","7","7","7","7","7","7","7","7","7","7","7","7","6","7","7","7","7","7","7","7","7","633775896922161152","唐","289","Male","[""好我"",""坏我"",""坏他"",""好他""]","[""强我"",""弱我"",""弱他"",""强他""]","","","","","","","","6","","","","","","","","","SRET","SRET_math_calculate","","key","6","16.648076923076587","768","428","","","","","4+2= ?","6","1","","","","","","","",""
"1623","","4","psychophysics","106","299132","0.0-7.0-5.0-0.3","7","7","7","7","6","5","5","5","5","5","5","2","1","2","2","2","2","2","2","5","5","5","5","5","5","5","5","4","5","8","7","8","7","8","6","8","9","8","7","7","7","7","7","7","6","1","7","7","1","7","6","7","7","7","7","7","7","7","7","7","7","7","7","7","7","7","7","7","7","7","6","7","7","7","7","7","7","7","7","633775896922161152","唐","289","Male","[""好我"",""坏我"",""坏他"",""好他""]","[""强我"",""弱我"",""弱他"",""强他""]","","","","","","","","4","","","","","","","","","SRET","SRET_math_calculate","","key","4","16.65463917525773","768","428","","","","","9-5= ?","4","1","","","","","","","",""
"1759","","6","psychophysics","107","300891","0.0-7.0-5.0-0.4","7","7","7","7","6","5","5","5","5","5","5","2","1","2","2","2","2","2","2","5","5","5","5","5","5","5","5","4","5","8","7","8","7","8","6","8","9","8","7","7","7","7","7","7","6","1","7","7","1","7","6","7","7","7","7","7","7","7","7","7","7","7","7","7","7","7","7","7","7","7","6","7","7","7","7","7","7","7","7","633775896922161152","唐","289","Male","[""好我"",""坏我"",""坏他"",""好他""]","[""强我"",""弱我"",""弱他"",""强他""]","","","","","","","","6","","","","","","","","","SRET","SRET_math_calculate","","key","6","16.649523809523366","768","428","","","","","8-2= ?","6","1","","","","","","","",""
"1799","","9","psychophysics","108","302692","0.0-7.0-5.0-0.5","7","7","7","7","6","5","5","5","5","5","5","2","1","2","2","2","2","2","2","5","5","5","5","5","5","5","5","4","5","8","7","8","7","8","6","8","9","8","7","7","7","7","7","7","6","1","7","7","1","7","6","7","7","7","7","7","7","7","7","7","7","7","7","7","7","7","7","7","7","7","6","7","7","7","7","7","7","7","7","633775896922161152","唐","289","Male","[""好我"",""坏我"",""坏他"",""好他""]","[""强我"",""弱我"",""弱他"",""强他""]","","","","","","","","9","","","","","","","","","SRET","SRET_math_calculate","","key","9","16.655140186916213","768","428","","","","","81/9= ?","9","1","","","","","","","",""
"1655","","5","psychophysics","109","304348","0.0-7.0-5.0-0.6","7","7","7","7","6","5","5","5","5","5","5","2","1","2","2","2","2","2","2","5","5","5","5","5","5","5","5","4","5","8","7","8","7","8","6","8","9","8","7","7","7","7","7","7","6","1","7","7","1","7","6","7","7","7","7","7","7","7","7","7","7","7","7","7","7","7","7","7","7","7","6","7","7","7","7","7","7","7","7","633775896922161152","唐","289","Male","[""好我"",""坏我"",""坏他"",""好他""]","[""强我"",""弱我"",""弱他"",""强他""]","","","","","","","","5","","","","","","","","","SRET","SRET_math_calculate","","key","5","16.651020408163742","768","428","","","","","5/1= ?","5","1","","","","","","","",""
"1649","","2","psychophysics","110","305997","0.0-7.0-5.0-0.7","7","7","7","7","6","5","5","5","5","5","5","2","1","2","2","2","2","2","2","5","5","5","5","5","5","5","5","4","5","8","7","8","7","8","6","8","9","8","7","7","7","7","7","7","6","1","7","7","1","7","6","7","7","7","7","7","7","7","7","7","7","7","7","7","7","7","7","7","7","7","6","7","7","7","7","7","7","7","7","633775896922161152","唐","289","Male","[""好我"",""坏我"",""坏他"",""好他""]","[""强我"",""弱我"",""弱他"",""强他""]","","","","","","","","2","","","","","","","","","SRET","SRET_math_calculate","","key","2","16.656122448979474","768","428","","","","","12/6= ?","2","1","","","","","","","",""
"1942","","3","psychophysics","111","307940","0.0-7.0-5.0-0.8","7","7","7","7","6","5","5","5","5","5","5","2","1","2","2","2","2","2","2","5","5","5","5","5","5","5","5","4","5","8","7","8","7","8","6","8","9","8","7","7","7","7","7","7","6","1","7","7","1","7","6","7","7","7","7","7","7","7","7","7","7","7","7","7","7","7","7","7","7","7","6","7","7","7","7","7","7","7","7","633775896922161152","唐","289","Male","[""好我"",""坏我"",""坏他"",""好他""]","[""强我"",""弱我"",""弱他"",""强他""]","","","","","","","","3","","","","","","","","","SRET","SRET_math_calculate","","key","3","16.650862068965516","768","428","","","","","21/7=  ?","3","1","","","","","","","",""
"1559","","5","psychophysics","112","309500","0.0-7.0-5.0-0.9","7","7","7","7","6","5","5","5","5","5","5","2","1","2","2","2","2","2","2","5","5","5","5","5","5","5","5","4","5","8","7","8","7","8","6","8","9","8","7","7","7","7","7","7","6","1","7","7","1","7","6","7","7","7","7","7","7","7","7","7","7","7","7","7","7","7","7","7","7","7","6","7","7","7","7","7","7","7","7","633775896922161152","唐","289","Male","[""好我"",""坏我"",""坏他"",""好他""]","[""强我"",""弱我"",""弱他"",""强他""]","","","","","","","","5","","","","","","","","","SRET","SRET_math_calculate","","key","5","16.647311827957115","768","428","","","","","10-5= ?","5","1","","","","","","","",""
"1655","","2","psychophysics","113","311156","0.0-7.0-5.0-0.10","7","7","7","7","6","5","5","5","5","5","5","2","1","2","2","2","2","2","2","5","5","5","5","5","5","5","5","4","5","8","7","8","7","8","6","8","9","8","7","7","7","7","7","7","6","1","7","7","1","7","6","7","7","7","7","7","7","7","7","7","7","7","7","7","7","7","7","7","7","7","6","7","7","7","7","7","7","7","7","633775896922161152","唐","289","Male","[""好我"",""坏我"",""坏他"",""好他""]","[""强我"",""弱我"",""弱他"",""强他""]","","","","","","","","2","","","","","","","","","SRET","SRET_math_calculate","","key","2","16.651020408163145","768","428","","","","","1+1= ?","2","1","","","","","","","",""
"1711","","2","psychophysics","114","312868","0.0-7.0-5.0-0.11","7","7","7","7","6","5","5","5","5","5","5","2","1","2","2","2","2","2","2","5","5","5","5","5","5","5","5","4","5","8","7","8","7","8","6","8","9","8","7","7","7","7","7","7","6","1","7","7","1","7","6","7","7","7","7","7","7","7","7","7","7","7","7","7","7","7","7","7","7","7","6","7","7","7","7","7","7","7","7","633775896922161152","唐","289","Male","[""好我"",""坏我"",""坏他"",""好他""]","[""强我"",""弱我"",""弱他"",""强他""]","","","","","","","","2","","","","","","","","","SRET","SRET_math_calculate","","key","2","16.648039215686616","768","428","","","","","18/9= ?","2","1","","","","","","","",""
"1663","","2","psychophysics","115","314532","0.0-7.0-5.0-0.12","7","7","7","7","6","5","5","5","5","5","5","2","1","2","2","2","2","2","2","5","5","5","5","5","5","5","5","4","5","8","7","8","7","8","6","8","9","8","7","7","7","7","7","7","6","1","7","7","1","7","6","7","7","7","7","7","7","7","7","7","7","7","7","7","7","7","7","7","7","7","6","7","7","7","7","7","7","7","7","633775896922161152","唐","289","Male","[""好我"",""坏我"",""坏他"",""好他""]","[""强我"",""弱我"",""弱他"",""强他""]","","","","","","","","2","","","","","","","","","SRET","SRET_math_calculate","","key","2","16.65353535353547","768","428","","","","","8/4= ?","2","1","","","","","","","",""
"1655","","8","psychophysics","116","316188","0.0-7.0-5.0-0.13","7","7","7","7","6","5","5","5","5","5","5","2","1","2","2","2","2","2","2","5","5","5","5","5","5","5","5","4","5","8","7","8","7","8","6","8","9","8","7","7","7","7","7","7","6","1","7","7","1","7","6","7","7","7","7","7","7","7","7","7","7","7","7","7","7","7","7","7","7","7","6","7","7","7","7","7","7","7","7","633775896922161152","唐","289","Male","[""好我"",""坏我"",""坏他"",""好他""]","[""强我"",""弱我"",""弱他"",""强他""]","","","","","","","","8","","","","","","","","","SRET","SRET_math_calculate","","key","8","16.65408163265342","768","428","","","","","3+5= ?","8","1","","","","","","","",""
"1704","","8","psychophysics","117","317892","0.0-7.0-5.0-0.14","7","7","7","7","6","5","5","5","5","5","5","2","1","2","2","2","2","2","2","5","5","5","5","5","5","5","5","4","5","8","7","8","7","8","6","8","9","8","7","7","7","7","7","7","6","1","7","7","1","7","6","7","7","7","7","7","7","7","7","7","7","7","7","7","7","7","7","7","7","7","6","7","7","7","7","7","7","7","7","633775896922161152","唐","289","Male","[""好我"",""坏我"",""坏他"",""好他""]","[""强我"",""弱我"",""弱他"",""强他""]","","","","","","","","8","","","","","","","","","SRET","SRET_math_calculate","","key","8","16.653921568627567","768","428","","","","","6+2= ?","8","1","","","","","","","",""
"1786","","0","psychophysics","118","319684","0.0-7.0-5.0-0.15","7","7","7","7","6","5","5","5","5","5","5","2","1","2","2","2","2","2","2","5","5","5","5","5","5","5","5","4","5","8","7","8","7","8","6","8","9","8","7","7","7","7","7","7","6","1","7","7","1","7","6","7","7","7","7","7","7","7","7","7","7","7","7","7","7","7","7","7","7","7","6","7","7","7","7","7","7","7","7","633775896922161152","唐","289","Male","[""好我"",""坏我"",""坏他"",""好他""]","[""强我"",""弱我"",""弱他"",""强他""]","","","","","","","","0","","","","","","","","","SRET","SRET_math_calculate","","key","0","16.656603773584685","768","428","","","","","7*0= ?","0","1","","","","","","","",""
"1759","","2","psychophysics","119","321444","0.0-7.0-5.0-0.16","7","7","7","7","6","5","5","5","5","5","5","2","1","2","2","2","2","2","2","5","5","5","5","5","5","5","5","4","5","8","7","8","7","8","6","8","9","8","7","7","7","7","7","7","6","1","7","7","1","7","6","7","7","7","7","7","7","7","7","7","7","7","7","7","7","7","7","7","7","7","6","7","7","7","7","7","7","7","7","633775896922161152","唐","289","Male","[""好我"",""坏我"",""坏他"",""好他""]","[""强我"",""弱我"",""弱他"",""强他""]","","","","","","","","2","","","","","","","","","SRET","SRET_math_calculate","","key","2","16.652380952380952","768","428","","","","","5-3= ?","2","1","","","","","","","",""
"1640","","3","psychophysics","120","323085","0.0-7.0-5.0-0.17","7","7","7","7","6","5","5","5","5","5","5","2","1","2","2","2","2","2","2","5","5","5","5","5","5","5","5","4","5","8","7","8","7","8","6","8","9","8","7","7","7","7","7","7","6","1","7","7","1","7","6","7","7","7","7","7","7","7","7","7","7","7","7","7","7","7","7","7","7","7","6","7","7","7","7","7","7","7","7","633775896922161152","唐","289","Male","[""好我"",""坏我"",""坏他"",""好他""]","[""强我"",""弱我"",""弱他"",""强他""]","","","","","","","","3","","","","","","","","","SRET","SRET_math_calculate","","key","3","16.65463917525773","768","428","","","","","3*1= ?","3","1","","","","","","","",""
"1959","","5","psychophysics","121","325044","0.0-7.0-5.0-0.18","7","7","7","7","6","5","5","5","5","5","5","2","1","2","2","2","2","2","2","5","5","5","5","5","5","5","5","4","5","8","7","8","7","8","6","8","9","8","7","7","7","7","7","7","6","1","7","7","1","7","6","7","7","7","7","7","7","7","7","7","7","7","7","7","7","7","7","7","7","7","6","7","7","7","7","7","7","7","7","633775896922161152","唐","289","Male","[""好我"",""坏我"",""坏他"",""好他""]","[""强我"",""弱我"",""弱他"",""强他""]","","","","","","","","5","","","","","","","","","SRET","SRET_math_calculate","","key","5","16.65042735042765","768","428","","","","","14-9= ?","5","1","","","","","","","",""
"1743","","9","psychophysics","122","326788","0.0-7.0-5.0-0.19","7","7","7","7","6","5","5","5","5","5","5","2","1","2","2","2","2","2","2","5","5","5","5","5","5","5","5","4","5","8","7","8","7","8","6","8","9","8","7","7","7","7","7","7","6","1","7","7","1","7","6","7","7","7","7","7","7","7","7","7","7","7","7","7","7","7","7","7","7","7","6","7","7","7","7","7","7","7","7","633775896922161152","唐","289","Male","[""好我"",""坏我"",""坏他"",""好他""]","[""强我"",""弱我"",""弱他"",""强他""]","","","","","","","","9","","","","","","","","","SRET","SRET_math_calculate","","key","9","16.649999999999775","768","428","","","","","1+8= ?","9","1","","","","","","","",""
"1647","","4","psychophysics","123","328436","0.0-7.0-5.0-0.20","7","7","7","7","6","5","5","5","5","5","5","2","1","2","2","2","2","2","2","5","5","5","5","5","5","5","5","4","5","8","7","8","7","8","6","8","9","8","7","7","7","7","7","7","6","1","7","7","1","7","6","7","7","7","7","7","7","7","7","7","7","7","7","7","7","7","7","7","7","7","6","7","7","7","7","7","7","7","7","633775896922161152","唐","289","Male","[""好我"",""坏我"",""坏他"",""好他""]","[""强我"",""弱我"",""弱他"",""强他""]","","","","","","","","4","","","","","","","","","SRET","SRET_math_calculate","","key","4","16.649999999999526","768","428","","","","","8-4= ?","4","1","","","","","","","",""
"1695","","8","psychophysics","124","330132","0.0-7.0-5.0-0.21","7","7","7","7","6","5","5","5","5","5","5","2","1","2","2","2","2","2","2","5","5","5","5","5","5","5","5","4","5","8","7","8","7","8","6","8","9","8","7","7","7","7","7","7","6","1","7","7","1","7","6","7","7","7","7","7","7","7","7","7","7","7","7","7","7","7","7","7","7","7","6","7","7","7","7","7","7","7","7","633775896922161152","唐","289","Male","[""好我"",""坏我"",""坏他"",""好他""]","[""强我"",""弱我"",""弱他"",""强他""]","","","","","","","","8","","","","","","","","","SRET","SRET_math_calculate","","key","8","16.652475247524983","768","428","","","","","2+6= ?","8","1","","","","","","","",""
"1967","","4","psychophysics","125","332100","0.0-7.0-5.0-0.22","7","7","7","7","6","5","5","5","5","5","5","2","1","2","2","2","2","2","2","5","5","5","5","5","5","5","5","4","5","8","7","8","7","8","6","8","9","8","7","7","7","7","7","7","6","1","7","7","1","7","6","7","7","7","7","7","7","7","7","7","7","7","7","7","7","7","7","7","7","7","6","7","7","7","7","7","7","7","7","633775896922161152","唐","289","Male","[""好我"",""坏我"",""坏他"",""好他""]","[""强我"",""弱我"",""弱他"",""强他""]","","","","","","","","4","","","","","","","","","SRET","SRET_math_calculate","","key","4","16.65042735042715","768","428","","","","","2+2= ?","4","1","","","","","","","",""
"2127","","8","psychophysics","126","334228","0.0-7.0-5.0-0.23","7","7","7","7","6","5","5","5","5","5","5","2","1","2","2","2","2","2","2","5","5","5","5","5","5","5","5","4","5","8","7","8","7","8","6","8","9","8","7","7","7","7","7","7","6","1","7","7","1","7","6","7","7","7","7","7","7","7","7","7","7","7","7","7","7","7","7","7","7","7","6","7","7","7","7","7","7","7","7","633775896922161152","唐","289","Male","[""好我"",""坏我"",""坏他"",""好他""]","[""强我"",""弱我"",""弱他"",""强他""]","","","","","","","","8","","","","","","","","","SRET","SRET_math_calculate","","key","8","16.6496062992126","768","428","","","","","4*2= ?","8","1","","","","","","","",""
"1863","","3","psychophysics","127","336092","0.0-7.0-5.0-0.24","7","7","7","7","6","5","5","5","5","5","5","2","1","2","2","2","2","2","2","5","5","5","5","5","5","5","5","4","5","8","7","8","7","8","6","8","9","8","7","7","7","7","7","7","6","1","7","7","1","7","6","7","7","7","7","7","7","7","7","7","7","7","7","7","7","7","7","7","7","7","6","7","7","7","7","7","7","7","7","633775896922161152","唐","289","Male","[""好我"",""坏我"",""坏他"",""好他""]","[""强我"",""弱我"",""弱他"",""强他""]","","","","","","","","3","","","","","","","","","SRET","SRET_math_calculate","","key","3","16.650450450450556","768","428","","","","","9-6= ?","3","1","","","","","","","",""
"1743","","8","psychophysics","128","337836","0.0-7.0-5.0-0.25","7","7","7","7","6","5","5","5","5","5","5","2","1","2","2","2","2","2","2","5","5","5","5","5","5","5","5","4","5","8","7","8","7","8","6","8","9","8","7","7","7","7","7","7","6","1","7","7","1","7","6","7","7","7","7","7","7","7","7","7","7","7","7","7","7","7","7","7","7","7","6","7","7","7","7","7","7","7","7","633775896922161152","唐","289","Male","[""好我"",""坏我"",""坏他"",""好他""]","[""强我"",""弱我"",""弱他"",""强他""]","","","","","","","","8","","","","","","","","","SRET","SRET_math_calculate","","key","8","16.651456310679386","768","428","","","","","8*1= ?","8","1","","","","","","","",""
"1936","","7","psychophysics","129","339773","0.0-7.0-5.0-0.26","7","7","7","7","6","5","5","5","5","5","5","2","1","2","2","2","2","2","2","5","5","5","5","5","5","5","5","4","5","8","7","8","7","8","6","8","9","8","7","7","7","7","7","7","6","1","7","7","1","7","6","7","7","7","7","7","7","7","7","7","7","7","7","7","7","7","7","7","7","7","6","7","7","7","7","7","7","7","7","633775896922161152","唐","289","Male","[""好我"",""坏我"",""坏他"",""好他""]","[""强我"",""弱我"",""弱他"",""强他""]","","","","","","","","7","","","","","","","","","SRET","SRET_math_calculate","","key","7","16.65603448275842","768","428","","","","","9-2= ?","7","1","","","","","","","",""
"1943","","3","psychophysics","130","341716","0.0-7.0-5.0-0.27","7","7","7","7","6","5","5","5","5","5","5","2","1","2","2","2","2","2","2","5","5","5","5","5","5","5","5","4","5","8","7","8","7","8","6","8","9","8","7","7","7","7","7","7","6","1","7","7","1","7","6","7","7","7","7","7","7","7","7","7","7","7","7","7","7","7","7","7","7","7","6","7","7","7","7","7","7","7","7","633775896922161152","唐","289","Male","[""好我"",""坏我"",""坏他"",""好他""]","[""强我"",""弱我"",""弱他"",""强他""]","","","","","","","","3","","","","","","","","","SRET","SRET_math_calculate","","key","3","16.65391304347836","768","428","","","","","1+2= ?","3","1","","","","","","","",""
"1686","","8","psychophysics","131","343404","0.0-7.0-5.0-0.28","7","7","7","7","6","5","5","5","5","5","5","2","1","2","2","2","2","2","2","5","5","5","5","5","5","5","5","4","5","8","7","8","7","8","6","8","9","8","7","7","7","7","7","7","6","1","7","7","1","7","6","7","7","7","7","7","7","7","7","7","7","7","7","7","7","7","7","7","7","7","6","7","7","7","7","7","7","7","7","633775896922161152","唐","289","Male","[""好我"",""坏我"",""坏他"",""好他""]","[""强我"",""弱我"",""弱他"",""强他""]","","","","","","","","8","","","","","","","","","SRET","SRET_math_calculate","","key","8","16.651485148514737","768","428","","","","","5+3= ?","8","1","","","","","","","",""
"1960","","9","psychophysics","132","345364","0.0-7.0-5.0-0.29","7","7","7","7","6","5","5","5","5","5","5","2","1","2","2","2","2","2","2","5","5","5","5","5","5","5","5","4","5","8","7","8","7","8","6","8","9","8","7","7","7","7","7","7","6","1","7","7","1","7","6","7","7","7","7","7","7","7","7","7","7","7","7","7","7","7","7","7","7","7","6","7","7","7","7","7","7","7","7","633775896922161152","唐","289","Male","[""好我"",""坏我"",""坏他"",""好他""]","[""强我"",""弱我"",""弱他"",""强他""]","","","","","","","","9","","","","","","","","","SRET","SRET_math_calculate","","key","9","16.650862068965516","768","428","","","","","8+1= ?","9","1","","","","","","","",""
"1807","","1","psychophysics","133","347172","0.0-7.0-5.0-0.30","7","7","7","7","6","5","5","5","5","5","5","2","1","2","2","2","2","2","2","5","5","5","5","5","5","5","5","4","5","8","7","8","7","8","6","8","9","8","7","7","7","7","7","7","6","1","7","7","1","7","6","7","7","7","7","7","7","7","7","7","7","7","7","7","7","7","7","7","7","7","6","7","7","7","7","7","7","7","7","633775896922161152","唐","289","Male","[""好我"",""坏我"",""坏他"",""好他""]","[""强我"",""弱我"",""弱他"",""强他""]","","","","","","","","1","","","","","","","","","SRET","SRET_math_calculate","","key","1","16.65185185185207","768","428","","","","","9-8= ?","1","1","","","","","","","",""
"1719","","2","psychophysics","134","348892","0.0-7.0-5.0-0.31","7","7","7","7","6","5","5","5","5","5","5","2","1","2","2","2","2","2","2","5","5","5","5","5","5","5","5","4","5","8","7","8","7","8","6","8","9","8","7","7","7","7","7","7","6","1","7","7","1","7","6","7","7","7","7","7","7","7","7","7","7","7","7","7","7","7","7","7","7","7","6","7","7","7","7","7","7","7","7","633775896922161152","唐","289","Male","[""好我"",""坏我"",""坏他"",""好他""]","[""强我"",""弱我"",""弱他"",""强他""]","","","","","","","","2","","","","","","","","","SRET","SRET_math_calculate","","key","2","16.646078431372207","768","428","","","","","8-6= ?","2","1","","","","","","","",""
"1711","","2","psychophysics","135","350604","0.0-7.0-5.0-0.32","7","7","7","7","6","5","5","5","5","5","5","2","1","2","2","2","2","2","2","5","5","5","5","5","5","5","5","4","5","8","7","8","7","8","6","8","9","8","7","7","7","7","7","7","6","1","7","7","1","7","6","7","7","7","7","7","7","7","7","7","7","7","7","7","7","7","7","7","7","7","6","7","7","7","7","7","7","7","7","633775896922161152","唐","289","Male","[""好我"",""坏我"",""坏他"",""好他""]","[""强我"",""弱我"",""弱他"",""强他""]","","","","","","","","2","","","","","","","","","SRET","SRET_math_calculate","","key","2","16.65294117647036","768","428","","","","","29-27= ?","2","1","","","","","","","",""
"1831","","0","psychophysics","136","352436","0.0-7.0-5.0-0.33","7","7","7","7","6","5","5","5","5","5","5","2","1","2","2","2","2","2","2","5","5","5","5","5","5","5","5","4","5","8","7","8","7","8","6","8","9","8","7","7","7","7","7","7","6","1","7","7","1","7","6","7","7","7","7","7","7","7","7","7","7","7","7","7","7","7","7","7","7","7","6","7","7","7","7","7","7","7","7","633775896922161152","唐","289","Male","[""好我"",""坏我"",""坏他"",""好他""]","[""强我"",""弱我"",""弱他"",""强他""]","","","","","","","","0","","","","","","","","","SRET","SRET_math_calculate","","key","0","16.650458715596542","768","428","","","","","9-9= ?","0","1","","","","","","","",""
"1831","","0","psychophysics","137","354268","0.0-7.0-5.0-0.34","7","7","7","7","6","5","5","5","5","5","5","2","1","2","2","2","2","2","2","5","5","5","5","5","5","5","5","4","5","8","7","8","7","8","6","8","9","8","7","7","7","7","7","7","6","1","7","7","1","7","6","7","7","7","7","7","7","7","7","7","7","7","7","7","7","7","7","7","7","7","6","7","7","7","7","7","7","7","7","633775896922161152","唐","289","Male","[""好我"",""坏我"",""坏他"",""好他""]","[""强我"",""弱我"",""弱他"",""强他""]","","","","","","","","0","","","","","","","","","SRET","SRET_math_calculate","","key","0","16.65137614678899","768","428","","","","","5*0= ?","0","1","","","","","","","",""
"1759","","1","psychophysics","138","356028","0.0-7.0-5.0-0.35","7","7","7","7","6","5","5","5","5","5","5","2","1","2","2","2","2","2","2","5","5","5","5","5","5","5","5","4","5","8","7","8","7","8","6","8","9","8","7","7","7","7","7","7","6","1","7","7","1","7","6","7","7","7","7","7","7","7","7","7","7","7","7","7","7","7","7","7","7","7","6","7","7","7","7","7","7","7","7","633775896922161152","唐","289","Male","[""好我"",""坏我"",""坏他"",""好他""]","[""强我"",""弱我"",""弱他"",""强他""]","","","","","","","","1","","","","","","","","","SRET","SRET_math_calculate","","key","1","16.648571428571206","768","428","","","","","10-9= ?","1","1","","","","","","","",""
"1783","","4","psychophysics","139","357812","0.0-7.0-5.0-0.36","7","7","7","7","6","5","5","5","5","5","5","2","1","2","2","2","2","2","2","5","5","5","5","5","5","5","5","4","5","8","7","8","7","8","6","8","9","8","7","7","7","7","7","7","6","1","7","7","1","7","6","7","7","7","7","7","7","7","7","7","7","7","7","7","7","7","7","7","7","7","6","7","7","7","7","7","7","7","7","633775896922161152","唐","289","Male","[""好我"",""坏我"",""坏他"",""好他""]","[""强我"",""弱我"",""弱他"",""强他""]","","","","","","","","4","","","","","","","","","SRET","SRET_math_calculate","","key","4","16.64811320754728","768","428","","","","","20/5= ?","4","1","","","","","","","",""
"1823","","8","psychophysics","140","359636","0.0-7.0-5.0-0.37","7","7","7","7","6","5","5","5","5","5","5","2","1","2","2","2","2","2","2","5","5","5","5","5","5","5","5","4","5","8","7","8","7","8","6","8","9","8","7","7","7","7","7","7","6","1","7","7","1","7","6","7","7","7","7","7","7","7","7","7","7","7","7","7","7","7","7","7","7","7","6","7","7","7","7","7","7","7","7","633775896922161152","唐","289","Male","[""好我"",""坏我"",""坏他"",""好他""]","[""强我"",""弱我"",""弱他"",""强他""]","","","","","","","","8","","","","","","","","","SRET","SRET_math_calculate","","key","8","16.64814814814815","768","428","","","","","9-1= ?","8","1","","","","","","","",""
"1727","","4","psychophysics","141","361365","0.0-7.0-5.0-0.38","7","7","7","7","6","5","5","5","5","5","5","2","1","2","2","2","2","2","2","5","5","5","5","5","5","5","5","4","5","8","7","8","7","8","6","8","9","8","7","7","7","7","7","7","6","1","7","7","1","7","6","7","7","7","7","7","7","7","7","7","7","7","7","7","7","7","7","7","7","7","6","7","7","7","7","7","7","7","7","633775896922161152","唐","289","Male","[""好我"",""坏我"",""坏他"",""好他""]","[""强我"",""弱我"",""弱他"",""强他""]","","","","","","","","4","","","","","","","","","SRET","SRET_math_calculate","","key","4","16.652427184465566","768","428","","","","","13-9= ?","4","1","","","","","","","",""
"1854","","2","psychophysics","142","363220","0.0-7.0-5.0-0.39","7","7","7","7","6","5","5","5","5","5","5","2","1","2","2","2","2","2","2","5","5","5","5","5","5","5","5","4","5","8","7","8","7","8","6","8","9","8","7","7","7","7","7","7","6","1","7","7","1","7","6","7","7","7","7","7","7","7","7","7","7","7","7","7","7","7","7","7","7","7","6","7","7","7","7","7","7","7","7","633775896922161152","唐","289","Male","[""好我"",""坏我"",""坏他"",""好他""]","[""强我"",""弱我"",""弱他"",""强他""]","","","","","","","","2","","","","","","","","","SRET","SRET_math_calculate","","key","2","16.65135135135177","768","428","","","","","22/11= ?","2","1","","","","","","","",""
