"rt","stimulus","response","trial_type","trial_index","time_elapsed","internal_node_id","swb_1","swb_2","swb_3","swb_4","swb_5","LOT_1","LOT_2","LOT_3","LOT_4","LOT_5","LOT_6","IPC_1","IPC_2","IPC_3","IPC_4","IPC_5","IPC_6","IPC_7","IPC_8","MorIden_1","MorIden_2","MorIden_3","MorIden_4","MorIden_5","MorIden_6","MorIden_7","MorIden_8","MorIden_9","MorIden_10","moralSeImag_1","moralSeImag_2","moralSeImag_3","moralSeImag_4","moralSeImag_5","moralSeImag_6","moralSeImag_7","moralSeImag_8","moralSeImag_9","sde_1","sde_2","sde_3","sde_4","sde_5","sde_6","sde_7","sde_8","sde_9","sde_10","trap2","sde_11","sde_12","sde_13","sde_14","sde_15","sde_16","sde_17","sde_18","sde_19","sde_20","IM_1","IM_2","IM_3","IM_4","IM_5","IM_6","IM_7","IM_8","IM_9","IM_10","IM_11","IM_12","IM_13","IM_14","IM_15","IM_16","IM_17","IM_18","IM_19","IM_20","subj_idx","friend_name","ParticipantID","Sex","Word","Word2","value","success","timeout","failed_images","failed_audio","failed_video","user_agent","responses","item_order","radio_event_ids","radio_event_times","key_event_times","mouse_event_times","straightlining","zigzagging","honeypot","task_id","screen_id","time_stamp","response_type","key_press","avg_frame_time","center_x","center_y","person","word","valence","domain","math","correct_response","correct","status","identity","view_history","duration","Image","condition","question_order","trap2_item"
"5977","
   <p><div style='color:white; font-size: 25px'>您好，欢迎参加本次实验。</div></p>
   <p><div style='color:white; font-size: 25px'>为充分保障您的权利，请确保您已经知晓并同意《参与实验同意书》以及《数据公开知情同意书》。</div></p>
   <p><div style='color:white; font-size: 25px'>如果您未见过上述内容，请咨询实验员。</div></p>
   <p style='color:white; font-size: 25px'>如果您选择继续实验，则表示您已经清楚两份知情同意书的内容并同意。</p>
   <p><div style = ""color: pink;font-size:30px;"">请确保您记得day0的实验编号，您将在本次实验输入该编号，若您忘记，请咨询实验员后作答。</div></p>
   <p><div style = ""color:lightblue;font-size:25px;"">请您尽可能认真地作答，我们将依据您在各问卷和按键任务中的作答质量发放报酬。</div></p>
   <p> <div style = ""color: green""><按空格键至下页></div> </p>
   "," ","html-keyboard-response","0","5981","0.0-0.0","5","7","5","6","7","4","4","4","5","5","4","-3","-1","1","0","2","1","0","2","4","3","5","4","4","3","5","4","4","5","7","9","7","8","7","9","6","8","7","5","7","6","6","6","7","5","6","6","6","1","7","6","1","7","5","5","7","7","5","6","3","7","3","6","5","6","7","7","6","6","7","6","6","1","6","5","7","6","7","7","798167430248669185","王","76","Male","[""好我"",""坏他"",""坏我"",""好他""]","[""强我"",""弱他"",""弱我"",""强他""]","","","","","","","","","","","","","","","","","","","","","","","","","","","","","","","","","","","","","","",""
"","","","call-function","1","5982","0.0-1.0-0.0","5","7","5","6","7","4","4","4","5","5","4","-3","-1","1","0","2","1","0","2","4","3","5","4","4","3","5","4","4","5","7","9","7","8","7","9","6","8","7","5","7","6","6","6","7","5","6","6","6","1","7","6","1","7","5","5","7","7","5","6","3","7","3","6","5","6","7","7","6","6","7","6","6","1","6","5","7","6","7","7","798167430248669185","王","76","Male","[""好我"",""坏他"",""坏我"",""好他""]","[""强我"",""弱他"",""弱我"",""强他""]","","","","","","","","","","","","","","","","","","","","","","","","","","","","","","","","","","","","","","",""
"123540","","[{""name"":""Sex"",""value"":""0""},{""name"":""friend_name"",""value"":""王""},{""name"":""ParticipantID"",""value"":""76""}]","survey-html-form","2","129524","0.0-1.0-1.0","5","7","5","6","7","4","4","4","5","5","4","-3","-1","1","0","2","1","0","2","4","3","5","4","4","3","5","4","4","5","7","9","7","8","7","9","6","8","7","5","7","6","6","6","7","5","6","6","6","1","7","6","1","7","5","5","7","7","5","6","3","7","3","6","5","6","7","7","6","6","7","6","6","1","6","5","7","6","7","7","798167430248669185","王","76","Male","[""好我"",""坏他"",""坏我"",""好他""]","[""强我"",""弱他"",""弱我"",""强他""]","","","","","","","","","","","","","","","","","","","","","","","","","","","","","","","","","","","","","","",""
"","","","preload","3","129853","0.0-2.0","5","7","5","6","7","4","4","4","5","5","4","-3","-1","1","0","2","1","0","2","4","3","5","4","4","3","5","4","4","5","7","9","7","8","7","9","6","8","7","5","7","6","6","6","7","5","6","6","6","1","7","6","1","7","5","5","7","7","5","6","3","7","3","6","5","6","7","7","6","6","7","6","6","1","6","5","7","6","7","7","798167430248669185","王","76","Male","[""好我"",""坏他"",""坏我"",""好他""]","[""强我"",""弱他"",""弱我"",""强他""]","","true","false","[]","[]","[]","","","","","","","","","","","","","","","","","","","","","","","","","","","","","","","","",""
"","","","fullscreen","4","131063","0.0-3.0","5","7","5","6","7","4","4","4","5","5","4","-3","-1","1","0","2","1","0","2","4","3","5","4","4","3","5","4","4","5","7","9","7","8","7","9","6","8","7","5","7","6","6","6","7","5","6","6","6","1","7","6","1","7","5","5","7","7","5","6","3","7","3","6","5","6","7","7","6","6","7","6","6","1","6","5","7","6","7","7","798167430248669185","王","76","Male","[""好我"",""坏他"",""坏我"",""好他""]","[""强我"",""弱他"",""弱我"",""强他""]","","true","","","","","{""brands"":[{""brand"":""Edge"",""version"":""107""},{""brand"":""Chromium"",""version"":""107""},{""brand"":""Not=A?Brand"",""version"":""24""}],""mobile"":false,""platform"":""macOS""}","","","","","","","","","","","","","","","","","","","","","","","","","","","","","","","",""
"8766.399999976158","","{""Q01"":""5"",""Q02"":""7"",""Q03"":""5"",""Q04"":""6"",""Q05"":""7""}","survey-template","5","139842","0.0-4.0","5","7","5","6","7","4","4","4","5","5","4","-3","-1","1","0","2","1","0","2","4","3","5","4","4","3","5","4","4","5","7","9","7","8","7","9","6","8","7","5","7","6","6","6","7","5","6","6","6","1","7","6","1","7","5","5","7","7","5","6","3","7","3","6","5","6","7","7","6","6","7","6","6","1","6","5","7","6","7","7","798167430248669185","王","76","Male","[""好我"",""坏他"",""坏我"",""好他""]","[""强我"",""弱他"",""弱我"",""强他""]","","","","","","","","{""Q01"":""5"",""Q02"":""7"",""Q03"":""5"",""Q04"":""6"",""Q05"":""7""}","[0,1,2,3,4]","[""Q01"",""Q02"",""Q03"",""Q04"",""Q05""]","[3007.599999964237,4591,6107.399999976158,7070.899999976158,8155.099999964237]","[]","[3007.599999964237,4591,6107.399999976158,7070.899999976158,7739.399999976158,8155.099999964237,8765.199999988079]","0.4","0.5","0","","","","","","","","","","","","","","","","","","","","","","",""
"11315.199999988079","","{""Q01"":""4"",""Q02"":""4"",""Q03"":""4"",""Q04"":""5"",""Q05"":""5"",""Q06"":""4""}","survey-template","6","151163","0.0-5.0","5","7","5","6","7","4","4","4","5","5","4","-3","-1","1","0","2","1","0","2","4","3","5","4","4","3","5","4","4","5","7","9","7","8","7","9","6","8","7","5","7","6","6","6","7","5","6","6","6","1","7","6","1","7","5","5","7","7","5","6","3","7","3","6","5","6","7","7","6","6","7","6","6","1","6","5","7","6","7","7","798167430248669185","王","76","Male","[""好我"",""坏他"",""坏我"",""好他""]","[""强我"",""弱他"",""弱我"",""强他""]","","","","","","","","{""Q01"":""4"",""Q02"":""4"",""Q03"":""4"",""Q04"":""5"",""Q05"":""5"",""Q06"":""4""}","[0,1,2,3,4,5]","[""Q01"",""Q02"",""Q03"",""Q03"",""Q04"",""Q05"",""Q05"",""Q06""]","[2128,4920,5786.100000023842,6371.900000035763,7338.100000023842,7837.900000035763,8276,9126.100000023842]","[]","[2128,3609.300000011921,4624,4920,5786.100000023842,6371.900000035763,7338.100000023842,7837.900000035763,8276,9126.100000023842,11314.199999988079]","0.5","0","0","","","","","","","","","","","","","","","","","","","","","","",""
"22324.19999998808","","{""Q01"":""-3"",""Q02"":""-1"",""Q03"":""1"",""Q04"":""0"",""Q05"":""2"",""Q06"":""1"",""Q07"":""0"",""Q08"":""2""}","survey-template","7","173491","0.0-6.0","5","7","5","6","7","4","4","4","5","5","4","-3","-1","1","0","2","1","0","2","4","3","5","4","4","3","5","4","4","5","7","9","7","8","7","9","6","8","7","5","7","6","6","6","7","5","6","6","6","1","7","6","1","7","5","5","7","7","5","6","3","7","3","6","5","6","7","7","6","6","7","6","6","1","6","5","7","6","7","7","798167430248669185","王","76","Male","[""好我"",""坏他"",""坏我"",""好他""]","[""强我"",""弱他"",""弱我"",""强他""]","","","","","","","","{""Q01"":""-3"",""Q02"":""-1"",""Q03"":""1"",""Q04"":""0"",""Q05"":""2"",""Q06"":""1"",""Q07"":""0"",""Q08"":""2""}","[0,1,2,3,4,5,6,7]","[""Q01"",""Q02"",""Q03"",""Q04"",""Q05"",""Q06"",""Q06"",""Q07"",""Q08""]","[2224.400000035763,3892.300000011921,5210.800000011921,6437,7588.699999988079,8746.699999988079,9029.100000023842,10094.900000035763,11405.100000023842]","[]","[2224.400000035763,3892.300000011921,5210.800000011921,6437,7588.699999988079,8746.699999988079,9029.100000023842,10094.900000035763,11405.100000023842,21366.600000023842,22322.5]","0.25","0.42857142857142855","0","","","","","","","","","","","","","","","","","","","","","","",""
"14407","
    <p><div style='color:white;font-size:35px; line-height:20px;'>词汇评估任务</div></p><br>
    <p><div style='color:white;font-size:25px; line-height:20px;'>请再次回忆该亲密的朋友，你们至少2年前就认识了，并且最近2年经常见面。</div></p>
    <p><div style='color:white;font-size:25px; line-height:20px;'>在本实验中，您将会看到一些形容词。</div></p>
    <p><div style='color:yellow;font-size:25px; line-height:20px;'>您的任务是判断这些形容词是否符合对您自己或您的朋友的描述。</div></p><p style='font-size:35px'>符合按<span style=""color:lightgreen""> f 键</span>，不符合按<span style=""color:red""> j 键</span></p>","0","html-button-response","8","187902","0.0-7.0-0.0","5","7","5","6","7","4","4","4","5","5","4","-3","-1","1","0","2","1","0","2","4","3","5","4","4","3","5","4","4","5","7","9","7","8","7","9","6","8","7","5","7","6","6","6","7","5","6","6","6","1","7","6","1","7","5","5","7","7","5","6","3","7","3","6","5","6","7","7","6","6","7","6","6","1","6","5","7","6","7","7","798167430248669185","王","76","Male","[""好我"",""坏他"",""坏我"",""好他""]","[""强我"",""弱他"",""弱我"",""强他""]","","","","","","","","","","","","","","","","","SRET_EW","EW_instructions","Sun Jan 21 2024 18:26:45 GMT+0800 (中国标准时间)","","","","","","","","","","","","","","","","","","","",""
"1032","","j","psychophysics","9","189945","0.0-7.0-1.0-0.0","5","7","5","6","7","4","4","4","5","5","4","-3","-1","1","0","2","1","0","2","4","3","5","4","4","3","5","4","4","5","7","9","7","8","7","9","6","8","7","5","7","6","6","6","7","5","6","6","6","1","7","6","1","7","5","5","7","7","5","6","3","7","3","6","5","6","7","7","6","6","7","6","6","1","6","5","7","6","7","7","798167430248669185","王","76","Male","[""好我"",""坏他"",""坏我"",""好他""]","[""强我"",""弱他"",""弱我"",""强他""]","","","","","","","","no","","","","","","","","","SRET_EW","EW_practice","","key","j","16.65362295081966","799.9999682108573","445.8333156175091","朋友","徇私","Negative","morality","","","","","","","","","","",""
"769","","f","psychophysics","10","191719","0.0-7.0-1.0-0.1","5","7","5","6","7","4","4","4","5","5","4","-3","-1","1","0","2","1","0","2","4","3","5","4","4","3","5","4","4","5","7","9","7","8","7","9","6","8","7","5","7","6","6","6","7","5","6","6","6","1","7","6","1","7","5","5","7","7","5","6","3","7","3","6","5","6","7","7","6","6","7","6","6","1","6","5","7","6","7","7","798167430248669185","王","76","Male","[""好我"",""坏他"",""坏我"",""好他""]","[""强我"",""弱他"",""弱我"",""强他""]","","","","","","","","yes","","","","","","","","","SRET_EW","EW_practice","","key","f","16.65276415094339","799.9999682108573","445.8333156175091","朋友","忠实","Positive","morality","","","","","","","","","","",""
"1824","","j","psychophysics","11","194545","0.0-7.0-1.0-0.2","5","7","5","6","7","4","4","4","5","5","4","-3","-1","1","0","2","1","0","2","4","3","5","4","4","3","5","4","4","5","7","9","7","8","7","9","6","8","7","5","7","6","6","6","7","5","6","6","6","1","7","6","1","7","5","5","7","7","5","6","3","7","3","6","5","6","7","7","6","6","7","6","6","1","6","5","7","6","7","7","798167430248669185","王","76","Male","[""好我"",""坏他"",""坏我"",""好他""]","[""强我"",""弱他"",""弱我"",""强他""]","","","","","","","","no","","","","","","","","","SRET_EW","EW_practice","","key","j","16.652928994082846","799.9999682108573","445.8333156175091","自己","刻板","Negative","ability","","","","","","","","","","",""
"1427","","j","psychophysics","12","196974","0.0-7.0-1.0-0.3","5","7","5","6","7","4","4","4","5","5","4","-3","-1","1","0","2","1","0","2","4","3","5","4","4","3","5","4","4","5","7","9","7","8","7","9","6","8","7","5","7","6","6","6","7","5","6","6","6","1","7","6","1","7","5","5","7","7","5","6","3","7","3","6","5","6","7","7","6","6","7","6","6","1","6","5","7","6","7","7","798167430248669185","王","76","Male","[""好我"",""坏他"",""坏我"",""好他""]","[""强我"",""弱他"",""弱我"",""强他""]","","","","","","","","no","","","","","","","","","SRET_EW","EW_practice","","key","j","16.652496551724095","799.9999682108573","445.8333156175091","自己","严谨","Positive","ability","","","","","","","","","","",""
"4086","
    <p><div style='color:white;font-size:35px; line-height:20px;'>请您再次阅读实验要求</div></p><br>
    <p><div style='color:white;font-size:25px; line-height:20px;'>请回忆某一个亲密的朋友，你们至少2年前就认识了，并且最近2年经常见面。</div></p>
    <p><div style='color:white;font-size:25px; line-height:20px;'>在本实验中，您将会看到一些形容词。</div></p>
    <p><div style='color:yellow;font-size:25px; line-height:20px;'>您的任务是判断这些形容词是否符合对您自己或您的朋友的描述。</div></p>
    <p><div class='footer' style='font-size:25px; line-height:20px;'>如果对本实验还有不清楚之处，请立即向实验员咨询。</p><p style='font-size:25px; line-height:20px;'>如果您明白了规则：</p><p style='font-size:22px; line-height:20px;'>请按 继续 进入正式实验</p>
    </div>
    <p style='font-size:35px'>符合按<span style=""color:lightgreen""> f 键</span>，不符合按<span style=""color:red""> j 键</span></p>","0","html-button-response","13","201061","0.0-7.0-2.0","5","7","5","6","7","4","4","4","5","5","4","-3","-1","1","0","2","1","0","2","4","3","5","4","4","3","5","4","4","5","7","9","7","8","7","9","6","8","7","5","7","6","6","6","7","5","6","6","6","1","7","6","1","7","5","5","7","7","5","6","3","7","3","6","5","6","7","7","6","6","7","6","6","1","6","5","7","6","7","7","798167430248669185","王","76","Male","[""好我"",""坏他"",""坏我"",""好他""]","[""强我"",""弱他"",""弱我"",""强他""]","","","","","","","","","","","","","","","","","SRET_EW","prac_instructions","Sun Jan 21 2024 18:26:45 GMT+0800 (中国标准时间)","","","","","","","","","","","","","","","","","","","",""
"757","","f","psychophysics","14","202820","0.0-7.0-3.0-0.0","5","7","5","6","7","4","4","4","5","5","4","-3","-1","1","0","2","1","0","2","4","3","5","4","4","3","5","4","4","5","7","9","7","8","7","9","6","8","7","5","7","6","6","6","7","5","6","6","6","1","7","6","1","7","5","5","7","7","5","6","3","7","3","6","5","6","7","7","6","6","7","6","6","1","6","5","7","6","7","7","798167430248669185","王","76","Male","[""好我"",""坏他"",""坏我"",""好他""]","[""强我"",""弱他"",""弱我"",""强他""]","","","","","","","","yes","","","","","","","","","SRET","EW_formal","","key","f","16.65310377358483","799.9999682108573","445.8333156175091","自己","坚贞","Positive","morality","","","","","","","","","","",""
"1366","","f","psychophysics","15","205189","0.0-7.0-3.0-0.1","5","7","5","6","7","4","4","4","5","5","4","-3","-1","1","0","2","1","0","2","4","3","5","4","4","3","5","4","4","5","7","9","7","8","7","9","6","8","7","5","7","6","6","6","7","5","6","6","6","1","7","6","1","7","5","5","7","7","5","6","3","7","3","6","5","6","7","7","6","6","7","6","6","1","6","5","7","6","7","7","798167430248669185","王","76","Male","[""好我"",""坏他"",""坏我"",""好他""]","[""强我"",""弱他"",""弱我"",""强他""]","","","","","","","","yes","","","","","","","","","SRET","EW_formal","","key","f","16.653638297872345","799.9999682108573","445.8333156175091","朋友","务实","Positive","ability","","","","","","","","","","",""
"1053","","j","psychophysics","16","207243","0.0-7.0-3.0-0.2","5","7","5","6","7","4","4","4","5","5","4","-3","-1","1","0","2","1","0","2","4","3","5","4","4","3","5","4","4","5","7","9","7","8","7","9","6","8","7","5","7","6","6","6","7","5","6","6","6","1","7","6","1","7","5","5","7","7","5","6","3","7","3","6","5","6","7","7","6","6","7","6","6","1","6","5","7","6","7","7","798167430248669185","王","76","Male","[""好我"",""坏他"",""坏我"",""好他""]","[""强我"",""弱他"",""弱我"",""强他""]","","","","","","","","no","","","","","","","","","SRET","EW_formal","","key","j","16.65289344262288","799.9999682108573","445.8333156175091","朋友","迷糊","Negative","ability","","","","","","","","","","",""
"1365","","j","psychophysics","17","209609","0.0-7.0-3.0-0.3","5","7","5","6","7","4","4","4","5","5","4","-3","-1","1","0","2","1","0","2","4","3","5","4","4","3","5","4","4","5","7","9","7","8","7","9","6","8","7","5","7","6","6","6","7","5","6","6","6","1","7","6","1","7","5","5","7","7","5","6","3","7","3","6","5","6","7","7","6","6","7","6","6","1","6","5","7","6","7","7","798167430248669185","王","76","Male","[""好我"",""坏他"",""坏我"",""好他""]","[""强我"",""弱他"",""弱我"",""强他""]","","","","","","","","no","","","","","","","","","SRET","EW_formal","","key","j","16.653517730496304","799.9999682108573","445.8333156175091","自己","说谎","Negative","morality","","","","","","","","","","",""
"1220","","j","psychophysics","18","211832","0.0-7.0-3.0-0.4","5","7","5","6","7","4","4","4","5","5","4","-3","-1","1","0","2","1","0","2","4","3","5","4","4","3","5","4","4","5","7","9","7","8","7","9","6","8","7","5","7","6","6","6","7","5","6","6","6","1","7","6","1","7","5","5","7","7","5","6","3","7","3","6","5","6","7","7","6","6","7","6","6","1","6","5","7","6","7","7","798167430248669185","王","76","Male","[""好我"",""坏他"",""坏我"",""好他""]","[""强我"",""弱他"",""弱我"",""强他""]","","","","","","","","no","","","","","","","","","SRET","EW_formal","","key","j","16.653210526315846","799.9999682108573","445.8333156175091","朋友","小人","Negative","morality","","","","","","","","","","",""
"1481","","f","psychophysics","19","214314","0.0-7.0-3.0-0.5","5","7","5","6","7","4","4","4","5","5","4","-3","-1","1","0","2","1","0","2","4","3","5","4","4","3","5","4","4","5","7","9","7","8","7","9","6","8","7","5","7","6","6","6","7","5","6","6","6","1","7","6","1","7","5","5","7","7","5","6","3","7","3","6","5","6","7","7","6","6","7","6","6","1","6","5","7","6","7","7","798167430248669185","王","76","Male","[""好我"",""坏他"",""坏我"",""好他""]","[""强我"",""弱他"",""弱我"",""强他""]","","","","","","","","yes","","","","","","","","","SRET","EW_formal","","key","f","16.653479729729902","799.9999682108573","445.8333156175091","自己","厚道","Positive","morality","","","","","","","","","","",""
"1577","","f","psychophysics","20","216893","0.0-7.0-3.0-0.6","5","7","5","6","7","4","4","4","5","5","4","-3","-1","1","0","2","1","0","2","4","3","5","4","4","3","5","4","4","5","7","9","7","8","7","9","6","8","7","5","7","6","6","6","7","5","6","6","6","1","7","6","1","7","5","5","7","7","5","6","3","7","3","6","5","6","7","7","6","6","7","6","6","1","6","5","7","6","7","7","798167430248669185","王","76","Male","[""好我"",""坏他"",""坏我"",""好他""]","[""强我"",""弱他"",""弱我"",""强他""]","","","","","","","","yes","","","","","","","","","SRET","EW_formal","","key","f","16.652805194805236","799.9999682108573","445.8333156175091","朋友","勤恳","Positive","morality","","","","","","","","","","",""
"1582","","f","psychophysics","21","219476","0.0-7.0-3.0-0.7","5","7","5","6","7","4","4","4","5","5","4","-3","-1","1","0","2","1","0","2","4","3","5","4","4","3","5","4","4","5","7","9","7","8","7","9","6","8","7","5","7","6","6","6","7","5","6","6","6","1","7","6","1","7","5","5","7","7","5","6","3","7","3","6","5","6","7","7","6","6","7","6","6","1","6","5","7","6","7","7","798167430248669185","王","76","Male","[""好我"",""坏他"",""坏我"",""好他""]","[""强我"",""弱他"",""弱我"",""强他""]","","","","","","","","yes","","","","","","","","","SRET","EW_formal","","key","f","16.653532467532468","799.9999682108573","445.8333156175091","自己","廉正","Positive","morality","","","","","","","","","","",""
"1196","","f","psychophysics","22","221674","0.0-7.0-3.0-0.8","5","7","5","6","7","4","4","4","5","5","4","-3","-1","1","0","2","1","0","2","4","3","5","4","4","3","5","4","4","5","7","9","7","8","7","9","6","8","7","5","7","6","6","6","7","5","6","6","6","1","7","6","1","7","5","5","7","7","5","6","3","7","3","6","5","6","7","7","6","6","7","6","6","1","6","5","7","6","7","7","798167430248669185","王","76","Male","[""好我"",""坏他"",""坏我"",""好他""]","[""强我"",""弱他"",""弱我"",""强他""]","","","","","","","","yes","","","","","","","","","SRET","EW_formal","","key","f","16.653137404580274","799.9999682108573","445.8333156175091","自己","慈悲","Positive","morality","","","","","","","","","","",""
"828","","f","psychophysics","23","223503","0.0-7.0-3.0-0.9","5","7","5","6","7","4","4","4","5","5","4","-3","-1","1","0","2","1","0","2","4","3","5","4","4","3","5","4","4","5","7","9","7","8","7","9","6","8","7","5","7","6","6","6","7","5","6","6","6","1","7","6","1","7","5","5","7","7","5","6","3","7","3","6","5","6","7","7","6","6","7","6","6","1","6","5","7","6","7","7","798167430248669185","王","76","Male","[""好我"",""坏他"",""坏我"",""好他""]","[""强我"",""弱他"",""弱我"",""强他""]","","","","","","","","yes","","","","","","","","","SRET","EW_formal","","key","f","16.65301834862389","799.9999682108573","445.8333156175091","自己","敬业","Positive","morality","","","","","","","","","","",""
"1860","","f","psychophysics","24","226367","0.0-7.0-3.0-0.10","5","7","5","6","7","4","4","4","5","5","4","-3","-1","1","0","2","1","0","2","4","3","5","4","4","3","5","4","4","5","7","9","7","8","7","9","6","8","7","5","7","6","6","6","7","5","6","6","6","1","7","6","1","7","5","5","7","7","5","6","3","7","3","6","5","6","7","7","6","6","7","6","6","1","6","5","7","6","7","7","798167430248669185","王","76","Male","[""好我"",""坏他"",""坏我"",""好他""]","[""强我"",""弱他"",""弱我"",""强他""]","","","","","","","","yes","","","","","","","","","SRET","EW_formal","","key","f","16.65334502923982","799.9999682108573","445.8333156175091","自己","骁勇","Positive","ability","","","","","","","","","","",""
"861","","f","psychophysics","25","228232","0.0-7.0-3.0-0.11","5","7","5","6","7","4","4","4","5","5","4","-3","-1","1","0","2","1","0","2","4","3","5","4","4","3","5","4","4","5","7","9","7","8","7","9","6","8","7","5","7","6","6","6","7","5","6","6","6","1","7","6","1","7","5","5","7","7","5","6","3","7","3","6","5","6","7","7","6","6","7","6","6","1","6","5","7","6","7","7","798167430248669185","王","76","Male","[""好我"",""坏他"",""坏我"",""好他""]","[""强我"",""弱他"",""弱我"",""强他""]","","","","","","","","yes","","","","","","","","","SRET","EW_formal","","key","f","16.653243243243327","799.9999682108573","445.8333156175091","朋友","学霸","Positive","ability","","","","","","","","","","",""
"898","","f","psychophysics","26","230132","0.0-7.0-3.0-0.12","5","7","5","6","7","4","4","4","5","5","4","-3","-1","1","0","2","1","0","2","4","3","5","4","4","3","5","4","4","5","7","9","7","8","7","9","6","8","7","5","7","6","6","6","7","5","6","6","6","1","7","6","1","7","5","5","7","7","5","6","3","7","3","6","5","6","7","7","6","6","7","6","6","1","6","5","7","6","7","7","798167430248669185","王","76","Male","[""好我"",""坏他"",""坏我"",""好他""]","[""强我"",""弱他"",""弱我"",""强他""]","","","","","","","","yes","","","","","","","","","SRET","EW_formal","","key","f","16.652982300885053","799.9999682108573","445.8333156175091","朋友","善心","Positive","morality","","","","","","","","","","",""
"741","","j","psychophysics","27","231875","0.0-7.0-3.0-0.13","5","7","5","6","7","4","4","4","5","5","4","-3","-1","1","0","2","1","0","2","4","3","5","4","4","3","5","4","4","5","7","9","7","8","7","9","6","8","7","5","7","6","6","6","7","5","6","6","6","1","7","6","1","7","5","5","7","7","5","6","3","7","3","6","5","6","7","7","6","6","7","6","6","1","6","5","7","6","7","7","798167430248669185","王","76","Male","[""好我"",""坏他"",""坏我"",""好他""]","[""强我"",""弱他"",""弱我"",""强他""]","","","","","","","","no","","","","","","","","","SRET","EW_formal","","key","j","16.653427184465876","799.9999682108573","445.8333156175091","自己","无赖","Negative","morality","","","","","","","","","","",""
"655","","f","psychophysics","28","233535","0.0-7.0-3.0-0.14","5","7","5","6","7","4","4","4","5","5","4","-3","-1","1","0","2","1","0","2","4","3","5","4","4","3","5","4","4","5","7","9","7","8","7","9","6","8","7","5","7","6","6","6","7","5","6","6","6","1","7","6","1","7","5","5","7","7","5","6","3","7","3","6","5","6","7","7","6","6","7","6","6","1","6","5","7","6","7","7","798167430248669185","王","76","Male","[""好我"",""坏他"",""坏我"",""好他""]","[""强我"",""弱他"",""弱我"",""强他""]","","","","","","","","yes","","","","","","","","","SRET","EW_formal","","key","f","16.65358585858573","799.9999682108573","445.8333156175091","自己","中用","Positive","ability","","","","","","","","","","",""
"893","","j","psychophysics","29","235431","0.0-7.0-3.0-0.15","5","7","5","6","7","4","4","4","5","5","4","-3","-1","1","0","2","1","0","2","4","3","5","4","4","3","5","4","4","5","7","9","7","8","7","9","6","8","7","5","7","6","6","6","7","5","6","6","6","1","7","6","1","7","5","5","7","7","5","6","3","7","3","6","5","6","7","7","6","6","7","6","6","1","6","5","7","6","7","7","798167430248669185","王","76","Male","[""好我"",""坏他"",""坏我"",""好他""]","[""强我"",""弱他"",""弱我"",""强他""]","","","","","","","","no","","","","","","","","","SRET","EW_formal","","key","j","16.653292035398103","799.9999682108573","445.8333156175091","朋友","畏难","Negative","ability","","","","","","","","","","",""
"699","","f","psychophysics","30","237132","0.0-7.0-3.0-0.16","5","7","5","6","7","4","4","4","5","5","4","-3","-1","1","0","2","1","0","2","4","3","5","4","4","3","5","4","4","5","7","9","7","8","7","9","6","8","7","5","7","6","6","6","7","5","6","6","6","1","7","6","1","7","5","5","7","7","5","6","3","7","3","6","5","6","7","7","6","6","7","6","6","1","6","5","7","6","7","7","798167430248669185","王","76","Male","[""好我"",""坏他"",""坏我"",""好他""]","[""强我"",""弱他"",""弱我"",""强他""]","","","","","","","","yes","","","","","","","","","SRET","EW_formal","","key","f","16.653138613861426","799.9999682108573","445.8333156175091","朋友","无敌","Positive","ability","","","","","","","","","","",""
"627","","f","psychophysics","31","238760","0.0-7.0-3.0-0.17","5","7","5","6","7","4","4","4","5","5","4","-3","-1","1","0","2","1","0","2","4","3","5","4","4","3","5","4","4","5","7","9","7","8","7","9","6","8","7","5","7","6","6","6","7","5","6","6","6","1","7","6","1","7","5","5","7","7","5","6","3","7","3","6","5","6","7","7","6","6","7","6","6","1","6","5","7","6","7","7","798167430248669185","王","76","Male","[""好我"",""坏他"",""坏我"",""好他""]","[""强我"",""弱他"",""弱我"",""强他""]","","","","","","","","yes","","","","","","","","","SRET","EW_formal","","key","f","16.653082474226974","799.9999682108573","445.8333156175091","自己","守法","Positive","morality","","","","","","","","","","",""
"668","","j","psychophysics","32","240429","0.0-7.0-3.0-0.18","5","7","5","6","7","4","4","4","5","5","4","-3","-1","1","0","2","1","0","2","4","3","5","4","4","3","5","4","4","5","7","9","7","8","7","9","6","8","7","5","7","6","6","6","7","5","6","6","6","1","7","6","1","7","5","5","7","7","5","6","3","7","3","6","5","6","7","7","6","6","7","6","6","1","6","5","7","6","7","7","798167430248669185","王","76","Male","[""好我"",""坏他"",""坏我"",""好他""]","[""强我"",""弱他"",""弱我"",""强他""]","","","","","","","","no","","","","","","","","","SRET","EW_formal","","key","j","16.65304040404053","799.9999682108573","445.8333156175091","自己","邪恶","Negative","morality","","","","","","","","","","",""
"707","","j","psychophysics","33","242139","0.0-7.0-3.0-0.19","5","7","5","6","7","4","4","4","5","5","4","-3","-1","1","0","2","1","0","2","4","3","5","4","4","3","5","4","4","5","7","9","7","8","7","9","6","8","7","5","7","6","6","6","7","5","6","6","6","1","7","6","1","7","5","5","7","7","5","6","3","7","3","6","5","6","7","7","6","6","7","6","6","1","6","5","7","6","7","7","798167430248669185","王","76","Male","[""好我"",""坏他"",""坏我"",""好他""]","[""强我"",""弱他"",""弱我"",""强他""]","","","","","","","","no","","","","","","","","","SRET","EW_formal","","key","j","16.652911764705685","799.9999682108573","445.8333156175091","自己","昏庸","Negative","ability","","","","","","","","","","",""
"1403","","f","psychophysics","34","244544","0.0-7.0-3.0-0.20","5","7","5","6","7","4","4","4","5","5","4","-3","-1","1","0","2","1","0","2","4","3","5","4","4","3","5","4","4","5","7","9","7","8","7","9","6","8","7","5","7","6","6","6","7","5","6","6","6","1","7","6","1","7","5","5","7","7","5","6","3","7","3","6","5","6","7","7","6","6","7","6","6","1","6","5","7","6","7","7","798167430248669185","王","76","Male","[""好我"",""坏他"",""坏我"",""好他""]","[""强我"",""弱他"",""弱我"",""强他""]","","","","","","","","yes","","","","","","","","","SRET","EW_formal","","key","f","16.653237762237765","799.9999682108573","445.8333156175091","自己","仁爱","Positive","morality","","","","","","","","","","",""
"845","","f","psychophysics","35","246391","0.0-7.0-3.0-0.21","5","7","5","6","7","4","4","4","5","5","4","-3","-1","1","0","2","1","0","2","4","3","5","4","4","3","5","4","4","5","7","9","7","8","7","9","6","8","7","5","7","6","6","6","7","5","6","6","6","1","7","6","1","7","5","5","7","7","5","6","3","7","3","6","5","6","7","7","6","6","7","6","6","1","6","5","7","6","7","7","798167430248669185","王","76","Male","[""好我"",""坏他"",""坏我"",""好他""]","[""强我"",""弱他"",""弱我"",""强他""]","","","","","","","","yes","","","","","","","","","SRET","EW_formal","","key","f","16.65344545454533","799.9999682108573","445.8333156175091","自己","高明","Positive","ability","","","","","","","","","","",""
"995","","j","psychophysics","36","248387","0.0-7.0-3.0-0.22","5","7","5","6","7","4","4","4","5","5","4","-3","-1","1","0","2","1","0","2","4","3","5","4","4","3","5","4","4","5","7","9","7","8","7","9","6","8","7","5","7","6","6","6","7","5","6","6","6","1","7","6","1","7","5","5","7","7","5","6","3","7","3","6","5","6","7","7","6","6","7","6","6","1","6","5","7","6","7","7","798167430248669185","王","76","Male","[""好我"",""坏他"",""坏我"",""好他""]","[""强我"",""弱他"",""弱我"",""强他""]","","","","","","","","no","","","","","","","","","SRET","EW_formal","","key","j","16.65308403361348","799.9999682108573","445.8333156175091","朋友","低劣","Negative","morality","","","","","","","","","","",""
"750","","f","psychophysics","37","250139","0.0-7.0-3.0-0.23","5","7","5","6","7","4","4","4","5","5","4","-3","-1","1","0","2","1","0","2","4","3","5","4","4","3","5","4","4","5","7","9","7","8","7","9","6","8","7","5","7","6","6","6","7","5","6","6","6","1","7","6","1","7","5","5","7","7","5","6","3","7","3","6","5","6","7","7","6","6","7","6","6","1","6","5","7","6","7","7","798167430248669185","王","76","Male","[""好我"",""坏他"",""坏我"",""好他""]","[""强我"",""弱他"",""弱我"",""强他""]","","","","","","","","yes","","","","","","","","","SRET","EW_formal","","key","f","16.6533365384614","799.9999682108573","445.8333156175091","朋友","马虎","Negative","ability","","","","","","","","","","",""
"856","","f","psychophysics","38","251996","0.0-7.0-3.0-0.24","5","7","5","6","7","4","4","4","5","5","4","-3","-1","1","0","2","1","0","2","4","3","5","4","4","3","5","4","4","5","7","9","7","8","7","9","6","8","7","5","7","6","6","6","7","5","6","6","6","1","7","6","1","7","5","5","7","7","5","6","3","7","3","6","5","6","7","7","6","6","7","6","6","1","6","5","7","6","7","7","798167430248669185","王","76","Male","[""好我"",""坏他"",""坏我"",""好他""]","[""强我"",""弱他"",""弱我"",""强他""]","","","","","","","","yes","","","","","","","","","SRET","EW_formal","","key","f","16.652891891891805","799.9999682108573","445.8333156175091","自己","稳健","Positive","ability","","","","","","","","","","",""
"785","","f","psychophysics","39","253783","0.0-7.0-3.0-0.25","5","7","5","6","7","4","4","4","5","5","4","-3","-1","1","0","2","1","0","2","4","3","5","4","4","3","5","4","4","5","7","9","7","8","7","9","6","8","7","5","7","6","6","6","7","5","6","6","6","1","7","6","1","7","5","5","7","7","5","6","3","7","3","6","5","6","7","7","6","6","7","6","6","1","6","5","7","6","7","7","798167430248669185","王","76","Male","[""好我"",""坏他"",""坏我"",""好他""]","[""强我"",""弱他"",""弱我"",""强他""]","","","","","","","","yes","","","","","","","","","SRET","EW_formal","","key","f","16.653386792452743","799.9999682108573","445.8333156175091","自己","刚正","Positive","morality","","","","","","","","","","",""
"1259","","f","psychophysics","40","256043","0.0-7.0-3.0-0.26","5","7","5","6","7","4","4","4","5","5","4","-3","-1","1","0","2","1","0","2","4","3","5","4","4","3","5","4","4","5","7","9","7","8","7","9","6","8","7","5","7","6","6","6","7","5","6","6","6","1","7","6","1","7","5","5","7","7","5","6","3","7","3","6","5","6","7","7","6","6","7","6","6","1","6","5","7","6","7","7","798167430248669185","王","76","Male","[""好我"",""坏他"",""坏我"",""好他""]","[""强我"",""弱他"",""弱我"",""强他""]","","","","","","","","yes","","","","","","","","","SRET","EW_formal","","key","f","16.65234814814822","799.9999682108573","445.8333156175091","朋友","奉献","Positive","morality","","","","","","","","","","",""
"944","","f","psychophysics","41","257991","0.0-7.0-3.0-0.27","5","7","5","6","7","4","4","4","5","5","4","-3","-1","1","0","2","1","0","2","4","3","5","4","4","3","5","4","4","5","7","9","7","8","7","9","6","8","7","5","7","6","6","6","7","5","6","6","6","1","7","6","1","7","5","5","7","7","5","6","3","7","3","6","5","6","7","7","6","6","7","6","6","1","6","5","7","6","7","7","798167430248669185","王","76","Male","[""好我"",""坏他"",""坏我"",""好他""]","[""强我"",""弱他"",""弱我"",""强他""]","","","","","","","","yes","","","","","","","","","SRET","EW_formal","","key","f","16.652931034482677","799.9999682108573","445.8333156175091","朋友","毅力","Positive","ability","","","","","","","","","","",""
"726","","j","psychophysics","42","259719","0.0-7.0-3.0-0.28","5","7","5","6","7","4","4","4","5","5","4","-3","-1","1","0","2","1","0","2","4","3","5","4","4","3","5","4","4","5","7","9","7","8","7","9","6","8","7","5","7","6","6","6","7","5","6","6","6","1","7","6","1","7","5","5","7","7","5","6","3","7","3","6","5","6","7","7","6","6","7","6","6","1","6","5","7","6","7","7","798167430248669185","王","76","Male","[""好我"",""坏他"",""坏我"",""好他""]","[""强我"",""弱他"",""弱我"",""强他""]","","","","","","","","no","","","","","","","","","SRET","EW_formal","","key","j","16.65362745098023","799.9999682108573","445.8333156175091","自己","奸诈","Negative","morality","","","","","","","","","","",""
"705","","j","psychophysics","43","261426","0.0-7.0-3.0-0.29","5","7","5","6","7","4","4","4","5","5","4","-3","-1","1","0","2","1","0","2","4","3","5","4","4","3","5","4","4","5","7","9","7","8","7","9","6","8","7","5","7","6","6","6","7","5","6","6","6","1","7","6","1","7","5","5","7","7","5","6","3","7","3","6","5","6","7","7","6","6","7","6","6","1","6","5","7","6","7","7","798167430248669185","王","76","Male","[""好我"",""坏他"",""坏我"",""好他""]","[""强我"",""弱他"",""弱我"",""强他""]","","","","","","","","no","","","","","","","","","SRET","EW_formal","","key","j","16.65291176470597","799.9999682108573","445.8333156175091","自己","龌龊","Negative","morality","","","","","","","","","","",""
"676","","f","psychophysics","44","263104","0.0-7.0-3.0-0.30","5","7","5","6","7","4","4","4","5","5","4","-3","-1","1","0","2","1","0","2","4","3","5","4","4","3","5","4","4","5","7","9","7","8","7","9","6","8","7","5","7","6","6","6","7","5","6","6","6","1","7","6","1","7","5","5","7","7","5","6","3","7","3","6","5","6","7","7","6","6","7","6","6","1","6","5","7","6","7","7","798167430248669185","王","76","Male","[""好我"",""坏他"",""坏我"",""好他""]","[""强我"",""弱他"",""弱我"",""强他""]","","","","","","","","yes","","","","","","","","","SRET","EW_formal","","key","f","16.653169999999808","799.9999682108573","445.8333156175091","朋友","忠义","Positive","morality","","","","","","","","","","",""
"657","","f","psychophysics","45","264763","0.0-7.0-3.0-0.31","5","7","5","6","7","4","4","4","5","5","4","-3","-1","1","0","2","1","0","2","4","3","5","4","4","3","5","4","4","5","7","9","7","8","7","9","6","8","7","5","7","6","6","6","7","5","6","6","6","1","7","6","1","7","5","5","7","7","5","6","3","7","3","6","5","6","7","7","6","6","7","6","6","1","6","5","7","6","7","7","798167430248669185","王","76","Male","[""好我"",""坏他"",""坏我"",""好他""]","[""强我"",""弱他"",""弱我"",""强他""]","","","","","","","","yes","","","","","","","","","SRET","EW_formal","","key","f","16.653357142856944","799.9999682108573","445.8333156175091","自己","廉明","Positive","morality","","","","","","","","","","",""
"825","","f","psychophysics","46","266592","0.0-7.0-3.0-0.32","5","7","5","6","7","4","4","4","5","5","4","-3","-1","1","0","2","1","0","2","4","3","5","4","4","3","5","4","4","5","7","9","7","8","7","9","6","8","7","5","7","6","6","6","7","5","6","6","6","1","7","6","1","7","5","5","7","7","5","6","3","7","3","6","5","6","7","7","6","6","7","6","6","1","6","5","7","6","7","7","798167430248669185","王","76","Male","[""好我"",""坏他"",""坏我"",""好他""]","[""强我"",""弱他"",""弱我"",""强他""]","","","","","","","","yes","","","","","","","","","SRET","EW_formal","","key","f","16.65296330275185","799.9999682108573","445.8333156175091","自己","淡泊","Positive","morality","","","","","","","","","","",""
"1462","","j","psychophysics","47","269057","0.0-7.0-3.0-0.33","5","7","5","6","7","4","4","4","5","5","4","-3","-1","1","0","2","1","0","2","4","3","5","4","4","3","5","4","4","5","7","9","7","8","7","9","6","8","7","5","7","6","6","6","7","5","6","6","6","1","7","6","1","7","5","5","7","7","5","6","3","7","3","6","5","6","7","7","6","6","7","6","6","1","6","5","7","6","7","7","798167430248669185","王","76","Male","[""好我"",""坏他"",""坏我"",""好他""]","[""强我"",""弱他"",""弱我"",""强他""]","","","","","","","","no","","","","","","","","","SRET","EW_formal","","key","j","16.653353741496634","799.9999682108573","445.8333156175091","朋友","诡诈","Negative","morality","","","","","","","","","","",""
"893","","j","psychophysics","48","270953","0.0-7.0-3.0-0.34","5","7","5","6","7","4","4","4","5","5","4","-3","-1","1","0","2","1","0","2","4","3","5","4","4","3","5","4","4","5","7","9","7","8","7","9","6","8","7","5","7","6","6","6","7","5","6","6","6","1","7","6","1","7","5","5","7","7","5","6","3","7","3","6","5","6","7","7","6","6","7","6","6","1","6","5","7","6","7","7","798167430248669185","王","76","Male","[""好我"",""坏他"",""坏我"",""好他""]","[""强我"",""弱他"",""弱我"",""强他""]","","","","","","","","no","","","","","","","","","SRET","EW_formal","","key","j","16.65253097345111","799.9999682108573","445.8333156175091","朋友","窝囊","Negative","ability","","","","","","","","","","",""
"740","","f","psychophysics","49","272696","0.0-7.0-3.0-0.35","5","7","5","6","7","4","4","4","5","5","4","-3","-1","1","0","2","1","0","2","4","3","5","4","4","3","5","4","4","5","7","9","7","8","7","9","6","8","7","5","7","6","6","6","7","5","6","6","6","1","7","6","1","7","5","5","7","7","5","6","3","7","3","6","5","6","7","7","6","6","7","6","6","1","6","5","7","6","7","7","798167430248669185","王","76","Male","[""好我"",""坏他"",""坏我"",""好他""]","[""强我"",""弱他"",""弱我"",""强他""]","","","","","","","","yes","","","","","","","","","SRET","EW_formal","","key","f","16.653096153846352","799.9999682108573","445.8333156175091","自己","博学","Positive","ability","","","","","","","","","","",""
"841","","j","psychophysics","50","274540","0.0-7.0-3.0-0.36","5","7","5","6","7","4","4","4","5","5","4","-3","-1","1","0","2","1","0","2","4","3","5","4","4","3","5","4","4","5","7","9","7","8","7","9","6","8","7","5","7","6","6","6","7","5","6","6","6","1","7","6","1","7","5","5","7","7","5","6","3","7","3","6","5","6","7","7","6","6","7","6","6","1","6","5","7","6","7","7","798167430248669185","王","76","Male","[""好我"",""坏他"",""坏我"",""好他""]","[""强我"",""弱他"",""弱我"",""强他""]","","","","","","","","no","","","","","","","","","SRET","EW_formal","","key","j","16.65307339449539","799.9999682108573","445.8333156175091","自己","庸碌","Negative","ability","","","","","","","","","","",""
"1256","","j","psychophysics","51","276800","0.0-7.0-3.0-0.37","5","7","5","6","7","4","4","4","5","5","4","-3","-1","1","0","2","1","0","2","4","3","5","4","4","3","5","4","4","5","7","9","7","8","7","9","6","8","7","5","7","6","6","6","7","5","6","6","6","1","7","6","1","7","5","5","7","7","5","6","3","7","3","6","5","6","7","7","6","6","7","6","6","1","6","5","7","6","7","7","798167430248669185","王","76","Male","[""好我"",""坏他"",""坏我"",""好他""]","[""强我"",""弱他"",""弱我"",""强他""]","","","","","","","","no","","","","","","","","","SRET","EW_formal","","key","j","16.653659259259303","799.9999682108573","445.8333156175091","自己","犹豫","Negative","ability","","","","","","","","","","",""
"1571","","j","psychophysics","52","279372","0.0-7.0-3.0-0.38","5","7","5","6","7","4","4","4","5","5","4","-3","-1","1","0","2","1","0","2","4","3","5","4","4","3","5","4","4","5","7","9","7","8","7","9","6","8","7","5","7","6","6","6","7","5","6","6","6","1","7","6","1","7","5","5","7","7","5","6","3","7","3","6","5","6","7","7","6","6","7","6","6","1","6","5","7","6","7","7","798167430248669185","王","76","Male","[""好我"",""坏他"",""坏我"",""好他""]","[""强我"",""弱他"",""弱我"",""强他""]","","","","","","","","no","","","","","","","","","SRET","EW_formal","","key","j","16.65286363636343","799.9999682108573","445.8333156175091","朋友","虚伪","Negative","morality","","","","","","","","","","",""
"709","","f","psychophysics","53","281084","0.0-7.0-3.0-0.39","5","7","5","6","7","4","4","4","5","5","4","-3","-1","1","0","2","1","0","2","4","3","5","4","4","3","5","4","4","5","7","9","7","8","7","9","6","8","7","5","7","6","6","6","7","5","6","6","6","1","7","6","1","7","5","5","7","7","5","6","3","7","3","6","5","6","7","7","6","6","7","6","6","1","6","5","7","6","7","7","798167430248669185","王","76","Male","[""好我"",""坏他"",""坏我"",""好他""]","[""强我"",""弱他"",""弱我"",""强他""]","","","","","","","","yes","","","","","","","","","SRET","EW_formal","","key","f","16.65304950495034","799.9999682108573","445.8333156175091","自己","利己","Negative","morality","","","","","","","","","","",""
"1587","","f","psychophysics","54","283676","0.0-7.0-3.0-0.40","5","7","5","6","7","4","4","4","5","5","4","-3","-1","1","0","2","1","0","2","4","3","5","4","4","3","5","4","4","5","7","9","7","8","7","9","6","8","7","5","7","6","6","6","7","5","6","6","6","1","7","6","1","7","5","5","7","7","5","6","3","7","3","6","5","6","7","7","6","6","7","6","6","1","6","5","7","6","7","7","798167430248669185","王","76","Male","[""好我"",""坏他"",""坏我"",""好他""]","[""强我"",""弱他"",""弱我"",""强他""]","","","","","","","","yes","","","","","","","","","SRET","EW_formal","","key","f","16.653400000000012","799.9999682108573","445.8333156175091","朋友","细心","Positive","ability","","","","","","","","","","",""
"701","","j","psychophysics","55","285378","0.0-7.0-3.0-0.41","5","7","5","6","7","4","4","4","5","5","4","-3","-1","1","0","2","1","0","2","4","3","5","4","4","3","5","4","4","5","7","9","7","8","7","9","6","8","7","5","7","6","6","6","7","5","6","6","6","1","7","6","1","7","5","5","7","7","5","6","3","7","3","6","5","6","7","7","6","6","7","6","6","1","6","5","7","6","7","7","798167430248669185","王","76","Male","[""好我"",""坏他"",""坏我"",""好他""]","[""强我"",""弱他"",""弱我"",""强他""]","","","","","","","","no","","","","","","","","","SRET","EW_formal","","key","j","16.653198019801962","799.9999682108573","445.8333156175091","朋友","无为","Negative","ability","","","","","","","","","","",""
"887","","f","psychophysics","56","287270","0.0-7.0-3.0-0.42","5","7","5","6","7","4","4","4","5","5","4","-3","-1","1","0","2","1","0","2","4","3","5","4","4","3","5","4","4","5","7","9","7","8","7","9","6","8","7","5","7","6","6","6","7","5","6","6","6","1","7","6","1","7","5","5","7","7","5","6","3","7","3","6","5","6","7","7","6","6","7","6","6","1","6","5","7","6","7","7","798167430248669185","王","76","Male","[""好我"",""坏他"",""坏我"",""好他""]","[""强我"",""弱他"",""弱我"",""强他""]","","","","","","","","yes","","","","","","","","","SRET","EW_formal","","key","f","16.6536725663716","799.9999682108573","445.8333156175091","自己","逞能","Negative","ability","","","","","","","","","","",""
"749","","f","psychophysics","57","289019","0.0-7.0-3.0-0.43","5","7","5","6","7","4","4","4","5","5","4","-3","-1","1","0","2","1","0","2","4","3","5","4","4","3","5","4","4","5","7","9","7","8","7","9","6","8","7","5","7","6","6","6","7","5","6","6","6","1","7","6","1","7","5","5","7","7","5","6","3","7","3","6","5","6","7","7","6","6","7","6","6","1","6","5","7","6","7","7","798167430248669185","王","76","Male","[""好我"",""坏他"",""坏我"",""好他""]","[""强我"",""弱他"",""弱我"",""强他""]","","","","","","","","yes","","","","","","","","","SRET","EW_formal","","key","f","16.65402884615357","799.9999682108573","445.8333156175091","朋友","侠义","Positive","morality","","","","","","","","","","",""
"744","","j","psychophysics","58","290766","0.0-7.0-3.0-0.44","5","7","5","6","7","4","4","4","5","5","4","-3","-1","1","0","2","1","0","2","4","3","5","4","4","3","5","4","4","5","7","9","7","8","7","9","6","8","7","5","7","6","6","6","7","5","6","6","6","1","7","6","1","7","5","5","7","7","5","6","3","7","3","6","5","6","7","7","6","6","7","6","6","1","6","5","7","6","7","7","798167430248669185","王","76","Male","[""好我"",""坏他"",""坏我"",""好他""]","[""强我"",""弱他"",""弱我"",""强他""]","","","","","","","","no","","","","","","","","","SRET","EW_formal","","key","j","16.65358653846152","799.9999682108573","445.8333156175091","自己","卑鄙","Negative","morality","","","","","","","","","","",""
"780","","j","psychophysics","59","292548","0.0-7.0-3.0-0.45","5","7","5","6","7","4","4","4","5","5","4","-3","-1","1","0","2","1","0","2","4","3","5","4","4","3","5","4","4","5","7","9","7","8","7","9","6","8","7","5","7","6","6","6","7","5","6","6","6","1","7","6","1","7","5","5","7","7","5","6","3","7","3","6","5","6","7","7","6","6","7","6","6","1","6","5","7","6","7","7","798167430248669185","王","76","Male","[""好我"",""坏他"",""坏我"",""好他""]","[""强我"",""弱他"",""弱我"",""强他""]","","","","","","","","no","","","","","","","","","SRET","EW_formal","","key","j","16.653018867924814","799.9999682108573","445.8333156175091","朋友","混账","Negative","morality","","","","","","","","","","",""
"894","","j","psychophysics","60","294445","0.0-7.0-3.0-0.46","5","7","5","6","7","4","4","4","5","5","4","-3","-1","1","0","2","1","0","2","4","3","5","4","4","3","5","4","4","5","7","9","7","8","7","9","6","8","7","5","7","6","6","6","7","5","6","6","6","1","7","6","1","7","5","5","7","7","5","6","3","7","3","6","5","6","7","7","6","6","7","6","6","1","6","5","7","6","7","7","798167430248669185","王","76","Male","[""好我"",""坏他"",""坏我"",""好他""]","[""强我"",""弱他"",""弱我"",""强他""]","","","","","","","","no","","","","","","","","","SRET","EW_formal","","key","j","16.653407079646204","799.9999682108573","445.8333156175091","朋友","奸险","Negative","morality","","","","","","","","","","",""
"1995","","j","psychophysics","61","297441","0.0-7.0-3.0-0.47","5","7","5","6","7","4","4","4","5","5","4","-3","-1","1","0","2","1","0","2","4","3","5","4","4","3","5","4","4","5","7","9","7","8","7","9","6","8","7","5","7","6","6","6","7","5","6","6","6","1","7","6","1","7","5","5","7","7","5","6","3","7","3","6","5","6","7","7","6","6","7","6","6","1","6","5","7","6","7","7","798167430248669185","王","76","Male","[""好我"",""坏他"",""坏我"",""好他""]","[""强我"",""弱他"",""弱我"",""强他""]","","","","","","","","no","","","","","","","","","SRET","EW_formal","","key","j","16.652820224719047","799.9999682108573","445.8333156175091","自己","屈才","Negative","ability","","","","","","","","","","",""
"763","","j","psychophysics","62","299208","0.0-7.0-3.0-0.48","5","7","5","6","7","4","4","4","5","5","4","-3","-1","1","0","2","1","0","2","4","3","5","4","4","3","5","4","4","5","7","9","7","8","7","9","6","8","7","5","7","6","6","6","7","5","6","6","6","1","7","6","1","7","5","5","7","7","5","6","3","7","3","6","5","6","7","7","6","6","7","6","6","1","6","5","7","6","7","7","798167430248669185","王","76","Male","[""好我"",""坏他"",""坏我"",""好他""]","[""强我"",""弱他"",""弱我"",""强他""]","","","","","","","","no","","","","","","","","","SRET","EW_formal","","key","j","16.653660377358495","799.9999682108573","445.8333156175091","朋友","无知","Negative","ability","","","","","","","","","","",""
"865","","f","psychophysics","63","301075","0.0-7.0-3.0-0.49","5","7","5","6","7","4","4","4","5","5","4","-3","-1","1","0","2","1","0","2","4","3","5","4","4","3","5","4","4","5","7","9","7","8","7","9","6","8","7","5","7","6","6","6","7","5","6","6","6","1","7","6","1","7","5","5","7","7","5","6","3","7","3","6","5","6","7","7","6","6","7","6","6","1","6","5","7","6","7","7","798167430248669185","王","76","Male","[""好我"",""坏他"",""坏我"",""好他""]","[""强我"",""弱他"",""弱我"",""强他""]","","","","","","","","yes","","","","","","","","","SRET","EW_formal","","key","f","16.654162162161843","799.9999682108573","445.8333156175091","自己","短视","Negative","ability","","","","","","","","","","",""
"961","","f","psychophysics","64","303037","0.0-7.0-3.0-0.50","5","7","5","6","7","4","4","4","5","5","4","-3","-1","1","0","2","1","0","2","4","3","5","4","4","3","5","4","4","5","7","9","7","8","7","9","6","8","7","5","7","6","6","6","7","5","6","6","6","1","7","6","1","7","5","5","7","7","5","6","3","7","3","6","5","6","7","7","6","6","7","6","6","1","6","5","7","6","7","7","798167430248669185","王","76","Male","[""好我"",""坏他"",""坏我"",""好他""]","[""强我"",""弱他"",""弱我"",""强他""]","","","","","","","","yes","","","","","","","","","SRET","EW_formal","","key","f","16.652863247863326","799.9999682108573","445.8333156175091","朋友","高洁","Positive","morality","","","","","","","","","","",""
"855","","j","psychophysics","65","304893","0.0-7.0-3.0-0.51","5","7","5","6","7","4","4","4","5","5","4","-3","-1","1","0","2","1","0","2","4","3","5","4","4","3","5","4","4","5","7","9","7","8","7","9","6","8","7","5","7","6","6","6","7","5","6","6","6","1","7","6","1","7","5","5","7","7","5","6","3","7","3","6","5","6","7","7","6","6","7","6","6","1","6","5","7","6","7","7","798167430248669185","王","76","Male","[""好我"",""坏他"",""坏我"",""好他""]","[""强我"",""弱他"",""弱我"",""强他""]","","","","","","","","no","","","","","","","","","SRET","EW_formal","","key","j","16.653554545454575","799.9999682108573","445.8333156175091","朋友","独断","Negative","ability","","","","","","","","","","",""
"722","","f","psychophysics","66","306617","0.0-7.0-3.0-0.52","5","7","5","6","7","4","4","4","5","5","4","-3","-1","1","0","2","1","0","2","4","3","5","4","4","3","5","4","4","5","7","9","7","8","7","9","6","8","7","5","7","6","6","6","7","5","6","6","6","1","7","6","1","7","5","5","7","7","5","6","3","7","3","6","5","6","7","7","6","6","7","6","6","1","6","5","7","6","7","7","798167430248669185","王","76","Male","[""好我"",""坏他"",""坏我"",""好他""]","[""强我"",""弱他"",""弱我"",""强他""]","","","","","","","","yes","","","","","","","","","SRET","EW_formal","","key","f","16.652901960783936","799.9999682108573","445.8333156175091","自己","全才","Positive","ability","","","","","","","","","","",""
"1597","","f","psychophysics","67","309216","0.0-7.0-3.0-0.53","5","7","5","6","7","4","4","4","5","5","4","-3","-1","1","0","2","1","0","2","4","3","5","4","4","3","5","4","4","5","7","9","7","8","7","9","6","8","7","5","7","6","6","6","7","5","6","6","6","1","7","6","1","7","5","5","7","7","5","6","3","7","3","6","5","6","7","7","6","6","7","6","6","1","6","5","7","6","7","7","798167430248669185","王","76","Male","[""好我"",""坏他"",""坏我"",""好他""]","[""强我"",""弱他"",""弱我"",""强他""]","","","","","","","","yes","","","","","","","","","SRET","EW_formal","","key","f","16.653108974359036","799.9999682108573","445.8333156175091","自己","能干","Positive","ability","","","","","","","","","","",""
"836","","j","psychophysics","68","311054","0.0-7.0-3.0-0.54","5","7","5","6","7","4","4","4","5","5","4","-3","-1","1","0","2","1","0","2","4","3","5","4","4","3","5","4","4","5","7","9","7","8","7","9","6","8","7","5","7","6","6","6","7","5","6","6","6","1","7","6","1","7","5","5","7","7","5","6","3","7","3","6","5","6","7","7","6","6","7","6","6","1","6","5","7","6","7","7","798167430248669185","王","76","Male","[""好我"",""坏他"",""坏我"",""好他""]","[""强我"",""弱他"",""弱我"",""强他""]","","","","","","","","no","","","","","","","","","SRET","EW_formal","","key","j","16.653128440366896","799.9999682108573","445.8333156175091","自己","草率","Negative","ability","","","","","","","","","","",""
"700","","f","psychophysics","69","312755","0.0-7.0-3.0-0.55","5","7","5","6","7","4","4","4","5","5","4","-3","-1","1","0","2","1","0","2","4","3","5","4","4","3","5","4","4","5","7","9","7","8","7","9","6","8","7","5","7","6","6","6","7","5","6","6","6","1","7","6","1","7","5","5","7","7","5","6","3","7","3","6","5","6","7","7","6","6","7","6","6","1","6","5","7","6","7","7","798167430248669185","王","76","Male","[""好我"",""坏他"",""坏我"",""好他""]","[""强我"",""弱他"",""弱我"",""强他""]","","","","","","","","yes","","","","","","","","","SRET","EW_formal","","key","f","16.653217821782523","799.9999682108573","445.8333156175091","自己","依靠","Negative","ability","","","","","","","","","","",""
"871","","j","psychophysics","70","314628","0.0-7.0-3.0-0.56","5","7","5","6","7","4","4","4","5","5","4","-3","-1","1","0","2","1","0","2","4","3","5","4","4","3","5","4","4","5","7","9","7","8","7","9","6","8","7","5","7","6","6","6","7","5","6","6","6","1","7","6","1","7","5","5","7","7","5","6","3","7","3","6","5","6","7","7","6","6","7","6","6","1","6","5","7","6","7","7","798167430248669185","王","76","Male","[""好我"",""坏他"",""坏我"",""好他""]","[""强我"",""弱他"",""弱我"",""强他""]","","","","","","","","no","","","","","","","","","SRET","EW_formal","","key","j","16.65444144144128","799.9999682108573","445.8333156175091","自己","变通","Positive","ability","","","","","","","","","","",""
"778","","f","psychophysics","71","316408","0.0-7.0-3.0-0.57","5","7","5","6","7","4","4","4","5","5","4","-3","-1","1","0","2","1","0","2","4","3","5","4","4","3","5","4","4","5","7","9","7","8","7","9","6","8","7","5","7","6","6","6","7","5","6","6","6","1","7","6","1","7","5","5","7","7","5","6","3","7","3","6","5","6","7","7","6","6","7","6","6","1","6","5","7","6","7","7","798167430248669185","王","76","Male","[""好我"",""坏他"",""坏我"",""好他""]","[""强我"",""弱他"",""弱我"",""强他""]","","","","","","","","yes","","","","","","","","","SRET","EW_formal","","key","f","16.65246226415115","799.9999682108573","445.8333156175091","朋友","聪明","Positive","ability","","","","","","","","","","",""
"865","","j","psychophysics","72","318275","0.0-7.0-3.0-0.58","5","7","5","6","7","4","4","4","5","5","4","-3","-1","1","0","2","1","0","2","4","3","5","4","4","3","5","4","4","5","7","9","7","8","7","9","6","8","7","5","7","6","6","6","7","5","6","6","6","1","7","6","1","7","5","5","7","7","5","6","3","7","3","6","5","6","7","7","6","6","7","6","6","1","6","5","7","6","7","7","798167430248669185","王","76","Male","[""好我"",""坏他"",""坏我"",""好他""]","[""强我"",""弱他"",""弱我"",""强他""]","","","","","","","","no","","","","","","","","","SRET","EW_formal","","key","j","16.653098214285688","799.9999682108573","445.8333156175091","朋友","差生","Negative","ability","","","","","","","","","","",""
"1134","","f","psychophysics","73","320412","0.0-7.0-3.0-0.59","5","7","5","6","7","4","4","4","5","5","4","-3","-1","1","0","2","1","0","2","4","3","5","4","4","3","5","4","4","5","7","9","7","8","7","9","6","8","7","5","7","6","6","6","7","5","6","6","6","1","7","6","1","7","5","5","7","7","5","6","3","7","3","6","5","6","7","7","6","6","7","6","6","1","6","5","7","6","7","7","798167430248669185","王","76","Male","[""好我"",""坏他"",""坏我"",""好他""]","[""强我"",""弱他"",""弱我"",""强他""]","","","","","","","","yes","","","","","","","","","SRET","EW_formal","","key","f","16.653511811023503","799.9999682108573","445.8333156175091","朋友","热心","Positive","morality","","","","","","","","","","",""
"1308","","f","psychophysics","74","322722","0.0-7.0-3.0-0.60","5","7","5","6","7","4","4","4","5","5","4","-3","-1","1","0","2","1","0","2","4","3","5","4","4","3","5","4","4","5","7","9","7","8","7","9","6","8","7","5","7","6","6","6","7","5","6","6","6","1","7","6","1","7","5","5","7","7","5","6","3","7","3","6","5","6","7","7","6","6","7","6","6","1","6","5","7","6","7","7","798167430248669185","王","76","Male","[""好我"",""坏他"",""坏我"",""好他""]","[""强我"",""弱他"",""弱我"",""强他""]","","","","","","","","yes","","","","","","","","","SRET","EW_formal","","key","f","16.653289855072323","799.9999682108573","445.8333156175091","自己","清廉","Positive","morality","","","","","","","","","","",""
"1139","","j","psychophysics","75","324863","0.0-7.0-3.0-0.61","5","7","5","6","7","4","4","4","5","5","4","-3","-1","1","0","2","1","0","2","4","3","5","4","4","3","5","4","4","5","7","9","7","8","7","9","6","8","7","5","7","6","6","6","7","5","6","6","6","1","7","6","1","7","5","5","7","7","5","6","3","7","3","6","5","6","7","7","6","6","7","6","6","1","6","5","7","6","7","7","798167430248669185","王","76","Male","[""好我"",""坏他"",""坏我"",""好他""]","[""强我"",""弱他"",""弱我"",""强他""]","","","","","","","","no","","","","","","","","","SRET","EW_formal","","key","j","16.652968503937206","799.9999682108573","445.8333156175091","自己","思辨","Positive","ability","","","","","","","","","","",""
"955","","j","psychophysics","76","326820","0.0-7.0-3.0-0.62","5","7","5","6","7","4","4","4","5","5","4","-3","-1","1","0","2","1","0","2","4","3","5","4","4","3","5","4","4","5","7","9","7","8","7","9","6","8","7","5","7","6","6","6","7","5","6","6","6","1","7","6","1","7","5","5","7","7","5","6","3","7","3","6","5","6","7","7","6","6","7","6","6","1","6","5","7","6","7","7","798167430248669185","王","76","Male","[""好我"",""坏他"",""坏我"",""好他""]","[""强我"",""弱他"",""弱我"",""强他""]","","","","","","","","no","","","","","","","","","SRET","EW_formal","","key","j","16.652914529914558","799.9999682108573","445.8333156175091","朋友","顶事","Positive","ability","","","","","","","","","","",""
"697","","j","psychophysics","77","328518","0.0-7.0-3.0-0.63","5","7","5","6","7","4","4","4","5","5","4","-3","-1","1","0","2","1","0","2","4","3","5","4","4","3","5","4","4","5","7","9","7","8","7","9","6","8","7","5","7","6","6","6","7","5","6","6","6","1","7","6","1","7","5","5","7","7","5","6","3","7","3","6","5","6","7","7","6","6","7","6","6","1","6","5","7","6","7","7","798167430248669185","王","76","Male","[""好我"",""坏他"",""坏我"",""好他""]","[""强我"",""弱他"",""弱我"",""强他""]","","","","","","","","no","","","","","","","","","SRET","EW_formal","","key","j","16.652960396039248","799.9999682108573","445.8333156175091","朋友","拖延","Negative","ability","","","","","","","","","","",""
"838","","j","psychophysics","78","330356","0.0-7.0-3.0-0.64","5","7","5","6","7","4","4","4","5","5","4","-3","-1","1","0","2","1","0","2","4","3","5","4","4","3","5","4","4","5","7","9","7","8","7","9","6","8","7","5","7","6","6","6","7","5","6","6","6","1","7","6","1","7","5","5","7","7","5","6","3","7","3","6","5","6","7","7","6","6","7","6","6","1","6","5","7","6","7","7","798167430248669185","王","76","Male","[""好我"",""坏他"",""坏我"",""好他""]","[""强我"",""弱他"",""弱我"",""强他""]","","","","","","","","no","","","","","","","","","SRET","EW_formal","","key","j","16.65309174311958","799.9999682108573","445.8333156175091","朋友","势利","Negative","morality","","","","","","","","","","",""
"699","","f","psychophysics","79","332057","0.0-7.0-3.0-0.65","5","7","5","6","7","4","4","4","5","5","4","-3","-1","1","0","2","1","0","2","4","3","5","4","4","3","5","4","4","5","7","9","7","8","7","9","6","8","7","5","7","6","6","6","7","5","6","6","6","1","7","6","1","7","5","5","7","7","5","6","3","7","3","6","5","6","7","7","6","6","7","6","6","1","6","5","7","6","7","7","798167430248669185","王","76","Male","[""好我"",""坏他"",""坏我"",""好他""]","[""强我"",""弱他"",""弱我"",""强他""]","","","","","","","","yes","","","","","","","","","SRET","EW_formal","","key","f","16.653217821781947","799.9999682108573","445.8333156175091","朋友","仁厚","Positive","morality","","","","","","","","","","",""
"669","","j","psychophysics","80","333729","0.0-7.0-3.0-0.66","5","7","5","6","7","4","4","4","5","5","4","-3","-1","1","0","2","1","0","2","4","3","5","4","4","3","5","4","4","5","7","9","7","8","7","9","6","8","7","5","7","6","6","6","7","5","6","6","6","1","7","6","1","7","5","5","7","7","5","6","3","7","3","6","5","6","7","7","6","6","7","6","6","1","6","5","7","6","7","7","798167430248669185","王","76","Male","[""好我"",""坏他"",""坏我"",""好他""]","[""强我"",""弱他"",""弱我"",""强他""]","","","","","","","","no","","","","","","","","","SRET","EW_formal","","key","j","16.65414000000048","799.9999682108573","445.8333156175091","朋友","怠惰","Negative","ability","","","","","","","","","","",""
"1162","","f","psychophysics","81","335893","0.0-7.0-3.0-0.67","5","7","5","6","7","4","4","4","5","5","4","-3","-1","1","0","2","1","0","2","4","3","5","4","4","3","5","4","4","5","7","9","7","8","7","9","6","8","7","5","7","6","6","6","7","5","6","6","6","1","7","6","1","7","5","5","7","7","5","6","3","7","3","6","5","6","7","7","6","6","7","6","6","1","6","5","7","6","7","7","798167430248669185","王","76","Male","[""好我"",""坏他"",""坏我"",""好他""]","[""强我"",""弱他"",""弱我"",""强他""]","","","","","","","","yes","","","","","","","","","SRET","EW_formal","","key","f","16.652914728682358","799.9999682108573","445.8333156175091","朋友","有力","Positive","ability","","","","","","","","","","",""
"590","","j","psychophysics","82","337485","0.0-7.0-3.0-0.68","5","7","5","6","7","4","4","4","5","5","4","-3","-1","1","0","2","1","0","2","4","3","5","4","4","3","5","4","4","5","7","9","7","8","7","9","6","8","7","5","7","6","6","6","7","5","6","6","6","1","7","6","1","7","5","5","7","7","5","6","3","7","3","6","5","6","7","7","6","6","7","6","6","1","6","5","7","6","7","7","798167430248669185","王","76","Male","[""好我"",""坏他"",""坏我"",""好他""]","[""强我"",""弱他"",""弱我"",""强他""]","","","","","","","","no","","","","","","","","","SRET","EW_formal","","key","j","16.653159574468056","799.9999682108573","445.8333156175091","朋友","无耻","Negative","morality","","","","","","","","","","",""
"1074","","f","psychophysics","83","339561","0.0-7.0-3.0-0.69","5","7","5","6","7","4","4","4","5","5","4","-3","-1","1","0","2","1","0","2","4","3","5","4","4","3","5","4","4","5","7","9","7","8","7","9","6","8","7","5","7","6","6","6","7","5","6","6","6","1","7","6","1","7","5","5","7","7","5","6","3","7","3","6","5","6","7","7","6","6","7","6","6","1","6","5","7","6","7","7","798167430248669185","王","76","Male","[""好我"",""坏他"",""坏我"",""好他""]","[""强我"",""弱他"",""弱我"",""强他""]","","","","","","","","yes","","","","","","","","","SRET","EW_formal","","key","f","16.65378225806466","799.9999682108573","445.8333156175091","自己","新手","Negative","ability","","","","","","","","","","",""
"1427","","j","psychophysics","84","341989","0.0-7.0-3.0-0.70","5","7","5","6","7","4","4","4","5","5","4","-3","-1","1","0","2","1","0","2","4","3","5","4","4","3","5","4","4","5","7","9","7","8","7","9","6","8","7","5","7","6","6","6","7","5","6","6","6","1","7","6","1","7","5","5","7","7","5","6","3","7","3","6","5","6","7","7","6","6","7","6","6","1","6","5","7","6","7","7","798167430248669185","王","76","Male","[""好我"",""坏他"",""坏我"",""好他""]","[""强我"",""弱他"",""弱我"",""强他""]","","","","","","","","no","","","","","","","","","SRET","EW_formal","","key","j","16.652399999999986","799.9999682108573","445.8333156175091","自己","狡诈","Negative","morality","","","","","","","","","","",""
"1078","","f","psychophysics","85","344070","0.0-7.0-3.0-0.71","5","7","5","6","7","4","4","4","5","5","4","-3","-1","1","0","2","1","0","2","4","3","5","4","4","3","5","4","4","5","7","9","7","8","7","9","6","8","7","5","7","6","6","6","7","5","6","6","6","1","7","6","1","7","5","5","7","7","5","6","3","7","3","6","5","6","7","7","6","6","7","6","6","1","6","5","7","6","7","7","798167430248669185","王","76","Male","[""好我"",""坏他"",""坏我"",""好他""]","[""强我"",""弱他"",""弱我"",""强他""]","","","","","","","","yes","","","","","","","","","SRET","EW_formal","","key","f","16.653959677419476","799.9999682108573","445.8333156175091","朋友","专注","Positive","ability","","","","","","","","","","",""
"743","","f","psychophysics","86","345814","0.0-7.0-3.0-0.72","5","7","5","6","7","4","4","4","5","5","4","-3","-1","1","0","2","1","0","2","4","3","5","4","4","3","5","4","4","5","7","9","7","8","7","9","6","8","7","5","7","6","6","6","7","5","6","6","6","1","7","6","1","7","5","5","7","7","5","6","3","7","3","6","5","6","7","7","6","6","7","6","6","1","6","5","7","6","7","7","798167430248669185","王","76","Male","[""好我"",""坏他"",""坏我"",""好他""]","[""强我"",""弱他"",""弱我"",""强他""]","","","","","","","","yes","","","","","","","","","SRET","EW_formal","","key","f","16.65431067961137","799.9999682108573","445.8333156175091","朋友","独立","Positive","ability","","","","","","","","","","",""
"707","","f","psychophysics","87","347524","0.0-7.0-3.0-0.73","5","7","5","6","7","4","4","4","5","5","4","-3","-1","1","0","2","1","0","2","4","3","5","4","4","3","5","4","4","5","7","9","7","8","7","9","6","8","7","5","7","6","6","6","7","5","6","6","6","1","7","6","1","7","5","5","7","7","5","6","3","7","3","6","5","6","7","7","6","6","7","6","6","1","6","5","7","6","7","7","798167430248669185","王","76","Male","[""好我"",""坏他"",""坏我"",""好他""]","[""强我"",""弱他"",""弱我"",""强他""]","","","","","","","","yes","","","","","","","","","SRET","EW_formal","","key","f","16.65280392156873","799.9999682108573","445.8333156175091","朋友","忠良","Positive","morality","","","","","","","","","","",""
"749","","j","psychophysics","88","349274","0.0-7.0-3.0-0.74","5","7","5","6","7","4","4","4","5","5","4","-3","-1","1","0","2","1","0","2","4","3","5","4","4","3","5","4","4","5","7","9","7","8","7","9","6","8","7","5","7","6","6","6","7","5","6","6","6","1","7","6","1","7","5","5","7","7","5","6","3","7","3","6","5","6","7","7","6","6","7","6","6","1","6","5","7","6","7","7","798167430248669185","王","76","Male","[""好我"",""坏他"",""坏我"",""好他""]","[""强我"",""弱他"",""弱我"",""强他""]","","","","","","","","no","","","","","","","","","SRET","EW_formal","","key","j","16.652836538461717","799.9999682108573","445.8333156175091","自己","刻苦","Positive","ability","","","","","","","","","","",""
"1542","","f","psychophysics","89","351817","0.0-7.0-3.0-0.75","5","7","5","6","7","4","4","4","5","5","4","-3","-1","1","0","2","1","0","2","4","3","5","4","4","3","5","4","4","5","7","9","7","8","7","9","6","8","7","5","7","6","6","6","7","5","6","6","6","1","7","6","1","7","5","5","7","7","5","6","3","7","3","6","5","6","7","7","6","6","7","6","6","1","6","5","7","6","7","7","798167430248669185","王","76","Male","[""好我"",""坏他"",""坏我"",""好他""]","[""强我"",""弱他"",""弱我"",""强他""]","","","","","","","","yes","","","","","","","","","SRET","EW_formal","","key","f","16.653197368420813","799.9999682108573","445.8333156175091","朋友","无私","Positive","morality","","","","","","","","","","",""
"675","","j","psychophysics","90","353495","0.0-7.0-3.0-0.76","5","7","5","6","7","4","4","4","5","5","4","-3","-1","1","0","2","1","0","2","4","3","5","4","4","3","5","4","4","5","7","9","7","8","7","9","6","8","7","5","7","6","6","6","7","5","6","6","6","1","7","6","1","7","5","5","7","7","5","6","3","7","3","6","5","6","7","7","6","6","7","6","6","1","6","5","7","6","7","7","798167430248669185","王","76","Male","[""好我"",""坏他"",""坏我"",""好他""]","[""强我"",""弱他"",""弱我"",""强他""]","","","","","","","","no","","","","","","","","","SRET","EW_formal","","key","j","16.652820000000066","799.9999682108573","445.8333156175091","自己","毛糙","Negative","ability","","","","","","","","","","",""
"918","","j","psychophysics","91","355415","0.0-7.0-3.0-0.77","5","7","5","6","7","4","4","4","5","5","4","-3","-1","1","0","2","1","0","2","4","3","5","4","4","3","5","4","4","5","7","9","7","8","7","9","6","8","7","5","7","6","6","6","7","5","6","6","6","1","7","6","1","7","5","5","7","7","5","6","3","7","3","6","5","6","7","7","6","6","7","6","6","1","6","5","7","6","7","7","798167430248669185","王","76","Male","[""好我"",""坏他"",""坏我"",""好他""]","[""强我"",""弱他"",""弱我"",""强他""]","","","","","","","","no","","","","","","","","","SRET","EW_formal","","key","j","16.652929824561475","799.9999682108573","445.8333156175091","自己","偏私","Negative","morality","","","","","","","","","","",""
"854","","f","psychophysics","92","357270","0.0-7.0-3.0-0.78","5","7","5","6","7","4","4","4","5","5","4","-3","-1","1","0","2","1","0","2","4","3","5","4","4","3","5","4","4","5","7","9","7","8","7","9","6","8","7","5","7","6","6","6","7","5","6","6","6","1","7","6","1","7","5","5","7","7","5","6","3","7","3","6","5","6","7","7","6","6","7","6","6","1","6","5","7","6","7","7","798167430248669185","王","76","Male","[""好我"",""坏他"",""坏我"",""好他""]","[""强我"",""弱他"",""弱我"",""强他""]","","","","","","","","yes","","","","","","","","","SRET","EW_formal","","key","f","16.653127272727115","799.9999682108573","445.8333156175091","朋友","勤奋","Positive","ability","","","","","","","","","","",""
"760","","j","psychophysics","93","359033","0.0-7.0-3.0-0.79","5","7","5","6","7","4","4","4","5","5","4","-3","-1","1","0","2","1","0","2","4","3","5","4","4","3","5","4","4","5","7","9","7","8","7","9","6","8","7","5","7","6","6","6","7","5","6","6","6","1","7","6","1","7","5","5","7","7","5","6","3","7","3","6","5","6","7","7","6","6","7","6","6","1","6","5","7","6","7","7","798167430248669185","王","76","Male","[""好我"",""坏他"",""坏我"",""好他""]","[""强我"",""弱他"",""弱我"",""强他""]","","","","","","","","no","","","","","","","","","SRET","EW_formal","","key","j","16.652961904762336","799.9999682108573","445.8333156175091","自己","黑心","Negative","morality","","","","","","","","","","",""
"1254","","j","psychophysics","94","361289","0.0-7.0-3.0-0.80","5","7","5","6","7","4","4","4","5","5","4","-3","-1","1","0","2","1","0","2","4","3","5","4","4","3","5","4","4","5","7","9","7","8","7","9","6","8","7","5","7","6","6","6","7","5","6","6","6","1","7","6","1","7","5","5","7","7","5","6","3","7","3","6","5","6","7","7","6","6","7","6","6","1","6","5","7","6","7","7","798167430248669185","王","76","Male","[""好我"",""坏他"",""坏我"",""好他""]","[""强我"",""弱他"",""弱我"",""强他""]","","","","","","","","no","","","","","","","","","SRET","EW_formal","","key","j","16.652829629629505","799.9999682108573","445.8333156175091","朋友","才尽","Negative","ability","","","","","","","","","","",""
"888","","j","psychophysics","95","363179","0.0-7.0-3.0-0.81","5","7","5","6","7","4","4","4","5","5","4","-3","-1","1","0","2","1","0","2","4","3","5","4","4","3","5","4","4","5","7","9","7","8","7","9","6","8","7","5","7","6","6","6","7","5","6","6","6","1","7","6","1","7","5","5","7","7","5","6","3","7","3","6","5","6","7","7","6","6","7","6","6","1","6","5","7","6","7","7","798167430248669185","王","76","Male","[""好我"",""坏他"",""坏我"",""好他""]","[""强我"",""弱他"",""弱我"",""强他""]","","","","","","","","no","","","","","","","","","SRET","EW_formal","","key","j","16.652803571428585","799.9999682108573","445.8333156175091","朋友","不端","Negative","morality","","","","","","","","","","",""
"1113","","j","psychophysics","96","365295","0.0-7.0-3.0-0.82","5","7","5","6","7","4","4","4","5","5","4","-3","-1","1","0","2","1","0","2","4","3","5","4","4","3","5","4","4","5","7","9","7","8","7","9","6","8","7","5","7","6","6","6","7","5","6","6","6","1","7","6","1","7","5","5","7","7","5","6","3","7","3","6","5","6","7","7","6","6","7","6","6","1","6","5","7","6","7","7","798167430248669185","王","76","Male","[""好我"",""坏他"",""坏我"",""好他""]","[""强我"",""弱他"",""弱我"",""强他""]","","","","","","","","no","","","","","","","","","SRET","EW_formal","","key","j","16.65380158730171","799.9999682108573","445.8333156175091","朋友","狡狯","Negative","morality","","","","","","","","","","",""
"641","","j","psychophysics","97","366938","0.0-7.0-3.0-0.83","5","7","5","6","7","4","4","4","5","5","4","-3","-1","1","0","2","1","0","2","4","3","5","4","4","3","5","4","4","5","7","9","7","8","7","9","6","8","7","5","7","6","6","6","7","5","6","6","6","1","7","6","1","7","5","5","7","7","5","6","3","7","3","6","5","6","7","7","6","6","7","6","6","1","6","5","7","6","7","7","798167430248669185","王","76","Male","[""好我"",""坏他"",""坏我"",""好他""]","[""强我"",""弱他"",""弱我"",""强他""]","","","","","","","","no","","","","","","","","","SRET","EW_formal","","key","j","16.653234693877476","799.9999682108573","445.8333156175091","自己","背叛","Negative","morality","","","","","","","","","","",""
"1015","","j","psychophysics","98","368954","0.0-7.0-3.0-0.84","5","7","5","6","7","4","4","4","5","5","4","-3","-1","1","0","2","1","0","2","4","3","5","4","4","3","5","4","4","5","7","9","7","8","7","9","6","8","7","5","7","6","6","6","7","5","6","6","6","1","7","6","1","7","5","5","7","7","5","6","3","7","3","6","5","6","7","7","6","6","7","6","6","1","6","5","7","6","7","7","798167430248669185","王","76","Male","[""好我"",""坏他"",""坏我"",""好他""]","[""强我"",""弱他"",""弱我"",""强他""]","","","","","","","","no","","","","","","","","","SRET","EW_formal","","key","j","16.65380833333329","799.9999682108573","445.8333156175091","自己","缓慢","Negative","ability","","","","","","","","","","",""
"1332","","f","psychophysics","99","371287","0.0-7.0-3.0-0.85","5","7","5","6","7","4","4","4","5","5","4","-3","-1","1","0","2","1","0","2","4","3","5","4","4","3","5","4","4","5","7","9","7","8","7","9","6","8","7","5","7","6","6","6","7","5","6","6","6","1","7","6","1","7","5","5","7","7","5","6","3","7","3","6","5","6","7","7","6","6","7","6","6","1","6","5","7","6","7","7","798167430248669185","王","76","Male","[""好我"",""坏他"",""坏我"",""好他""]","[""强我"",""弱他"",""弱我"",""强他""]","","","","","","","","yes","","","","","","","","","SRET","EW_formal","","key","f","16.774333333333388","799.9999682108573","445.8333156175091","朋友","素养","Positive","morality","","","","","","","","","","",""
"718","","j","psychophysics","100","373007","0.0-7.0-3.0-0.86","5","7","5","6","7","4","4","4","5","5","4","-3","-1","1","0","2","1","0","2","4","3","5","4","4","3","5","4","4","5","7","9","7","8","7","9","6","8","7","5","7","6","6","6","7","5","6","6","6","1","7","6","1","7","5","5","7","7","5","6","3","7","3","6","5","6","7","7","6","6","7","6","6","1","6","5","7","6","7","7","798167430248669185","王","76","Male","[""好我"",""坏他"",""坏我"",""好他""]","[""强我"",""弱他"",""弱我"",""强他""]","","","","","","","","no","","","","","","","","","SRET","EW_formal","","key","j","16.653470588235102","799.9999682108573","445.8333156175091","朋友","低俗","Negative","morality","","","","","","","","","","",""
"654","","f","psychophysics","101","374663","0.0-7.0-3.0-0.87","5","7","5","6","7","4","4","4","5","5","4","-3","-1","1","0","2","1","0","2","4","3","5","4","4","3","5","4","4","5","7","9","7","8","7","9","6","8","7","5","7","6","6","6","7","5","6","6","6","1","7","6","1","7","5","5","7","7","5","6","3","7","3","6","5","6","7","7","6","6","7","6","6","1","6","5","7","6","7","7","798167430248669185","王","76","Male","[""好我"",""坏他"",""坏我"",""好他""]","[""强我"",""弱他"",""弱我"",""强他""]","","","","","","","","yes","","","","","","","","","SRET","EW_formal","","key","f","16.65389898989874","799.9999682108573","445.8333156175091","自己","主见","Positive","ability","","","","","","","","","","",""
"57413","
    <p><div style='color:white;font-size:35px; line-height:20px;'>计算任务</div></p><br>
    <p><div style='color:red;font-size:25px; line-height:20px;'>接下来，您将看到一些四则运算题，<b>请从键盘选择 0-9 进行反应。</b></div></p>
    <p><div style='color:red;font-size:25px; line-height:20px;'>请尽可能快地进行计算，计算的速度和正确率将影响报酬的发放。</div></p>
    <p><div class='footer' style='color:white;font-size:25px; line-height:20px;'>如果对本实验还有不清楚之处，请立即向实验员咨询。</p><p style='color:white;font-size:25px; line-height:20px;'>如果您明白了规则：</p><p style='color:white;font-size:22px; line-height:20px;'>请按 继续 进入练习</p>
    </div>
    ","0","html-button-response","102","432078","0.0-7.0-4.0","5","7","5","6","7","4","4","4","5","5","4","-3","-1","1","0","2","1","0","2","4","3","5","4","4","3","5","4","4","5","7","9","7","8","7","9","6","8","7","5","7","6","6","6","7","5","6","6","6","1","7","6","1","7","5","5","7","7","5","6","3","7","3","6","5","6","7","7","6","6","7","6","6","1","6","5","7","6","7","7","798167430248669185","王","76","Male","[""好我"",""坏他"",""坏我"",""好他""]","[""强我"",""弱他"",""弱我"",""强他""]","","","","","","","","","","","","","","","","","SRET_math","math_instructions","Sun Jan 21 2024 18:26:45 GMT+0800 (中国标准时间)","","","","","","","","","","","","","","","","","","","",""
"3028","","6","psychophysics","103","435114","0.0-7.0-5.0-0.0","5","7","5","6","7","4","4","4","5","5","4","-3","-1","1","0","2","1","0","2","4","3","5","4","4","3","5","4","4","5","7","9","7","8","7","9","6","8","7","5","7","6","6","6","7","5","6","6","6","1","7","6","1","7","5","5","7","7","5","6","3","7","3","6","5","6","7","7","6","6","7","6","6","1","6","5","7","6","7","7","798167430248669185","王","76","Male","[""好我"",""坏他"",""坏我"",""好他""]","[""强我"",""弱他"",""弱我"",""强他""]","","","","","","","","6","","","","","","","","","SRET","SRET_math_calculate","","key","6","16.65331318681314","799.9999682108573","445.8333156175091","","","","","8-2= ?","6","1","","","","","","","",""
"2574","","5","psychophysics","104","437690","0.0-7.0-5.0-0.1","5","7","5","6","7","4","4","4","5","5","4","-3","-1","1","0","2","1","0","2","4","3","5","4","4","3","5","4","4","5","7","9","7","8","7","9","6","8","7","5","7","6","6","6","7","5","6","6","6","1","7","6","1","7","5","5","7","7","5","6","3","7","3","6","5","6","7","7","6","6","7","6","6","1","6","5","7","6","7","7","798167430248669185","王","76","Male","[""好我"",""坏他"",""坏我"",""好他""]","[""强我"",""弱他"",""弱我"",""强他""]","","","","","","","","5","","","","","","","","","SRET","SRET_math_calculate","","key","5","16.653668831169075","799.9999682108573","445.8333156175091","","","","","17-12= ? ","5","1","","","","","","","",""
"2461","","4","psychophysics","105","440159","0.0-7.0-5.0-0.2","5","7","5","6","7","4","4","4","5","5","4","-3","-1","1","0","2","1","0","2","4","3","5","4","4","3","5","4","4","5","7","9","7","8","7","9","6","8","7","5","7","6","6","6","7","5","6","6","6","1","7","6","1","7","5","5","7","7","5","6","3","7","3","6","5","6","7","7","6","6","7","6","6","1","6","5","7","6","7","7","798167430248669185","王","76","Male","[""好我"",""坏他"",""坏我"",""好他""]","[""强我"",""弱他"",""弱我"",""强他""]","","","","","","","","4","","","","","","","","","SRET","SRET_math_calculate","","key","4","16.652959183673374","799.9999682108573","445.8333156175091","","","","","2+2= ?","4","1","","","","","","","",""
"2807","","8","psychophysics","106","442967","0.0-7.0-5.0-0.3","5","7","5","6","7","4","4","4","5","5","4","-3","-1","1","0","2","1","0","2","4","3","5","4","4","3","5","4","4","5","7","9","7","8","7","9","6","8","7","5","7","6","6","6","7","5","6","6","6","1","7","6","1","7","5","5","7","7","5","6","3","7","3","6","5","6","7","7","6","6","7","6","6","1","6","5","7","6","7","7","798167430248669185","王","76","Male","[""好我"",""坏他"",""坏我"",""好他""]","[""强我"",""弱他"",""弱我"",""强他""]","","","","","","","","8","","","","","","","","","SRET","SRET_math_calculate","","key","8","16.653047904191666","799.9999682108573","445.8333156175091","","","","","50-42= ?","8","1","","","","","","","",""
"2202","","9","psychophysics","107","445176","0.0-7.0-5.0-0.4","5","7","5","6","7","4","4","4","5","5","4","-3","-1","1","0","2","1","0","2","4","3","5","4","4","3","5","4","4","5","7","9","7","8","7","9","6","8","7","5","7","6","6","6","7","5","6","6","6","1","7","6","1","7","5","5","7","7","5","6","3","7","3","6","5","6","7","7","6","6","7","6","6","1","6","5","7","6","7","7","798167430248669185","王","76","Male","[""好我"",""坏他"",""坏我"",""好他""]","[""强我"",""弱他"",""弱我"",""强他""]","","","","","","","","9","","","","","","","","","SRET","SRET_math_calculate","","key","9","16.65335606060619","799.9999682108573","445.8333156175091","","","","","1+8= ?","9","1","","","","","","","",""
"2579","","4","psychophysics","108","447756","0.0-7.0-5.0-0.5","5","7","5","6","7","4","4","4","5","5","4","-3","-1","1","0","2","1","0","2","4","3","5","4","4","3","5","4","4","5","7","9","7","8","7","9","6","8","7","5","7","6","6","6","7","5","6","6","6","1","7","6","1","7","5","5","7","7","5","6","3","7","3","6","5","6","7","7","6","6","7","6","6","1","6","5","7","6","7","7","798167430248669185","王","76","Male","[""好我"",""坏他"",""坏我"",""好他""]","[""强我"",""弱他"",""弱我"",""强他""]","","","","","","","","4","","","","","","","","","SRET","SRET_math_calculate","","key","4","16.65307792207807","799.9999682108573","445.8333156175091","","","","","3+1= ?","4","1","","","","","","","",""
"2535","","7","psychophysics","109","450293","0.0-7.0-5.0-0.6","5","7","5","6","7","4","4","4","5","5","4","-3","-1","1","0","2","1","0","2","4","3","5","4","4","3","5","4","4","5","7","9","7","8","7","9","6","8","7","5","7","6","6","6","7","5","6","6","6","1","7","6","1","7","5","5","7","7","5","6","3","7","3","6","5","6","7","7","6","6","7","6","6","1","6","5","7","6","7","7","798167430248669185","王","76","Male","[""好我"",""坏他"",""坏我"",""好他""]","[""强我"",""弱他"",""弱我"",""强他""]","","","","","","","","7","","","","","","","","","SRET","SRET_math_calculate","","key","7","16.65341059602635","799.9999682108573","445.8333156175091","","","","","49/7 = ?","7","1","","","","","","","",""
"2649","","5","psychophysics","110","452951","0.0-7.0-5.0-0.7","5","7","5","6","7","4","4","4","5","5","4","-3","-1","1","0","2","1","0","2","4","3","5","4","4","3","5","4","4","5","7","9","7","8","7","9","6","8","7","5","7","6","6","6","7","5","6","6","6","1","7","6","1","7","5","5","7","7","5","6","3","7","3","6","5","6","7","7","6","6","7","6","6","1","6","5","7","6","7","7","798167430248669185","王","76","Male","[""好我"",""坏他"",""坏我"",""好他""]","[""强我"",""弱他"",""弱我"",""强他""]","","","","","","","","5","","","","","","","","","SRET","SRET_math_calculate","","key","5","16.653798742138534","799.9999682108573","445.8333156175091","","","","","3+2= ?","5","1","","","","","","","",""
"3033","","2","psychophysics","111","455986","0.0-7.0-5.0-0.8","5","7","5","6","7","4","4","4","5","5","4","-3","-1","1","0","2","1","0","2","4","3","5","4","4","3","5","4","4","5","7","9","7","8","7","9","6","8","7","5","7","6","6","6","7","5","6","6","6","1","7","6","1","7","5","5","7","7","5","6","3","7","3","6","5","6","7","7","6","6","7","6","6","1","6","5","7","6","7","7","798167430248669185","王","76","Male","[""好我"",""坏他"",""坏我"",""好他""]","[""强我"",""弱他"",""弱我"",""强他""]","","","","","","","","2","","","","","","","","","SRET","SRET_math_calculate","","key","2","16.653154696132383","799.9999682108573","445.8333156175091","","","","","19-17= ?","2","1","","","","","","","",""
"2988","","8","psychophysics","112","458976","0.0-7.0-5.0-0.9","5","7","5","6","7","4","4","4","5","5","4","-3","-1","1","0","2","1","0","2","4","3","5","4","4","3","5","4","4","5","7","9","7","8","7","9","6","8","7","5","7","6","6","6","7","5","6","6","6","1","7","6","1","7","5","5","7","7","5","6","3","7","3","6","5","6","7","7","6","6","7","6","6","1","6","5","7","6","7","7","798167430248669185","王","76","Male","[""好我"",""坏他"",""坏我"",""好他""]","[""强我"",""弱他"",""弱我"",""强他""]","","","","","","","","8","","","","","","","","","SRET","SRET_math_calculate","","key","8","16.65308938547481","799.9999682108573","445.8333156175091","","","","","11-3= ?","8","1","","","","","","","",""
"2734","","9","psychophysics","113","461712","0.0-7.0-5.0-0.10","5","7","5","6","7","4","4","4","5","5","4","-3","-1","1","0","2","1","0","2","4","3","5","4","4","3","5","4","4","5","7","9","7","8","7","9","6","8","7","5","7","6","6","6","7","5","6","6","6","1","7","6","1","7","5","5","7","7","5","6","3","7","3","6","5","6","7","7","6","6","7","6","6","1","6","5","7","6","7","7","798167430248669185","王","76","Male","[""好我"",""坏他"",""坏我"",""好他""]","[""强我"",""弱他"",""弱我"",""强他""]","","","","","","","","9","","","","","","","","","SRET","SRET_math_calculate","","key","9","16.653466257668796","799.9999682108573","445.8333156175091","","","","","43-34= ?","9","1","","","","","","","",""
"2315","","3","psychophysics","114","464028","0.0-7.0-5.0-0.11","5","7","5","6","7","4","4","4","5","5","4","-3","-1","1","0","2","1","0","2","4","3","5","4","4","3","5","4","4","5","7","9","7","8","7","9","6","8","7","5","7","6","6","6","7","5","6","6","6","1","7","6","1","7","5","5","7","7","5","6","3","7","3","6","5","6","7","7","6","6","7","6","6","1","6","5","7","6","7","7","798167430248669185","王","76","Male","[""好我"",""坏他"",""坏我"",""好他""]","[""强我"",""弱他"",""弱我"",""强他""]","","","","","","","","3","","","","","","","","","SRET","SRET_math_calculate","","key","3","16.65291304347836","799.9999682108573","445.8333156175091","","","","","2+1= ?","3","1","","","","","","","",""
"2702","","8","psychophysics","115","466754","0.0-7.0-5.0-0.12","5","7","5","6","7","4","4","4","5","5","4","-3","-1","1","0","2","1","0","2","4","3","5","4","4","3","5","4","4","5","7","9","7","8","7","9","6","8","7","5","7","6","6","6","7","5","6","6","6","1","7","6","1","7","5","5","7","7","5","6","3","7","3","6","5","6","7","7","6","6","7","6","6","1","6","5","7","6","7","7","798167430248669185","王","76","Male","[""好我"",""坏他"",""坏我"",""好他""]","[""强我"",""弱他"",""弱我"",""强他""]","","","","","","","","8","","","","","","","","","SRET","SRET_math_calculate","","key","8","16.653042944785252","799.9999682108573","445.8333156175091","","","","","4*2= ?","8","1","","","","","","","",""
"3213","","1","psychophysics","116","469969","0.0-7.0-5.0-0.13","5","7","5","6","7","4","4","4","5","5","4","-3","-1","1","0","2","1","0","2","4","3","5","4","4","3","5","4","4","5","7","9","7","8","7","9","6","8","7","5","7","6","6","6","7","5","6","6","6","1","7","6","1","7","5","5","7","7","5","6","3","7","3","6","5","6","7","7","6","6","7","6","6","1","6","5","7","6","7","7","798167430248669185","王","76","Male","[""好我"",""坏他"",""坏我"",""好他""]","[""强我"",""弱他"",""弱我"",""强他""]","","","","","","","","1","","","","","","","","","SRET","SRET_math_calculate","","key","1","16.653104166666708","799.9999682108573","445.8333156175091","","","","","4/4= ?","1","1","","","","","","","",""
"3127","","0","psychophysics","117","473099","0.0-7.0-5.0-0.14","5","7","5","6","7","4","4","4","5","5","4","-3","-1","1","0","2","1","0","2","4","3","5","4","4","3","5","4","4","5","7","9","7","8","7","9","6","8","7","5","7","6","6","6","7","5","6","6","6","1","7","6","1","7","5","5","7","7","5","6","3","7","3","6","5","6","7","7","6","6","7","6","6","1","6","5","7","6","7","7","798167430248669185","王","76","Male","[""好我"",""坏他"",""坏我"",""好他""]","[""强我"",""弱他"",""弱我"",""强他""]","","","","","","","","0","","","","","","","","","SRET","SRET_math_calculate","","key","0","16.653593582887748","799.9999682108573","445.8333156175091","","","","","5*0= ?","0","1","","","","","","","",""
"2873","","7","psychophysics","118","475974","0.0-7.0-5.0-0.15","5","7","5","6","7","4","4","4","5","5","4","-3","-1","1","0","2","1","0","2","4","3","5","4","4","3","5","4","4","5","7","9","7","8","7","9","6","8","7","5","7","6","6","6","7","5","6","6","6","1","7","6","1","7","5","5","7","7","5","6","3","7","3","6","5","6","7","7","6","6","7","6","6","1","6","5","7","6","7","7","798167430248669185","王","76","Male","[""好我"",""坏他"",""坏我"",""好他""]","[""强我"",""弱他"",""弱我"",""强他""]","","","","","","","","7","","","","","","","","","SRET","SRET_math_calculate","","key","7","16.653555555555396","799.9999682108573","445.8333156175091","","","","","5+2= ?","7","1","","","","","","","",""
"2572","","0","psychophysics","119","478556","0.0-7.0-5.0-0.16","5","7","5","6","7","4","4","4","5","5","4","-3","-1","1","0","2","1","0","2","4","3","5","4","4","3","5","4","4","5","7","9","7","8","7","9","6","8","7","5","7","6","6","6","7","5","6","6","6","1","7","6","1","7","5","5","7","7","5","6","3","7","3","6","5","6","7","7","6","6","7","6","6","1","6","5","7","6","7","7","798167430248669185","王","76","Male","[""好我"",""坏他"",""坏我"",""好他""]","[""强我"",""弱他"",""弱我"",""强他""]","","","","","","","","0","","","","","","","","","SRET","SRET_math_calculate","","key","0","16.65367532467512","799.9999682108573","445.8333156175091","","","","","6*0= ?","0","1","","","","","","","",""
"3666","","7","psychophysics","120","482228","0.0-7.0-5.0-0.17","5","7","5","6","7","4","4","4","5","5","4","-3","-1","1","0","2","1","0","2","4","3","5","4","4","3","5","4","4","5","7","9","7","8","7","9","6","8","7","5","7","6","6","6","7","5","6","6","6","1","7","6","1","7","5","5","7","7","5","6","3","7","3","6","5","6","7","7","6","6","7","6","6","1","6","5","7","6","7","7","798167430248669185","王","76","Male","[""好我"",""坏他"",""坏我"",""好他""]","[""强我"",""弱他"",""弱我"",""强他""]","","","","","","","","7","","","","","","","","","SRET","SRET_math_calculate","","key","7","16.65318636363637","799.9999682108573","445.8333156175091","","","","","2+7= ?","9","0","","","","","","","",""
"2957","","8","psychophysics","121","485188","0.0-7.0-5.0-0.18","5","7","5","6","7","4","4","4","5","5","4","-3","-1","1","0","2","1","0","2","4","3","5","4","4","3","5","4","4","5","7","9","7","8","7","9","6","8","7","5","7","6","6","6","7","5","6","6","6","1","7","6","1","7","5","5","7","7","5","6","3","7","3","6","5","6","7","7","6","6","7","6","6","1","6","5","7","6","7","7","798167430248669185","王","76","Male","[""好我"",""坏他"",""坏我"",""好他""]","[""强我"",""弱他"",""弱我"",""强他""]","","","","","","","","8","","","","","","","","","SRET","SRET_math_calculate","","key","8","16.653124293785325","799.9999682108573","445.8333156175091","","","","","1+7= ?","8","1","","","","","","","",""
"2568","","5","psychophysics","122","487758","0.0-7.0-5.0-0.19","5","7","5","6","7","4","4","4","5","5","4","-3","-1","1","0","2","1","0","2","4","3","5","4","4","3","5","4","4","5","7","9","7","8","7","9","6","8","7","5","7","6","6","6","7","5","6","6","6","1","7","6","1","7","5","5","7","7","5","6","3","7","3","6","5","6","7","7","6","6","7","6","6","1","6","5","7","6","7","7","798167430248669185","王","76","Male","[""好我"",""坏他"",""坏我"",""好他""]","[""强我"",""弱他"",""弱我"",""强他""]","","","","","","","","5","","","","","","","","","SRET","SRET_math_calculate","","key","5","16.653052287581804","799.9999682108573","445.8333156175091","","","","","10-5= ?","5","1","","","","","","","",""
"4997","","2","psychophysics","123","492758","0.0-7.0-5.0-0.20","5","7","5","6","7","4","4","4","5","5","4","-3","-1","1","0","2","1","0","2","4","3","5","4","4","3","5","4","4","5","7","9","7","8","7","9","6","8","7","5","7","6","6","6","7","5","6","6","6","1","7","6","1","7","5","5","7","7","5","6","3","7","3","6","5","6","7","7","6","6","7","6","6","1","6","5","7","6","7","7","798167430248669185","王","76","Male","[""好我"",""坏他"",""坏我"",""好他""]","[""强我"",""弱他"",""弱我"",""强他""]","","","","","","","","2","","","","","","","","","SRET","SRET_math_calculate","","key","2","16.65303678929776","799.9999682108573","445.8333156175091","","","","","12/6= ?","2","1","","","","","","","",""
"5722","","7","psychophysics","124","498491","0.0-7.0-5.0-0.21","5","7","5","6","7","4","4","4","5","5","4","-3","-1","1","0","2","1","0","2","4","3","5","4","4","3","5","4","4","5","7","9","7","8","7","9","6","8","7","5","7","6","6","6","7","5","6","6","6","1","7","6","1","7","5","5","7","7","5","6","3","7","3","6","5","6","7","7","6","6","7","6","6","1","6","5","7","6","7","7","798167430248669185","王","76","Male","[""好我"",""坏他"",""坏我"",""好他""]","[""强我"",""弱他"",""弱我"",""强他""]","","","","","","","","7","","","","","","","","","SRET","SRET_math_calculate","","key","7","16.65320930232566","799.9999682108573","445.8333156175091","","","","","12-5= ?","7","1","","","","","","","",""
"3087","","2","psychophysics","125","501583","0.0-7.0-5.0-0.22","5","7","5","6","7","4","4","4","5","5","4","-3","-1","1","0","2","1","0","2","4","3","5","4","4","3","5","4","4","5","7","9","7","8","7","9","6","8","7","5","7","6","6","6","7","5","6","6","6","1","7","6","1","7","5","5","7","7","5","6","3","7","3","6","5","6","7","7","6","6","7","6","6","1","6","5","7","6","7","7","798167430248669185","王","76","Male","[""好我"",""坏他"",""坏我"",""好他""]","[""强我"",""弱他"",""弱我"",""强他""]","","","","","","","","2","","","","","","","","","SRET","SRET_math_calculate","","key","2","16.653548913043302","799.9999682108573","445.8333156175091","","","","","18/9= ?","2","1","","","","","","","",""
"3524","","7","psychophysics","126","505109","0.0-7.0-5.0-0.23","5","7","5","6","7","4","4","4","5","5","4","-3","-1","1","0","2","1","0","2","4","3","5","4","4","3","5","4","4","5","7","9","7","8","7","9","6","8","7","5","7","6","6","6","7","5","6","6","6","1","7","6","1","7","5","5","7","7","5","6","3","7","3","6","5","6","7","7","6","6","7","6","6","1","6","5","7","6","7","7","798167430248669185","王","76","Male","[""好我"",""坏他"",""坏我"",""好他""]","[""强我"",""弱他"",""弱我"",""强他""]","","","","","","","","7","","","","","","","","","SRET","SRET_math_calculate","","key","7","16.653601895734475","799.9999682108573","445.8333156175091","","","","","13-6= ?","7","1","","","","","","","",""
"2738","","2","psychophysics","127","507850","0.0-7.0-5.0-0.24","5","7","5","6","7","4","4","4","5","5","4","-3","-1","1","0","2","1","0","2","4","3","5","4","4","3","5","4","4","5","7","9","7","8","7","9","6","8","7","5","7","6","6","6","7","5","6","6","6","1","7","6","1","7","5","5","7","7","5","6","3","7","3","6","5","6","7","7","6","6","7","6","6","1","6","5","7","6","7","7","798167430248669185","王","76","Male","[""好我"",""坏他"",""坏我"",""好他""]","[""强我"",""弱他"",""弱我"",""强他""]","","","","","","","","2","","","","","","","","","SRET","SRET_math_calculate","","key","2","16.65334756097546","799.9999682108573","445.8333156175091","","","","","22/11= ?","2","1","","","","","","","",""
"7125","","6","psychophysics","128","514982","0.0-7.0-5.0-0.25","5","7","5","6","7","4","4","4","5","5","4","-3","-1","1","0","2","1","0","2","4","3","5","4","4","3","5","4","4","5","7","9","7","8","7","9","6","8","7","5","7","6","6","6","7","5","6","6","6","1","7","6","1","7","5","5","7","7","5","6","3","7","3","6","5","6","7","7","6","6","7","6","6","1","6","5","7","6","7","7","798167430248669185","王","76","Male","[""好我"",""坏他"",""坏我"",""好他""]","[""强我"",""弱他"",""弱我"",""强他""]","","","","","","","","6","","","","","","","","","SRET","SRET_math_calculate","","key","6","16.653121779859422","799.9999682108573","445.8333156175091","","","","","2+4= ?","6","1","","","","","","","",""
"5216","","7","psychophysics","129","520200","0.0-7.0-5.0-0.26","5","7","5","6","7","4","4","4","5","5","4","-3","-1","1","0","2","1","0","2","4","3","5","4","4","3","5","4","4","5","7","9","7","8","7","9","6","8","7","5","7","6","6","6","7","5","6","6","6","1","7","6","1","7","5","5","7","7","5","6","3","7","3","6","5","6","7","7","6","6","7","6","6","1","6","5","7","6","7","7","798167430248669185","王","76","Male","[""好我"",""坏他"",""坏我"",""好他""]","[""强我"",""弱他"",""弱我"",""强他""]","","","","","","","","7","","","","","","","","","SRET","SRET_math_calculate","","key","7","16.653432692307643","799.9999682108573","445.8333156175091","","","","","3+4= ?","7","1","","","","","","","",""
"4804","","6","psychophysics","130","525006","0.0-7.0-5.0-0.27","5","7","5","6","7","4","4","4","5","5","4","-3","-1","1","0","2","1","0","2","4","3","5","4","4","3","5","4","4","5","7","9","7","8","7","9","6","8","7","5","7","6","6","6","7","5","6","6","6","1","7","6","1","7","5","5","7","7","5","6","3","7","3","6","5","6","7","7","6","6","7","6","6","1","6","5","7","6","7","7","798167430248669185","王","76","Male","[""好我"",""坏他"",""坏我"",""好他""]","[""强我"",""弱他"",""弱我"",""强他""]","","","","","","","","6","","","","","","","","","SRET","SRET_math_calculate","","key","6","16.65288194444434","799.9999682108573","445.8333156175091","","","","","4+2= ?","6","1","","","","","","","",""
"3755","","1","psychophysics","131","528764","0.0-7.0-5.0-0.28","5","7","5","6","7","4","4","4","5","5","4","-3","-1","1","0","2","1","0","2","4","3","5","4","4","3","5","4","4","5","7","9","7","8","7","9","6","8","7","5","7","6","6","6","7","5","6","6","6","1","7","6","1","7","5","5","7","7","5","6","3","7","3","6","5","6","7","7","6","6","7","6","6","1","6","5","7","6","7","7","798167430248669185","王","76","Male","[""好我"",""坏他"",""坏我"",""好他""]","[""强我"",""弱他"",""弱我"",""强他""]","","","","","","","","1","","","","","","","","","SRET","SRET_math_calculate","","key","1","16.653044642856653","799.9999682108573","445.8333156175091","","","","","30-29= ?","1","1","","","","","","","",""
"2445","","0","psychophysics","132","531218","0.0-7.0-5.0-0.29","5","7","5","6","7","4","4","4","5","5","4","-3","-1","1","0","2","1","0","2","4","3","5","4","4","3","5","4","4","5","7","9","7","8","7","9","6","8","7","5","7","6","6","6","7","5","6","6","6","1","7","6","1","7","5","5","7","7","5","6","3","7","3","6","5","6","7","7","6","6","7","6","6","1","6","5","7","6","7","7","798167430248669185","王","76","Male","[""好我"",""坏他"",""坏我"",""好他""]","[""强我"",""弱他"",""弱我"",""强他""]","","","","","","","","0","","","","","","","","","SRET","SRET_math_calculate","","key","0","16.653775510203953","799.9999682108573","445.8333156175091","","","","","1-1= ?","0","1","","","","","","","",""
"2379","","7","psychophysics","133","533598","0.0-7.0-5.0-0.30","5","7","5","6","7","4","4","4","5","5","4","-3","-1","1","0","2","1","0","2","4","3","5","4","4","3","5","4","4","5","7","9","7","8","7","9","6","8","7","5","7","6","6","6","7","5","6","6","6","1","7","6","1","7","5","5","7","7","5","6","3","7","3","6","5","6","7","7","6","6","7","6","6","1","6","5","7","6","7","7","798167430248669185","王","76","Male","[""好我"",""坏他"",""坏我"",""好他""]","[""强我"",""弱他"",""弱我"",""强他""]","","","","","","","","7","","","","","","","","","SRET","SRET_math_calculate","","key","7","16.652943661971786","799.9999682108573","445.8333156175091","","","","","6+1= ?","7","1","","","","","","","",""
"2450","","9","psychophysics","134","536050","0.0-7.0-5.0-0.31","5","7","5","6","7","4","4","4","5","5","4","-3","-1","1","0","2","1","0","2","4","3","5","4","4","3","5","4","4","5","7","9","7","8","7","9","6","8","7","5","7","6","6","6","7","5","6","6","6","1","7","6","1","7","5","5","7","7","5","6","3","7","3","6","5","6","7","7","6","6","7","6","6","1","6","5","7","6","7","7","798167430248669185","王","76","Male","[""好我"",""坏他"",""坏我"",""好他""]","[""强我"",""弱他"",""弱我"",""强他""]","","","","","","","","9","","","","","","","","","SRET","SRET_math_calculate","","key","9","16.653568493151298","799.9999682108573","445.8333156175091","","","","","5+4= ?","9","1","","","","","","","",""
"2160","","9","psychophysics","135","538212","0.0-7.0-5.0-0.32","5","7","5","6","7","4","4","4","5","5","4","-3","-1","1","0","2","1","0","2","4","3","5","4","4","3","5","4","4","5","7","9","7","8","7","9","6","8","7","5","7","6","6","6","7","5","6","6","6","1","7","6","1","7","5","5","7","7","5","6","3","7","3","6","5","6","7","7","6","6","7","6","6","1","6","5","7","6","7","7","798167430248669185","王","76","Male","[""好我"",""坏他"",""坏我"",""好他""]","[""强我"",""弱他"",""弱我"",""强他""]","","","","","","","","9","","","","","","","","","SRET","SRET_math_calculate","","key","9","16.65296899224812","799.9999682108573","445.8333156175091","","","","","4+5= ?","9","1","","","","","","","",""
"3112","","2","psychophysics","136","541327","0.0-7.0-5.0-0.33","5","7","5","6","7","4","4","4","5","5","4","-3","-1","1","0","2","1","0","2","4","3","5","4","4","3","5","4","4","5","7","9","7","8","7","9","6","8","7","5","7","6","6","6","7","5","6","6","6","1","7","6","1","7","5","5","7","7","5","6","3","7","3","6","5","6","7","7","6","6","7","6","6","1","6","5","7","6","7","7","798167430248669185","王","76","Male","[""好我"",""坏他"",""坏我"",""好他""]","[""强我"",""弱他"",""弱我"",""强他""]","","","","","","","","2","","","","","","","","","SRET","SRET_math_calculate","","key","2","16.65291935483855","799.9999682108573","445.8333156175091","","","","","90/45= ?","2","1","","","","","","","",""
"2520","","6","psychophysics","137","543850","0.0-7.0-5.0-0.34","5","7","5","6","7","4","4","4","5","5","4","-3","-1","1","0","2","1","0","2","4","3","5","4","4","3","5","4","4","5","7","9","7","8","7","9","6","8","7","5","7","6","6","6","7","5","6","6","6","1","7","6","1","7","5","5","7","7","5","6","3","7","3","6","5","6","7","7","6","6","7","6","6","1","6","5","7","6","7","7","798167430248669185","王","76","Male","[""好我"",""坏他"",""坏我"",""好他""]","[""强我"",""弱他"",""弱我"",""强他""]","","","","","","","","6","","","","","","","","","SRET","SRET_math_calculate","","key","6","16.653693333333358","799.9999682108573","445.8333156175091","","","","","3*2= ?","6","1","","","","","","","",""
