"rt","stimulus","response","trial_type","trial_index","time_elapsed","internal_node_id","swb_1","swb_2","swb_3","swb_4","swb_5","LOT_1","LOT_2","LOT_3","LOT_4","LOT_5","LOT_6","IPC_1","IPC_2","IPC_3","IPC_4","IPC_5","IPC_6","IPC_7","IPC_8","MorIden_1","MorIden_2","MorIden_3","MorIden_4","MorIden_5","MorIden_6","MorIden_7","MorIden_8","MorIden_9","MorIden_10","moralSeImag_1","moralSeImag_2","moralSeImag_3","moralSeImag_4","moralSeImag_5","moralSeImag_6","moralSeImag_7","moralSeImag_8","moralSeImag_9","sde_1","sde_2","sde_3","sde_4","sde_5","sde_6","sde_7","sde_8","sde_9","sde_10","trap2","sde_11","sde_12","sde_13","sde_14","sde_15","sde_16","sde_17","sde_18","sde_19","sde_20","IM_1","IM_2","IM_3","IM_4","IM_5","IM_6","IM_7","IM_8","IM_9","IM_10","IM_11","IM_12","IM_13","IM_14","IM_15","IM_16","IM_17","IM_18","IM_19","IM_20","subj_idx","friend_name","ParticipantID","Sex","Word","Word2","value","success","timeout","failed_images","failed_audio","failed_video","user_agent","responses","item_order","radio_event_ids","radio_event_times","key_event_times","mouse_event_times","straightlining","zigzagging","honeypot","task_id","screen_id","time_stamp","response_type","key_press","avg_frame_time","center_x","center_y","person","word","valence","domain","math","correct_response","correct","status","view_history","identity","duration","Image","condition","question_order","trap2_item"
"2155","
   <p><div style='color:white; font-size: 25px'>您好，欢迎参加本次实验。</div></p>
   <p><div style='color:white; font-size: 25px'>为充分保障您的权利，请确保您已经知晓并同意《参与实验同意书》以及《数据公开知情同意书》。</div></p>
   <p><div style='color:white; font-size: 25px'>如果您未见过上述内容，请咨询实验员。</div></p>
   <p style='color:white; font-size: 25px'>如果您选择继续实验，则表示您已经清楚两份知情同意书的内容并同意。</p>
   <p><div style = ""color: pink;font-size:30px;"">请确保您记得day0的实验编号，您将在本次实验输入该编号，若您忘记，请咨询实验员后作答。</div></p>
   <p><div style = ""color:lightblue;font-size:25px;"">请您尽可能认真地作答，我们将依据您在各问卷和按键任务中的作答质量发放报酬。</div></p>
   <p> <div style = ""color: green""><按空格键至下页></div> </p>
   "," ","html-keyboard-response","0","2161","0.0-0.0","5","4","6","5","5","5","3","4","4","4","5","-3","-2","0","0","-3","1","1","0","5","4","4","5","5","4","4","5","4","4","6","6","3","6","3","3","6","4","5","5","2","5","6","5","2","5","3","4","4","1","5","3","7","2","2","6","4","4","5","4","4","5","5","6","3","5","6","6","7","7","6","5","4","4","5","6","6","5","3","6","797773565536641026","黄","311","Male","[""坏他"",""好他"",""坏我"",""好我""]","[""弱他"",""强他"",""弱我"",""强我""]","","","","","","","","","","","","","","","","","","","","","","","","","","","","","","","","","","","","","","",""
"","","","call-function","1","2163","0.0-1.0-0.0","5","4","6","5","5","5","3","4","4","4","5","-3","-2","0","0","-3","1","1","0","5","4","4","5","5","4","4","5","4","4","6","6","3","6","3","3","6","4","5","5","2","5","6","5","2","5","3","4","4","1","5","3","7","2","2","6","4","4","5","4","4","5","5","6","3","5","6","6","7","7","6","5","4","4","5","6","6","5","3","6","797773565536641026","黄","311","Male","[""坏他"",""好他"",""坏我"",""好我""]","[""弱他"",""强他"",""弱我"",""强我""]","","","","","","","","","","","","","","","","","","","","","","","","","","","","","","","","","","","","","","",""
"31971","","[{""name"":""Sex"",""value"":""0""},{""name"":""friend_name"",""value"":""黄""},{""name"":""ParticipantID"",""value"":""311""}]","survey-html-form","2","34137","0.0-1.0-1.0","5","4","6","5","5","5","3","4","4","4","5","-3","-2","0","0","-3","1","1","0","5","4","4","5","5","4","4","5","4","4","6","6","3","6","3","3","6","4","5","5","2","5","6","5","2","5","3","4","4","1","5","3","7","2","2","6","4","4","5","4","4","5","5","6","3","5","6","6","7","7","6","5","4","4","5","6","6","5","3","6","797773565536641026","黄","311","Male","[""坏他"",""好他"",""坏我"",""好我""]","[""弱他"",""强他"",""弱我"",""强我""]","","","","","","","","","","","","","","","","","","","","","","","","","","","","","","","","","","","","","","",""
"","","","preload","3","34281","0.0-2.0","5","4","6","5","5","5","3","4","4","4","5","-3","-2","0","0","-3","1","1","0","5","4","4","5","5","4","4","5","4","4","6","6","3","6","3","3","6","4","5","5","2","5","6","5","2","5","3","4","4","1","5","3","7","2","2","6","4","4","5","4","4","5","5","6","3","5","6","6","7","7","6","5","4","4","5","6","6","5","3","6","797773565536641026","黄","311","Male","[""坏他"",""好他"",""坏我"",""好我""]","[""弱他"",""强他"",""弱我"",""强我""]","","true","false","[]","[]","[]","","","","","","","","","","","","","","","","","","","","","","","","","","","","","","","","",""
"","","","fullscreen","4","35353","0.0-3.0","5","4","6","5","5","5","3","4","4","4","5","-3","-2","0","0","-3","1","1","0","5","4","4","5","5","4","4","5","4","4","6","6","3","6","3","3","6","4","5","5","2","5","6","5","2","5","3","4","4","1","5","3","7","2","2","6","4","4","5","4","4","5","5","6","3","5","6","6","7","7","6","5","4","4","5","6","6","5","3","6","797773565536641026","黄","311","Male","[""坏他"",""好他"",""坏我"",""好我""]","[""弱他"",""强他"",""弱我"",""强我""]","","true","","","","","{}","","","","","","","","","","","","","","","","","","","","","","","","","","","","","","","",""
"30338","","{""Q01"":""5"",""Q02"":""4"",""Q03"":""6"",""Q04"":""5"",""Q05"":""5""}","survey-template","5","65709","0.0-4.0","5","4","6","5","5","5","3","4","4","4","5","-3","-2","0","0","-3","1","1","0","5","4","4","5","5","4","4","5","4","4","6","6","3","6","3","3","6","4","5","5","2","5","6","5","2","5","3","4","4","1","5","3","7","2","2","6","4","4","5","4","4","5","5","6","3","5","6","6","7","7","6","5","4","4","5","6","6","5","3","6","797773565536641026","黄","311","Male","[""坏他"",""好他"",""坏我"",""好我""]","[""弱他"",""强他"",""弱我"",""强我""]","","","","","","","","{""Q01"":""5"",""Q02"":""4"",""Q03"":""6"",""Q04"":""5"",""Q05"":""5""}","[0,1,2,3,4]","[""Q01"",""Q02"",""Q04"",""Q03"",""Q05""]","[17487.199999999255,18286.79999999702,22303.29999999702,22823.099999997765,24486.699999999255]","[]","[17487.199999999255,18286.79999999702,21510.79999999702,22303.29999999702,22823.099999997765,24486.699999999255,30334.599999997765]","0.6","0.5","0","","","","","","","","","","","","","","","","","","","","","","",""
"24118.60000000149","","{""Q01"":""5"",""Q02"":""3"",""Q03"":""4"",""Q04"":""4"",""Q05"":""4"",""Q06"":""5""}","survey-template","6","89843","0.0-5.0","5","4","6","5","5","5","3","4","4","4","5","-3","-2","0","0","-3","1","1","0","5","4","4","5","5","4","4","5","4","4","6","6","3","6","3","3","6","4","5","5","2","5","6","5","2","5","3","4","4","1","5","3","7","2","2","6","4","4","5","4","4","5","5","6","3","5","6","6","7","7","6","5","4","4","5","6","6","5","3","6","797773565536641026","黄","311","Male","[""坏他"",""好他"",""坏我"",""好我""]","[""弱他"",""强他"",""弱我"",""强我""]","","","","","","","","{""Q01"":""5"",""Q02"":""3"",""Q03"":""4"",""Q04"":""4"",""Q05"":""4"",""Q06"":""5""}","[0,1,2,3,4,5]","[""Q01"",""Q02"",""Q03"",""Q04"",""Q05"",""Q06""]","[2596.60000000149,5796.699999999255,7508.60000000149,9380.5,9956.5,13476.60000000149]","[]","[2596.60000000149,4748.60000000149,5796.699999999255,7508.60000000149,9380.5,9956.5,13476.60000000149,24116.5]","0.3333333333333333","0.2","0","","","","","","","","","","","","","","","","","","","","","","",""
"18884.900000002235","","{""Q01"":""-3"",""Q02"":""-2"",""Q03"":""0"",""Q04"":""0"",""Q05"":""-3"",""Q06"":""1"",""Q07"":""1"",""Q08"":""0""}","survey-template","7","108742","0.0-6.0","5","4","6","5","5","5","3","4","4","4","5","-3","-2","0","0","-3","1","1","0","5","4","4","5","5","4","4","5","4","4","6","6","3","6","3","3","6","4","5","5","2","5","6","5","2","5","3","4","4","1","5","3","7","2","2","6","4","4","5","4","4","5","5","6","3","5","6","6","7","7","6","5","4","4","5","6","6","5","3","6","797773565536641026","黄","311","Male","[""坏他"",""好他"",""坏我"",""好我""]","[""弱他"",""强他"",""弱我"",""强我""]","","","","","","","","{""Q01"":""-3"",""Q02"":""-2"",""Q03"":""0"",""Q04"":""0"",""Q05"":""-3"",""Q06"":""1"",""Q07"":""1"",""Q08"":""0""}","[0,1,2,3,4,5,6,7]","[""Q01"",""Q02"",""Q03"",""Q04"",""Q05"",""Q06"",""Q07"",""Q08""]","[2409.800000000745,3729.60000000149,5809.60000000149,7209.5,8993.300000000745,11465.400000002235,12337.300000000745,13729.400000002235]","[]","[1865.300000000745,2409.800000000745,3729.60000000149,5809.60000000149,7209.5,8993.300000000745,11465.400000002235,12337.300000000745,13497.400000002235,13729.400000002235,18881.300000000745]","0.375","0.2857142857142857","0","","","","","","","","","","","","","","","","","","","","","","",""
"19774","
    <p><div style='color:white;font-size:35px; line-height:20px;'>词汇评估任务</div></p><br>
    <p><div style='color:white;font-size:25px; line-height:20px;'>请再次回忆该亲密的朋友，你们至少2年前就认识了，并且最近2年经常见面。</div></p>
    <p><div style='color:white;font-size:25px; line-height:20px;'>在本实验中，您将会看到一些形容词。</div></p>
    <p><div style='color:yellow;font-size:25px; line-height:20px;'>您的任务是判断这些形容词是否符合对您自己或您的朋友的描述。</div></p><p style='font-size:35px'>符合按<span style=""color:lightgreen""> j 键</span>，不符合按<span style=""color:red""> f 键</span></p>","0","html-button-response","8","128528","0.0-7.0-0.0","5","4","6","5","5","5","3","4","4","4","5","-3","-2","0","0","-3","1","1","0","5","4","4","5","5","4","4","5","4","4","6","6","3","6","3","3","6","4","5","5","2","5","6","5","2","5","3","4","4","1","5","3","7","2","2","6","4","4","5","4","4","5","5","6","3","5","6","6","7","7","6","5","4","4","5","6","6","5","3","6","797773565536641026","黄","311","Male","[""坏他"",""好他"",""坏我"",""好我""]","[""弱他"",""强他"",""弱我"",""强我""]","","","","","","","","","","","","","","","","","SRET_EW","EW_instructions","Sat Jan 20 2024 16:22:12 GMT+0800 (中国标准时间)","","","","","","","","","","","","","","","","","","","",""
"null","","null","psychophysics","9","131558","0.0-7.0-1.0-0.0","5","4","6","5","5","5","3","4","4","4","5","-3","-2","0","0","-3","1","1","0","5","4","4","5","5","4","4","5","4","4","6","6","3","6","3","3","6","4","5","5","2","5","6","5","2","5","3","4","4","1","5","3","7","2","2","6","4","4","5","4","4","5","5","6","3","5","6","6","7","7","6","5","4","4","5","6","6","5","3","6","797773565536641026","黄","311","Male","[""坏他"",""好他"",""坏我"",""好我""]","[""弱他"",""强他"",""弱我"",""强我""]","","","","","","","","","","","","","","","","","SRET_EW","EW_practice","","key","null","17.248778409090928","683","380","朋友","忠实","Positive","morality","","","","","","","","","","",""
"1034","","f","psychophysics","10","133599","0.0-7.0-1.0-0.1","5","4","6","5","5","5","3","4","4","4","5","-3","-2","0","0","-3","1","1","0","5","4","4","5","5","4","4","5","4","4","6","6","3","6","3","3","6","4","5","5","2","5","6","5","2","5","3","4","4","1","5","3","7","2","2","6","4","4","5","4","4","5","5","6","3","5","6","6","7","7","6","5","4","4","5","6","6","5","3","6","797773565536641026","黄","311","Male","[""坏他"",""好他"",""坏我"",""好我""]","[""弱他"",""强他"",""弱我"",""强我""]","","","","","","","","no","","","","","","","","","SRET_EW","EW_practice","","key","f","16.6659834710744","683","380","自己","刻板","Negative","ability","","","","","","","","","","",""
"1238","","j","psychophysics","11","135846","0.0-7.0-1.0-0.2","5","4","6","5","5","5","3","4","4","4","5","-3","-2","0","0","-3","1","1","0","5","4","4","5","5","4","4","5","4","4","6","6","3","6","3","3","6","4","5","5","2","5","6","5","2","5","3","4","4","1","5","3","7","2","2","6","4","4","5","4","4","5","5","6","3","5","6","6","7","7","6","5","4","4","5","6","6","5","3","6","797773565536641026","黄","311","Male","[""坏他"",""好他"",""坏我"",""好我""]","[""弱他"",""强他"",""弱我"",""强我""]","","","","","","","","yes","","","","","","","","","SRET_EW","EW_practice","","key","j","16.665671641790915","683","380","自己","严谨","Positive","ability","","","","","","","","","","",""
"1373","","f","psychophysics","12","138225","0.0-7.0-1.0-0.3","5","4","6","5","5","5","3","4","4","4","5","-3","-2","0","0","-3","1","1","0","5","4","4","5","5","4","4","5","4","4","6","6","3","6","3","3","6","4","5","5","2","5","6","5","2","5","3","4","4","1","5","3","7","2","2","6","4","4","5","4","4","5","5","6","3","5","6","6","7","7","6","5","4","4","5","6","6","5","3","6","797773565536641026","黄","311","Male","[""坏他"",""好他"",""坏我"",""好我""]","[""弱他"",""强他"",""弱我"",""强我""]","","","","","","","","no","","","","","","","","","SRET_EW","EW_practice","","key","f","16.78407801418435","683","380","朋友","徇私","Negative","morality","","","","","","","","","","",""
"4804","
    <p><div style='color:white;font-size:35px; line-height:20px;'>请您再次阅读实验要求</div></p><br>
    <p><div style='color:white;font-size:25px; line-height:20px;'>请回忆某一个亲密的朋友，你们至少2年前就认识了，并且最近2年经常见面。</div></p>
    <p><div style='color:white;font-size:25px; line-height:20px;'>在本实验中，您将会看到一些形容词。</div></p>
    <p><div style='color:yellow;font-size:25px; line-height:20px;'>您的任务是判断这些形容词是否符合对您自己或您的朋友的描述。</div></p>
    <p><div class='footer' style='font-size:25px; line-height:20px;'>如果对本实验还有不清楚之处，请立即向实验员咨询。</p><p style='font-size:25px; line-height:20px;'>如果您明白了规则：</p><p style='font-size:22px; line-height:20px;'>请按 继续 进入正式实验</p>
    </div>
    <p style='font-size:35px'>符合按<span style=""color:lightgreen""> j 键</span>，不符合按<span style=""color:red""> f 键</span></p>","0","html-button-response","13","143031","0.0-7.0-2.0","5","4","6","5","5","5","3","4","4","4","5","-3","-2","0","0","-3","1","1","0","5","4","4","5","5","4","4","5","4","4","6","6","3","6","3","3","6","4","5","5","2","5","6","5","2","5","3","4","4","1","5","3","7","2","2","6","4","4","5","4","4","5","5","6","3","5","6","6","7","7","6","5","4","4","5","6","6","5","3","6","797773565536641026","黄","311","Male","[""坏他"",""好他"",""坏我"",""好我""]","[""弱他"",""强他"",""弱我"",""强我""]","","","","","","","","","","","","","","","","","SRET_EW","prac_instructions","Sat Jan 20 2024 16:22:12 GMT+0800 (中国标准时间)","","","","","","","","","","","","","","","","","","","",""
"1282","","f","psychophysics","14","145318","0.0-7.0-3.0-0.0","5","4","6","5","5","5","3","4","4","4","5","-3","-2","0","0","-3","1","1","0","5","4","4","5","5","4","4","5","4","4","6","6","3","6","3","3","6","4","5","5","2","5","6","5","2","5","3","4","4","1","5","3","7","2","2","6","4","4","5","4","4","5","5","6","3","5","6","6","7","7","6","5","4","4","5","6","6","5","3","6","797773565536641026","黄","311","Male","[""坏他"",""好他"",""坏我"",""好我""]","[""弱他"",""强他"",""弱我"",""强我""]","","","","","","","","no","","","","","","","","","SRET","EW_formal","","key","f","16.7881617647059","683","380","朋友","迷糊","Negative","ability","","","","","","","","","","",""
"1307","","f","psychophysics","15","147630","0.0-7.0-3.0-0.1","5","4","6","5","5","5","3","4","4","4","5","-3","-2","0","0","-3","1","1","0","5","4","4","5","5","4","4","5","4","4","6","6","3","6","3","3","6","4","5","5","2","5","6","5","2","5","3","4","4","1","5","3","7","2","2","6","4","4","5","4","4","5","5","6","3","5","6","6","7","7","6","5","4","4","5","6","6","5","3","6","797773565536641026","黄","311","Male","[""坏他"",""好他"",""坏我"",""好我""]","[""弱他"",""强他"",""弱我"",""强我""]","","","","","","","","no","","","","","","","","","SRET","EW_formal","","key","f","16.665963768115876","683","380","自己","说谎","Negative","morality","","","","","","","","","","",""
"1253","","j","psychophysics","16","149889","0.0-7.0-3.0-0.2","5","4","6","5","5","5","3","4","4","4","5","-3","-2","0","0","-3","1","1","0","5","4","4","5","5","4","4","5","4","4","6","6","3","6","3","3","6","4","5","5","2","5","6","5","2","5","3","4","4","1","5","3","7","2","2","6","4","4","5","4","4","5","5","6","3","5","6","6","7","7","6","5","4","4","5","6","6","5","3","6","797773565536641026","黄","311","Male","[""坏他"",""好他"",""坏我"",""好我""]","[""弱他"",""强他"",""弱我"",""强我""]","","","","","","","","yes","","","","","","","","","SRET","EW_formal","","key","j","16.790909774436027","683","380","朋友","务实","Positive","ability","","","","","","","","","","",""
"1210","","j","psychophysics","17","152102","0.0-7.0-3.0-0.3","5","4","6","5","5","5","3","4","4","4","5","-3","-2","0","0","-3","1","1","0","5","4","4","5","5","4","4","5","4","4","6","6","3","6","3","3","6","4","5","5","2","5","6","5","2","5","3","4","4","1","5","3","7","2","2","6","4","4","5","4","4","5","5","6","3","5","6","6","7","7","6","5","4","4","5","6","6","5","3","6","797773565536641026","黄","311","Male","[""坏他"",""好他"",""坏我"",""好我""]","[""弱他"",""强他"",""弱我"",""强我""]","","","","","","","","yes","","","","","","","","","SRET","EW_formal","","key","j","16.7933587786259","683","380","自己","坚贞","Positive","morality","","","","","","","","","","",""
"1116","","f","psychophysics","18","154224","0.0-7.0-3.0-0.4","5","4","6","5","5","5","3","4","4","4","5","-3","-2","0","0","-3","1","1","0","5","4","4","5","5","4","4","5","4","4","6","6","3","6","3","3","6","4","5","5","2","5","6","5","2","5","3","4","4","1","5","3","7","2","2","6","4","4","5","4","4","5","5","6","3","5","6","6","7","7","6","5","4","4","5","6","6","5","3","6","797773565536641026","黄","311","Male","[""坏他"",""好他"",""坏我"",""好我""]","[""弱他"",""强他"",""弱我"",""强我""]","","","","","","","","no","","","","","","","","","SRET","EW_formal","","key","f","16.666133858267848","683","380","自己","笨蛋","Negative","ability","","","","","","","","","","",""
"1017","","j","psychophysics","19","156245","0.0-7.0-3.0-0.5","5","4","6","5","5","5","3","4","4","4","5","-3","-2","0","0","-3","1","1","0","5","4","4","5","5","4","4","5","4","4","6","6","3","6","3","3","6","4","5","5","2","5","6","5","2","5","3","4","4","1","5","3","7","2","2","6","4","4","5","4","4","5","5","6","3","5","6","6","7","7","6","5","4","4","5","6","6","5","3","6","797773565536641026","黄","311","Male","[""坏他"",""好他"",""坏我"",""好我""]","[""弱他"",""强他"",""弱我"",""强我""]","","","","","","","","yes","","","","","","","","","SRET","EW_formal","","key","j","16.804848739495814","683","380","朋友","善心","Positive","morality","","","","","","","","","","",""
"1371","","f","psychophysics","20","158624","0.0-7.0-3.0-0.6","5","4","6","5","5","5","3","4","4","4","5","-3","-2","0","0","-3","1","1","0","5","4","4","5","5","4","4","5","4","4","6","6","3","6","3","3","6","4","5","5","2","5","6","5","2","5","3","4","4","1","5","3","7","2","2","6","4","4","5","4","4","5","5","6","3","5","6","6","7","7","6","5","4","4","5","6","6","5","3","6","797773565536641026","黄","311","Male","[""坏他"",""好他"",""坏我"",""好我""]","[""弱他"",""强他"",""弱我"",""强我""]","","","","","","","","no","","","","","","","","","SRET","EW_formal","","key","f","16.66559154929595","683","380","自己","偏私","Negative","morality","","","","","","","","","","",""
"1144","","f","psychophysics","21","160774","0.0-7.0-3.0-0.7","5","4","6","5","5","5","3","4","4","4","5","-3","-2","0","0","-3","1","1","0","5","4","4","5","5","4","4","5","4","4","6","6","3","6","3","3","6","4","5","5","2","5","6","5","2","5","3","4","4","1","5","3","7","2","2","6","4","4","5","4","4","5","5","6","3","5","6","6","7","7","6","5","4","4","5","6","6","5","3","6","797773565536641026","黄","311","Male","[""坏他"",""好他"",""坏我"",""好我""]","[""弱他"",""强他"",""弱我"",""强我""]","","","","","","","","no","","","","","","","","","SRET","EW_formal","","key","f","16.796582677165333","683","380","朋友","不端","Negative","morality","","","","","","","","","","",""
"1210","","f","psychophysics","22","162990","0.0-7.0-3.0-0.8","5","4","6","5","5","5","3","4","4","4","5","-3","-2","0","0","-3","1","1","0","5","4","4","5","5","4","4","5","4","4","6","6","3","6","3","3","6","4","5","5","2","5","6","5","2","5","3","4","4","1","5","3","7","2","2","6","4","4","5","4","4","5","5","6","3","5","6","6","7","7","6","5","4","4","5","6","6","5","3","6","797773565536641026","黄","311","Male","[""坏他"",""好他"",""坏我"",""好我""]","[""弱他"",""强他"",""弱我"",""强我""]","","","","","","","","no","","","","","","","","","SRET","EW_formal","","key","f","16.792931297710005","683","380","自己","高明","Positive","ability","","","","","","","","","","",""
"811","","f","psychophysics","23","164807","0.0-7.0-3.0-0.9","5","4","6","5","5","5","3","4","4","4","5","-3","-2","0","0","-3","1","1","0","5","4","4","5","5","4","4","5","4","4","6","6","3","6","3","3","6","4","5","5","2","5","6","5","2","5","3","4","4","1","5","3","7","2","2","6","4","4","5","4","4","5","5","6","3","5","6","6","7","7","6","5","4","4","5","6","6","5","3","6","797773565536641026","黄","311","Male","[""坏他"",""好他"",""坏我"",""好我""]","[""弱他"",""强他"",""弱我"",""强我""]","","","","","","","","no","","","","","","","","","SRET","EW_formal","","key","f","16.665851851851954","683","380","自己","高效","Positive","ability","","","","","","","","","","",""
"1297","","j","psychophysics","24","167109","0.0-7.0-3.0-0.10","5","4","6","5","5","5","3","4","4","4","5","-3","-2","0","0","-3","1","1","0","5","4","4","5","5","4","4","5","4","4","6","6","3","6","3","3","6","4","5","5","2","5","6","5","2","5","3","4","4","1","5","3","7","2","2","6","4","4","5","4","4","5","5","6","3","5","6","6","7","7","6","5","4","4","5","6","6","5","3","6","797773565536641026","黄","311","Male","[""坏他"",""好他"",""坏我"",""好我""]","[""弱他"",""强他"",""弱我"",""强我""]","","","","","","","","yes","","","","","","","","","SRET","EW_formal","","key","j","16.78752941176465","683","380","朋友","守信","Positive","morality","","","","","","","","","","",""
"1130","","j","psychophysics","25","169246","0.0-7.0-3.0-0.11","5","4","6","5","5","5","3","4","4","4","5","-3","-2","0","0","-3","1","1","0","5","4","4","5","5","4","4","5","4","4","6","6","3","6","3","3","6","4","5","5","2","5","6","5","2","5","3","4","4","1","5","3","7","2","2","6","4","4","5","4","4","5","5","6","3","5","6","6","7","7","6","5","4","4","5","6","6","5","3","6","797773565536641026","黄","311","Male","[""坏他"",""好他"",""坏我"",""好我""]","[""弱他"",""强他"",""弱我"",""强我""]","","","","","","","","yes","","","","","","","","","SRET","EW_formal","","key","j","16.66581889763763","683","380","自己","利己","Negative","morality","","","","","","","","","","",""
"1041","","f","psychophysics","26","171294","0.0-7.0-3.0-0.12","5","4","6","5","5","5","3","4","4","4","5","-3","-2","0","0","-3","1","1","0","5","4","4","5","5","4","4","5","4","4","6","6","3","6","3","3","6","4","5","5","2","5","6","5","2","5","3","4","4","1","5","3","7","2","2","6","4","4","5","4","4","5","5","6","3","5","6","6","7","7","6","5","4","4","5","6","6","5","3","6","797773565536641026","黄","311","Male","[""坏他"",""好他"",""坏我"",""好我""]","[""弱他"",""强他"",""弱我"",""强我""]","","","","","","","","no","","","","","","","","","SRET","EW_formal","","key","f","16.66559836065557","683","380","朋友","失信","Negative","morality","","","","","","","","","","",""
"1206","","j","psychophysics","27","173507","0.0-7.0-3.0-0.13","5","4","6","5","5","5","3","4","4","4","5","-3","-2","0","0","-3","1","1","0","5","4","4","5","5","4","4","5","4","4","6","6","3","6","3","3","6","4","5","5","2","5","6","5","2","5","3","4","4","1","5","3","7","2","2","6","4","4","5","4","4","5","5","6","3","5","6","6","7","7","6","5","4","4","5","6","6","5","3","6","797773565536641026","黄","311","Male","[""坏他"",""好他"",""坏我"",""好我""]","[""弱他"",""强他"",""弱我"",""强我""]","","","","","","","","yes","","","","","","","","","SRET","EW_formal","","key","j","16.66569696969699","683","380","自己","诚信","Positive","morality","","","","","","","","","","",""
"1146","","j","psychophysics","28","175662","0.0-7.0-3.0-0.14","5","4","6","5","5","5","3","4","4","4","5","-3","-2","0","0","-3","1","1","0","5","4","4","5","5","4","4","5","4","4","6","6","3","6","3","3","6","4","5","5","2","5","6","5","2","5","3","4","4","1","5","3","7","2","2","6","4","4","5","4","4","5","5","6","3","5","6","6","7","7","6","5","4","4","5","6","6","5","3","6","797773565536641026","黄","311","Male","[""坏他"",""好他"",""坏我"",""好我""]","[""弱他"",""强他"",""弱我"",""强我""]","","","","","","","","yes","","","","","","","","","SRET","EW_formal","","key","j","16.665671874999816","683","380","朋友","高洁","Positive","morality","","","","","","","","","","",""
"1289","","f","psychophysics","29","177958","0.0-7.0-3.0-0.15","5","4","6","5","5","5","3","4","4","4","5","-3","-2","0","0","-3","1","1","0","5","4","4","5","5","4","4","5","4","4","6","6","3","6","3","3","6","4","5","5","2","5","6","5","2","5","3","4","4","1","5","3","7","2","2","6","4","4","5","4","4","5","5","6","3","5","6","6","7","7","6","5","4","4","5","6","6","5","3","6","797773565536641026","黄","311","Male","[""坏他"",""好他"",""坏我"",""好我""]","[""弱他"",""强他"",""弱我"",""强我""]","","","","","","","","no","","","","","","","","","SRET","EW_formal","","key","f","16.665948905109598","683","380","朋友","弱智","Negative","ability","","","","","","","","","","",""
"1218","","f","psychophysics","30","180183","0.0-7.0-3.0-0.16","5","4","6","5","5","5","3","4","4","4","5","-3","-2","0","0","-3","1","1","0","5","4","4","5","5","4","4","5","4","4","6","6","3","6","3","3","6","4","5","5","2","5","6","5","2","5","3","4","4","1","5","3","7","2","2","6","4","4","5","4","4","5","5","6","3","5","6","6","7","7","6","5","4","4","5","6","6","5","3","6","797773565536641026","黄","311","Male","[""坏他"",""好他"",""坏我"",""好我""]","[""弱他"",""强他"",""弱我"",""强我""]","","","","","","","","no","","","","","","","","","SRET","EW_formal","","key","f","16.6657727272726","683","380","自己","博学","Positive","ability","","","","","","","","","","",""
"1124","","j","psychophysics","31","182311","0.0-7.0-3.0-0.17","5","4","6","5","5","5","3","4","4","4","5","-3","-2","0","0","-3","1","1","0","5","4","4","5","5","4","4","5","4","4","6","6","3","6","3","3","6","4","5","5","2","5","6","5","2","5","3","4","4","1","5","3","7","2","2","6","4","4","5","4","4","5","5","6","3","5","6","6","7","7","6","5","4","4","5","6","6","5","3","6","797773565536641026","黄","311","Male","[""坏他"",""好他"",""坏我"",""好我""]","[""弱他"",""强他"",""弱我"",""强我""]","","","","","","","","yes","","","","","","","","","SRET","EW_formal","","key","j","16.79796031746036","683","380","自己","清廉","Positive","morality","","","","","","","","","","",""
"874","","f","psychophysics","32","184192","0.0-7.0-3.0-0.18","5","4","6","5","5","5","3","4","4","4","5","-3","-2","0","0","-3","1","1","0","5","4","4","5","5","4","4","5","4","4","6","6","3","6","3","3","6","4","5","5","2","5","6","5","2","5","3","4","4","1","5","3","7","2","2","6","4","4","5","4","4","5","5","6","3","5","6","6","7","7","6","5","4","4","5","6","6","5","3","6","797773565536641026","黄","311","Male","[""坏他"",""好他"",""坏我"",""好我""]","[""弱他"",""强他"",""弱我"",""强我""]","","","","","","","","no","","","","","","","","","SRET","EW_formal","","key","f","16.66526785714294","683","380","自己","淫乱","Negative","morality","","","","","","","","","","",""
"945","","j","psychophysics","33","186142","0.0-7.0-3.0-0.19","5","4","6","5","5","5","3","4","4","4","5","-3","-2","0","0","-3","1","1","0","5","4","4","5","5","4","4","5","4","4","6","6","3","6","3","3","6","4","5","5","2","5","6","5","2","5","3","4","4","1","5","3","7","2","2","6","4","4","5","4","4","5","5","6","3","5","6","6","7","7","6","5","4","4","5","6","6","5","3","6","797773565536641026","黄","311","Male","[""坏他"",""好他"",""坏我"",""好我""]","[""弱他"",""强他"",""弱我"",""强我""]","","","","","","","","yes","","","","","","","","","SRET","EW_formal","","key","j","16.81008695652177","683","380","朋友","忠义","Positive","morality","","","","","","","","","","",""
"881","","f","psychophysics","34","188031","0.0-7.0-3.0-0.20","5","4","6","5","5","5","3","4","4","4","5","-3","-2","0","0","-3","1","1","0","5","4","4","5","5","4","4","5","4","4","6","6","3","6","3","3","6","4","5","5","2","5","6","5","2","5","3","4","4","1","5","3","7","2","2","6","4","4","5","4","4","5","5","6","3","5","6","6","7","7","6","5","4","4","5","6","6","5","3","6","797773565536641026","黄","311","Male","[""坏他"",""好他"",""坏我"",""好我""]","[""弱他"",""强他"",""弱我"",""强我""]","","","","","","","","no","","","","","","","","","SRET","EW_formal","","key","f","16.665651785714413","683","380","朋友","蛇蝎","Negative","morality","","","","","","","","","","",""
"1195","","j","psychophysics","35","190231","0.0-7.0-3.0-0.21","5","4","6","5","5","5","3","4","4","4","5","-3","-2","0","0","-3","1","1","0","5","4","4","5","5","4","4","5","4","4","6","6","3","6","3","3","6","4","5","5","2","5","6","5","2","5","3","4","4","1","5","3","7","2","2","6","4","4","5","4","4","5","5","6","3","5","6","6","7","7","6","5","4","4","5","6","6","5","3","6","797773565536641026","黄","311","Male","[""坏他"",""好他"",""坏我"",""好我""]","[""弱他"",""强他"",""弱我"",""强我""]","","","","","","","","yes","","","","","","","","","SRET","EW_formal","","key","j","16.665137404580165","683","380","朋友","正气","Positive","morality","","","","","","","","","","",""
"1134","","j","psychophysics","36","192374","0.0-7.0-3.0-0.22","5","4","6","5","5","5","3","4","4","4","5","-3","-2","0","0","-3","1","1","0","5","4","4","5","5","4","4","5","4","4","6","6","3","6","3","3","6","4","5","5","2","5","6","5","2","5","3","4","4","1","5","3","7","2","2","6","4","4","5","4","4","5","5","6","3","5","6","6","7","7","6","5","4","4","5","6","6","5","3","6","797773565536641026","黄","311","Male","[""坏他"",""好他"",""坏我"",""好我""]","[""弱他"",""强他"",""弱我"",""强我""]","","","","","","","","yes","","","","","","","","","SRET","EW_formal","","key","j","16.665515625000126","683","380","自己","廉明","Positive","morality","","","","","","","","","","",""
"1178","","j","psychophysics","37","194558","0.0-7.0-3.0-0.23","5","4","6","5","5","5","3","4","4","4","5","-3","-2","0","0","-3","1","1","0","5","4","4","5","5","4","4","5","4","4","6","6","3","6","3","3","6","4","5","5","2","5","6","5","2","5","3","4","4","1","5","3","7","2","2","6","4","4","5","4","4","5","5","6","3","5","6","6","7","7","6","5","4","4","5","6","6","5","3","6","797773565536641026","黄","311","Male","[""坏他"",""好他"",""坏我"",""好我""]","[""弱他"",""强他"",""弱我"",""强我""]","","","","","","","","yes","","","","","","","","","SRET","EW_formal","","key","j","16.665784615384585","683","380","自己","独断","Negative","ability","","","","","","","","","","",""
"1218","","j","psychophysics","38","196782","0.0-7.0-3.0-0.24","5","4","6","5","5","5","3","4","4","4","5","-3","-2","0","0","-3","1","1","0","5","4","4","5","5","4","4","5","4","4","6","6","3","6","3","3","6","4","5","5","2","5","6","5","2","5","3","4","4","1","5","3","7","2","2","6","4","4","5","4","4","5","5","6","3","5","6","6","7","7","6","5","4","4","5","6","6","5","3","6","797773565536641026","黄","311","Male","[""坏他"",""好他"",""坏我"",""好我""]","[""弱他"",""强他"",""弱我"",""强我""]","","","","","","","","yes","","","","","","","","","SRET","EW_formal","","key","j","16.66559848484846","683","380","自己","忠良","Positive","morality","","","","","","","","","","",""
"1121","","f","psychophysics","39","198906","0.0-7.0-3.0-0.25","5","4","6","5","5","5","3","4","4","4","5","-3","-2","0","0","-3","1","1","0","5","4","4","5","5","4","4","5","4","4","6","6","3","6","3","3","6","4","5","5","2","5","6","5","2","5","3","4","4","1","5","3","7","2","2","6","4","4","5","4","4","5","5","6","3","5","6","6","7","7","6","5","4","4","5","6","6","5","3","6","797773565536641026","黄","311","Male","[""坏他"",""好他"",""坏我"",""好我""]","[""弱他"",""强他"",""弱我"",""强我""]","","","","","","","","no","","","","","","","","","SRET","EW_formal","","key","f","16.79852380952382","683","380","朋友","愚蠢","Negative","ability","","","","","","","","","","",""
"1065","","f","psychophysics","40","200974","0.0-7.0-3.0-0.26","5","4","6","5","5","5","3","4","4","4","5","-3","-2","0","0","-3","1","1","0","5","4","4","5","5","4","4","5","4","4","6","6","3","6","3","3","6","4","5","5","2","5","6","5","2","5","3","4","4","1","5","3","7","2","2","6","4","4","5","4","4","5","5","6","3","5","6","6","7","7","6","5","4","4","5","6","6","5","3","6","797773565536641026","黄","311","Male","[""坏他"",""好他"",""坏我"",""好我""]","[""弱他"",""强他"",""弱我"",""强我""]","","","","","","","","no","","","","","","","","","SRET","EW_formal","","key","f","16.666292682926812","683","380","朋友","迟钝","Negative","ability","","","","","","","","","","",""
"924","","j","psychophysics","41","202905","0.0-7.0-3.0-0.27","5","4","6","5","5","5","3","4","4","4","5","-3","-2","0","0","-3","1","1","0","5","4","4","5","5","4","4","5","4","4","6","6","3","6","3","3","6","4","5","5","2","5","6","5","2","5","3","4","4","1","5","3","7","2","2","6","4","4","5","4","4","5","5","6","3","5","6","6","7","7","6","5","4","4","5","6","6","5","3","6","797773565536641026","黄","311","Male","[""坏他"",""好他"",""坏我"",""好我""]","[""弱他"",""强他"",""弱我"",""强我""]","","","","","","","","yes","","","","","","","","","SRET","EW_formal","","key","j","16.664573913043284","683","380","朋友","勤奋","Positive","ability","","","","","","","","","","",""
"1229","","j","psychophysics","42","205139","0.0-7.0-3.0-0.28","5","4","6","5","5","5","3","4","4","4","5","-3","-2","0","0","-3","1","1","0","5","4","4","5","5","4","4","5","4","4","6","6","3","6","3","3","6","4","5","5","2","5","6","5","2","5","3","4","4","1","5","3","7","2","2","6","4","4","5","4","4","5","5","6","3","5","6","6","7","7","6","5","4","4","5","6","6","5","3","6","797773565536641026","黄","311","Male","[""坏他"",""好他"",""坏我"",""好我""]","[""弱他"",""强他"",""弱我"",""强我""]","","","","","","","","yes","","","","","","","","","SRET","EW_formal","","key","j","16.79156060606064","683","380","朋友","变通","Positive","ability","","","","","","","","","","",""
"1129","","j","psychophysics","43","207279","0.0-7.0-3.0-0.29","5","4","6","5","5","5","3","4","4","4","5","-3","-2","0","0","-3","1","1","0","5","4","4","5","5","4","4","5","4","4","6","6","3","6","3","3","6","4","5","5","2","5","6","5","2","5","3","4","4","1","5","3","7","2","2","6","4","4","5","4","4","5","5","6","3","5","6","6","7","7","6","5","4","4","5","6","6","5","3","6","797773565536641026","黄","311","Male","[""坏他"",""好他"",""坏我"",""好我""]","[""弱他"",""强他"",""弱我"",""强我""]","","","","","","","","yes","","","","","","","","","SRET","EW_formal","","key","j","16.79753174603176","683","380","自己","孝顺","Positive","morality","","","","","","","","","","",""
"987","","f","psychophysics","44","209272","0.0-7.0-3.0-0.30","5","4","6","5","5","5","3","4","4","4","5","-3","-2","0","0","-3","1","1","0","5","4","4","5","5","4","4","5","4","4","6","6","3","6","3","3","6","4","5","5","2","5","6","5","2","5","3","4","4","1","5","3","7","2","2","6","4","4","5","4","4","5","5","6","3","5","6","6","7","7","6","5","4","4","5","6","6","5","3","6","797773565536641026","黄","311","Male","[""坏他"",""好他"",""坏我"",""好我""]","[""弱他"",""强他"",""弱我"",""强我""]","","","","","","","","no","","","","","","","","","SRET","EW_formal","","key","f","16.665361344537693","683","380","自己","小人","Negative","morality","","","","","","","","","","",""
"913","","f","psychophysics","45","211190","0.0-7.0-3.0-0.31","5","4","6","5","5","5","3","4","4","4","5","-3","-2","0","0","-3","1","1","0","5","4","4","5","5","4","4","5","4","4","6","6","3","6","3","3","6","4","5","5","2","5","6","5","2","5","3","4","4","1","5","3","7","2","2","6","4","4","5","4","4","5","5","6","3","5","6","6","7","7","6","5","4","4","5","6","6","5","3","6","797773565536641026","黄","311","Male","[""坏他"",""好他"",""坏我"",""好我""]","[""弱他"",""强他"",""弱我"",""强我""]","","","","","","","","no","","","","","","","","","SRET","EW_formal","","key","f","16.812876106194782","683","380","朋友","虚伪","Negative","morality","","","","","","","","","","",""
"976","","f","psychophysics","46","213174","0.0-7.0-3.0-0.32","5","4","6","5","5","5","3","4","4","4","5","-3","-2","0","0","-3","1","1","0","5","4","4","5","5","4","4","5","4","4","6","6","3","6","3","3","6","4","5","5","2","5","6","5","2","5","3","4","4","1","5","3","7","2","2","6","4","4","5","4","4","5","5","6","3","5","6","6","7","7","6","5","4","4","5","6","6","5","3","6","797773565536641026","黄","311","Male","[""坏他"",""好他"",""坏我"",""好我""]","[""弱他"",""强他"",""弱我"",""强我""]","","","","","","","","no","","","","","","","","","SRET","EW_formal","","key","f","16.665474576271045","683","380","自己","卑鄙","Negative","morality","","","","","","","","","","",""
"1124","","j","psychophysics","47","215305","0.0-7.0-3.0-0.33","5","4","6","5","5","5","3","4","4","4","5","-3","-2","0","0","-3","1","1","0","5","4","4","5","5","4","4","5","4","4","6","6","3","6","3","3","6","4","5","5","2","5","6","5","2","5","3","4","4","1","5","3","7","2","2","6","4","4","5","4","4","5","5","6","3","5","6","6","7","7","6","5","4","4","5","6","6","5","3","6","797773565536641026","黄","311","Male","[""坏他"",""好他"",""坏我"",""好我""]","[""弱他"",""强他"",""弱我"",""强我""]","","","","","","","","yes","","","","","","","","","SRET","EW_formal","","key","j","16.66570078740153","683","380","自己","毛糙","Negative","ability","","","","","","","","","","",""
"1029","","f","psychophysics","48","217338","0.0-7.0-3.0-0.34","5","4","6","5","5","5","3","4","4","4","5","-3","-2","0","0","-3","1","1","0","5","4","4","5","5","4","4","5","4","4","6","6","3","6","3","3","6","4","5","5","2","5","6","5","2","5","3","4","4","1","5","3","7","2","2","6","4","4","5","4","4","5","5","6","3","5","6","6","7","7","6","5","4","4","5","6","6","5","3","6","797773565536641026","黄","311","Male","[""坏他"",""好他"",""坏我"",""好我""]","[""弱他"",""强他"",""弱我"",""强我""]","","","","","","","","no","","","","","","","","","SRET","EW_formal","","key","f","16.665479338843102","683","380","自己","敏捷","Positive","ability","","","","","","","","","","",""
"1065","","f","psychophysics","49","219406","0.0-7.0-3.0-0.35","5","4","6","5","5","5","3","4","4","4","5","-3","-2","0","0","-3","1","1","0","5","4","4","5","5","4","4","5","4","4","6","6","3","6","3","3","6","4","5","5","2","5","6","5","2","5","3","4","4","1","5","3","7","2","2","6","4","4","5","4","4","5","5","6","3","5","6","6","7","7","6","5","4","4","5","6","6","5","3","6","797773565536641026","黄","311","Male","[""坏他"",""好他"",""坏我"",""好我""]","[""弱他"",""强他"",""弱我"",""强我""]","","","","","","","","no","","","","","","","","","SRET","EW_formal","","key","f","16.66602439024392","683","380","朋友","愚痴","Negative","ability","","","","","","","","","","",""
"1009","","f","psychophysics","50","221422","0.0-7.0-3.0-0.36","5","4","6","5","5","5","3","4","4","4","5","-3","-2","0","0","-3","1","1","0","5","4","4","5","5","4","4","5","4","4","6","6","3","6","3","3","6","4","5","5","2","5","6","5","2","5","3","4","4","1","5","3","7","2","2","6","4","4","5","4","4","5","5","6","3","5","6","6","7","7","6","5","4","4","5","6","6","5","3","6","797773565536641026","黄","311","Male","[""坏他"",""好他"",""坏我"",""好我""]","[""弱他"",""强他"",""弱我"",""强我""]","","","","","","","","no","","","","","","","","","SRET","EW_formal","","key","f","16.666116666666735","683","380","自己","学霸","Positive","ability","","","","","","","","","","",""
"977","","j","psychophysics","51","223406","0.0-7.0-3.0-0.37","5","4","6","5","5","5","3","4","4","4","5","-3","-2","0","0","-3","1","1","0","5","4","4","5","5","4","4","5","4","4","6","6","3","6","3","3","6","4","5","5","2","5","6","5","2","5","3","4","4","1","5","3","7","2","2","6","4","4","5","4","4","5","5","6","3","5","6","6","7","7","6","5","4","4","5","6","6","5","3","6","797773565536641026","黄","311","Male","[""坏他"",""好他"",""坏我"",""好我""]","[""弱他"",""强他"",""弱我"",""强我""]","","","","","","","","yes","","","","","","","","","SRET","EW_formal","","key","j","16.66534745762735","683","380","朋友","厚道","Positive","morality","","","","","","","","","","",""
"1225","","j","psychophysics","52","225638","0.0-7.0-3.0-0.38","5","4","6","5","5","5","3","4","4","4","5","-3","-2","0","0","-3","1","1","0","5","4","4","5","5","4","4","5","4","4","6","6","3","6","3","3","6","4","5","5","2","5","6","5","2","5","3","4","4","1","5","3","7","2","2","6","4","4","5","4","4","5","5","6","3","5","6","6","7","7","6","5","4","4","5","6","6","5","3","6","797773565536641026","黄","311","Male","[""坏他"",""好他"",""坏我"",""好我""]","[""弱他"",""强他"",""弱我"",""强我""]","","","","","","","","yes","","","","","","","","","SRET","EW_formal","","key","j","16.665353383458633","683","380","自己","守法","Positive","morality","","","","","","","","","","",""
"1153","","f","psychophysics","53","227798","0.0-7.0-3.0-0.39","5","4","6","5","5","5","3","4","4","4","5","-3","-2","0","0","-3","1","1","0","5","4","4","5","5","4","4","5","4","4","6","6","3","6","3","3","6","4","5","5","2","5","6","5","2","5","3","4","4","1","5","3","7","2","2","6","4","4","5","4","4","5","5","6","3","5","6","6","7","7","6","5","4","4","5","6","6","5","3","6","797773565536641026","黄","311","Male","[""坏他"",""好他"",""坏我"",""好我""]","[""弱他"",""强他"",""弱我"",""强我""]","","","","","","","","no","","","","","","","","","SRET","EW_formal","","key","f","16.665335937500004","683","380","朋友","贪污","Negative","morality","","","","","","","","","","",""
"1390","","j","psychophysics","54","230198","0.0-7.0-3.0-0.40","5","4","6","5","5","5","3","4","4","4","5","-3","-2","0","0","-3","1","1","0","5","4","4","5","5","4","4","5","4","4","6","6","3","6","3","3","6","4","5","5","2","5","6","5","2","5","3","4","4","1","5","3","7","2","2","6","4","4","5","4","4","5","5","6","3","5","6","6","7","7","6","5","4","4","5","6","6","5","3","6","797773565536641026","黄","311","Male","[""坏他"",""好他"",""坏我"",""好我""]","[""弱他"",""强他"",""弱我"",""强我""]","","","","","","","","yes","","","","","","","","","SRET","EW_formal","","key","j","16.666951048951123","683","380","朋友","娴熟","Positive","ability","","","","","","","","","","",""
"1150","","f","psychophysics","55","232354","0.0-7.0-3.0-0.41","5","4","6","5","5","5","3","4","4","4","5","-3","-2","0","0","-3","1","1","0","5","4","4","5","5","4","4","5","4","4","6","6","3","6","3","3","6","4","5","5","2","5","6","5","2","5","3","4","4","1","5","3","7","2","2","6","4","4","5","4","4","5","5","6","3","5","6","6","7","7","6","5","4","4","5","6","6","5","3","6","797773565536641026","黄","311","Male","[""坏他"",""好他"",""坏我"",""好我""]","[""弱他"",""强他"",""弱我"",""强我""]","","","","","","","","no","","","","","","","","","SRET","EW_formal","","key","f","16.665713178294407","683","380","自己","刻薄","Negative","morality","","","","","","","","","","",""
"1496","","j","psychophysics","56","234854","0.0-7.0-3.0-0.42","5","4","6","5","5","5","3","4","4","4","5","-3","-2","0","0","-3","1","1","0","5","4","4","5","5","4","4","5","4","4","6","6","3","6","3","3","6","4","5","5","2","5","6","5","2","5","3","4","4","1","5","3","7","2","2","6","4","4","5","4","4","5","5","6","3","5","6","6","7","7","6","5","4","4","5","6","6","5","3","6","797773565536641026","黄","311","Male","[""坏他"",""好他"",""坏我"",""好我""]","[""弱他"",""强他"",""弱我"",""强我""]","","","","","","","","yes","","","","","","","","","SRET","EW_formal","","key","j","16.665577181208068","683","380","自己","窝囊","Negative","ability","","","","","","","","","","",""
"1308","","f","psychophysics","57","237169","0.0-7.0-3.0-0.43","5","4","6","5","5","5","3","4","4","4","5","-3","-2","0","0","-3","1","1","0","5","4","4","5","5","4","4","5","4","4","6","6","3","6","3","3","6","4","5","5","2","5","6","5","2","5","3","4","4","1","5","3","7","2","2","6","4","4","5","4","4","5","5","6","3","5","6","6","7","7","6","5","4","4","5","6","6","5","3","6","797773565536641026","黄","311","Male","[""坏他"",""好他"",""坏我"",""好我""]","[""弱他"",""强他"",""弱我"",""强我""]","","","","","","","","no","","","","","","","","","SRET","EW_formal","","key","f","16.787124087591316","683","380","朋友","果决","Positive","ability","","","","","","","","","","",""
"1257","","j","psychophysics","58","239430","0.0-7.0-3.0-0.44","5","4","6","5","5","5","3","4","4","4","5","-3","-2","0","0","-3","1","1","0","5","4","4","5","5","4","4","5","4","4","6","6","3","6","3","3","6","4","5","5","2","5","6","5","2","5","3","4","4","1","5","3","7","2","2","6","4","4","5","4","4","5","5","6","3","5","6","6","7","7","6","5","4","4","5","6","6","5","3","6","797773565536641026","黄","311","Male","[""坏他"",""好他"",""坏我"",""好我""]","[""弱他"",""强他"",""弱我"",""强我""]","","","","","","","","yes","","","","","","","","","SRET","EW_formal","","key","j","16.666074626865786","683","380","朋友","独立","Positive","ability","","","","","","","","","","",""
"1090","","j","psychophysics","59","241525","0.0-7.0-3.0-0.45","5","4","6","5","5","5","3","4","4","4","5","-3","-2","0","0","-3","1","1","0","5","4","4","5","5","4","4","5","4","4","6","6","3","6","3","3","6","4","5","5","2","5","6","5","2","5","3","4","4","1","5","3","7","2","2","6","4","4","5","4","4","5","5","6","3","5","6","6","7","7","6","5","4","4","5","6","6","5","3","6","797773565536641026","黄","311","Male","[""坏他"",""好他"",""坏我"",""好我""]","[""弱他"",""强他"",""弱我"",""强我""]","","","","","","","","yes","","","","","","","","","SRET","EW_formal","","key","j","16.664871999999974","683","380","自己","沉着","Positive","ability","","","","","","","","","","",""
"959","","f","psychophysics","60","243494","0.0-7.0-3.0-0.46","5","4","6","5","5","5","3","4","4","4","5","-3","-2","0","0","-3","1","1","0","5","4","4","5","5","4","4","5","4","4","6","6","3","6","3","3","6","4","5","5","2","5","6","5","2","5","3","4","4","1","5","3","7","2","2","6","4","4","5","4","4","5","5","6","3","5","6","6","7","7","6","5","4","4","5","6","6","5","3","6","797773565536641026","黄","311","Male","[""坏他"",""好他"",""坏我"",""好我""]","[""弱他"",""强他"",""弱我"",""强我""]","","","","","","","","no","","","","","","","","","SRET","EW_formal","","key","f","16.665897435897467","683","380","朋友","黑心","Negative","morality","","","","","","","","","","",""
"1010","","f","psychophysics","61","245510","0.0-7.0-3.0-0.47","5","4","6","5","5","5","3","4","4","4","5","-3","-2","0","0","-3","1","1","0","5","4","4","5","5","4","4","5","4","4","6","6","3","6","3","3","6","4","5","5","2","5","6","5","2","5","3","4","4","1","5","3","7","2","2","6","4","4","5","4","4","5","5","6","3","5","6","6","7","7","6","5","4","4","5","6","6","5","3","6","797773565536641026","黄","311","Male","[""坏他"",""好他"",""坏我"",""好我""]","[""弱他"",""强他"",""弱我"",""强我""]","","","","","","","","no","","","","","","","","","SRET","EW_formal","","key","f","16.665649999999975","683","380","朋友","混账","Negative","morality","","","","","","","","","","",""
"1065","","f","psychophysics","62","247584","0.0-7.0-3.0-0.48","5","4","6","5","5","5","3","4","4","4","5","-3","-2","0","0","-3","1","1","0","5","4","4","5","5","4","4","5","4","4","6","6","3","6","3","3","6","4","5","5","2","5","6","5","2","5","3","4","4","1","5","3","7","2","2","6","4","4","5","4","4","5","5","6","3","5","6","6","7","7","6","5","4","4","5","6","6","5","3","6","797773565536641026","黄","311","Male","[""坏他"",""好他"",""坏我"",""好我""]","[""弱他"",""强他"",""弱我"",""强我""]","","","","","","","","no","","","","","","","","","SRET","EW_formal","","key","f","16.80205737704938","683","380","朋友","不仁","Negative","morality","","","","","","","","","","",""
"865","","j","psychophysics","63","249455","0.0-7.0-3.0-0.49","5","4","6","5","5","5","3","4","4","4","5","-3","-2","0","0","-3","1","1","0","5","4","4","5","5","4","4","5","4","4","6","6","3","6","3","3","6","4","5","5","2","5","6","5","2","5","3","4","4","1","5","3","7","2","2","6","4","4","5","4","4","5","5","6","3","5","6","6","7","7","6","5","4","4","5","6","6","5","3","6","797773565536641026","黄","311","Male","[""坏他"",""好他"",""坏我"",""好我""]","[""弱他"",""强他"",""弱我"",""强我""]","","","","","","","","yes","","","","","","","","","SRET","EW_formal","","key","j","16.665464285714343","683","380","朋友","利落","Positive","ability","","","","","","","","","","",""
"1058","","f","psychophysics","64","251519","0.0-7.0-3.0-0.50","5","4","6","5","5","5","3","4","4","4","5","-3","-2","0","0","-3","1","1","0","5","4","4","5","5","4","4","5","4","4","6","6","3","6","3","3","6","4","5","5","2","5","6","5","2","5","3","4","4","1","5","3","7","2","2","6","4","4","5","4","4","5","5","6","3","5","6","6","7","7","6","5","4","4","5","6","6","5","3","6","797773565536641026","黄","311","Male","[""坏他"",""好他"",""坏我"",""好我""]","[""弱他"",""强他"",""弱我"",""强我""]","","","","","","","","no","","","","","","","","","SRET","EW_formal","","key","f","16.665455284552806","683","380","朋友","犹豫","Negative","ability","","","","","","","","","","",""
"984","","f","psychophysics","65","253510","0.0-7.0-3.0-0.51","5","4","6","5","5","5","3","4","4","4","5","-3","-2","0","0","-3","1","1","0","5","4","4","5","5","4","4","5","4","4","6","6","3","6","3","3","6","4","5","5","2","5","6","5","2","5","3","4","4","1","5","3","7","2","2","6","4","4","5","4","4","5","5","6","3","5","6","6","7","7","6","5","4","4","5","6","6","5","3","6","797773565536641026","黄","311","Male","[""坏他"",""好他"",""坏我"",""好我""]","[""弱他"",""强他"",""弱我"",""强我""]","","","","","","","","no","","","","","","","","","SRET","EW_formal","","key","f","16.665381355932077","683","380","自己","无敌","Positive","ability","","","","","","","","","","",""
"1018","","j","psychophysics","66","255537","0.0-7.0-3.0-0.52","5","4","6","5","5","5","3","4","4","4","5","-3","-2","0","0","-3","1","1","0","5","4","4","5","5","4","4","5","4","4","6","6","3","6","3","3","6","4","5","5","2","5","6","5","2","5","3","4","4","1","5","3","7","2","2","6","4","4","5","4","4","5","5","6","3","5","6","6","7","7","6","5","4","4","5","6","6","5","3","6","797773565536641026","黄","311","Male","[""坏他"",""好他"",""坏我"",""好我""]","[""弱他"",""强他"",""弱我"",""强我""]","","","","","","","","yes","","","","","","","","","SRET","EW_formal","","key","j","16.665702479338748","683","380","朋友","果断","Positive","ability","","","","","","","","","","",""
"1296","","f","psychophysics","67","257837","0.0-7.0-3.0-0.53","5","4","6","5","5","5","3","4","4","4","5","-3","-2","0","0","-3","1","1","0","5","4","4","5","5","4","4","5","4","4","6","6","3","6","3","3","6","4","5","5","2","5","6","5","2","5","3","4","4","1","5","3","7","2","2","6","4","4","5","4","4","5","5","6","3","5","6","6","7","7","6","5","4","4","5","6","6","5","3","6","797773565536641026","黄","311","Male","[""坏他"",""好他"",""坏我"",""好我""]","[""弱他"",""强他"",""弱我"",""强我""]","","","","","","","","no","","","","","","","","","SRET","EW_formal","","key","f","16.665934306569397","683","380","朋友","无助","Negative","ability","","","","","","","","","","",""
"1400","","f","psychophysics","68","260246","0.0-7.0-3.0-0.54","5","4","6","5","5","5","3","4","4","4","5","-3","-2","0","0","-3","1","1","0","5","4","4","5","5","4","4","5","4","4","6","6","3","6","3","3","6","4","5","5","2","5","6","5","2","5","3","4","4","1","5","3","7","2","2","6","4","4","5","4","4","5","5","6","3","5","6","6","7","7","6","5","4","4","5","6","6","5","3","6","797773565536641026","黄","311","Male","[""坏他"",""好他"",""坏我"",""好我""]","[""弱他"",""强他"",""弱我"",""强我""]","","","","","","","","no","","","","","","","","","SRET","EW_formal","","key","f","16.665181818181914","683","380","自己","差生","Negative","ability","","","","","","","","","","",""
"819","","f","psychophysics","69","262069","0.0-7.0-3.0-0.55","5","4","6","5","5","5","3","4","4","4","5","-3","-2","0","0","-3","1","1","0","5","4","4","5","5","4","4","5","4","4","6","6","3","6","3","3","6","4","5","5","2","5","6","5","2","5","3","4","4","1","5","3","7","2","2","6","4","4","5","4","4","5","5","6","3","5","6","6","7","7","6","5","4","4","5","6","6","5","3","6","797773565536641026","黄","311","Male","[""坏他"",""好他"",""坏我"",""好我""]","[""弱他"",""强他"",""弱我"",""强我""]","","","","","","","","no","","","","","","","","","SRET","EW_formal","","key","f","16.66587155963291","683","380","自己","无赖","Negative","morality","","","","","","","","","","",""
"1008","","j","psychophysics","70","264086","0.0-7.0-3.0-0.56","5","4","6","5","5","5","3","4","4","4","5","-3","-2","0","0","-3","1","1","0","5","4","4","5","5","4","4","5","4","4","6","6","3","6","3","3","6","4","5","5","2","5","6","5","2","5","3","4","4","1","5","3","7","2","2","6","4","4","5","4","4","5","5","6","3","5","6","6","7","7","6","5","4","4","5","6","6","5","3","6","797773565536641026","黄","311","Male","[""坏他"",""好他"",""坏我"",""好我""]","[""弱他"",""强他"",""弱我"",""强我""]","","","","","","","","yes","","","","","","","","","SRET","EW_formal","","key","j","16.66589166666672","683","380","自己","依靠","Negative","ability","","","","","","","","","","",""
"816","","j","psychophysics","71","265909","0.0-7.0-3.0-0.57","5","4","6","5","5","5","3","4","4","4","5","-3","-2","0","0","-3","1","1","0","5","4","4","5","5","4","4","5","4","4","6","6","3","6","3","3","6","4","5","5","2","5","6","5","2","5","3","4","4","1","5","3","7","2","2","6","4","4","5","4","4","5","5","6","3","5","6","6","7","7","6","5","4","4","5","6","6","5","3","6","797773565536641026","黄","311","Male","[""坏他"",""好他"",""坏我"",""好我""]","[""弱他"",""强他"",""弱我"",""强我""]","","","","","","","","yes","","","","","","","","","SRET","EW_formal","","key","j","16.66563888888858","683","380","自己","廉正","Positive","morality","","","","","","","","","","",""
"920","","f","psychophysics","72","267837","0.0-7.0-3.0-0.58","5","4","6","5","5","5","3","4","4","4","5","-3","-2","0","0","-3","1","1","0","5","4","4","5","5","4","4","5","4","4","6","6","3","6","3","3","6","4","5","5","2","5","6","5","2","5","3","4","4","1","5","3","7","2","2","6","4","4","5","4","4","5","5","6","3","5","6","6","7","7","6","5","4","4","5","6","6","5","3","6","797773565536641026","黄","311","Male","[""坏他"",""好他"",""坏我"",""好我""]","[""弱他"",""强他"",""弱我"",""强我""]","","","","","","","","no","","","","","","","","","SRET","EW_formal","","key","f","16.666121739130364","683","380","自己","龌龊","Negative","morality","","","","","","","","","","",""
"956","","j","psychophysics","73","269801","0.0-7.0-3.0-0.59","5","4","6","5","5","5","3","4","4","4","5","-3","-2","0","0","-3","1","1","0","5","4","4","5","5","4","4","5","4","4","6","6","3","6","3","3","6","4","5","5","2","5","6","5","2","5","3","4","4","1","5","3","7","2","2","6","4","4","5","4","4","5","5","6","3","5","6","6","7","7","6","5","4","4","5","6","6","5","3","6","797773565536641026","黄","311","Male","[""坏他"",""好他"",""坏我"",""好我""]","[""弱他"",""强他"",""弱我"",""强我""]","","","","","","","","yes","","","","","","","","","SRET","EW_formal","","key","j","16.808853448275777","683","380","朋友","仁爱","Positive","morality","","","","","","","","","","",""
"1016","","f","psychophysics","74","271821","0.0-7.0-3.0-0.60","5","4","6","5","5","5","3","4","4","4","5","-3","-2","0","0","-3","1","1","0","5","4","4","5","5","4","4","5","4","4","6","6","3","6","3","3","6","4","5","5","2","5","6","5","2","5","3","4","4","1","5","3","7","2","2","6","4","4","5","4","4","5","5","6","3","5","6","6","7","7","6","5","4","4","5","6","6","5","3","6","797773565536641026","黄","311","Male","[""坏他"",""好他"",""坏我"",""好我""]","[""弱他"",""强他"",""弱我"",""强我""]","","","","","","","","no","","","","","","","","","SRET","EW_formal","","key","f","16.66605833333354","683","380","自己","狡诈","Negative","morality","","","","","","","","","","",""
"840","","j","psychophysics","75","273670","0.0-7.0-3.0-0.61","5","4","6","5","5","5","3","4","4","4","5","-3","-2","0","0","-3","1","1","0","5","4","4","5","5","4","4","5","4","4","6","6","3","6","3","3","6","4","5","5","2","5","6","5","2","5","3","4","4","1","5","3","7","2","2","6","4","4","5","4","4","5","5","6","3","5","6","6","7","7","6","5","4","4","5","6","6","5","3","6","797773565536641026","黄","311","Male","[""坏他"",""好他"",""坏我"",""好我""]","[""弱他"",""强他"",""弱我"",""强我""]","","","","","","","","yes","","","","","","","","","SRET","EW_formal","","key","j","16.66553636363665","683","380","朋友","稳健","Positive","ability","","","","","","","","","","",""
"1024","","j","psychophysics","76","275702","0.0-7.0-3.0-0.62","5","4","6","5","5","5","3","4","4","4","5","-3","-2","0","0","-3","1","1","0","5","4","4","5","5","4","4","5","4","4","6","6","3","6","3","3","6","4","5","5","2","5","6","5","2","5","3","4","4","1","5","3","7","2","2","6","4","4","5","4","4","5","5","6","3","5","6","6","7","7","6","5","4","4","5","6","6","5","3","6","797773565536641026","黄","311","Male","[""坏他"",""好他"",""坏我"",""好我""]","[""弱他"",""强他"",""弱我"",""强我""]","","","","","","","","yes","","","","","","","","","SRET","EW_formal","","key","j","16.666297520661423","683","380","自己","细心","Positive","ability","","","","","","","","","","",""
"792","","j","psychophysics","77","277501","0.0-7.0-3.0-0.63","5","4","6","5","5","5","3","4","4","4","5","-3","-2","0","0","-3","1","1","0","5","4","4","5","5","4","4","5","4","4","6","6","3","6","3","3","6","4","5","5","2","5","6","5","2","5","3","4","4","1","5","3","7","2","2","6","4","4","5","4","4","5","5","6","3","5","6","6","7","7","6","5","4","4","5","6","6","5","3","6","797773565536641026","黄","311","Male","[""坏他"",""好他"",""坏我"",""好我""]","[""弱他"",""强他"",""弱我"",""强我""]","","","","","","","","yes","","","","","","","","","SRET","EW_formal","","key","j","16.6662523364485","683","380","朋友","忠诚","Positive","morality","","","","","","","","","","",""
"1008","","j","psychophysics","78","279518","0.0-7.0-3.0-0.64","5","4","6","5","5","5","3","4","4","4","5","-3","-2","0","0","-3","1","1","0","5","4","4","5","5","4","4","5","4","4","6","6","3","6","3","3","6","4","5","5","2","5","6","5","2","5","3","4","4","1","5","3","7","2","2","6","4","4","5","4","4","5","5","6","3","5","6","6","7","7","6","5","4","4","5","6","6","5","3","6","797773565536641026","黄","311","Male","[""坏他"",""好他"",""坏我"",""好我""]","[""弱他"",""强他"",""弱我"",""强我""]","","","","","","","","yes","","","","","","","","","SRET","EW_formal","","key","j","16.665916666666455","683","380","朋友","干练","Positive","ability","","","","","","","","","","",""
"976","","j","psychophysics","79","281501","0.0-7.0-3.0-0.65","5","4","6","5","5","5","3","4","4","4","5","-3","-2","0","0","-3","1","1","0","5","4","4","5","5","4","4","5","4","4","6","6","3","6","3","3","6","4","5","5","2","5","6","5","2","5","3","4","4","1","5","3","7","2","2","6","4","4","5","4","4","5","5","6","3","5","6","6","7","7","6","5","4","4","5","6","6","5","3","6","797773565536641026","黄","311","Male","[""坏他"",""好他"",""坏我"",""好我""]","[""弱他"",""强他"",""弱我"",""强我""]","","","","","","","","yes","","","","","","","","","SRET","EW_formal","","key","j","16.665559322034085","683","380","自己","仗义","Positive","morality","","","","","","","","","","",""
"776","","j","psychophysics","80","283285","0.0-7.0-3.0-0.66","5","4","6","5","5","5","3","4","4","4","5","-3","-2","0","0","-3","1","1","0","5","4","4","5","5","4","4","5","4","4","6","6","3","6","3","3","6","4","5","5","2","5","6","5","2","5","3","4","4","1","5","3","7","2","2","6","4","4","5","4","4","5","5","6","3","5","6","6","7","7","6","5","4","4","5","6","6","5","3","6","797773565536641026","黄","311","Male","[""坏他"",""好他"",""坏我"",""好我""]","[""弱他"",""强他"",""弱我"",""强我""]","","","","","","","","yes","","","","","","","","","SRET","EW_formal","","key","j","16.66560377358494","683","380","自己","逞强","Negative","ability","","","","","","","","","","",""
"1123","","f","psychophysics","81","285417","0.0-7.0-3.0-0.67","5","4","6","5","5","5","3","4","4","4","5","-3","-2","0","0","-3","1","1","0","5","4","4","5","5","4","4","5","4","4","6","6","3","6","3","3","6","4","5","5","2","5","6","5","2","5","3","4","4","1","5","3","7","2","2","6","4","4","5","4","4","5","5","6","3","5","6","6","7","7","6","5","4","4","5","6","6","5","3","6","797773565536641026","黄","311","Male","[""坏他"",""好他"",""坏我"",""好我""]","[""弱他"",""强他"",""弱我"",""强我""]","","","","","","","","no","","","","","","","","","SRET","EW_formal","","key","f","16.665322834645547","683","380","朋友","短浅","Negative","ability","","","","","","","","","","",""
"1400","","j","psychophysics","82","287821","0.0-7.0-3.0-0.68","5","4","6","5","5","5","3","4","4","4","5","-3","-2","0","0","-3","1","1","0","5","4","4","5","5","4","4","5","4","4","6","6","3","6","3","3","6","4","5","5","2","5","6","5","2","5","3","4","4","1","5","3","7","2","2","6","4","4","5","4","4","5","5","6","3","5","6","6","7","7","6","5","4","4","5","6","6","5","3","6","797773565536641026","黄","311","Male","[""坏他"",""好他"",""坏我"",""好我""]","[""弱他"",""强他"",""弱我"",""强我""]","","","","","","","","yes","","","","","","","","","SRET","EW_formal","","key","j","16.665650349650107","683","380","朋友","聪明","Positive","ability","","","","","","","","","","",""
"937","","j","psychophysics","83","289767","0.0-7.0-3.0-0.69","5","4","6","5","5","5","3","4","4","4","5","-3","-2","0","0","-3","1","1","0","5","4","4","5","5","4","4","5","4","4","6","6","3","6","3","3","6","4","5","5","2","5","6","5","2","5","3","4","4","1","5","3","7","2","2","6","4","4","5","4","4","5","5","6","3","5","6","6","7","7","6","5","4","4","5","6","6","5","3","6","797773565536641026","黄","311","Male","[""坏他"",""好他"",""坏我"",""好我""]","[""弱他"",""强他"",""弱我"",""强我""]","","","","","","","","yes","","","","","","","","","SRET","EW_formal","","key","j","16.665801724137996","683","380","自己","上进","Positive","ability","","","","","","","","","","",""
"842","","j","psychophysics","84","291615","0.0-7.0-3.0-0.70","5","4","6","5","5","5","3","4","4","4","5","-3","-2","0","0","-3","1","1","0","5","4","4","5","5","4","4","5","4","4","6","6","3","6","3","3","6","4","5","5","2","5","6","5","2","5","3","4","4","1","5","3","7","2","2","6","4","4","5","4","4","5","5","6","3","5","6","6","7","7","6","5","4","4","5","6","6","5","3","6","797773565536641026","黄","311","Male","[""坏他"",""好他"",""坏我"",""好我""]","[""弱他"",""强他"",""弱我"",""强我""]","","","","","","","","yes","","","","","","","","","SRET","EW_formal","","key","j","16.66554128440362","683","380","朋友","谦逊","Positive","morality","","","","","","","","","","",""
"1048","","j","psychophysics","85","293669","0.0-7.0-3.0-0.71","5","4","6","5","5","5","3","4","4","4","5","-3","-2","0","0","-3","1","1","0","5","4","4","5","5","4","4","5","4","4","6","6","3","6","3","3","6","4","5","5","2","5","6","5","2","5","3","4","4","1","5","3","7","2","2","6","4","4","5","4","4","5","5","6","3","5","6","6","7","7","6","5","4","4","5","6","6","5","3","6","797773565536641026","黄","311","Male","[""坏他"",""好他"",""坏我"",""好我""]","[""弱他"",""强他"",""弱我"",""强我""]","","","","","","","","yes","","","","","","","","","SRET","EW_formal","","key","j","16.66534146341463","683","380","自己","短视","Negative","ability","","","","","","","","","","",""
"784","","j","psychophysics","86","295461","0.0-7.0-3.0-0.72","5","4","6","5","5","5","3","4","4","4","5","-3","-2","0","0","-3","1","1","0","5","4","4","5","5","4","4","5","4","4","6","6","3","6","3","3","6","4","5","5","2","5","6","5","2","5","3","4","4","1","5","3","7","2","2","6","4","4","5","4","4","5","5","6","3","5","6","6","7","7","6","5","4","4","5","6","6","5","3","6","797773565536641026","黄","311","Male","[""坏他"",""好他"",""坏我"",""好我""]","[""弱他"",""强他"",""弱我"",""强我""]","","","","","","","","yes","","","","","","","","","SRET","EW_formal","","key","j","16.66617924528348","683","380","朋友","善良","Positive","morality","","","","","","","","","","",""
"968","","j","psychophysics","87","297437","0.0-7.0-3.0-0.73","5","4","6","5","5","5","3","4","4","4","5","-3","-2","0","0","-3","1","1","0","5","4","4","5","5","4","4","5","4","4","6","6","3","6","3","3","6","4","5","5","2","5","6","5","2","5","3","4","4","1","5","3","7","2","2","6","4","4","5","4","4","5","5","6","3","5","6","6","7","7","6","5","4","4","5","6","6","5","3","6","797773565536641026","黄","311","Male","[""坏他"",""好他"",""坏我"",""好我""]","[""弱他"",""强他"",""弱我"",""强我""]","","","","","","","","yes","","","","","","","","","SRET","EW_formal","","key","j","16.666177966101667","683","380","自己","热心","Positive","morality","","","","","","","","","","",""
"950","","j","psychophysics","88","299400","0.0-7.0-3.0-0.74","5","4","6","5","5","5","3","4","4","4","5","-3","-2","0","0","-3","1","1","0","5","4","4","5","5","4","4","5","4","4","6","6","3","6","3","3","6","4","5","5","2","5","6","5","2","5","3","4","4","1","5","3","7","2","2","6","4","4","5","4","4","5","5","6","3","5","6","6","7","7","6","5","4","4","5","6","6","5","3","6","797773565536641026","黄","311","Male","[""坏他"",""好他"",""坏我"",""好我""]","[""弱他"",""强他"",""弱我"",""强我""]","","","","","","","","yes","","","","","","","","","SRET","EW_formal","","key","j","16.66611206896527","683","380","自己","粗心","Negative","ability","","","","","","","","","","",""
"912","","j","psychophysics","89","301318","0.0-7.0-3.0-0.75","5","4","6","5","5","5","3","4","4","4","5","-3","-2","0","0","-3","1","1","0","5","4","4","5","5","4","4","5","4","4","6","6","3","6","3","3","6","4","5","5","2","5","6","5","2","5","3","4","4","1","5","3","7","2","2","6","4","4","5","4","4","5","5","6","3","5","6","6","7","7","6","5","4","4","5","6","6","5","3","6","797773565536641026","黄","311","Male","[""坏他"",""好他"",""坏我"",""好我""]","[""弱他"",""强他"",""弱我"",""强我""]","","","","","","","","yes","","","","","","","","","SRET","EW_formal","","key","j","16.665608695652033","683","380","自己","马虎","Negative","ability","","","","","","","","","","",""
"1122","","f","psychophysics","90","303448","0.0-7.0-3.0-0.76","5","4","6","5","5","5","3","4","4","4","5","-3","-2","0","0","-3","1","1","0","5","4","4","5","5","4","4","5","4","4","6","6","3","6","3","3","6","4","5","5","2","5","6","5","2","5","3","4","4","1","5","3","7","2","2","6","4","4","5","4","4","5","5","6","3","5","6","6","7","7","6","5","4","4","5","6","6","5","3","6","797773565536641026","黄","311","Male","[""坏他"",""好他"",""坏我"",""好我""]","[""弱他"",""强他"",""弱我"",""强我""]","","","","","","","","no","","","","","","","","","SRET","EW_formal","","key","f","16.665587301587312","683","380","自己","恶劣","Negative","morality","","","","","","","","","","",""
"1009","","f","psychophysics","91","305464","0.0-7.0-3.0-0.77","5","4","6","5","5","5","3","4","4","4","5","-3","-2","0","0","-3","1","1","0","5","4","4","5","5","4","4","5","4","4","6","6","3","6","3","3","6","4","5","5","2","5","6","5","2","5","3","4","4","1","5","3","7","2","2","6","4","4","5","4","4","5","5","6","3","5","6","6","7","7","6","5","4","4","5","6","6","5","3","6","797773565536641026","黄","311","Male","[""坏他"",""好他"",""坏我"",""好我""]","[""弱他"",""强他"",""弱我"",""强我""]","","","","","","","","no","","","","","","","","","SRET","EW_formal","","key","f","16.665816666667038","683","380","朋友","拙笨","Negative","ability","","","","","","","","","","",""
"847","","j","psychophysics","92","307318","0.0-7.0-3.0-0.78","5","4","6","5","5","5","3","4","4","4","5","-3","-2","0","0","-3","1","1","0","5","4","4","5","5","4","4","5","4","4","6","6","3","6","3","3","6","4","5","5","2","5","6","5","2","5","3","4","4","1","5","3","7","2","2","6","4","4","5","4","4","5","5","6","3","5","6","6","7","7","6","5","4","4","5","6","6","5","3","6","797773565536641026","黄","311","Male","[""坏他"",""好他"",""坏我"",""好我""]","[""弱他"",""强他"",""弱我"",""强我""]","","","","","","","","yes","","","","","","","","","SRET","EW_formal","","key","j","16.81710909090947","683","380","自己","肯干","Positive","ability","","","","","","","","","","",""
"922","","f","psychophysics","93","309248","0.0-7.0-3.0-0.79","5","4","6","5","5","5","3","4","4","4","5","-3","-2","0","0","-3","1","1","0","5","4","4","5","5","4","4","5","4","4","6","6","3","6","3","3","6","4","5","5","2","5","6","5","2","5","3","4","4","1","5","3","7","2","2","6","4","4","5","4","4","5","5","6","3","5","6","6","7","7","6","5","4","4","5","6","6","5","3","6","797773565536641026","黄","311","Male","[""坏他"",""好他"",""坏我"",""好我""]","[""弱他"",""强他"",""弱我"",""强我""]","","","","","","","","no","","","","","","","","","SRET","EW_formal","","key","f","16.665815789473605","683","380","自己","无私","Positive","morality","","","","","","","","","","",""
"1072","","f","psychophysics","94","311325","0.0-7.0-3.0-0.80","5","4","6","5","5","5","3","4","4","4","5","-3","-2","0","0","-3","1","1","0","5","4","4","5","5","4","4","5","4","4","6","6","3","6","3","3","6","4","5","5","2","5","6","5","2","5","3","4","4","1","5","3","7","2","2","6","4","4","5","4","4","5","5","6","3","5","6","6","7","7","6","5","4","4","5","6","6","5","3","6","797773565536641026","黄","311","Male","[""坏他"",""好他"",""坏我"",""好我""]","[""弱他"",""强他"",""弱我"",""强我""]","","","","","","","","no","","","","","","","","","SRET","EW_formal","","key","f","16.801479674796706","683","380","朋友","畏难","Negative","ability","","","","","","","","","","",""
"1005","","f","psychophysics","95","313334","0.0-7.0-3.0-0.81","5","4","6","5","5","5","3","4","4","4","5","-3","-2","0","0","-3","1","1","0","5","4","4","5","5","4","4","5","4","4","6","6","3","6","3","3","6","4","5","5","2","5","6","5","2","5","3","4","4","1","5","3","7","2","2","6","4","4","5","4","4","5","5","6","3","5","6","6","7","7","6","5","4","4","5","6","6","5","3","6","797773565536641026","黄","311","Male","[""坏他"",""好他"",""坏我"",""好我""]","[""弱他"",""强他"",""弱我"",""强我""]","","","","","","","","no","","","","","","","","","SRET","EW_formal","","key","f","16.665791666666337","683","380","朋友","虚假","Negative","morality","","","","","","","","","","",""
"912","","f","psychophysics","96","315254","0.0-7.0-3.0-0.82","5","4","6","5","5","5","3","4","4","4","5","-3","-2","0","0","-3","1","1","0","5","4","4","5","5","4","4","5","4","4","6","6","3","6","3","3","6","4","5","5","2","5","6","5","2","5","3","4","4","1","5","3","7","2","2","6","4","4","5","4","4","5","5","6","3","5","6","6","7","7","6","5","4","4","5","6","6","5","3","6","797773565536641026","黄","311","Male","[""坏他"",""好他"",""坏我"",""好我""]","[""弱他"",""强他"",""弱我"",""强我""]","","","","","","","","no","","","","","","","","","SRET","EW_formal","","key","f","16.665666666666656","683","380","朋友","低劣","Negative","morality","","","","","","","","","","",""
"928","","f","psychophysics","97","317190","0.0-7.0-3.0-0.83","5","4","6","5","5","5","3","4","4","4","5","-3","-2","0","0","-3","1","1","0","5","4","4","5","5","4","4","5","4","4","6","6","3","6","3","3","6","4","5","5","2","5","6","5","2","5","3","4","4","1","5","3","7","2","2","6","4","4","5","4","4","5","5","6","3","5","6","6","7","7","6","5","4","4","5","6","6","5","3","6","797773565536641026","黄","311","Male","[""坏他"",""好他"",""坏我"",""好我""]","[""弱他"",""强他"",""弱我"",""强我""]","","","","","","","","no","","","","","","","","","SRET","EW_formal","","key","f","16.66626086956518","683","380","朋友","昏庸","Negative","ability","","","","","","","","","","",""
"931","","j","psychophysics","98","319126","0.0-7.0-3.0-0.84","5","4","6","5","5","5","3","4","4","4","5","-3","-2","0","0","-3","1","1","0","5","4","4","5","5","4","4","5","4","4","6","6","3","6","3","3","6","4","5","5","2","5","6","5","2","5","3","4","4","1","5","3","7","2","2","6","4","4","5","4","4","5","5","6","3","5","6","6","7","7","6","5","4","4","5","6","6","5","3","6","797773565536641026","黄","311","Male","[""坏他"",""好他"",""坏我"",""好我""]","[""弱他"",""强他"",""弱我"",""强我""]","","","","","","","","yes","","","","","","","","","SRET","EW_formal","","key","j","16.666208695652188","683","380","自己","缓慢","Negative","ability","","","","","","","","","","",""
"1258","","j","psychophysics","99","321390","0.0-7.0-3.0-0.85","5","4","6","5","5","5","3","4","4","4","5","-3","-2","0","0","-3","1","1","0","5","4","4","5","5","4","4","5","4","4","6","6","3","6","3","3","6","4","5","5","2","5","6","5","2","5","3","4","4","1","5","3","7","2","2","6","4","4","5","4","4","5","5","6","3","5","6","6","7","7","6","5","4","4","5","6","6","5","3","6","797773565536641026","黄","311","Male","[""坏他"",""好他"",""坏我"",""好我""]","[""弱他"",""强他"",""弱我"",""强我""]","","","","","","","","yes","","","","","","","","","SRET","EW_formal","","key","j","16.66512592592561","683","380","朋友","素养","Positive","morality","","","","","","","","","","",""
"999","","f","psychophysics","100","323399","0.0-7.0-3.0-0.86","5","4","6","5","5","5","3","4","4","4","5","-3","-2","0","0","-3","1","1","0","5","4","4","5","5","4","4","5","4","4","6","6","3","6","3","3","6","4","5","5","2","5","6","5","2","5","3","4","4","1","5","3","7","2","2","6","4","4","5","4","4","5","5","6","3","5","6","6","7","7","6","5","4","4","5","6","6","5","3","6","797773565536641026","黄","311","Male","[""坏他"",""好他"",""坏我"",""好我""]","[""弱他"",""强他"",""弱我"",""强我""]","","","","","","","","no","","","","","","","","","SRET","EW_formal","","key","f","16.666066666666786","683","380","自己","主见","Positive","ability","","","","","","","","","","",""
"935","","f","psychophysics","101","325342","0.0-7.0-3.0-0.87","5","4","6","5","5","5","3","4","4","4","5","-3","-2","0","0","-3","1","1","0","5","4","4","5","5","4","4","5","4","4","6","6","3","6","3","3","6","4","5","5","2","5","6","5","2","5","3","4","4","1","5","3","7","2","2","6","4","4","5","4","4","5","5","6","3","5","6","6","7","7","6","5","4","4","5","6","6","5","3","6","797773565536641026","黄","311","Male","[""坏他"",""好他"",""坏我"",""好我""]","[""弱他"",""强他"",""弱我"",""强我""]","","","","","","","","no","","","","","","","","","SRET","EW_formal","","key","f","16.666043478261134","683","380","朋友","低俗","Negative","morality","","","","","","","","","","",""
"2343","
    <p><div style='color:white;font-size:35px; line-height:20px;'>计算任务</div></p><br>
    <p><div style='color:red;font-size:25px; line-height:20px;'>接下来，您将看到一些四则运算题，<b>请从键盘选择 0-9 进行反应。</b></div></p>
    <p><div style='color:red;font-size:25px; line-height:20px;'>请尽可能快地进行计算，计算的速度和正确率将影响报酬的发放。</div></p>
    <p><div class='footer' style='color:white;font-size:25px; line-height:20px;'>如果对本实验还有不清楚之处，请立即向实验员咨询。</p><p style='color:white;font-size:25px; line-height:20px;'>如果您明白了规则：</p><p style='color:white;font-size:22px; line-height:20px;'>请按 继续 进入练习</p>
    </div>
    ","0","html-button-response","102","327688","0.0-7.0-4.0","5","4","6","5","5","5","3","4","4","4","5","-3","-2","0","0","-3","1","1","0","5","4","4","5","5","4","4","5","4","4","6","6","3","6","3","3","6","4","5","5","2","5","6","5","2","5","3","4","4","1","5","3","7","2","2","6","4","4","5","4","4","5","5","6","3","5","6","6","7","7","6","5","4","4","5","6","6","5","3","6","797773565536641026","黄","311","Male","[""坏他"",""好他"",""坏我"",""好我""]","[""弱他"",""强他"",""弱我"",""强我""]","","","","","","","","","","","","","","","","","SRET_math","math_instructions","Sat Jan 20 2024 16:22:12 GMT+0800 (中国标准时间)","","","","","","","","","","","","","","","","","","","",""
"2310","","7","psychophysics","103","330033","0.0-7.0-5.0-0.0","5","4","6","5","5","5","3","4","4","4","5","-3","-2","0","0","-3","1","1","0","5","4","4","5","5","4","4","5","4","4","6","6","3","6","3","3","6","4","5","5","2","5","6","5","2","5","3","4","4","1","5","3","7","2","2","6","4","4","5","4","4","5","5","6","3","5","6","6","7","7","6","5","4","4","5","6","6","5","3","6","797773565536641026","黄","311","Male","[""坏他"",""好他"",""坏我"",""好我""]","[""弱他"",""强他"",""弱我"",""强我""]","","","","","","","","7","","","","","","","","","SRET","SRET_math_calculate","","key","7","16.784599999999877","683","380","","","","","7*1=  ?","7","1","","","","","","","",""
"1895","","0","psychophysics","104","331933","0.0-7.0-5.0-0.1","5","4","6","5","5","5","3","4","4","4","5","-3","-2","0","0","-3","1","1","0","5","4","4","5","5","4","4","5","4","4","6","6","3","6","3","3","6","4","5","5","2","5","6","5","2","5","3","4","4","1","5","3","7","2","2","6","4","4","5","4","4","5","5","6","3","5","6","6","7","7","6","5","4","4","5","6","6","5","3","6","797773565536641026","黄","311","Male","[""坏他"",""好他"",""坏我"",""好我""]","[""弱他"",""强他"",""弱我"",""强我""]","","","","","","","","0","","","","","","","","","SRET","SRET_math_calculate","","key","0","16.66544247787617","683","380","","","","","22-22= ?","0","1","","","","","","","",""
"2223","","0","psychophysics","105","334157","0.0-7.0-5.0-0.2","5","4","6","5","5","5","3","4","4","4","5","-3","-2","0","0","-3","1","1","0","5","4","4","5","5","4","4","5","4","4","6","6","3","6","3","3","6","4","5","5","2","5","6","5","2","5","3","4","4","1","5","3","7","2","2","6","4","4","5","4","4","5","5","6","3","5","6","6","7","7","6","5","4","4","5","6","6","5","3","6","797773565536641026","黄","311","Male","[""坏他"",""好他"",""坏我"",""好我""]","[""弱他"",""强他"",""弱我"",""强我""]","","","","","","","","0","","","","","","","","","SRET","SRET_math_calculate","","key","0","16.66578787878759","683","380","","","","","6*0= ?","0","1","","","","","","","",""
"1702","","2","psychophysics","106","335901","0.0-7.0-5.0-0.3","5","4","6","5","5","5","3","4","4","4","5","-3","-2","0","0","-3","1","1","0","5","4","4","5","5","4","4","5","4","4","6","6","3","6","3","3","6","4","5","5","2","5","6","5","2","5","3","4","4","1","5","3","7","2","2","6","4","4","5","4","4","5","5","6","3","5","6","6","7","7","6","5","4","4","5","6","6","5","3","6","797773565536641026","黄","311","Male","[""坏他"",""好他"",""坏我"",""好我""]","[""弱他"",""强他"",""弱我"",""强我""]","","","","","","","","2","","","","","","","","","SRET","SRET_math_calculate","","key","2","16.827349514563146","683","380","","","","","5-3= ?","2","1","","","","","","","",""
"1815","","9","psychophysics","107","337718","0.0-7.0-5.0-0.4","5","4","6","5","5","5","3","4","4","4","5","-3","-2","0","0","-3","1","1","0","5","4","4","5","5","4","4","5","4","4","6","6","3","6","3","3","6","4","5","5","2","5","6","5","2","5","3","4","4","1","5","3","7","2","2","6","4","4","5","4","4","5","5","6","3","5","6","6","7","7","6","5","4","4","5","6","6","5","3","6","797773565536641026","黄","311","Male","[""坏他"",""好他"",""坏我"",""好我""]","[""弱他"",""强他"",""弱我"",""强我""]","","","","","","","","9","","","","","","","","","SRET","SRET_math_calculate","","key","9","16.665722222222097","683","380","","","","","4+5= ?","9","1","","","","","","","",""
"1949","","7","psychophysics","108","339670","0.0-7.0-5.0-0.5","5","4","6","5","5","5","3","4","4","4","5","-3","-2","0","0","-3","1","1","0","5","4","4","5","5","4","4","5","4","4","6","6","3","6","3","3","6","4","5","5","2","5","6","5","2","5","3","4","4","1","5","3","7","2","2","6","4","4","5","4","4","5","5","6","3","5","6","6","7","7","6","5","4","4","5","6","6","5","3","6","797773565536641026","黄","311","Male","[""坏他"",""好他"",""坏我"",""好我""]","[""弱他"",""强他"",""弱我"",""强我""]","","","","","","","","7","","","","","","","","","SRET","SRET_math_calculate","","key","7","16.810878260869977","683","380","","","","","21/3= ? ","7","1","","","","","","","",""
"1957","","9","psychophysics","109","341631","0.0-7.0-5.0-0.6","5","4","6","5","5","5","3","4","4","4","5","-3","-2","0","0","-3","1","1","0","5","4","4","5","5","4","4","5","4","4","6","6","3","6","3","3","6","4","5","5","2","5","6","5","2","5","3","4","4","1","5","3","7","2","2","6","4","4","5","4","4","5","5","6","3","5","6","6","7","7","6","5","4","4","5","6","6","5","3","6","797773565536641026","黄","311","Male","[""坏他"",""好他"",""坏我"",""好我""]","[""弱他"",""强他"",""弱我"",""强我""]","","","","","","","","9","","","","","","","","","SRET","SRET_math_calculate","","key","9","16.665529914529653","683","380","","","","","32-23= ?","9","1","","","","","","","",""
"1835","","8","psychophysics","110","343469","0.0-7.0-5.0-0.7","5","4","6","5","5","5","3","4","4","4","5","-3","-2","0","0","-3","1","1","0","5","4","4","5","5","4","4","5","4","4","6","6","3","6","3","3","6","4","5","5","2","5","6","5","2","5","3","4","4","1","5","3","7","2","2","6","4","4","5","4","4","5","5","6","3","5","6","6","7","7","6","5","4","4","5","6","6","5","3","6","797773565536641026","黄","311","Male","[""坏他"",""好他"",""坏我"",""好我""]","[""弱他"",""强他"",""弱我"",""强我""]","","","","","","","","8","","","","","","","","","SRET","SRET_math_calculate","","key","8","16.66502752293589","683","380","","","","","3+5= ?","8","1","","","","","","","",""
"1760","","7","psychophysics","111","345231","0.0-7.0-5.0-0.8","5","4","6","5","5","5","3","4","4","4","5","-3","-2","0","0","-3","1","1","0","5","4","4","5","5","4","4","5","4","4","6","6","3","6","3","3","6","4","5","5","2","5","6","5","2","5","3","4","4","1","5","3","7","2","2","6","4","4","5","4","4","5","5","6","3","5","6","6","7","7","6","5","4","4","5","6","6","5","3","6","797773565536641026","黄","311","Male","[""坏他"",""好他"",""坏我"",""好我""]","[""弱他"",""强他"",""弱我"",""强我""]","","","","","","","","7","","","","","","","","","SRET","SRET_math_calculate","","key","7","16.665571428571518","683","380","","","","","3+4= ?","7","1","","","","","","","",""
"1846","","5","psychophysics","112","347079","0.0-7.0-5.0-0.9","5","4","6","5","5","5","3","4","4","4","5","-3","-2","0","0","-3","1","1","0","5","4","4","5","5","4","4","5","4","4","6","6","3","6","3","3","6","4","5","5","2","5","6","5","2","5","3","4","4","1","5","3","7","2","2","6","4","4","5","4","4","5","5","6","3","5","6","6","7","7","6","5","4","4","5","6","6","5","3","6","797773565536641026","黄","311","Male","[""坏他"",""好他"",""坏我"",""好我""]","[""弱他"",""强他"",""弱我"",""强我""]","","","","","","","","5","","","","","","","","","SRET","SRET_math_calculate","","key","5","16.665825688072967","683","380","","","","","8-3= ? ","5","1","","","","","","","",""
"1809","","7","psychophysics","113","348897","0.0-7.0-5.0-0.10","5","4","6","5","5","5","3","4","4","4","5","-3","-2","0","0","-3","1","1","0","5","4","4","5","5","4","4","5","4","4","6","6","3","6","3","3","6","4","5","5","2","5","6","5","2","5","3","4","4","1","5","3","7","2","2","6","4","4","5","4","4","5","5","6","3","5","6","6","7","7","6","5","4","4","5","6","6","5","3","6","797773565536641026","黄","311","Male","[""坏他"",""好他"",""坏我"",""好我""]","[""弱他"",""强他"",""弱我"",""强我""]","","","","","","","","7","","","","","","","","","SRET","SRET_math_calculate","","key","7","16.665761467890167","683","380","","","","","13-6= ?","7","1","","","","","","","",""
"1863","","8","psychophysics","114","350766","0.0-7.0-5.0-0.11","5","4","6","5","5","5","3","4","4","4","5","-3","-2","0","0","-3","1","1","0","5","4","4","5","5","4","4","5","4","4","6","6","3","6","3","3","6","4","5","5","2","5","6","5","2","5","3","4","4","1","5","3","7","2","2","6","4","4","5","4","4","5","5","6","3","5","6","6","7","7","6","5","4","4","5","6","6","5","3","6","797773565536641026","黄","311","Male","[""坏他"",""好他"",""坏我"",""好我""]","[""弱他"",""强他"",""弱我"",""强我""]","","","","","","","","8","","","","","","","","","SRET","SRET_math_calculate","","key","8","16.816727272726975","683","380","","","","","8*1= ?","8","1","","","","","","","",""
"1787","","8","psychophysics","115","352557","0.0-7.0-5.0-0.12","5","4","6","5","5","5","3","4","4","4","5","-3","-2","0","0","-3","1","1","0","5","4","4","5","5","4","4","5","4","4","6","6","3","6","3","3","6","4","5","5","2","5","6","5","2","5","3","4","4","1","5","3","7","2","2","6","4","4","5","4","4","5","5","6","3","5","6","6","7","7","6","5","4","4","5","6","6","5","3","6","797773565536641026","黄","311","Male","[""坏他"",""好他"",""坏我"",""好我""]","[""弱他"",""强他"",""弱我"",""强我""]","","","","","","","","8","","","","","","","","","SRET","SRET_math_calculate","","key","8","16.825238095238316","683","380","","","","","4*2= ?","8","1","","","","","","","",""
"2005","","1","psychophysics","116","354573","0.0-7.0-5.0-0.13","5","4","6","5","5","5","3","4","4","4","5","-3","-2","0","0","-3","1","1","0","5","4","4","5","5","4","4","5","4","4","6","6","3","6","3","3","6","4","5","5","2","5","6","5","2","5","3","4","4","1","5","3","7","2","2","6","4","4","5","4","4","5","5","6","3","5","6","6","7","7","6","5","4","4","5","6","6","5","3","6","797773565536641026","黄","311","Male","[""坏他"",""好他"",""坏我"",""好我""]","[""弱他"",""强他"",""弱我"",""强我""]","","","","","","","","1","","","","","","","","","SRET","SRET_math_calculate","","key","1","16.665608333333513","683","380","","","","","30-29= ?","1","1","","","","","","","",""
"1951","","9","psychophysics","117","356525","0.0-7.0-5.0-0.14","5","4","6","5","5","5","3","4","4","4","5","-3","-2","0","0","-3","1","1","0","5","4","4","5","5","4","4","5","4","4","6","6","3","6","3","3","6","4","5","5","2","5","6","5","2","5","3","4","4","1","5","3","7","2","2","6","4","4","5","4","4","5","5","6","3","5","6","6","7","7","6","5","4","4","5","6","6","5","3","6","797773565536641026","黄","311","Male","[""坏他"",""好他"",""坏我"",""好我""]","[""弱他"",""强他"",""弱我"",""强我""]","","","","","","","","9","","","","","","","","","SRET","SRET_math_calculate","","key","9","16.66510344827588","683","380","","","","","6+3= ?","9","1","","","","","","","",""
"1762","","8","psychophysics","118","358311","0.0-7.0-5.0-0.15","5","4","6","5","5","5","3","4","4","4","5","-3","-2","0","0","-3","1","1","0","5","4","4","5","5","4","4","5","4","4","6","6","3","6","3","3","6","4","5","5","2","5","6","5","2","5","3","4","4","1","5","3","7","2","2","6","4","4","5","4","4","5","5","6","3","5","6","6","7","7","6","5","4","4","5","6","6","5","3","6","797773565536641026","黄","311","Male","[""坏他"",""好他"",""坏我"",""好我""]","[""弱他"",""强他"",""弱我"",""强我""]","","","","","","","","8","","","","","","","","","SRET","SRET_math_calculate","","key","8","16.665839622641766","683","380","","","","","6+2= ?","8","1","","","","","","","",""
"1806","","0","psychophysics","119","360142","0.0-7.0-5.0-0.16","5","4","6","5","5","5","3","4","4","4","5","-3","-2","0","0","-3","1","1","0","5","4","4","5","5","4","4","5","4","4","6","6","3","6","3","3","6","4","5","5","2","5","6","5","2","5","3","4","4","1","5","3","7","2","2","6","4","4","5","4","4","5","5","6","3","5","6","6","7","7","6","5","4","4","5","6","6","5","3","6","797773565536641026","黄","311","Male","[""坏他"",""好他"",""坏我"",""好我""]","[""弱他"",""强他"",""弱我"",""强我""]","","","","","","","","0","","","","","","","","","SRET","SRET_math_calculate","","key","0","16.665412844036954","683","380","","","","","9-9= ?","0","1","","","","","","","",""
"1704","","5","psychophysics","120","361854","0.0-7.0-5.0-0.17","5","4","6","5","5","5","3","4","4","4","5","-3","-2","0","0","-3","1","1","0","5","4","4","5","5","4","4","5","4","4","6","6","3","6","3","3","6","4","5","5","2","5","6","5","2","5","3","4","4","1","5","3","7","2","2","6","4","4","5","4","4","5","5","6","3","5","6","6","7","7","6","5","4","4","5","6","6","5","3","6","797773565536641026","黄","311","Male","[""坏他"",""好他"",""坏我"",""好我""]","[""弱他"",""强他"",""弱我"",""强我""]","","","","","","","","5","","","","","","","","","SRET","SRET_math_calculate","","key","5","16.66594117647037","683","380","","","","","16-11= ?","5","1","","","","","","","",""
"1831","","5","psychophysics","121","363687","0.0-7.0-5.0-0.18","5","4","6","5","5","5","3","4","4","4","5","-3","-2","0","0","-3","1","1","0","5","4","4","5","5","4","4","5","4","4","6","6","3","6","3","3","6","4","5","5","2","5","6","5","2","5","3","4","4","1","5","3","7","2","2","6","4","4","5","4","4","5","5","6","3","5","6","6","7","7","6","5","4","4","5","6","6","5","3","6","797773565536641026","黄","311","Male","[""坏他"",""好他"",""坏我"",""好我""]","[""弱他"",""强他"",""弱我"",""强我""]","","","","","","","","5","","","","","","","","","SRET","SRET_math_calculate","","key","5","16.66579816513748","683","380","","","","","17-12= ? ","5","1","","","","","","","",""
"1980","","8","psychophysics","122","365670","0.0-7.0-5.0-0.19","5","4","6","5","5","5","3","4","4","4","5","-3","-2","0","0","-3","1","1","0","5","4","4","5","5","4","4","5","4","4","6","6","3","6","3","3","6","4","5","5","2","5","6","5","2","5","3","4","4","1","5","3","7","2","2","6","4","4","5","4","4","5","5","6","3","5","6","6","7","7","6","5","4","4","5","6","6","5","3","6","797773565536641026","黄","311","Male","[""坏他"",""好他"",""坏我"",""好我""]","[""弱他"",""强他"",""弱我"",""强我""]","","","","","","","","8","","","","","","","","","SRET","SRET_math_calculate","","key","8","16.665169491525344","683","380","","","","","72/9= ?","8","1","","","","","","","",""
"1951","","3","psychophysics","123","367622","0.0-7.0-5.0-0.20","5","4","6","5","5","5","3","4","4","4","5","-3","-2","0","0","-3","1","1","0","5","4","4","5","5","4","4","5","4","4","6","6","3","6","3","3","6","4","5","5","2","5","6","5","2","5","3","4","4","1","5","3","7","2","2","6","4","4","5","4","4","5","5","6","3","5","6","6","7","7","6","5","4","4","5","6","6","5","3","6","797773565536641026","黄","311","Male","[""坏他"",""好他"",""坏我"",""好我""]","[""弱他"",""强他"",""弱我"",""强我""]","","","","","","","","3","","","","","","","","","SRET","SRET_math_calculate","","key","3","16.665801724137996","683","380","","","","","21/7=  ?","3","1","","","","","","","",""
"1861","","2","psychophysics","124","369486","0.0-7.0-5.0-0.21","5","4","6","5","5","5","3","4","4","4","5","-3","-2","0","0","-3","1","1","0","5","4","4","5","5","4","4","5","4","4","6","6","3","6","3","3","6","4","5","5","2","5","6","5","2","5","3","4","4","1","5","3","7","2","2","6","4","4","5","4","4","5","5","6","3","5","6","6","7","7","6","5","4","4","5","6","6","5","3","6","797773565536641026","黄","311","Male","[""坏他"",""好他"",""坏我"",""好我""]","[""弱他"",""强他"",""弱我"",""强我""]","","","","","","","","2","","","","","","","","","SRET","SRET_math_calculate","","key","2","16.664990990991107","683","380","","","","","12/6= ?","2","1","","","","","","","",""
"1765","","5","psychophysics","125","371254","0.0-7.0-5.0-0.22","5","4","6","5","5","5","3","4","4","4","5","-3","-2","0","0","-3","1","1","0","5","4","4","5","5","4","4","5","4","4","6","6","3","6","3","3","6","4","5","5","2","5","6","5","2","5","3","4","4","1","5","3","7","2","2","6","4","4","5","4","4","5","5","6","3","5","6","6","7","7","6","5","4","4","5","6","6","5","3","6","797773565536641026","黄","311","Male","[""坏他"",""好他"",""坏我"",""好我""]","[""弱他"",""强他"",""弱我"",""强我""]","","","","","","","","5","","","","","","","","","SRET","SRET_math_calculate","","key","5","16.66559999999978","683","380","","","","","12-7= ?","5","1","","","","","","","",""
"1809","","2","psychophysics","126","373065","0.0-7.0-5.0-0.23","5","4","6","5","5","5","3","4","4","4","5","-3","-2","0","0","-3","1","1","0","5","4","4","5","5","4","4","5","4","4","6","6","3","6","3","3","6","4","5","5","2","5","6","5","2","5","3","4","4","1","5","3","7","2","2","6","4","4","5","4","4","5","5","6","3","5","6","6","7","7","6","5","4","4","5","6","6","5","3","6","797773565536641026","黄","311","Male","[""坏他"",""好他"",""坏我"",""好我""]","[""弱他"",""强他"",""弱我"",""强我""]","","","","","","","","2","","","","","","","","","SRET","SRET_math_calculate","","key","2","16.665935185184935","683","380","","","","","19-17= ?","2","1","","","","","","","",""
"1937","","2","psychophysics","127","375006","0.0-7.0-5.0-0.24","5","4","6","5","5","5","3","4","4","4","5","-3","-2","0","0","-3","1","1","0","5","4","4","5","5","4","4","5","4","4","6","6","3","6","3","3","6","4","5","5","2","5","6","5","2","5","3","4","4","1","5","3","7","2","2","6","4","4","5","4","4","5","5","6","3","5","6","6","7","7","6","5","4","4","5","6","6","5","3","6","797773565536641026","黄","311","Male","[""坏他"",""好他"",""坏我"",""好我""]","[""弱他"",""强他"",""弱我"",""强我""]","","","","","","","","2","","","","","","","","","SRET","SRET_math_calculate","","key","2","16.665565217391123","683","380","","","","","18/9= ?","2","1","","","","","","","",""
"1615","","5","psychophysics","128","376664","0.0-7.0-5.0-0.25","5","4","6","5","5","5","3","4","4","4","5","-3","-2","0","0","-3","1","1","0","5","4","4","5","5","4","4","5","4","4","6","6","3","6","3","3","6","4","5","5","2","5","6","5","2","5","3","4","4","1","5","3","7","2","2","6","4","4","5","4","4","5","5","6","3","5","6","6","7","7","6","5","4","4","5","6","6","5","3","6","797773565536641026","黄","311","Male","[""坏他"",""好他"",""坏我"",""好我""]","[""弱他"",""强他"",""弱我"",""强我""]","","","","","","","","5","","","","","","","","","SRET","SRET_math_calculate","","key","5","16.835765306122735","683","380","","","","","15-10= ?","5","1","","","","","","","",""
"1844","","0","psychophysics","129","378512","0.0-7.0-5.0-0.26","5","4","6","5","5","5","3","4","4","4","5","-3","-2","0","0","-3","1","1","0","5","4","4","5","5","4","4","5","4","4","6","6","3","6","3","3","6","4","5","5","2","5","6","5","2","5","3","4","4","1","5","3","7","2","2","6","4","4","5","4","4","5","5","6","3","5","6","6","7","7","6","5","4","4","5","6","6","5","3","6","797773565536641026","黄","311","Male","[""坏他"",""好他"",""坏我"",""好我""]","[""弱他"",""强他"",""弱我"",""强我""]","","","","","","","","0","","","","","","","","","SRET","SRET_math_calculate","","key","0","16.664990825688044","683","380","","","","","1-1= ?","0","1","","","","","","","",""
"1793","","8","psychophysics","130","380330","0.0-7.0-5.0-0.27","5","4","6","5","5","5","3","4","4","4","5","-3","-2","0","0","-3","1","1","0","5","4","4","5","5","4","4","5","4","4","6","6","3","6","3","3","6","4","5","5","2","5","6","5","2","5","3","4","4","1","5","3","7","2","2","6","4","4","5","4","4","5","5","6","3","5","6","6","7","7","6","5","4","4","5","6","6","5","3","6","797773565536641026","黄","311","Male","[""坏他"",""好他"",""坏我"",""好我""]","[""弱他"",""强他"",""弱我"",""强我""]","","","","","","","","8","","","","","","","","","SRET","SRET_math_calculate","","key","8","16.665605504587486","683","380","","","","","2*4= ?","8","1","","","","","","","",""
"2228","","8","psychophysics","131","382561","0.0-7.0-5.0-0.28","5","4","6","5","5","5","3","4","4","4","5","-3","-2","0","0","-3","1","1","0","5","4","4","5","5","4","4","5","4","4","6","6","3","6","3","3","6","4","5","5","2","5","6","5","2","5","3","4","4","1","5","3","7","2","2","6","4","4","5","4","4","5","5","6","3","5","6","6","7","7","6","5","4","4","5","6","6","5","3","6","797773565536641026","黄","311","Male","[""坏他"",""好他"",""坏我"",""好我""]","[""弱他"",""强他"",""弱我"",""强我""]","","","","","","","","8","","","","","","","","","SRET","SRET_math_calculate","","key","8","16.66594696969674","683","380","","","","","13-5= ?","8","1","","","","","","","",""
"1831","","8","psychophysics","132","384398","0.0-7.0-5.0-0.29","5","4","6","5","5","5","3","4","4","4","5","-3","-2","0","0","-3","1","1","0","5","4","4","5","5","4","4","5","4","4","6","6","3","6","3","3","6","4","5","5","2","5","6","5","2","5","3","4","4","1","5","3","7","2","2","6","4","4","5","4","4","5","5","6","3","5","6","6","7","7","6","5","4","4","5","6","6","5","3","6","797773565536641026","黄","311","Male","[""坏他"",""好他"",""坏我"",""好我""]","[""弱他"",""强他"",""弱我"",""强我""]","","","","","","","","8","","","","","","","","","SRET","SRET_math_calculate","","key","8","16.665118181818187","683","380","","","","","1+7= ?","8","1","","","","","","","",""
"1847","","3","psychophysics","133","386247","0.0-7.0-5.0-0.30","5","4","6","5","5","5","3","4","4","4","5","-3","-2","0","0","-3","1","1","0","5","4","4","5","5","4","4","5","4","4","6","6","3","6","3","3","6","4","5","5","2","5","6","5","2","5","3","4","4","1","5","3","7","2","2","6","4","4","5","4","4","5","5","6","3","5","6","6","7","7","6","5","4","4","5","6","6","5","3","6","797773565536641026","黄","311","Male","[""坏他"",""好他"",""坏我"",""好我""]","[""弱他"",""强他"",""弱我"",""强我""]","","","","","","","","3","","","","","","","","","SRET","SRET_math_calculate","","key","3","16.66595454545459","683","380","","","","","8-5= ?","3","1","","","","","","","",""
"2250","","3","psychophysics","134","388502","0.0-7.0-5.0-0.31","5","4","6","5","5","5","3","4","4","4","5","-3","-2","0","0","-3","1","1","0","5","4","4","5","5","4","4","5","4","4","6","6","3","6","3","3","6","4","5","5","2","5","6","5","2","5","3","4","4","1","5","3","7","2","2","6","4","4","5","4","4","5","5","6","3","5","6","6","7","7","6","5","4","4","5","6","6","5","3","6","797773565536641026","黄","311","Male","[""坏他"",""好他"",""坏我"",""好我""]","[""弱他"",""强他"",""弱我"",""强我""]","","","","","","","","3","","","","","","","","","SRET","SRET_math_calculate","","key","3","16.666156716418016","683","380","","","","","6/2= ?","3","1","","","","","","","",""
"1758","","5","psychophysics","135","390264","0.0-7.0-5.0-0.32","5","4","6","5","5","5","3","4","4","4","5","-3","-2","0","0","-3","1","1","0","5","4","4","5","5","4","4","5","4","4","6","6","3","6","3","3","6","4","5","5","2","5","6","5","2","5","3","4","4","1","5","3","7","2","2","6","4","4","5","4","4","5","5","6","3","5","6","6","7","7","6","5","4","4","5","6","6","5","3","6","797773565536641026","黄","311","Male","[""坏他"",""好他"",""坏我"",""好我""]","[""弱他"",""强他"",""弱我"",""强我""]","","","","","","","","5","","","","","","","","","SRET","SRET_math_calculate","","key","5","16.66660952380958","683","380","","","","","3+2= ?","5","1","","","","","","","",""
"1749","","9","psychophysics","136","392015","0.0-7.0-5.0-0.33","5","4","6","5","5","5","3","4","4","4","5","-3","-2","0","0","-3","1","1","0","5","4","4","5","5","4","4","5","4","4","6","6","3","6","3","3","6","4","5","5","2","5","6","5","2","5","3","4","4","1","5","3","7","2","2","6","4","4","5","4","4","5","5","6","3","5","6","6","7","7","6","5","4","4","5","6","6","5","3","6","797773565536641026","黄","311","Male","[""坏他"",""好他"",""坏我"",""好我""]","[""弱他"",""强他"",""弱我"",""强我""]","","","","","","","","9","","","","","","","","","SRET","SRET_math_calculate","","key","9","16.665961538461627","683","380","","","","","2+7= ?","9","1","","","","","","","",""
"1836","","7","psychophysics","137","393854","0.0-7.0-5.0-0.34","5","4","6","5","5","5","3","4","4","4","5","-3","-2","0","0","-3","1","1","0","5","4","4","5","5","4","4","5","4","4","6","6","3","6","3","3","6","4","5","5","2","5","6","5","2","5","3","4","4","1","5","3","7","2","2","6","4","4","5","4","4","5","5","6","3","5","6","6","7","7","6","5","4","4","5","6","6","5","3","6","797773565536641026","黄","311","Male","[""坏他"",""好他"",""坏我"",""好我""]","[""弱他"",""强他"",""弱我"",""强我""]","","","","","","","","7","","","","","","","","","SRET","SRET_math_calculate","","key","7","16.665449541284268","683","380","","","","","4+3= ?","7","1","","","","","","","",""
"1806","","4","psychophysics","138","395663","0.0-7.0-5.0-0.35","5","4","6","5","5","5","3","4","4","4","5","-3","-2","0","0","-3","1","1","0","5","4","4","5","5","4","4","5","4","4","6","6","3","6","3","3","6","4","5","5","2","5","6","5","2","5","3","4","4","1","5","3","7","2","2","6","4","4","5","4","4","5","5","6","3","5","6","6","7","7","6","5","4","4","5","6","6","5","3","6","797773565536641026","黄","311","Male","[""坏他"",""好他"",""坏我"",""好我""]","[""弱他"",""强他"",""弱我"",""强我""]","","","","","","","","4","","","","","","","","","SRET","SRET_math_calculate","","key","4","16.66540740740742","683","380","","","","","20/5= ?","4","1","","","","","","","",""
"1797","","1","psychophysics","139","397463","0.0-7.0-5.0-0.36","5","4","6","5","5","5","3","4","4","4","5","-3","-2","0","0","-3","1","1","0","5","4","4","5","5","4","4","5","4","4","6","6","3","6","3","3","6","4","5","5","2","5","6","5","2","5","3","4","4","1","5","3","7","2","2","6","4","4","5","4","4","5","5","6","3","5","6","6","7","7","6","5","4","4","5","6","6","5","3","6","797773565536641026","黄","311","Male","[""坏他"",""好他"",""坏我"",""好我""]","[""弱他"",""强他"",""弱我"",""强我""]","","","","","","","","1","","","","","","","","","SRET","SRET_math_calculate","","key","1","16.665962616822174","683","380","","","","","9-8= ?","1","1","","","","","","","",""
"1813","","6","psychophysics","140","399280","0.0-7.0-5.0-0.37","5","4","6","5","5","5","3","4","4","4","5","-3","-2","0","0","-3","1","1","0","5","4","4","5","5","4","4","5","4","4","6","6","3","6","3","3","6","4","5","5","2","5","6","5","2","5","3","4","4","1","5","3","7","2","2","6","4","4","5","4","4","5","5","6","3","5","6","6","7","7","6","5","4","4","5","6","6","5","3","6","797773565536641026","黄","311","Male","[""坏他"",""好他"",""坏我"",""好我""]","[""弱他"",""强他"",""弱我"",""强我""]","","","","","","","","6","","","","","","","","","SRET","SRET_math_calculate","","key","6","16.8217383177568","683","380","","","","","2*3= ?","6","1","","","","","","","",""
"1797","","9","psychophysics","141","401080","0.0-7.0-5.0-0.38","5","4","6","5","5","5","3","4","4","4","5","-3","-2","0","0","-3","1","1","0","5","4","4","5","5","4","4","5","4","4","6","6","3","6","3","3","6","4","5","5","2","5","6","5","2","5","3","4","4","1","5","3","7","2","2","6","4","4","5","4","4","5","5","6","3","5","6","6","7","7","6","5","4","4","5","6","6","5","3","6","797773565536641026","黄","311","Male","[""坏他"",""好他"",""坏我"",""好我""]","[""弱他"",""强他"",""弱我"",""强我""]","","","","","","","","9","","","","","","","","","SRET","SRET_math_calculate","","key","9","16.82231132075452","683","380","","","","","1*9= ?","9","1","","","","","","","",""
"1836","","3","psychophysics","142","402918","0.0-7.0-5.0-0.39","5","4","6","5","5","5","3","4","4","4","5","-3","-2","0","0","-3","1","1","0","5","4","4","5","5","4","4","5","4","4","6","6","3","6","3","3","6","4","5","5","2","5","6","5","2","5","3","4","4","1","5","3","7","2","2","6","4","4","5","4","4","5","5","6","3","5","6","6","7","7","6","5","4","4","5","6","6","5","3","6","797773565536641026","黄","311","Male","[""坏他"",""好他"",""坏我"",""好我""]","[""弱他"",""强他"",""弱我"",""强我""]","","","","","","","","3","","","","","","","","","SRET","SRET_math_calculate","","key","3","16.6656422018348","683","380","","","","","11-8= ?","3","1","","","","","","","",""
