"rt","stimulus","response","trial_type","trial_index","time_elapsed","internal_node_id","swb_1","swb_2","swb_3","swb_4","swb_5","LOT_1","LOT_2","LOT_3","LOT_4","LOT_5","LOT_6","IPC_1","IPC_2","IPC_3","IPC_4","IPC_5","IPC_6","IPC_7","IPC_8","MorIden_1","MorIden_2","MorIden_3","MorIden_4","MorIden_5","MorIden_6","MorIden_7","MorIden_8","MorIden_9","MorIden_10","moralSeImag_1","moralSeImag_2","moralSeImag_3","moralSeImag_4","moralSeImag_5","moralSeImag_6","moralSeImag_7","moralSeImag_8","moralSeImag_9","sde_1","sde_2","sde_3","sde_4","sde_5","sde_6","sde_7","sde_8","sde_9","sde_10","trap2","sde_11","sde_12","sde_13","sde_14","sde_15","sde_16","sde_17","sde_18","sde_19","sde_20","IM_1","IM_2","IM_3","IM_4","IM_5","IM_6","IM_7","IM_8","IM_9","IM_10","IM_11","IM_12","IM_13","IM_14","IM_15","IM_16","IM_17","IM_18","IM_19","IM_20","subj_idx","friend_name","ParticipantID","Sex","Word","Word2","value","success","timeout","failed_images","failed_audio","failed_video","user_agent","responses","item_order","radio_event_ids","radio_event_times","key_event_times","mouse_event_times","straightlining","zigzagging","honeypot","task_id","screen_id","time_stamp","response_type","key_press","avg_frame_time","center_x","center_y","person","word","valence","domain","math","correct_response","correct","status","view_history","identity","duration","Image","condition","question_order","trap2_item"
"3707","
   <p><div style='color:white; font-size: 25px'>您好，欢迎参加本次实验。</div></p>
   <p><div style='color:white; font-size: 25px'>为充分保障您的权利，请确保您已经知晓并同意《参与实验同意书》以及《数据公开知情同意书》。</div></p>
   <p><div style='color:white; font-size: 25px'>如果您未见过上述内容，请咨询实验员。</div></p>
   <p style='color:white; font-size: 25px'>如果您选择继续实验，则表示您已经清楚两份知情同意书的内容并同意。</p>
   <p><div style = ""color: pink;font-size:30px;"">请确保您记得day0的实验编号，您将在本次实验输入该编号，若您忘记，请咨询实验员后作答。</div></p>
   <p><div style = ""color:lightblue;font-size:25px;"">请您尽可能认真地作答，我们将依据您在各问卷和按键任务中的作答质量发放报酬。</div></p>
   <p> <div style = ""color: green""><按空格键至下页></div> </p>
   "," ","html-keyboard-response","0","3709","0.0-0.0","5","5","5","5","2","4","3","4","4","4","5","1","-1","2","1","0","1","1","1","4","4","5","5","4","3","3","4","3","4","4","4","4","4","5","7","5","4","4","7","1","6","1","5","4","7","6","6","6","1","6","3","7","2","6","4","6","3","6","6","1","5","1","2","2","5","3","6","3","5","3","5","3","3","2","5","1","3","1","4","796473831589027842","肖","196","Male","[""好我"",""坏他"",""坏我"",""好他""]","[""强我"",""弱他"",""弱我"",""强他""]","","","","","","","","","","","","","","","","","","","","","","","","","","","","","","","","","","","","","","",""
"","","","call-function","1","3712","0.0-1.0-0.0","5","5","5","5","2","4","3","4","4","4","5","1","-1","2","1","0","1","1","1","4","4","5","5","4","3","3","4","3","4","4","4","4","4","5","7","5","4","4","7","1","6","1","5","4","7","6","6","6","1","6","3","7","2","6","4","6","3","6","6","1","5","1","2","2","5","3","6","3","5","3","5","3","3","2","5","1","3","1","4","796473831589027842","肖","196","Male","[""好我"",""坏他"",""坏我"",""好他""]","[""强我"",""弱他"",""弱我"",""强他""]","","","","","","","","","","","","","","","","","","","","","","","","","","","","","","","","","","","","","","",""
"18518","","[{""name"":""Sex"",""value"":""0""},{""name"":""friend_name"",""value"":""肖""},{""name"":""ParticipantID"",""value"":""196""}]","survey-html-form","2","22230","0.0-1.0-1.0","5","5","5","5","2","4","3","4","4","4","5","1","-1","2","1","0","1","1","1","4","4","5","5","4","3","3","4","3","4","4","4","4","4","5","7","5","4","4","7","1","6","1","5","4","7","6","6","6","1","6","3","7","2","6","4","6","3","6","6","1","5","1","2","2","5","3","6","3","5","3","5","3","3","2","5","1","3","1","4","796473831589027842","肖","196","Male","[""好我"",""坏他"",""坏我"",""好他""]","[""强我"",""弱他"",""弱我"",""强他""]","","","","","","","","","","","","","","","","","","","","","","","","","","","","","","","","","","","","","","",""
"","","","preload","3","22945","0.0-2.0","5","5","5","5","2","4","3","4","4","4","5","1","-1","2","1","0","1","1","1","4","4","5","5","4","3","3","4","3","4","4","4","4","4","5","7","5","4","4","7","1","6","1","5","4","7","6","6","6","1","6","3","7","2","6","4","6","3","6","6","1","5","1","2","2","5","3","6","3","5","3","5","3","3","2","5","1","3","1","4","796473831589027842","肖","196","Male","[""好我"",""坏他"",""坏我"",""好他""]","[""强我"",""弱他"",""弱我"",""强他""]","","true","false","[]","[]","[]","","","","","","","","","","","","","","","","","","","","","","","","","","","","","","","","",""
"","","","fullscreen","4","43675","0.0-3.0","5","5","5","5","2","4","3","4","4","4","5","1","-1","2","1","0","1","1","1","4","4","5","5","4","3","3","4","3","4","4","4","4","4","5","7","5","4","4","7","1","6","1","5","4","7","6","6","6","1","6","3","7","2","6","4","6","3","6","6","1","5","1","2","2","5","3","6","3","5","3","5","3","3","2","5","1","3","1","4","796473831589027842","肖","196","Male","[""好我"",""坏他"",""坏我"",""好他""]","[""强我"",""弱他"",""弱我"",""强他""]","","true","","","","","{}","","","","","","","","","","","","","","","","","","","","","","","","","","","","","","","",""
"36793","","{""Q01"":""5"",""Q02"":""5"",""Q03"":""5"",""Q04"":""5"",""Q05"":""2""}","survey-template","5","80472","0.0-4.0","5","5","5","5","2","4","3","4","4","4","5","1","-1","2","1","0","1","1","1","4","4","5","5","4","3","3","4","3","4","4","4","4","4","5","7","5","4","4","7","1","6","1","5","4","7","6","6","6","1","6","3","7","2","6","4","6","3","6","6","1","5","1","2","2","5","3","6","3","5","3","5","3","3","2","5","1","3","1","4","796473831589027842","肖","196","Male","[""好我"",""坏他"",""坏我"",""好他""]","[""强我"",""弱他"",""弱我"",""强他""]","","","","","","","","{""Q01"":""5"",""Q02"":""5"",""Q03"":""5"",""Q04"":""5"",""Q05"":""2""}","[0,1,2,3,4]","[""Q01"",""Q02"",""Q01"",""Q01"",""Q02"",""Q03"",""Q03"",""Q04"",""Q05"",""Q01"",""Q02""]","[2983.4000000003725,5399.300000000279,7103.5,8607.400000000373,9223.400000000373,12151.30000000028,14727.200000000186,17815.200000000186,23367.200000000186,28951.30000000028,29967.400000000373]","[]","[2983.4000000003725,5399.300000000279,7103.5,8607.400000000373,9223.400000000373,12151.30000000028,14727.200000000186,17815.200000000186,23367.200000000186,28951.30000000028,29527.400000000373,29967.400000000373,36791.30000000028]","0.8","0","0","","","","","","","","","","","","","","","","","","","","","","",""
"24975.899999999907","","{""Q01"":""4"",""Q02"":""3"",""Q03"":""4"",""Q04"":""4"",""Q05"":""4"",""Q06"":""5""}","survey-template","6","105456","0.0-5.0","5","5","5","5","2","4","3","4","4","4","5","1","-1","2","1","0","1","1","1","4","4","5","5","4","3","3","4","3","4","4","4","4","4","5","7","5","4","4","7","1","6","1","5","4","7","6","6","6","1","6","3","7","2","6","4","6","3","6","6","1","5","1","2","2","5","3","6","3","5","3","5","3","3","2","5","1","3","1","4","796473831589027842","肖","196","Male","[""好我"",""坏他"",""坏我"",""好他""]","[""强我"",""弱他"",""弱我"",""强他""]","","","","","","","","{""Q01"":""4"",""Q02"":""3"",""Q03"":""4"",""Q04"":""4"",""Q05"":""4"",""Q06"":""5""}","[0,1,2,3,4,5]","[""Q01"",""Q02"",""Q03"",""Q04"",""Q05"",""Q06""]","[2406.8000000002794,7310.600000000093,9446.80000000028,15542.600000000093,18398.700000000186,23286.700000000186]","[]","[2406.8000000002794,6631,7310.600000000093,9446.80000000028,15542.600000000093,18398.700000000186,23286.700000000186,24974.600000000093]","0.3333333333333333","0.4","0","","","","","","","","","","","","","","","","","","","","","","",""
"29306.19999999972","","{""Q01"":""1"",""Q02"":""-1"",""Q03"":""2"",""Q04"":""1"",""Q05"":""0"",""Q06"":""1"",""Q07"":""1"",""Q08"":""1""}","survey-template","7","134768","0.0-6.0","5","5","5","5","2","4","3","4","4","4","5","1","-1","2","1","0","1","1","1","4","4","5","5","4","3","3","4","3","4","4","4","4","4","5","7","5","4","4","7","1","6","1","5","4","7","6","6","6","1","6","3","7","2","6","4","6","3","6","6","1","5","1","2","2","5","3","6","3","5","3","5","3","3","2","5","1","3","1","4","796473831589027842","肖","196","Male","[""好我"",""坏他"",""坏我"",""好他""]","[""强我"",""弱他"",""弱我"",""强他""]","","","","","","","","{""Q01"":""1"",""Q02"":""-1"",""Q03"":""2"",""Q04"":""1"",""Q05"":""0"",""Q06"":""1"",""Q07"":""1"",""Q08"":""1""}","[0,1,2,3,4,5,6,7]","[""Q01"",""Q02"",""Q03"",""Q04"",""Q05"",""Q06"",""Q07"",""Q08""]","[2920.399999999907,7128.399999999907,10520.5,13088.299999999814,18280.399999999907,20616.299999999814,24600.299999999814,26728.299999999814]","[]","[2920.399999999907,7128.399999999907,10520.5,13088.299999999814,18280.399999999907,20616.299999999814,24600.299999999814,26728.299999999814,29304.299999999814]","0.625","0.42857142857142855","0","","","","","","","","","","","","","","","","","","","","","","",""
"6528","
    <p><div style='color:white;font-size:35px; line-height:20px;'>词汇评估任务</div></p><br>
    <p><div style='color:white;font-size:25px; line-height:20px;'>请再次回忆该亲密的朋友，你们至少2年前就认识了，并且最近2年经常见面。</div></p>
    <p><div style='color:white;font-size:25px; line-height:20px;'>在本实验中，您将会看到一些形容词。</div></p>
    <p><div style='color:yellow;font-size:25px; line-height:20px;'>您的任务是判断这些形容词是否符合对您自己或您的朋友的描述。</div></p><p style='font-size:35px'>符合按<span style=""color:lightgreen""> f 键</span>，不符合按<span style=""color:red""> j 键</span></p>","0","html-button-response","8","141302","0.0-7.0-0.0","5","5","5","5","2","4","3","4","4","4","5","1","-1","2","1","0","1","1","1","4","4","5","5","4","3","3","4","3","4","4","4","4","4","5","7","5","4","4","7","1","6","1","5","4","7","6","6","6","1","6","3","7","2","6","4","6","3","6","6","1","5","1","2","2","5","3","6","3","5","3","5","3","3","2","5","1","3","1","4","796473831589027842","肖","196","Male","[""好我"",""坏他"",""坏我"",""好他""]","[""强我"",""弱他"",""弱我"",""强他""]","","","","","","","","","","","","","","","","","SRET_EW","EW_instructions","Sun Jan 21 2024 09:22:41 GMT+0800 (中国标准时间)","","","","","","","","","","","","","","","","","","","",""
"null","","null","psychophysics","9","144318","0.0-7.0-1.0-0.0","5","5","5","5","2","4","3","4","4","4","5","1","-1","2","1","0","1","1","1","4","4","5","5","4","3","3","4","3","4","4","4","4","4","5","7","5","4","4","7","1","6","1","5","4","7","6","6","6","1","6","3","7","2","6","4","6","3","6","6","1","5","1","2","2","5","3","6","3","5","3","5","3","3","2","5","1","3","1","4","796473831589027842","肖","196","Male","[""好我"",""坏他"",""坏我"",""好他""]","[""强我"",""弱他"",""弱我"",""强他""]","","","","","","","","","","","","","","","","","SRET_EW","EW_practice","","key","null","16.663727777777726","768","428","朋友","忠实","Positive","morality","","","","","","","","","","",""
"1464","","f","psychophysics","10","146788","0.0-7.0-1.0-0.1","5","5","5","5","2","4","3","4","4","4","5","1","-1","2","1","0","1","1","1","4","4","5","5","4","3","3","4","3","4","4","4","4","4","5","7","5","4","4","7","1","6","1","5","4","7","6","6","6","1","6","3","7","2","6","4","6","3","6","6","1","5","1","2","2","5","3","6","3","5","3","5","3","3","2","5","1","3","1","4","796473831589027842","肖","196","Male","[""好我"",""坏他"",""坏我"",""好他""]","[""强我"",""弱他"",""弱我"",""强他""]","","","","","","","","yes","","","","","","","","","SRET_EW","EW_practice","","key","f","16.663898648648733","768","428","自己","刻板","Negative","ability","","","","","","","","","","",""
"1612","","f","psychophysics","11","149404","0.0-7.0-1.0-0.2","5","5","5","5","2","4","3","4","4","4","5","1","-1","2","1","0","1","1","1","4","4","5","5","4","3","3","4","3","4","4","4","4","4","5","7","5","4","4","7","1","6","1","5","4","7","6","6","6","1","6","3","7","2","6","4","6","3","6","6","1","5","1","2","2","5","3","6","3","5","3","5","3","3","2","5","1","3","1","4","796473831589027842","肖","196","Male","[""好我"",""坏他"",""坏我"",""好他""]","[""强我"",""弱他"",""弱我"",""强他""]","","","","","","","","yes","","","","","","","","","SRET_EW","EW_practice","","key","f","16.66449358974373","768","428","朋友","徇私","Negative","morality","","","","","","","","","","",""
"1284","","f","psychophysics","12","151691","0.0-7.0-1.0-0.3","5","5","5","5","2","4","3","4","4","4","5","1","-1","2","1","0","1","1","1","4","4","5","5","4","3","3","4","3","4","4","4","4","4","5","7","5","4","4","7","1","6","1","5","4","7","6","6","6","1","6","3","7","2","6","4","6","3","6","6","1","5","1","2","2","5","3","6","3","5","3","5","3","3","2","5","1","3","1","4","796473831589027842","肖","196","Male","[""好我"",""坏他"",""坏我"",""好他""]","[""强我"",""弱他"",""弱我"",""强他""]","","","","","","","","yes","","","","","","","","","SRET_EW","EW_practice","","key","f","16.66435294117657","768","428","自己","严谨","Positive","ability","","","","","","","","","","",""
"7400","
    <p><div style='color:white;font-size:35px; line-height:20px;'>请您再次阅读实验要求</div></p><br>
    <p><div style='color:white;font-size:25px; line-height:20px;'>请回忆某一个亲密的朋友，你们至少2年前就认识了，并且最近2年经常见面。</div></p>
    <p><div style='color:white;font-size:25px; line-height:20px;'>在本实验中，您将会看到一些形容词。</div></p>
    <p><div style='color:yellow;font-size:25px; line-height:20px;'>您的任务是判断这些形容词是否符合对您自己或您的朋友的描述。</div></p>
    <p><div class='footer' style='font-size:25px; line-height:20px;'>如果对本实验还有不清楚之处，请立即向实验员咨询。</p><p style='font-size:25px; line-height:20px;'>如果您明白了规则：</p><p style='font-size:22px; line-height:20px;'>请按 继续 进入正式实验</p>
    </div>
    <p style='font-size:35px'>符合按<span style=""color:lightgreen""> f 键</span>，不符合按<span style=""color:red""> j 键</span></p>","0","html-button-response","13","159094","0.0-7.0-2.0","5","5","5","5","2","4","3","4","4","4","5","1","-1","2","1","0","1","1","1","4","4","5","5","4","3","3","4","3","4","4","4","4","4","5","7","5","4","4","7","1","6","1","5","4","7","6","6","6","1","6","3","7","2","6","4","6","3","6","6","1","5","1","2","2","5","3","6","3","5","3","5","3","3","2","5","1","3","1","4","796473831589027842","肖","196","Male","[""好我"",""坏他"",""坏我"",""好他""]","[""强我"",""弱他"",""弱我"",""强他""]","","","","","","","","","","","","","","","","","SRET_EW","prac_instructions","Sun Jan 21 2024 09:22:41 GMT+0800 (中国标准时间)","","","","","","","","","","","","","","","","","","","",""
"1129","","j","psychophysics","14","161234","0.0-7.0-3.0-0.0","5","5","5","5","2","4","3","4","4","4","5","1","-1","2","1","0","1","1","1","4","4","5","5","4","3","3","4","3","4","4","4","4","4","5","7","5","4","4","7","1","6","1","5","4","7","6","6","6","1","6","3","7","2","6","4","6","3","6","6","1","5","1","2","2","5","3","6","3","5","3","5","3","3","2","5","1","3","1","4","796473831589027842","肖","196","Male","[""好我"",""坏他"",""坏我"",""好他""]","[""强我"",""弱他"",""弱我"",""强他""]","","","","","","","","no","","","","","","","","","SRET","EW_formal","","key","j","16.66310852713176","768","428","自己","坚贞","Positive","morality","","","","","","","","","","",""
"901","","f","psychophysics","15","163140","0.0-7.0-3.0-0.1","5","5","5","5","2","4","3","4","4","4","5","1","-1","2","1","0","1","1","1","4","4","5","5","4","3","3","4","3","4","4","4","4","4","5","7","5","4","4","7","1","6","1","5","4","7","6","6","6","1","6","3","7","2","6","4","6","3","6","6","1","5","1","2","2","5","3","6","3","5","3","5","3","3","2","5","1","3","1","4","796473831589027842","肖","196","Male","[""好我"",""坏他"",""坏我"",""好他""]","[""强我"",""弱他"",""弱我"",""强他""]","","","","","","","","yes","","","","","","","","","SRET","EW_formal","","key","f","16.663707964601866","768","428","自己","说谎","Negative","morality","","","","","","","","","","",""
"1058","","f","psychophysics","16","165201","0.0-7.0-3.0-0.2","5","5","5","5","2","4","3","4","4","4","5","1","-1","2","1","0","1","1","1","4","4","5","5","4","3","3","4","3","4","4","4","4","4","5","7","5","4","4","7","1","6","1","5","4","7","6","6","6","1","6","3","7","2","6","4","6","3","6","6","1","5","1","2","2","5","3","6","3","5","3","5","3","3","2","5","1","3","1","4","796473831589027842","肖","196","Male","[""好我"",""坏他"",""坏我"",""好他""]","[""强我"",""弱他"",""弱我"",""强他""]","","","","","","","","yes","","","","","","","","","SRET","EW_formal","","key","f","16.664544715447168","768","428","朋友","务实","Positive","ability","","","","","","","","","","",""
"1325","","f","psychophysics","17","167530","0.0-7.0-3.0-0.3","5","5","5","5","2","4","3","4","4","4","5","1","-1","2","1","0","1","1","1","4","4","5","5","4","3","3","4","3","4","4","4","4","4","5","7","5","4","4","7","1","6","1","5","4","7","6","6","6","1","6","3","7","2","6","4","6","3","6","6","1","5","1","2","2","5","3","6","3","5","3","5","3","3","2","5","1","3","1","4","796473831589027842","肖","196","Male","[""好我"",""坏他"",""坏我"",""好他""]","[""强我"",""弱他"",""弱我"",""强他""]","","","","","","","","yes","","","","","","","","","SRET","EW_formal","","key","f","16.663345323740916","768","428","朋友","迷糊","Negative","ability","","","","","","","","","","",""
"1098","","f","psychophysics","18","169630","0.0-7.0-3.0-0.4","5","5","5","5","2","4","3","4","4","4","5","1","-1","2","1","0","1","1","1","4","4","5","5","4","3","3","4","3","4","4","4","4","4","5","7","5","4","4","7","1","6","1","5","4","7","6","6","6","1","6","3","7","2","6","4","6","3","6","6","1","5","1","2","2","5","3","6","3","5","3","5","3","3","2","5","1","3","1","4","796473831589027842","肖","196","Male","[""好我"",""坏他"",""坏我"",""好他""]","[""强我"",""弱他"",""弱我"",""强他""]","","","","","","","","yes","","","","","","","","","SRET","EW_formal","","key","f","16.663959999999964","768","428","朋友","拖延","Negative","ability","","","","","","","","","","",""
"1494","","j","psychophysics","19","172128","0.0-7.0-3.0-0.5","5","5","5","5","2","4","3","4","4","4","5","1","-1","2","1","0","1","1","1","4","4","5","5","4","3","3","4","3","4","4","4","4","4","5","7","5","4","4","7","1","6","1","5","4","7","6","6","6","1","6","3","7","2","6","4","6","3","6","6","1","5","1","2","2","5","3","6","3","5","3","5","3","3","2","5","1","3","1","4","796473831589027842","肖","196","Male","[""好我"",""坏他"",""坏我"",""好他""]","[""强我"",""弱他"",""弱我"",""强他""]","","","","","","","","no","","","","","","","","","SRET","EW_formal","","key","j","16.664851351351455","768","428","自己","畏难","Negative","ability","","","","","","","","","","",""
"1163","","f","psychophysics","20","174296","0.0-7.0-3.0-0.6","5","5","5","5","2","4","3","4","4","4","5","1","-1","2","1","0","1","1","1","4","4","5","5","4","3","3","4","3","4","4","4","4","4","5","7","5","4","4","7","1","6","1","5","4","7","6","6","6","1","6","3","7","2","6","4","6","3","6","6","1","5","1","2","2","5","3","6","3","5","3","5","3","3","2","5","1","3","1","4","796473831589027842","肖","196","Male","[""好我"",""坏他"",""坏我"",""好他""]","[""强我"",""弱他"",""弱我"",""强他""]","","","","","","","","yes","","","","","","","","","SRET","EW_formal","","key","f","16.662922480620324","768","428","自己","专注","Positive","ability","","","","","","","","","","",""
"1119","","f","psychophysics","21","176420","0.0-7.0-3.0-0.7","5","5","5","5","2","4","3","4","4","4","5","1","-1","2","1","0","1","1","1","4","4","5","5","4","3","3","4","3","4","4","4","4","4","5","7","5","4","4","7","1","6","1","5","4","7","6","6","6","1","6","3","7","2","6","4","6","3","6","6","1","5","1","2","2","5","3","6","3","5","3","5","3","3","2","5","1","3","1","4","796473831589027842","肖","196","Male","[""好我"",""坏他"",""坏我"",""好他""]","[""强我"",""弱他"",""弱我"",""强他""]","","","","","","","","yes","","","","","","","","","SRET","EW_formal","","key","f","16.663307086614328","768","428","自己","好心","Positive","morality","","","","","","","","","","",""
"1510","","j","psychophysics","22","178934","0.0-7.0-3.0-0.8","5","5","5","5","2","4","3","4","4","4","5","1","-1","2","1","0","1","1","1","4","4","5","5","4","3","3","4","3","4","4","4","4","4","5","7","5","4","4","7","1","6","1","5","4","7","6","6","6","1","6","3","7","2","6","4","6","3","6","6","1","5","1","2","2","5","3","6","3","5","3","5","3","3","2","5","1","3","1","4","796473831589027842","肖","196","Male","[""好我"",""坏他"",""坏我"",""好他""]","[""强我"",""弱他"",""弱我"",""强他""]","","","","","","","","no","","","","","","","","","SRET","EW_formal","","key","j","16.663726666666527","768","428","朋友","业余","Negative","ability","","","","","","","","","","",""
"1062","","f","psychophysics","23","180999","0.0-7.0-3.0-0.9","5","5","5","5","2","4","3","4","4","4","5","1","-1","2","1","0","1","1","1","4","4","5","5","4","3","3","4","3","4","4","4","4","4","5","7","5","4","4","7","1","6","1","5","4","7","6","6","6","1","6","3","7","2","6","4","6","3","6","6","1","5","1","2","2","5","3","6","3","5","3","5","3","3","2","5","1","3","1","4","796473831589027842","肖","196","Male","[""好我"",""坏他"",""坏我"",""好他""]","[""强我"",""弱他"",""弱我"",""强他""]","","","","","","","","yes","","","","","","","","","SRET","EW_formal","","key","f","16.664349593495906","768","428","自己","仁爱","Positive","morality","","","","","","","","","","",""
"829","","f","psychophysics","24","182832","0.0-7.0-3.0-0.10","5","5","5","5","2","4","3","4","4","4","5","1","-1","2","1","0","1","1","1","4","4","5","5","4","3","3","4","3","4","4","4","4","4","5","7","5","4","4","7","1","6","1","5","4","7","6","6","6","1","6","3","7","2","6","4","6","3","6","6","1","5","1","2","2","5","3","6","3","5","3","5","3","3","2","5","1","3","1","4","796473831589027842","肖","196","Male","[""好我"",""坏他"",""坏我"",""好他""]","[""强我"",""弱他"",""弱我"",""强他""]","","","","","","","","yes","","","","","","","","","SRET","EW_formal","","key","f","16.664192660550434","768","428","朋友","热心","Positive","morality","","","","","","","","","","",""
"1404","","j","psychophysics","25","185239","0.0-7.0-3.0-0.11","5","5","5","5","2","4","3","4","4","4","5","1","-1","2","1","0","1","1","1","4","4","5","5","4","3","3","4","3","4","4","4","4","4","5","7","5","4","4","7","1","6","1","5","4","7","6","6","6","1","6","3","7","2","6","4","6","3","6","6","1","5","1","2","2","5","3","6","3","5","3","5","3","3","2","5","1","3","1","4","796473831589027842","肖","196","Male","[""好我"",""坏他"",""坏我"",""好他""]","[""强我"",""弱他"",""弱我"",""强他""]","","","","","","","","no","","","","","","","","","SRET","EW_formal","","key","j","16.664195804195675","768","428","朋友","无耻","Negative","morality","","","","","","","","","","",""
"1263","","j","psychophysics","26","187507","0.0-7.0-3.0-0.12","5","5","5","5","2","4","3","4","4","4","5","1","-1","2","1","0","1","1","1","4","4","5","5","4","3","3","4","3","4","4","4","4","4","5","7","5","4","4","7","1","6","1","5","4","7","6","6","6","1","6","3","7","2","6","4","6","3","6","6","1","5","1","2","2","5","3","6","3","5","3","5","3","3","2","5","1","3","1","4","796473831589027842","肖","196","Male","[""好我"",""坏他"",""坏我"",""好他""]","[""强我"",""弱他"",""弱我"",""强他""]","","","","","","","","no","","","","","","","","","SRET","EW_formal","","key","j","16.663748148148148","768","428","朋友","势利","Negative","morality","","","","","","","","","","",""
"1217","","f","psychophysics","27","189729","0.0-7.0-3.0-0.13","5","5","5","5","2","4","3","4","4","4","5","1","-1","2","1","0","1","1","1","4","4","5","5","4","3","3","4","3","4","4","4","4","4","5","7","5","4","4","7","1","6","1","5","4","7","6","6","6","1","6","3","7","2","6","4","6","3","6","6","1","5","1","2","2","5","3","6","3","5","3","5","3","3","2","5","1","3","1","4","796473831589027842","肖","196","Male","[""好我"",""坏他"",""坏我"",""好他""]","[""强我"",""弱他"",""弱我"",""强他""]","","","","","","","","yes","","","","","","","","","SRET","EW_formal","","key","f","16.664466165413614","768","428","自己","犹豫","Negative","ability","","","","","","","","","","",""
"1531","","j","psychophysics","28","192264","0.0-7.0-3.0-0.14","5","5","5","5","2","4","3","4","4","4","5","1","-1","2","1","0","1","1","1","4","4","5","5","4","3","3","4","3","4","4","4","4","4","5","7","5","4","4","7","1","6","1","5","4","7","6","6","6","1","6","3","7","2","6","4","6","3","6","6","1","5","1","2","2","5","3","6","3","5","3","5","3","3","2","5","1","3","1","4","796473831589027842","肖","196","Male","[""好我"",""坏他"",""坏我"",""好他""]","[""强我"",""弱他"",""弱我"",""强他""]","","","","","","","","no","","","","","","","","","SRET","EW_formal","","key","j","16.664317880794737","768","428","朋友","骁勇","Positive","ability","","","","","","","","","","",""
"1272","","j","psychophysics","29","194539","0.0-7.0-3.0-0.15","5","5","5","5","2","4","3","4","4","4","5","1","-1","2","1","0","1","1","1","4","4","5","5","4","3","3","4","3","4","4","4","4","4","5","7","5","4","4","7","1","6","1","5","4","7","6","6","6","1","6","3","7","2","6","4","6","3","6","6","1","5","1","2","2","5","3","6","3","5","3","5","3","3","2","5","1","3","1","4","796473831589027842","肖","196","Male","[""好我"",""坏他"",""坏我"",""好他""]","[""强我"",""弱他"",""弱我"",""强他""]","","","","","","","","no","","","","","","","","","SRET","EW_formal","","key","j","16.664414814814787","768","428","自己","拜金","Negative","morality","","","","","","","","","","",""
"752","","f","psychophysics","30","196295","0.0-7.0-3.0-0.16","5","5","5","5","2","4","3","4","4","4","5","1","-1","2","1","0","1","1","1","4","4","5","5","4","3","3","4","3","4","4","4","4","4","5","7","5","4","4","7","1","6","1","5","4","7","6","6","6","1","6","3","7","2","6","4","6","3","6","6","1","5","1","2","2","5","3","6","3","5","3","5","3","3","2","5","1","3","1","4","796473831589027842","肖","196","Male","[""好我"",""坏他"",""坏我"",""好他""]","[""强我"",""弱他"",""弱我"",""强他""]","","","","","","","","yes","","","","","","","","","SRET","EW_formal","","key","f","16.663266666666495","768","428","自己","勤恳","Positive","morality","","","","","","","","","","",""
"1265","","f","psychophysics","31","198563","0.0-7.0-3.0-0.17","5","5","5","5","2","4","3","4","4","4","5","1","-1","2","1","0","1","1","1","4","4","5","5","4","3","3","4","3","4","4","4","4","4","5","7","5","4","4","7","1","6","1","5","4","7","6","6","6","1","6","3","7","2","6","4","6","3","6","6","1","5","1","2","2","5","3","6","3","5","3","5","3","3","2","5","1","3","1","4","796473831589027842","肖","196","Male","[""好我"",""坏他"",""坏我"",""好他""]","[""强我"",""弱他"",""弱我"",""强他""]","","","","","","","","yes","","","","","","","","","SRET","EW_formal","","key","f","16.664022222222304","768","428","朋友","勤奋","Positive","ability","","","","","","","","","","",""
"1081","","j","psychophysics","32","200647","0.0-7.0-3.0-0.18","5","5","5","5","2","4","3","4","4","4","5","1","-1","2","1","0","1","1","1","4","4","5","5","4","3","3","4","3","4","4","4","4","4","5","7","5","4","4","7","1","6","1","5","4","7","6","6","6","1","6","3","7","2","6","4","6","3","6","6","1","5","1","2","2","5","3","6","3","5","3","5","3","3","2","5","1","3","1","4","796473831589027842","肖","196","Male","[""好我"",""坏他"",""坏我"",""好他""]","[""强我"",""弱他"",""弱我"",""强他""]","","","","","","","","no","","","","","","","","","SRET","EW_formal","","key","j","16.66454032258081","768","428","朋友","无能","Negative","ability","","","","","","","","","","",""
"1152","","f","psychophysics","33","202802","0.0-7.0-3.0-0.19","5","5","5","5","2","4","3","4","4","4","5","1","-1","2","1","0","1","1","1","4","4","5","5","4","3","3","4","3","4","4","4","4","4","5","7","5","4","4","7","1","6","1","5","4","7","6","6","6","1","6","3","7","2","6","4","6","3","6","6","1","5","1","2","2","5","3","6","3","5","3","5","3","3","2","5","1","3","1","4","796473831589027842","肖","196","Male","[""好我"",""坏他"",""坏我"",""好他""]","[""强我"",""弱他"",""弱我"",""强他""]","","","","","","","","yes","","","","","","","","","SRET","EW_formal","","key","f","16.664562500000102","768","428","自己","坦荡","Positive","morality","","","","","","","","","","",""
"1475","","j","psychophysics","34","205282","0.0-7.0-3.0-0.20","5","5","5","5","2","4","3","4","4","4","5","1","-1","2","1","0","1","1","1","4","4","5","5","4","3","3","4","3","4","4","4","4","4","5","7","5","4","4","7","1","6","1","5","4","7","6","6","6","1","6","3","7","2","6","4","6","3","6","6","1","5","1","2","2","5","3","6","3","5","3","5","3","3","2","5","1","3","1","4","796473831589027842","肖","196","Male","[""好我"",""坏他"",""坏我"",""好他""]","[""强我"",""弱他"",""弱我"",""强他""]","","","","","","","","no","","","","","","","","","SRET","EW_formal","","key","j","16.663898648648534","768","428","朋友","愚蠢","Negative","ability","","","","","","","","","","",""
"1161","","j","psychophysics","35","207447","0.0-7.0-3.0-0.21","5","5","5","5","2","4","3","4","4","4","5","1","-1","2","1","0","1","1","1","4","4","5","5","4","3","3","4","3","4","4","4","4","4","5","7","5","4","4","7","1","6","1","5","4","7","6","6","6","1","6","3","7","2","6","4","6","3","6","6","1","5","1","2","2","5","3","6","3","5","3","5","3","3","2","5","1","3","1","4","796473831589027842","肖","196","Male","[""好我"",""坏他"",""坏我"",""好他""]","[""强我"",""弱他"",""弱我"",""强他""]","","","","","","","","no","","","","","","","","","SRET","EW_formal","","key","j","16.664054263565895","768","428","朋友","不仁","Negative","morality","","","","","","","","","","",""
"1352","","j","psychophysics","36","209803","0.0-7.0-3.0-0.22","5","5","5","5","2","4","3","4","4","4","5","1","-1","2","1","0","1","1","1","4","4","5","5","4","3","3","4","3","4","4","4","4","4","5","7","5","4","4","7","1","6","1","5","4","7","6","6","6","1","6","3","7","2","6","4","6","3","6","6","1","5","1","2","2","5","3","6","3","5","3","5","3","3","2","5","1","3","1","4","796473831589027842","肖","196","Male","[""好我"",""坏他"",""坏我"",""好他""]","[""强我"",""弱他"",""弱我"",""强他""]","","","","","","","","no","","","","","","","","","SRET","EW_formal","","key","j","16.664314285714187","768","428","自己","混账","Negative","morality","","","","","","","","","","",""
"1032","","f","psychophysics","37","211841","0.0-7.0-3.0-0.23","5","5","5","5","2","4","3","4","4","4","5","1","-1","2","1","0","1","1","1","4","4","5","5","4","3","3","4","3","4","4","4","4","4","5","7","5","4","4","7","1","6","1","5","4","7","6","6","6","1","6","3","7","2","6","4","6","3","6","6","1","5","1","2","2","5","3","6","3","5","3","5","3","3","2","5","1","3","1","4","796473831589027842","肖","196","Male","[""好我"",""坏他"",""坏我"",""好他""]","[""强我"",""弱他"",""弱我"",""强他""]","","","","","","","","yes","","","","","","","","","SRET","EW_formal","","key","f","16.664434426229402","768","428","自己","差生","Negative","ability","","","","","","","","","","",""
"1464","","j","psychophysics","38","214307","0.0-7.0-3.0-0.24","5","5","5","5","2","4","3","4","4","4","5","1","-1","2","1","0","1","1","1","4","4","5","5","4","3","3","4","3","4","4","4","4","4","5","7","5","4","4","7","1","6","1","5","4","7","6","6","6","1","6","3","7","2","6","4","6","3","6","6","1","5","1","2","2","5","3","6","3","5","3","5","3","3","2","5","1","3","1","4","796473831589027842","肖","196","Male","[""好我"",""坏他"",""坏我"",""好他""]","[""强我"",""弱他"",""弱我"",""强他""]","","","","","","","","no","","","","","","","","","SRET","EW_formal","","key","j","16.663904761904643","768","428","朋友","失信","Negative","morality","","","","","","","","","","",""
"1159","","j","psychophysics","39","216468","0.0-7.0-3.0-0.25","5","5","5","5","2","4","3","4","4","4","5","1","-1","2","1","0","1","1","1","4","4","5","5","4","3","3","4","3","4","4","4","4","4","5","7","5","4","4","7","1","6","1","5","4","7","6","6","6","1","6","3","7","2","6","4","6","3","6","6","1","5","1","2","2","5","3","6","3","5","3","5","3","3","2","5","1","3","1","4","796473831589027842","肖","196","Male","[""好我"",""坏他"",""坏我"",""好他""]","[""强我"",""弱他"",""弱我"",""强他""]","","","","","","","","no","","","","","","","","","SRET","EW_formal","","key","j","16.66396093749995","768","428","自己","盲目","Negative","ability","","","","","","","","","","",""
"1127","","f","psychophysics","40","218599","0.0-7.0-3.0-0.26","5","5","5","5","2","4","3","4","4","4","5","1","-1","2","1","0","1","1","1","4","4","5","5","4","3","3","4","3","4","4","4","4","4","5","7","5","4","4","7","1","6","1","5","4","7","6","6","6","1","6","3","7","2","6","4","6","3","6","6","1","5","1","2","2","5","3","6","3","5","3","5","3","3","2","5","1","3","1","4","796473831589027842","肖","196","Male","[""好我"",""坏他"",""坏我"",""好他""]","[""强我"",""弱他"",""弱我"",""强他""]","","","","","","","","yes","","","","","","","","","SRET","EW_formal","","key","f","16.66342519685043","768","428","自己","扎实","Positive","ability","","","","","","","","","","",""
"1268","","j","psychophysics","41","220872","0.0-7.0-3.0-0.27","5","5","5","5","2","4","3","4","4","4","5","1","-1","2","1","0","1","1","1","4","4","5","5","4","3","3","4","3","4","4","4","4","4","5","7","5","4","4","7","1","6","1","5","4","7","6","6","6","1","6","3","7","2","6","4","6","3","6","6","1","5","1","2","2","5","3","6","3","5","3","5","3","3","2","5","1","3","1","4","796473831589027842","肖","196","Male","[""好我"",""坏他"",""坏我"",""好他""]","[""强我"",""弱他"",""弱我"",""强他""]","","","","","","","","no","","","","","","","","","SRET","EW_formal","","key","j","16.663786764706053","768","428","自己","无为","Negative","ability","","","","","","","","","","",""
"1100","","f","psychophysics","42","222974","0.0-7.0-3.0-0.28","5","5","5","5","2","4","3","4","4","4","5","1","-1","2","1","0","1","1","1","4","4","5","5","4","3","3","4","3","4","4","4","4","4","5","7","5","4","4","7","1","6","1","5","4","7","6","6","6","1","6","3","7","2","6","4","6","3","6","6","1","5","1","2","2","5","3","6","3","5","3","5","3","3","2","5","1","3","1","4","796473831589027842","肖","196","Male","[""好我"",""坏他"",""坏我"",""好他""]","[""强我"",""弱他"",""弱我"",""强他""]","","","","","","","","yes","","","","","","","","","SRET","EW_formal","","key","f","16.665399999999906","768","428","自己","逞能","Negative","ability","","","","","","","","","","",""
"1629","","f","psychophysics","43","225607","0.0-7.0-3.0-0.29","5","5","5","5","2","4","3","4","4","4","5","1","-1","2","1","0","1","1","1","4","4","5","5","4","3","3","4","3","4","4","4","4","4","5","7","5","4","4","7","1","6","1","5","4","7","6","6","6","1","6","3","7","2","6","4","6","3","6","6","1","5","1","2","2","5","3","6","3","5","3","5","3","3","2","5","1","3","1","4","796473831589027842","肖","196","Male","[""好我"",""坏他"",""坏我"",""好他""]","[""强我"",""弱他"",""弱我"",""强他""]","","","","","","","","yes","","","","","","","","","SRET","EW_formal","","key","f","16.664394904458582","768","428","朋友","独断","Negative","ability","","","","","","","","","","",""
"1294","","j","psychophysics","44","227903","0.0-7.0-3.0-0.30","5","5","5","5","2","4","3","4","4","4","5","1","-1","2","1","0","1","1","1","4","4","5","5","4","3","3","4","3","4","4","4","4","4","5","7","5","4","4","7","1","6","1","5","4","7","6","6","6","1","6","3","7","2","6","4","6","3","6","6","1","5","1","2","2","5","3","6","3","5","3","5","3","3","2","5","1","3","1","4","796473831589027842","肖","196","Male","[""好我"",""坏他"",""坏我"",""好他""]","[""强我"",""弱他"",""弱我"",""强他""]","","","","","","","","no","","","","","","","","","SRET","EW_formal","","key","j","16.664489051094915","768","428","朋友","蛇蝎","Negative","morality","","","","","","","","","","",""
"1239","","j","psychophysics","45","230147","0.0-7.0-3.0-0.31","5","5","5","5","2","4","3","4","4","4","5","1","-1","2","1","0","1","1","1","4","4","5","5","4","3","3","4","3","4","4","4","4","4","5","7","5","4","4","7","1","6","1","5","4","7","6","6","6","1","6","3","7","2","6","4","6","3","6","6","1","5","1","2","2","5","3","6","3","5","3","5","3","3","2","5","1","3","1","4","796473831589027842","肖","196","Male","[""好我"",""坏他"",""坏我"",""好他""]","[""强我"",""弱他"",""弱我"",""强他""]","","","","","","","","no","","","","","","","","","SRET","EW_formal","","key","j","16.664563909774344","768","428","自己","背叛","Negative","morality","","","","","","","","","","",""
"1057","","f","psychophysics","46","232207","0.0-7.0-3.0-0.32","5","5","5","5","2","4","3","4","4","4","5","1","-1","2","1","0","1","1","1","4","4","5","5","4","3","3","4","3","4","4","4","4","4","5","7","5","4","4","7","1","6","1","5","4","7","6","6","6","1","6","3","7","2","6","4","6","3","6","6","1","5","1","2","2","5","3","6","3","5","3","5","3","3","2","5","1","3","1","4","796473831589027842","肖","196","Male","[""好我"",""坏他"",""坏我"",""好他""]","[""强我"",""弱他"",""弱我"",""强他""]","","","","","","","","yes","","","","","","","","","SRET","EW_formal","","key","f","16.66397560975605","768","428","朋友","忠义","Positive","morality","","","","","","","","","","",""
"1225","","f","psychophysics","47","234436","0.0-7.0-3.0-0.33","5","5","5","5","2","4","3","4","4","4","5","1","-1","2","1","0","1","1","1","4","4","5","5","4","3","3","4","3","4","4","4","4","4","5","7","5","4","4","7","1","6","1","5","4","7","6","6","6","1","6","3","7","2","6","4","6","3","6","6","1","5","1","2","2","5","3","6","3","5","3","5","3","3","2","5","1","3","1","4","796473831589027842","肖","196","Male","[""好我"",""坏他"",""坏我"",""好他""]","[""强我"",""弱他"",""弱我"",""强他""]","","","","","","","","yes","","","","","","","","","SRET","EW_formal","","key","f","16.66454887218052","768","428","自己","坚持","Positive","ability","","","","","","","","","","",""
"1267","","j","psychophysics","48","236706","0.0-7.0-3.0-0.34","5","5","5","5","2","4","3","4","4","4","5","1","-1","2","1","0","1","1","1","4","4","5","5","4","3","3","4","3","4","4","4","4","4","5","7","5","4","4","7","1","6","1","5","4","7","6","6","6","1","6","3","7","2","6","4","6","3","6","6","1","5","1","2","2","5","3","6","3","5","3","5","3","3","2","5","1","3","1","4","796473831589027842","肖","196","Male","[""好我"",""坏他"",""坏我"",""好他""]","[""强我"",""弱他"",""弱我"",""强他""]","","","","","","","","no","","","","","","","","","SRET","EW_formal","","key","j","16.6645037037038","768","428","朋友","腐败","Negative","morality","","","","","","","","","","",""
"1342","","f","psychophysics","49","239051","0.0-7.0-3.0-0.35","5","5","5","5","2","4","3","4","4","4","5","1","-1","2","1","0","1","1","1","4","4","5","5","4","3","3","4","3","4","4","4","4","4","5","7","5","4","4","7","1","6","1","5","4","7","6","6","6","1","6","3","7","2","6","4","6","3","6","6","1","5","1","2","2","5","3","6","3","5","3","5","3","3","2","5","1","3","1","4","796473831589027842","肖","196","Male","[""好我"",""坏他"",""坏我"",""好他""]","[""强我"",""弱他"",""弱我"",""强他""]","","","","","","","","yes","","","","","","","","","SRET","EW_formal","","key","f","16.664478571428585","768","428","朋友","干练","Positive","ability","","","","","","","","","","",""
"832","","j","psychophysics","50","240887","0.0-7.0-3.0-0.36","5","5","5","5","2","4","3","4","4","4","5","1","-1","2","1","0","1","1","1","4","4","5","5","4","3","3","4","3","4","4","4","4","4","5","7","5","4","4","7","1","6","1","5","4","7","6","6","6","1","6","3","7","2","6","4","6","3","6","6","1","5","1","2","2","5","3","6","3","5","3","5","3","3","2","5","1","3","1","4","796473831589027842","肖","196","Male","[""好我"",""坏他"",""坏我"",""好他""]","[""强我"",""弱他"",""弱我"",""强他""]","","","","","","","","no","","","","","","","","","SRET","EW_formal","","key","j","16.664788990825684","768","428","自己","黑心","Negative","morality","","","","","","","","","","",""
"836","","f","psychophysics","51","242726","0.0-7.0-3.0-0.37","5","5","5","5","2","4","3","4","4","4","5","1","-1","2","1","0","1","1","1","4","4","5","5","4","3","3","4","3","4","4","4","4","4","5","7","5","4","4","7","1","6","1","5","4","7","6","6","6","1","6","3","7","2","6","4","6","3","6","6","1","5","1","2","2","5","3","6","3","5","3","5","3","3","2","5","1","3","1","4","796473831589027842","肖","196","Male","[""好我"",""坏他"",""坏我"",""好他""]","[""强我"",""弱他"",""弱我"",""强他""]","","","","","","","","yes","","","","","","","","","SRET","EW_formal","","key","f","16.66476146788993","768","428","朋友","草率","Negative","ability","","","","","","","","","","",""
"952","","f","psychophysics","52","244682","0.0-7.0-3.0-0.38","5","5","5","5","2","4","3","4","4","4","5","1","-1","2","1","0","1","1","1","4","4","5","5","4","3","3","4","3","4","4","4","4","4","5","7","5","4","4","7","1","6","1","5","4","7","6","6","6","1","6","3","7","2","6","4","6","3","6","6","1","5","1","2","2","5","3","6","3","5","3","5","3","3","2","5","1","3","1","4","796473831589027842","肖","196","Male","[""好我"",""坏他"",""坏我"",""好他""]","[""强我"",""弱他"",""弱我"",""强他""]","","","","","","","","yes","","","","","","","","","SRET","EW_formal","","key","f","16.663470085469992","768","428","朋友","无赖","Negative","morality","","","","","","","","","","",""
"1218","","j","psychophysics","53","246903","0.0-7.0-3.0-0.39","5","5","5","5","2","4","3","4","4","4","5","1","-1","2","1","0","1","1","1","4","4","5","5","4","3","3","4","3","4","4","4","4","4","5","7","5","4","4","7","1","6","1","5","4","7","6","6","6","1","6","3","7","2","6","4","6","3","6","6","1","5","1","2","2","5","3","6","3","5","3","5","3","3","2","5","1","3","1","4","796473831589027842","肖","196","Male","[""好我"",""坏他"",""坏我"",""好他""]","[""强我"",""弱他"",""弱我"",""强他""]","","","","","","","","no","","","","","","","","","SRET","EW_formal","","key","j","16.663954545454487","768","428","朋友","愚痴","Negative","ability","","","","","","","","","","",""
"1392","","f","psychophysics","54","249297","0.0-7.0-3.0-0.40","5","5","5","5","2","4","3","4","4","4","5","1","-1","2","1","0","1","1","1","4","4","5","5","4","3","3","4","3","4","4","4","4","4","5","7","5","4","4","7","1","6","1","5","4","7","6","6","6","1","6","3","7","2","6","4","6","3","6","6","1","5","1","2","2","5","3","6","3","5","3","5","3","3","2","5","1","3","1","4","796473831589027842","肖","196","Male","[""好我"",""坏他"",""坏我"",""好他""]","[""强我"",""弱他"",""弱我"",""强他""]","","","","","","","","yes","","","","","","","","","SRET","EW_formal","","key","f","16.66463380281688","768","428","朋友","逞强","Negative","ability","","","","","","","","","","",""
"1275","","j","psychophysics","55","251576","0.0-7.0-3.0-0.41","5","5","5","5","2","4","3","4","4","4","5","1","-1","2","1","0","1","1","1","4","4","5","5","4","3","3","4","3","4","4","4","4","4","5","7","5","4","4","7","1","6","1","5","4","7","6","6","6","1","6","3","7","2","6","4","6","3","6","6","1","5","1","2","2","5","3","6","3","5","3","5","3","3","2","5","1","3","1","4","796473831589027842","肖","196","Male","[""好我"",""坏他"",""坏我"",""好他""]","[""强我"",""弱他"",""弱我"",""强他""]","","","","","","","","no","","","","","","","","","SRET","EW_formal","","key","j","16.66459558823536","768","428","自己","驽钝","Negative","ability","","","","","","","","","","",""
"1269","","f","psychophysics","56","253850","0.0-7.0-3.0-0.42","5","5","5","5","2","4","3","4","4","4","5","1","-1","2","1","0","1","1","1","4","4","5","5","4","3","3","4","3","4","4","4","4","4","5","7","5","4","4","7","1","6","1","5","4","7","6","6","6","1","6","3","7","2","6","4","6","3","6","6","1","5","1","2","2","5","3","6","3","5","3","5","3","3","2","5","1","3","1","4","796473831589027842","肖","196","Male","[""好我"",""坏他"",""坏我"",""好他""]","[""强我"",""弱他"",""弱我"",""强他""]","","","","","","","","yes","","","","","","","","","SRET","EW_formal","","key","f","16.663830882352855","768","428","自己","利己","Negative","morality","","","","","","","","","","",""
"1329","","f","psychophysics","57","256182","0.0-7.0-3.0-0.43","5","5","5","5","2","4","3","4","4","4","5","1","-1","2","1","0","1","1","1","4","4","5","5","4","3","3","4","3","4","4","4","4","4","5","7","5","4","4","7","1","6","1","5","4","7","6","6","6","1","6","3","7","2","6","4","6","3","6","6","1","5","1","2","2","5","3","6","3","5","3","5","3","3","2","5","1","3","1","4","796473831589027842","肖","196","Male","[""好我"",""坏他"",""坏我"",""好他""]","[""强我"",""弱他"",""弱我"",""强他""]","","","","","","","","yes","","","","","","","","","SRET","EW_formal","","key","f","16.66449640287763","768","428","自己","才尽","Negative","ability","","","","","","","","","","",""
"713","","f","psychophysics","58","257898","0.0-7.0-3.0-0.44","5","5","5","5","2","4","3","4","4","4","5","1","-1","2","1","0","1","1","1","4","4","5","5","4","3","3","4","3","4","4","4","4","4","5","7","5","4","4","7","1","6","1","5","4","7","6","6","6","1","6","3","7","2","6","4","6","3","6","6","1","5","1","2","2","5","3","6","3","5","3","5","3","3","2","5","1","3","1","4","796473831589027842","肖","196","Male","[""好我"",""坏他"",""坏我"",""好他""]","[""强我"",""弱他"",""弱我"",""强他""]","","","","","","","","yes","","","","","","","","","SRET","EW_formal","","key","f","16.664872549019705","768","428","自己","上进","Positive","ability","","","","","","","","","","",""
"747","","f","psychophysics","59","259648","0.0-7.0-3.0-0.45","5","5","5","5","2","4","3","4","4","4","5","1","-1","2","1","0","1","1","1","4","4","5","5","4","3","3","4","3","4","4","4","4","4","5","7","5","4","4","7","1","6","1","5","4","7","6","6","6","1","6","3","7","2","6","4","6","3","6","6","1","5","1","2","2","5","3","6","3","5","3","5","3","3","2","5","1","3","1","4","796473831589027842","肖","196","Male","[""好我"",""坏他"",""坏我"",""好他""]","[""强我"",""弱他"",""弱我"",""强他""]","","","","","","","","yes","","","","","","","","","SRET","EW_formal","","key","f","16.664884615384764","768","428","自己","细心","Positive","ability","","","","","","","","","","",""
"815","","j","psychophysics","60","261466","0.0-7.0-3.0-0.46","5","5","5","5","2","4","3","4","4","4","5","1","-1","2","1","0","1","1","1","4","4","5","5","4","3","3","4","3","4","4","4","4","4","5","7","5","4","4","7","1","6","1","5","4","7","6","6","6","1","6","3","7","2","6","4","6","3","6","6","1","5","1","2","2","5","3","6","3","5","3","5","3","3","2","5","1","3","1","4","796473831589027842","肖","196","Male","[""好我"",""坏他"",""坏我"",""好他""]","[""强我"",""弱他"",""弱我"",""强他""]","","","","","","","","no","","","","","","","","","SRET","EW_formal","","key","j","16.664907407407387","768","428","自己","缺德","Negative","morality","","","","","","","","","","",""
"1014","","f","psychophysics","61","263483","0.0-7.0-3.0-0.47","5","5","5","5","2","4","3","4","4","4","5","1","-1","2","1","0","1","1","1","4","4","5","5","4","3","3","4","3","4","4","4","4","4","5","7","5","4","4","7","1","6","1","5","4","7","6","6","6","1","6","3","7","2","6","4","6","3","6","6","1","5","1","2","2","5","3","6","3","5","3","5","3","3","2","5","1","3","1","4","796473831589027842","肖","196","Male","[""好我"",""坏他"",""坏我"",""好他""]","[""强我"",""弱他"",""弱我"",""强他""]","","","","","","","","yes","","","","","","","","","SRET","EW_formal","","key","f","16.664641666667013","768","428","朋友","宽容","Positive","morality","","","","","","","","","","",""
"1052","","f","psychophysics","62","265539","0.0-7.0-3.0-0.48","5","5","5","5","2","4","3","4","4","4","5","1","-1","2","1","0","1","1","1","4","4","5","5","4","3","3","4","3","4","4","4","4","4","5","7","5","4","4","7","1","6","1","5","4","7","6","6","6","1","6","3","7","2","6","4","6","3","6","6","1","5","1","2","2","5","3","6","3","5","3","5","3","3","2","5","1","3","1","4","796473831589027842","肖","196","Male","[""好我"",""坏他"",""坏我"",""好他""]","[""强我"",""弱他"",""弱我"",""强他""]","","","","","","","","yes","","","","","","","","","SRET","EW_formal","","key","f","16.664606557377006","768","428","自己","敏捷","Positive","ability","","","","","","","","","","",""
"1373","","f","psychophysics","63","267914","0.0-7.0-3.0-0.49","5","5","5","5","2","4","3","4","4","4","5","1","-1","2","1","0","1","1","1","4","4","5","5","4","3","3","4","3","4","4","4","4","4","5","7","5","4","4","7","1","6","1","5","4","7","6","6","6","1","6","3","7","2","6","4","6","3","6","6","1","5","1","2","2","5","3","6","3","5","3","5","3","3","2","5","1","3","1","4","796473831589027842","肖","196","Male","[""好我"",""坏他"",""坏我"",""好他""]","[""强我"",""弱他"",""弱我"",""强他""]","","","","","","","","yes","","","","","","","","","SRET","EW_formal","","key","f","16.663929577464728","768","428","朋友","周到","Positive","ability","","","","","","","","","","",""
"912","","f","psychophysics","64","269829","0.0-7.0-3.0-0.50","5","5","5","5","2","4","3","4","4","4","5","1","-1","2","1","0","1","1","1","4","4","5","5","4","3","3","4","3","4","4","4","4","4","5","7","5","4","4","7","1","6","1","5","4","7","6","6","6","1","6","3","7","2","6","4","6","3","6","6","1","5","1","2","2","5","3","6","3","5","3","5","3","3","2","5","1","3","1","4","796473831589027842","肖","196","Male","[""好我"",""坏他"",""坏我"",""好他""]","[""强我"",""弱他"",""弱我"",""强他""]","","","","","","","","yes","","","","","","","","","SRET","EW_formal","","key","f","16.66376315789469","768","428","自己","肯干","Positive","ability","","","","","","","","","","",""
"1514","","j","psychophysics","65","272346","0.0-7.0-3.0-0.51","5","5","5","5","2","4","3","4","4","4","5","1","-1","2","1","0","1","1","1","4","4","5","5","4","3","3","4","3","4","4","4","4","4","5","7","5","4","4","7","1","6","1","5","4","7","6","6","6","1","6","3","7","2","6","4","6","3","6","6","1","5","1","2","2","5","3","6","3","5","3","5","3","3","2","5","1","3","1","4","796473831589027842","肖","196","Male","[""好我"",""坏他"",""坏我"",""好他""]","[""强我"",""弱他"",""弱我"",""强他""]","","","","","","","","no","","","","","","","","","SRET","EW_formal","","key","j","16.663826666666814","768","428","自己","贪腐","Negative","morality","","","","","","","","","","",""
"1362","","f","psychophysics","66","274712","0.0-7.0-3.0-0.52","5","5","5","5","2","4","3","4","4","4","5","1","-1","2","1","0","1","1","1","4","4","5","5","4","3","3","4","3","4","4","4","4","4","5","7","5","4","4","7","1","6","1","5","4","7","6","6","6","1","6","3","7","2","6","4","6","3","6","6","1","5","1","2","2","5","3","6","3","5","3","5","3","3","2","5","1","3","1","4","796473831589027842","肖","196","Male","[""好我"",""坏他"",""坏我"",""好他""]","[""强我"",""弱他"",""弱我"",""强他""]","","","","","","","","yes","","","","","","","","","SRET","EW_formal","","key","f","16.664496453900423","768","428","朋友","学霸","Positive","ability","","","","","","","","","","",""
"1236","","f","psychophysics","67","276950","0.0-7.0-3.0-0.53","5","5","5","5","2","4","3","4","4","4","5","1","-1","2","1","0","1","1","1","4","4","5","5","4","3","3","4","3","4","4","4","4","4","5","7","5","4","4","7","1","6","1","5","4","7","6","6","6","1","6","3","7","2","6","4","6","3","6","6","1","5","1","2","2","5","3","6","3","5","3","5","3","3","2","5","1","3","1","4","796473831589027842","肖","196","Male","[""好我"",""坏他"",""坏我"",""好他""]","[""强我"",""弱他"",""弱我"",""强他""]","","","","","","","","yes","","","","","","","","","SRET","EW_formal","","key","f","16.66400000000026","768","428","朋友","拙笨","Negative","ability","","","","","","","","","","",""
"1041","","f","psychophysics","68","278994","0.0-7.0-3.0-0.54","5","5","5","5","2","4","3","4","4","4","5","1","-1","2","1","0","1","1","1","4","4","5","5","4","3","3","4","3","4","4","4","4","4","5","7","5","4","4","7","1","6","1","5","4","7","6","6","6","1","6","3","7","2","6","4","6","3","6","6","1","5","1","2","2","5","3","6","3","5","3","5","3","3","2","5","1","3","1","4","796473831589027842","肖","196","Male","[""好我"",""坏他"",""坏我"",""好他""]","[""强我"",""弱他"",""弱我"",""强他""]","","","","","","","","yes","","","","","","","","","SRET","EW_formal","","key","f","16.664614754098707","768","428","朋友","慈悲","Positive","morality","","","","","","","","","","",""
"1569","","f","psychophysics","69","281566","0.0-7.0-3.0-0.55","5","5","5","5","2","4","3","4","4","4","5","1","-1","2","1","0","1","1","1","4","4","5","5","4","3","3","4","3","4","4","4","4","4","5","7","5","4","4","7","1","6","1","5","4","7","6","6","6","1","6","3","7","2","6","4","6","3","6","6","1","5","1","2","2","5","3","6","3","5","3","5","3","3","2","5","1","3","1","4","796473831589027842","肖","196","Male","[""好我"",""坏他"",""坏我"",""好他""]","[""强我"",""弱他"",""弱我"",""强他""]","","","","","","","","yes","","","","","","","","","SRET","EW_formal","","key","f","16.66442483660135","768","428","自己","自私","Negative","morality","","","","","","","","","","",""
"785","","f","psychophysics","70","283355","0.0-7.0-3.0-0.56","5","5","5","5","2","4","3","4","4","4","5","1","-1","2","1","0","1","1","1","4","4","5","5","4","3","3","4","3","4","4","4","4","4","5","7","5","4","4","7","1","6","1","5","4","7","6","6","6","1","6","3","7","2","6","4","6","3","6","6","1","5","1","2","2","5","3","6","3","5","3","5","3","3","2","5","1","3","1","4","796473831589027842","肖","196","Male","[""好我"",""坏他"",""坏我"",""好他""]","[""强我"",""弱他"",""弱我"",""强他""]","","","","","","","","yes","","","","","","","","","SRET","EW_formal","","key","f","16.66485849056582","768","428","自己","果决","Positive","ability","","","","","","","","","","",""
"1139","","f","psychophysics","71","285499","0.0-7.0-3.0-0.57","5","5","5","5","2","4","3","4","4","4","5","1","-1","2","1","0","1","1","1","4","4","5","5","4","3","3","4","3","4","4","4","4","4","5","7","5","4","4","7","1","6","1","5","4","7","6","6","6","1","6","3","7","2","6","4","6","3","6","6","1","5","1","2","2","5","3","6","3","5","3","5","3","3","2","5","1","3","1","4","796473831589027842","肖","196","Male","[""好我"",""坏他"",""坏我"",""好他""]","[""强我"",""弱他"",""弱我"",""强他""]","","","","","","","","yes","","","","","","","","","SRET","EW_formal","","key","f","16.664382812500207","768","428","朋友","淡泊","Positive","morality","","","","","","","","","","",""
"797","","f","psychophysics","72","287299","0.0-7.0-3.0-0.58","5","5","5","5","2","4","3","4","4","4","5","1","-1","2","1","0","1","1","1","4","4","5","5","4","3","3","4","3","4","4","4","4","4","5","7","5","4","4","7","1","6","1","5","4","7","6","6","6","1","6","3","7","2","6","4","6","3","6","6","1","5","1","2","2","5","3","6","3","5","3","5","3","3","2","5","1","3","1","4","796473831589027842","肖","196","Male","[""好我"",""坏他"",""坏我"",""好他""]","[""强我"",""弱他"",""弱我"",""强他""]","","","","","","","","yes","","","","","","","","","SRET","EW_formal","","key","f","16.664850467289405","768","428","朋友","仁厚","Positive","morality","","","","","","","","","","",""
"976","","f","psychophysics","73","289279","0.0-7.0-3.0-0.59","5","5","5","5","2","4","3","4","4","4","5","1","-1","2","1","0","1","1","1","4","4","5","5","4","3","3","4","3","4","4","4","4","4","5","7","5","4","4","7","1","6","1","5","4","7","6","6","6","1","6","3","7","2","6","4","6","3","6","6","1","5","1","2","2","5","3","6","3","5","3","5","3","3","2","5","1","3","1","4","796473831589027842","肖","196","Male","[""好我"",""坏他"",""坏我"",""好他""]","[""强我"",""弱他"",""弱我"",""强他""]","","","","","","","","yes","","","","","","","","","SRET","EW_formal","","key","f","16.664584745762976","768","428","自己","君子","Positive","morality","","","","","","","","","","",""
"659","","f","psychophysics","74","290941","0.0-7.0-3.0-0.60","5","5","5","5","2","4","3","4","4","4","5","1","-1","2","1","0","1","1","1","4","4","5","5","4","3","3","4","3","4","4","4","4","4","5","7","5","4","4","7","1","6","1","5","4","7","6","6","6","1","6","3","7","2","6","4","6","3","6","6","1","5","1","2","2","5","3","6","3","5","3","5","3","3","2","5","1","3","1","4","796473831589027842","肖","196","Male","[""好我"",""坏他"",""坏我"",""好他""]","[""强我"",""弱他"",""弱我"",""强他""]","","","","","","","","yes","","","","","","","","","SRET","EW_formal","","key","f","16.664969696969646","768","428","自己","廉明","Positive","morality","","","","","","","","","","",""
"843","","f","psychophysics","75","292788","0.0-7.0-3.0-0.61","5","5","5","5","2","4","3","4","4","4","5","1","-1","2","1","0","1","1","1","4","4","5","5","4","3","3","4","3","4","4","4","4","4","5","7","5","4","4","7","1","6","1","5","4","7","6","6","6","1","6","3","7","2","6","4","6","3","6","6","1","5","1","2","2","5","3","6","3","5","3","5","3","3","2","5","1","3","1","4","796473831589027842","肖","196","Male","[""好我"",""坏他"",""坏我"",""好他""]","[""强我"",""弱他"",""弱我"",""强他""]","","","","","","","","yes","","","","","","","","","SRET","EW_formal","","key","f","16.664761467889665","768","428","朋友","毅力","Positive","ability","","","","","","","","","","",""
"1083","","f","psychophysics","76","294875","0.0-7.0-3.0-0.62","5","5","5","5","2","4","3","4","4","4","5","1","-1","2","1","0","1","1","1","4","4","5","5","4","3","3","4","3","4","4","4","4","4","5","7","5","4","4","7","1","6","1","5","4","7","6","6","6","1","6","3","7","2","6","4","6","3","6","6","1","5","1","2","2","5","3","6","3","5","3","5","3","3","2","5","1","3","1","4","796473831589027842","肖","196","Male","[""好我"",""坏他"",""坏我"",""好他""]","[""强我"",""弱他"",""弱我"",""强他""]","","","","","","","","yes","","","","","","","","","SRET","EW_formal","","key","f","16.664295999999624","768","428","朋友","庸碌","Negative","ability","","","","","","","","","","",""
"865","","f","psychophysics","77","296743","0.0-7.0-3.0-0.63","5","5","5","5","2","4","3","4","4","4","5","1","-1","2","1","0","1","1","1","4","4","5","5","4","3","3","4","3","4","4","4","4","4","5","7","5","4","4","7","1","6","1","5","4","7","6","6","6","1","6","3","7","2","6","4","6","3","6","6","1","5","1","2","2","5","3","6","3","5","3","5","3","3","2","5","1","3","1","4","796473831589027842","肖","196","Male","[""好我"",""坏他"",""坏我"",""好他""]","[""强我"",""弱他"",""弱我"",""强他""]","","","","","","","","yes","","","","","","","","","SRET","EW_formal","","key","f","16.664189189189504","768","428","朋友","顶事","Positive","ability","","","","","","","","","","",""
"1001","","j","psychophysics","78","298746","0.0-7.0-3.0-0.64","5","5","5","5","2","4","3","4","4","4","5","1","-1","2","1","0","1","1","1","4","4","5","5","4","3","3","4","3","4","4","4","4","4","5","7","5","4","4","7","1","6","1","5","4","7","6","6","6","1","6","3","7","2","6","4","6","3","6","6","1","5","1","2","2","5","3","6","3","5","3","5","3","3","2","5","1","3","1","4","796473831589027842","肖","196","Male","[""好我"",""坏他"",""坏我"",""好他""]","[""强我"",""弱他"",""弱我"",""强他""]","","","","","","","","no","","","","","","","","","SRET","EW_formal","","key","j","16.664722689075255","768","428","朋友","低劣","Negative","morality","","","","","","","","","","",""
"1208","","j","psychophysics","79","300959","0.0-7.0-3.0-0.65","5","5","5","5","2","4","3","4","4","4","5","1","-1","2","1","0","1","1","1","4","4","5","5","4","3","3","4","3","4","4","4","4","4","5","7","5","4","4","7","1","6","1","5","4","7","6","6","6","1","6","3","7","2","6","4","6","3","6","6","1","5","1","2","2","5","3","6","3","5","3","5","3","3","2","5","1","3","1","4","796473831589027842","肖","196","Male","[""好我"",""坏他"",""坏我"",""好他""]","[""强我"",""弱他"",""弱我"",""强他""]","","","","","","","","no","","","","","","","","","SRET","EW_formal","","key","j","16.664537878787748","768","428","自己","窝囊","Negative","ability","","","","","","","","","","",""
"684","","f","psychophysics","80","302646","0.0-7.0-3.0-0.66","5","5","5","5","2","4","3","4","4","4","5","1","-1","2","1","0","1","1","1","4","4","5","5","4","3","3","4","3","4","4","4","4","4","5","7","5","4","4","7","1","6","1","5","4","7","6","6","6","1","6","3","7","2","6","4","6","3","6","6","1","5","1","2","2","5","3","6","3","5","3","5","3","3","2","5","1","3","1","4","796473831589027842","肖","196","Male","[""好我"",""坏他"",""坏我"",""好他""]","[""强我"",""弱他"",""弱我"",""强他""]","","","","","","","","yes","","","","","","","","","SRET","EW_formal","","key","f","16.664269999999668","768","428","自己","文明","Positive","morality","","","","","","","","","","",""
"813","","f","psychophysics","81","304462","0.0-7.0-3.0-0.67","5","5","5","5","2","4","3","4","4","4","5","1","-1","2","1","0","1","1","1","4","4","5","5","4","3","3","4","3","4","4","4","4","4","5","7","5","4","4","7","1","6","1","5","4","7","6","6","6","1","6","3","7","2","6","4","6","3","6","6","1","5","1","2","2","5","3","6","3","5","3","5","3","3","2","5","1","3","1","4","796473831589027842","肖","196","Male","[""好我"",""坏他"",""坏我"",""好他""]","[""强我"",""弱他"",""弱我"",""强他""]","","","","","","","","yes","","","","","","","","","SRET","EW_formal","","key","f","16.664407407407353","768","428","自己","守法","Positive","morality","","","","","","","","","","",""
"893","","j","psychophysics","82","306359","0.0-7.0-3.0-0.68","5","5","5","5","2","4","3","4","4","4","5","1","-1","2","1","0","1","1","1","4","4","5","5","4","3","3","4","3","4","4","4","4","4","5","7","5","4","4","7","1","6","1","5","4","7","6","6","6","1","6","3","7","2","6","4","6","3","6","6","1","5","1","2","2","5","3","6","3","5","3","5","3","3","2","5","1","3","1","4","796473831589027842","肖","196","Male","[""好我"",""坏他"",""坏我"",""好他""]","[""强我"",""弱他"",""弱我"",""强他""]","","","","","","","","no","","","","","","","","","SRET","EW_formal","","key","j","16.664752212389107","768","428","朋友","龌龊","Negative","morality","","","","","","","","","","",""
"676","","j","psychophysics","83","308038","0.0-7.0-3.0-0.69","5","5","5","5","2","4","3","4","4","4","5","1","-1","2","1","0","1","1","1","4","4","5","5","4","3","3","4","3","4","4","4","4","4","5","7","5","4","4","7","1","6","1","5","4","7","6","6","6","1","6","3","7","2","6","4","6","3","6","6","1","5","1","2","2","5","3","6","3","5","3","5","3","3","2","5","1","3","1","4","796473831589027842","肖","196","Male","[""好我"",""坏他"",""坏我"",""好他""]","[""强我"",""弱他"",""弱我"",""强他""]","","","","","","","","no","","","","","","","","","SRET","EW_formal","","key","j","16.664380000000236","768","428","朋友","狡狯","Negative","morality","","","","","","","","","","",""
"944","","f","psychophysics","84","309985","0.0-7.0-3.0-0.70","5","5","5","5","2","4","3","4","4","4","5","1","-1","2","1","0","1","1","1","4","4","5","5","4","3","3","4","3","4","4","4","4","4","5","7","5","4","4","7","1","6","1","5","4","7","6","6","6","1","6","3","7","2","6","4","6","3","6","6","1","5","1","2","2","5","3","6","3","5","3","5","3","3","2","5","1","3","1","4","796473831589027842","肖","196","Male","[""好我"",""坏他"",""坏我"",""好他""]","[""强我"",""弱他"",""弱我"",""强他""]","","","","","","","","yes","","","","","","","","","SRET","EW_formal","","key","f","16.665043478260706","768","428","自己","懂行","Positive","ability","","","","","","","","","","",""
"849","","f","psychophysics","85","311839","0.0-7.0-3.0-0.71","5","5","5","5","2","4","3","4","4","4","5","1","-1","2","1","0","1","1","1","4","4","5","5","4","3","3","4","3","4","4","4","4","4","5","7","5","4","4","7","1","6","1","5","4","7","6","6","6","1","6","3","7","2","6","4","6","3","6","6","1","5","1","2","2","5","3","6","3","5","3","5","3","3","2","5","1","3","1","4","796473831589027842","肖","196","Male","[""好我"",""坏他"",""坏我"",""好他""]","[""强我"",""弱他"",""弱我"",""强他""]","","","","","","","","yes","","","","","","","","","SRET","EW_formal","","key","f","16.664126126126067","768","428","自己","拖拉","Negative","ability","","","","","","","","","","",""
"684","","f","psychophysics","86","313526","0.0-7.0-3.0-0.72","5","5","5","5","2","4","3","4","4","4","5","1","-1","2","1","0","1","1","1","4","4","5","5","4","3","3","4","3","4","4","4","4","4","5","7","5","4","4","7","1","6","1","5","4","7","6","6","6","1","6","3","7","2","6","4","6","3","6","6","1","5","1","2","2","5","3","6","3","5","3","5","3","3","2","5","1","3","1","4","796473831589027842","肖","196","Male","[""好我"",""坏他"",""坏我"",""好他""]","[""强我"",""弱他"",""弱我"",""强他""]","","","","","","","","yes","","","","","","","","","SRET","EW_formal","","key","f","16.66478000000003","768","428","自己","廉正","Positive","morality","","","","","","","","","","",""
"1174","","f","psychophysics","87","315703","0.0-7.0-3.0-0.73","5","5","5","5","2","4","3","4","4","4","5","1","-1","2","1","0","1","1","1","4","4","5","5","4","3","3","4","3","4","4","4","4","4","5","7","5","4","4","7","1","6","1","5","4","7","6","6","6","1","6","3","7","2","6","4","6","3","6","6","1","5","1","2","2","5","3","6","3","5","3","5","3","3","2","5","1","3","1","4","796473831589027842","肖","196","Male","[""好我"",""坏他"",""坏我"",""好他""]","[""强我"",""弱他"",""弱我"",""强他""]","","","","","","","","yes","","","","","","","","","SRET","EW_formal","","key","f","16.664569230769008","768","428","朋友","无私","Positive","morality","","","","","","","","","","",""
"1089","","j","psychophysics","88","317795","0.0-7.0-3.0-0.74","5","5","5","5","2","4","3","4","4","4","5","1","-1","2","1","0","1","1","1","4","4","5","5","4","3","3","4","3","4","4","4","4","4","5","7","5","4","4","7","1","6","1","5","4","7","6","6","6","1","6","3","7","2","6","4","6","3","6","6","1","5","1","2","2","5","3","6","3","5","3","5","3","3","2","5","1","3","1","4","796473831589027842","肖","196","Male","[""好我"",""坏他"",""坏我"",""好他""]","[""强我"",""弱他"",""弱我"",""强他""]","","","","","","","","no","","","","","","","","","SRET","EW_formal","","key","j","16.664596774193342","768","428","自己","贪污","Negative","morality","","","","","","","","","","",""
"985","","f","psychophysics","89","319786","0.0-7.0-3.0-0.75","5","5","5","5","2","4","3","4","4","4","5","1","-1","2","1","0","1","1","1","4","4","5","5","4","3","3","4","3","4","4","4","4","4","5","7","5","4","4","7","1","6","1","5","4","7","6","6","6","1","6","3","7","2","6","4","6","3","6","6","1","5","1","2","2","5","3","6","3","5","3","5","3","3","2","5","1","3","1","4","796473831589027842","肖","196","Male","[""好我"",""坏他"",""坏我"",""好他""]","[""强我"",""弱他"",""弱我"",""强他""]","","","","","","","","yes","","","","","","","","","SRET","EW_formal","","key","f","16.664915966386555","768","428","朋友","守时","Positive","morality","","","","","","","","","","",""
"1295","","f","psychophysics","90","322085","0.0-7.0-3.0-0.76","5","5","5","5","2","4","3","4","4","4","5","1","-1","2","1","0","1","1","1","4","4","5","5","4","3","3","4","3","4","4","4","4","4","5","7","5","4","4","7","1","6","1","5","4","7","6","6","6","1","6","3","7","2","6","4","6","3","6","6","1","5","1","2","2","5","3","6","3","5","3","5","3","3","2","5","1","3","1","4","796473831589027842","肖","196","Male","[""好我"",""坏他"",""坏我"",""好他""]","[""强我"",""弱他"",""弱我"",""强他""]","","","","","","","","yes","","","","","","","","","SRET","EW_formal","","key","f","16.664532846715524","768","428","朋友","敬业","Positive","morality","","","","","","","","","","",""
"1180","","j","psychophysics","91","324269","0.0-7.0-3.0-0.77","5","5","5","5","2","4","3","4","4","4","5","1","-1","2","1","0","1","1","1","4","4","5","5","4","3","3","4","3","4","4","4","4","4","5","7","5","4","4","7","1","6","1","5","4","7","6","6","6","1","6","3","7","2","6","4","6","3","6","6","1","5","1","2","2","5","3","6","3","5","3","5","3","3","2","5","1","3","1","4","796473831589027842","肖","196","Male","[""好我"",""坏他"",""坏我"",""好他""]","[""强我"",""弱他"",""弱我"",""强他""]","","","","","","","","no","","","","","","","","","SRET","EW_formal","","key","j","16.66450000000007","768","428","朋友","博识","Positive","ability","","","","","","","","","","",""
"731","","f","psychophysics","92","326002","0.0-7.0-3.0-0.78","5","5","5","5","2","4","3","4","4","4","5","1","-1","2","1","0","1","1","1","4","4","5","5","4","3","3","4","3","4","4","4","4","4","5","7","5","4","4","7","1","6","1","5","4","7","6","6","6","1","6","3","7","2","6","4","6","3","6","6","1","5","1","2","2","5","3","6","3","5","3","5","3","3","2","5","1","3","1","4","796473831589027842","肖","196","Male","[""好我"",""坏他"",""坏我"",""好他""]","[""强我"",""弱他"",""弱我"",""强他""]","","","","","","","","yes","","","","","","","","","SRET","EW_formal","","key","f","16.664805825242492","768","428","自己","刚正","Positive","morality","","","","","","","","","","",""
"638","","f","psychophysics","93","327643","0.0-7.0-3.0-0.79","5","5","5","5","2","4","3","4","4","4","5","1","-1","2","1","0","1","1","1","4","4","5","5","4","3","3","4","3","4","4","4","4","4","5","7","5","4","4","7","1","6","1","5","4","7","6","6","6","1","6","3","7","2","6","4","6","3","6","6","1","5","1","2","2","5","3","6","3","5","3","5","3","3","2","5","1","3","1","4","796473831589027842","肖","196","Male","[""好我"",""坏他"",""坏我"",""好他""]","[""强我"",""弱他"",""弱我"",""强他""]","","","","","","","","yes","","","","","","","","","SRET","EW_formal","","key","f","16.66435051546372","768","428","朋友","能干","Positive","ability","","","","","","","","","","",""
"929","","f","psychophysics","94","329575","0.0-7.0-3.0-0.80","5","5","5","5","2","4","3","4","4","4","5","1","-1","2","1","0","1","1","1","4","4","5","5","4","3","3","4","3","4","4","4","4","4","5","7","5","4","4","7","1","6","1","5","4","7","6","6","6","1","6","3","7","2","6","4","6","3","6","6","1","5","1","2","2","5","3","6","3","5","3","5","3","3","2","5","1","3","1","4","796473831589027842","肖","196","Male","[""好我"",""坏他"",""坏我"",""好他""]","[""强我"",""弱他"",""弱我"",""强他""]","","","","","","","","yes","","","","","","","","","SRET","EW_formal","","key","f","16.66426086956534","768","428","自己","果断","Positive","ability","","","","","","","","","","",""
"1112","","j","psychophysics","95","331691","0.0-7.0-3.0-0.81","5","5","5","5","2","4","3","4","4","4","5","1","-1","2","1","0","1","1","1","4","4","5","5","4","3","3","4","3","4","4","4","4","4","5","7","5","4","4","7","1","6","1","5","4","7","6","6","6","1","6","3","7","2","6","4","6","3","6","6","1","5","1","2","2","5","3","6","3","5","3","5","3","3","2","5","1","3","1","4","796473831589027842","肖","196","Male","[""好我"",""坏他"",""坏我"",""好他""]","[""强我"",""弱他"",""弱我"",""强他""]","","","","","","","","no","","","","","","","","","SRET","EW_formal","","key","j","16.663769841269453","768","428","自己","邪恶","Negative","morality","","","","","","","","","","",""
"700","","f","psychophysics","96","333395","0.0-7.0-3.0-0.82","5","5","5","5","2","4","3","4","4","4","5","1","-1","2","1","0","1","1","1","4","4","5","5","4","3","3","4","3","4","4","4","4","4","5","7","5","4","4","7","1","6","1","5","4","7","6","6","6","1","6","3","7","2","6","4","6","3","6","6","1","5","1","2","2","5","3","6","3","5","3","5","3","3","2","5","1","3","1","4","796473831589027842","肖","196","Male","[""好我"",""坏他"",""坏我"",""好他""]","[""强我"",""弱他"",""弱我"",""强他""]","","","","","","","","yes","","","","","","","","","SRET","EW_formal","","key","f","16.664326732673356","768","428","朋友","善心","Positive","morality","","","","","","","","","","",""
"808","","f","psychophysics","97","335207","0.0-7.0-3.0-0.83","5","5","5","5","2","4","3","4","4","4","5","1","-1","2","1","0","1","1","1","4","4","5","5","4","3","3","4","3","4","4","4","4","4","5","7","5","4","4","7","1","6","1","5","4","7","6","6","6","1","6","3","7","2","6","4","6","3","6","6","1","5","1","2","2","5","3","6","3","5","3","5","3","3","2","5","1","3","1","4","796473831589027842","肖","196","Male","[""好我"",""坏他"",""坏我"",""好他""]","[""强我"",""弱他"",""弱我"",""强他""]","","","","","","","","yes","","","","","","","","","SRET","EW_formal","","key","f","16.663787037037157","768","428","朋友","智慧","Positive","ability","","","","","","","","","","",""
"739","","f","psychophysics","98","336949","0.0-7.0-3.0-0.84","5","5","5","5","2","4","3","4","4","4","5","1","-1","2","1","0","1","1","1","4","4","5","5","4","3","3","4","3","4","4","4","4","4","5","7","5","4","4","7","1","6","1","5","4","7","6","6","6","1","6","3","7","2","6","4","6","3","6","6","1","5","1","2","2","5","3","6","3","5","3","5","3","3","2","5","1","3","1","4","796473831589027842","肖","196","Male","[""好我"",""坏他"",""坏我"",""好他""]","[""强我"",""弱他"",""弱我"",""强他""]","","","","","","","","yes","","","","","","","","","SRET","EW_formal","","key","f","16.66417307692329","768","428","自己","主见","Positive","ability","","","","","","","","","","",""
"1064","","j","psychophysics","99","339016","0.0-7.0-3.0-0.85","5","5","5","5","2","4","3","4","4","4","5","1","-1","2","1","0","1","1","1","4","4","5","5","4","3","3","4","3","4","4","4","4","4","5","7","5","4","4","7","1","6","1","5","4","7","6","6","6","1","6","3","7","2","6","4","6","3","6","6","1","5","1","2","2","5","3","6","3","5","3","5","3","3","2","5","1","3","1","4","796473831589027842","肖","196","Male","[""好我"",""坏他"",""坏我"",""好他""]","[""强我"",""弱他"",""弱我"",""强他""]","","","","","","","","no","","","","","","","","","SRET","EW_formal","","key","j","16.664666666666793","768","428","朋友","低俗","Negative","morality","","","","","","","","","","",""
"740","","f","psychophysics","100","340759","0.0-7.0-3.0-0.86","5","5","5","5","2","4","3","4","4","4","5","1","-1","2","1","0","1","1","1","4","4","5","5","4","3","3","4","3","4","4","4","4","4","5","7","5","4","4","7","1","6","1","5","4","7","6","6","6","1","6","3","7","2","6","4","6","3","6","6","1","5","1","2","2","5","3","6","3","5","3","5","3","3","2","5","1","3","1","4","796473831589027842","肖","196","Male","[""好我"",""坏他"",""坏我"",""好他""]","[""强我"",""弱他"",""弱我"",""强他""]","","","","","","","","yes","","","","","","","","","SRET","EW_formal","","key","f","16.664854368932424","768","428","朋友","素养","Positive","morality","","","","","","","","","","",""
"1168","","j","psychophysics","101","342931","0.0-7.0-3.0-0.87","5","5","5","5","2","4","3","4","4","4","5","1","-1","2","1","0","1","1","1","4","4","5","5","4","3","3","4","3","4","4","4","4","4","5","7","5","4","4","7","1","6","1","5","4","7","6","6","6","1","6","3","7","2","6","4","6","3","6","6","1","5","1","2","2","5","3","6","3","5","3","5","3","3","2","5","1","3","1","4","796473831589027842","肖","196","Male","[""好我"",""坏他"",""坏我"",""好他""]","[""强我"",""弱他"",""弱我"",""强他""]","","","","","","","","no","","","","","","","","","SRET","EW_formal","","key","j","16.664261538461478","768","428","自己","缓慢","Negative","ability","","","","","","","","","","",""
"10409","
    <p><div style='color:white;font-size:35px; line-height:20px;'>计算任务</div></p><br>
    <p><div style='color:red;font-size:25px; line-height:20px;'>接下来，您将看到一些四则运算题，<b>请从键盘选择 0-9 进行反应。</b></div></p>
    <p><div style='color:red;font-size:25px; line-height:20px;'>请尽可能快地进行计算，计算的速度和正确率将影响报酬的发放。</div></p>
    <p><div class='footer' style='color:white;font-size:25px; line-height:20px;'>如果对本实验还有不清楚之处，请立即向实验员咨询。</p><p style='color:white;font-size:25px; line-height:20px;'>如果您明白了规则：</p><p style='color:white;font-size:22px; line-height:20px;'>请按 继续 进入练习</p>
    </div>
    ","0","html-button-response","102","353343","0.0-7.0-4.0","5","5","5","5","2","4","3","4","4","4","5","1","-1","2","1","0","1","1","1","4","4","5","5","4","3","3","4","3","4","4","4","4","4","5","7","5","4","4","7","1","6","1","5","4","7","6","6","6","1","6","3","7","2","6","4","6","3","6","6","1","5","1","2","2","5","3","6","3","5","3","5","3","3","2","5","1","3","1","4","796473831589027842","肖","196","Male","[""好我"",""坏他"",""坏我"",""好他""]","[""强我"",""弱他"",""弱我"",""强他""]","","","","","","","","","","","","","","","","","SRET_math","math_instructions","Sun Jan 21 2024 09:22:41 GMT+0800 (中国标准时间)","","","","","","","","","","","","","","","","","","","",""
"2006","","1","psychophysics","103","355354","0.0-7.0-5.0-0.0","5","5","5","5","2","4","3","4","4","4","5","1","-1","2","1","0","1","1","1","4","4","5","5","4","3","3","4","3","4","4","4","4","4","5","7","5","4","4","7","1","6","1","5","4","7","6","6","6","1","6","3","7","2","6","4","6","3","6","6","1","5","1","2","2","5","3","6","3","5","3","5","3","3","2","5","1","3","1","4","796473831589027842","肖","196","Male","[""好我"",""坏他"",""坏我"",""好他""]","[""强我"",""弱他"",""弱我"",""强他""]","","","","","","","","1","","","","","","","","","SRET","SRET_math_calculate","","key","1","16.6638916666668","768","428","","","","","9-8= ?","1","1","","","","","","","",""
"1842","","2","psychophysics","104","357207","0.0-7.0-5.0-0.1","5","5","5","5","2","4","3","4","4","4","5","1","-1","2","1","0","1","1","1","4","4","5","5","4","3","3","4","3","4","4","4","4","4","5","7","5","4","4","7","1","6","1","5","4","7","6","6","6","1","6","3","7","2","6","4","6","3","6","6","1","5","1","2","2","5","3","6","3","5","3","5","3","3","2","5","1","3","1","4","796473831589027842","肖","196","Male","[""好我"",""坏他"",""坏我"",""好他""]","[""强我"",""弱他"",""弱我"",""强他""]","","","","","","","","2","","","","","","","","","SRET","SRET_math_calculate","","key","2","16.664545454545244","768","428","","","","","1+1= ?","2","1","","","","","","","",""
"2090","","2","psychophysics","105","359307","0.0-7.0-5.0-0.2","5","5","5","5","2","4","3","4","4","4","5","1","-1","2","1","0","1","1","1","4","4","5","5","4","3","3","4","3","4","4","4","4","4","5","7","5","4","4","7","1","6","1","5","4","7","6","6","6","1","6","3","7","2","6","4","6","3","6","6","1","5","1","2","2","5","3","6","3","5","3","5","3","3","2","5","1","3","1","4","796473831589027842","肖","196","Male","[""好我"",""坏他"",""坏我"",""好他""]","[""强我"",""弱他"",""弱我"",""强他""]","","","","","","","","2","","","","","","","","","SRET","SRET_math_calculate","","key","2","16.66414400000032","768","428","","","","","18/9= ?","2","1","","","","","","","",""
"1968","","7","psychophysics","106","361286","0.0-7.0-5.0-0.3","5","5","5","5","2","4","3","4","4","4","5","1","-1","2","1","0","1","1","1","4","4","5","5","4","3","3","4","3","4","4","4","4","4","5","7","5","4","4","7","1","6","1","5","4","7","6","6","6","1","6","3","7","2","6","4","6","3","6","6","1","5","1","2","2","5","3","6","3","5","3","5","3","3","2","5","1","3","1","4","796473831589027842","肖","196","Male","[""好我"",""坏他"",""坏我"",""好他""]","[""强我"",""弱他"",""弱我"",""强他""]","","","","","","","","7","","","","","","","","","SRET","SRET_math_calculate","","key","7","16.663847457626893","768","428","","","","","6+1= ?","7","1","","","","","","","",""
"2245","","7","psychophysics","107","363539","0.0-7.0-5.0-0.4","5","5","5","5","2","4","3","4","4","4","5","1","-1","2","1","0","1","1","1","4","4","5","5","4","3","3","4","3","4","4","4","4","4","5","7","5","4","4","7","1","6","1","5","4","7","6","6","6","1","6","3","7","2","6","4","6","3","6","6","1","5","1","2","2","5","3","6","3","5","3","5","3","3","2","5","1","3","1","4","796473831589027842","肖","196","Male","[""好我"",""坏他"",""坏我"",""好他""]","[""强我"",""弱他"",""弱我"",""强他""]","","","","","","","","7","","","","","","","","","SRET","SRET_math_calculate","","key","7","16.663850746268697","768","428","","","","","9-2= ?","7","1","","","","","","","",""
"1865","","5","psychophysics","108","365418","0.0-7.0-5.0-0.5","5","5","5","5","2","4","3","4","4","4","5","1","-1","2","1","0","1","1","1","4","4","5","5","4","3","3","4","3","4","4","4","4","4","5","7","5","4","4","7","1","6","1","5","4","7","6","6","6","1","6","3","7","2","6","4","6","3","6","6","1","5","1","2","2","5","3","6","3","5","3","5","3","3","2","5","1","3","1","4","796473831589027842","肖","196","Male","[""好我"",""坏他"",""坏我"",""好他""]","[""强我"",""弱他"",""弱我"",""强他""]","","","","","","","","5","","","","","","","","","SRET","SRET_math_calculate","","key","5","16.6649196428568","768","428","","","","","2+3= ?","5","1","","","","","","","",""
"1810","","5","psychophysics","109","367231","0.0-7.0-5.0-0.6","5","5","5","5","2","4","3","4","4","4","5","1","-1","2","1","0","1","1","1","4","4","5","5","4","3","3","4","3","4","4","4","4","4","5","7","5","4","4","7","1","6","1","5","4","7","6","6","6","1","6","3","7","2","6","4","6","3","6","6","1","5","1","2","2","5","3","6","3","5","3","5","3","3","2","5","1","3","1","4","796473831589027842","肖","196","Male","[""好我"",""坏他"",""坏我"",""好他""]","[""强我"",""弱他"",""弱我"",""强他""]","","","","","","","","5","","","","","","","","","SRET","SRET_math_calculate","","key","5","16.665074074074422","768","428","","","","","9-4= ?","5","1","","","","","","","",""
"1939","","2","psychophysics","110","369176","0.0-7.0-5.0-0.7","5","5","5","5","2","4","3","4","4","4","5","1","-1","2","1","0","1","1","1","4","4","5","5","4","3","3","4","3","4","4","4","4","4","5","7","5","4","4","7","1","6","1","5","4","7","6","6","6","1","6","3","7","2","6","4","6","3","6","6","1","5","1","2","2","5","3","6","3","5","3","5","3","3","2","5","1","3","1","4","796473831589027842","肖","196","Male","[""好我"",""坏他"",""坏我"",""好他""]","[""强我"",""弱他"",""弱我"",""强他""]","","","","","","","","2","","","","","","","","","SRET","SRET_math_calculate","","key","2","16.664681034482783","768","428","","","","","8-6= ?","2","1","","","","","","","",""
"1900","","9","psychophysics","111","371082","0.0-7.0-5.0-0.8","5","5","5","5","2","4","3","4","4","4","5","1","-1","2","1","0","1","1","1","4","4","5","5","4","3","3","4","3","4","4","4","4","4","5","7","5","4","4","7","1","6","1","5","4","7","6","6","6","1","6","3","7","2","6","4","6","3","6","6","1","5","1","2","2","5","3","6","3","5","3","5","3","3","2","5","1","3","1","4","796473831589027842","肖","196","Male","[""好我"",""坏他"",""坏我"",""好他""]","[""强我"",""弱他"",""弱我"",""强他""]","","","","","","","","9","","","","","","","","","SRET","SRET_math_calculate","","key","9","16.665026548672962","768","428","","","","","3*3= ?","9","1","","","","","","","",""
"2122","","8","psychophysics","112","373215","0.0-7.0-5.0-0.9","5","5","5","5","2","4","3","4","4","4","5","1","-1","2","1","0","1","1","1","4","4","5","5","4","3","3","4","3","4","4","4","4","4","5","7","5","4","4","7","1","6","1","5","4","7","6","6","6","1","6","3","7","2","6","4","6","3","6","6","1","5","1","2","2","5","3","6","3","5","3","5","3","3","2","5","1","3","1","4","796473831589027842","肖","196","Male","[""好我"",""坏他"",""坏我"",""好他""]","[""强我"",""弱他"",""弱我"",""强他""]","","","","","","","","8","","","","","","","","","SRET","SRET_math_calculate","","key","8","16.66440157480327","768","428","","","","","13-5= ?","8","1","","","","","","","",""
"1755","","8","psychophysics","113","374975","0.0-7.0-5.0-0.10","5","5","5","5","2","4","3","4","4","4","5","1","-1","2","1","0","1","1","1","4","4","5","5","4","3","3","4","3","4","4","4","4","4","5","7","5","4","4","7","1","6","1","5","4","7","6","6","6","1","6","3","7","2","6","4","6","3","6","6","1","5","1","2","2","5","3","6","3","5","3","5","3","3","2","5","1","3","1","4","796473831589027842","肖","196","Male","[""好我"",""坏他"",""坏我"",""好他""]","[""强我"",""弱他"",""弱我"",""强他""]","","","","","","","","8","","","","","","","","","SRET","SRET_math_calculate","","key","8","16.66423809523805","768","428","","","","","2*4= ?","8","1","","","","","","","",""
"2187","","0","psychophysics","114","377167","0.0-7.0-5.0-0.11","5","5","5","5","2","4","3","4","4","4","5","1","-1","2","1","0","1","1","1","4","4","5","5","4","3","3","4","3","4","4","4","4","4","5","7","5","4","4","7","1","6","1","5","4","7","6","6","6","1","6","3","7","2","6","4","6","3","6","6","1","5","1","2","2","5","3","6","3","5","3","5","3","3","2","5","1","3","1","4","796473831589027842","肖","196","Male","[""好我"",""坏他"",""坏我"",""好他""]","[""强我"",""弱他"",""弱我"",""强他""]","","","","","","","","0","","","","","","","","","SRET","SRET_math_calculate","","key","0","16.664661538461672","768","428","","","","","6*0= ?","0","1","","","","","","","",""
"2025","","0","psychophysics","115","379203","0.0-7.0-5.0-0.12","5","5","5","5","2","4","3","4","4","4","5","1","-1","2","1","0","1","1","1","4","4","5","5","4","3","3","4","3","4","4","4","4","4","5","7","5","4","4","7","1","6","1","5","4","7","6","6","6","1","6","3","7","2","6","4","6","3","6","6","1","5","1","2","2","5","3","6","3","5","3","5","3","3","2","5","1","3","1","4","796473831589027842","肖","196","Male","[""好我"",""坏他"",""坏我"",""好他""]","[""强我"",""弱他"",""弱我"",""强他""]","","","","","","","","0","","","","","","","","","SRET","SRET_math_calculate","","key","0","16.664024793388023","768","428","","","","","22/11= ?","2","0","","","","","","","",""
"2163","","2","psychophysics","116","381376","0.0-7.0-5.0-0.13","5","5","5","5","2","4","3","4","4","4","5","1","-1","2","1","0","1","1","1","4","4","5","5","4","3","3","4","3","4","4","4","4","4","5","7","5","4","4","7","1","6","1","5","4","7","6","6","6","1","6","3","7","2","6","4","6","3","6","6","1","5","1","2","2","5","3","6","3","5","3","5","3","3","2","5","1","3","1","4","796473831589027842","肖","196","Male","[""好我"",""坏他"",""坏我"",""好他""]","[""强我"",""弱他"",""弱我"",""强他""]","","","","","","","","2","","","","","","","","","SRET","SRET_math_calculate","","key","2","16.664015384615272","768","428","","","","","5-3= ?","2","1","","","","","","","",""
"2186","","1","psychophysics","117","383568","0.0-7.0-5.0-0.14","5","5","5","5","2","4","3","4","4","4","5","1","-1","2","1","0","1","1","1","4","4","5","5","4","3","3","4","3","4","4","4","4","4","5","7","5","4","4","7","1","6","1","5","4","7","6","6","6","1","6","3","7","2","6","4","6","3","6","6","1","5","1","2","2","5","3","6","3","5","3","5","3","3","2","5","1","3","1","4","796473831589027842","肖","196","Male","[""好我"",""坏他"",""坏我"",""好他""]","[""强我"",""弱他"",""弱我"",""强他""]","","","","","","","","1","","","","","","","","","SRET","SRET_math_calculate","","key","1","16.664000000000055","768","428","","","","","12/12= ?","1","1","","","","","","","",""
"2897","","7","psychophysics","118","386480","0.0-7.0-5.0-0.15","5","5","5","5","2","4","3","4","4","4","5","1","-1","2","1","0","1","1","1","4","4","5","5","4","3","3","4","3","4","4","4","4","4","5","7","5","4","4","7","1","6","1","5","4","7","6","6","6","1","6","3","7","2","6","4","6","3","6","6","1","5","1","2","2","5","3","6","3","5","3","5","3","3","2","5","1","3","1","4","796473831589027842","肖","196","Male","[""好我"",""坏他"",""坏我"",""好他""]","[""强我"",""弱他"",""弱我"",""强他""]","","","","","","","","7","","","","","","","","","SRET","SRET_math_calculate","","key","7","16.663247126436943","768","428","","","","","12-5= ?","7","1","","","","","","","",""
"2250","","9","psychophysics","119","388738","0.0-7.0-5.0-0.16","5","5","5","5","2","4","3","4","4","4","5","1","-1","2","1","0","1","1","1","4","4","5","5","4","3","3","4","3","4","4","4","4","4","5","7","5","4","4","7","1","6","1","5","4","7","6","6","6","1","6","3","7","2","6","4","6","3","6","6","1","5","1","2","2","5","3","6","3","5","3","5","3","3","2","5","1","3","1","4","796473831589027842","肖","196","Male","[""好我"",""坏他"",""坏我"",""好他""]","[""强我"",""弱他"",""弱我"",""强他""]","","","","","","","","9","","","","","","","","","SRET","SRET_math_calculate","","key","9","16.664422222222115","768","428","","","","","81/9= ?","9","1","","","","","","","",""
"1868","","8","psychophysics","120","390611","0.0-7.0-5.0-0.17","5","5","5","5","2","4","3","4","4","4","5","1","-1","2","1","0","1","1","1","4","4","5","5","4","3","3","4","3","4","4","4","4","4","5","7","5","4","4","7","1","6","1","5","4","7","6","6","6","1","6","3","7","2","6","4","6","3","6","6","1","5","1","2","2","5","3","6","3","5","3","5","3","3","2","5","1","3","1","4","796473831589027842","肖","196","Male","[""好我"",""坏他"",""坏我"",""好他""]","[""强我"",""弱他"",""弱我"",""强他""]","","","","","","","","8","","","","","","","","","SRET","SRET_math_calculate","","key","8","16.664288288288592","768","428","","","","","2+6= ?","8","1","","","","","","","",""
"2132","","1","psychophysics","121","392748","0.0-7.0-5.0-0.18","5","5","5","5","2","4","3","4","4","4","5","1","-1","2","1","0","1","1","1","4","4","5","5","4","3","3","4","3","4","4","4","4","4","5","7","5","4","4","7","1","6","1","5","4","7","6","6","6","1","6","3","7","2","6","4","6","3","6","6","1","5","1","2","2","5","3","6","3","5","3","5","3","3","2","5","1","3","1","4","796473831589027842","肖","196","Male","[""好我"",""坏他"",""坏我"",""好他""]","[""强我"",""弱他"",""弱我"",""强他""]","","","","","","","","1","","","","","","","","","SRET","SRET_math_calculate","","key","1","16.664566929134043","768","428","","","","","10-9= ?","1","1","","","","","","","",""
"1963","","9","psychophysics","122","394723","0.0-7.0-5.0-0.19","5","5","5","5","2","4","3","4","4","4","5","1","-1","2","1","0","1","1","1","4","4","5","5","4","3","3","4","3","4","4","4","4","4","5","7","5","4","4","7","1","6","1","5","4","7","6","6","6","1","6","3","7","2","6","4","6","3","6","6","1","5","1","2","2","5","3","6","3","5","3","5","3","3","2","5","1","3","1","4","796473831589027842","肖","196","Male","[""好我"",""坏他"",""坏我"",""好他""]","[""强我"",""弱他"",""弱我"",""强他""]","","","","","","","","9","","","","","","","","","SRET","SRET_math_calculate","","key","9","16.66422033898278","768","428","","","","","5+4= ?","9","1","","","","","","","",""
"2052","","7","psychophysics","123","396780","0.0-7.0-5.0-0.20","5","5","5","5","2","4","3","4","4","4","5","1","-1","2","1","0","1","1","1","4","4","5","5","4","3","3","4","3","4","4","4","4","4","5","7","5","4","4","7","1","6","1","5","4","7","6","6","6","1","6","3","7","2","6","4","6","3","6","6","1","5","1","2","2","5","3","6","3","5","3","5","3","3","2","5","1","3","1","4","796473831589027842","肖","196","Male","[""好我"",""坏他"",""坏我"",""好他""]","[""强我"",""弱他"",""弱我"",""强他""]","","","","","","","","7","","","","","","","","","SRET","SRET_math_calculate","","key","7","16.664737704918018","768","428","","","","","4+3= ?","7","1","","","","","","","",""
"2069","","3","psychophysics","124","398855","0.0-7.0-5.0-0.21","5","5","5","5","2","4","3","4","4","4","5","1","-1","2","1","0","1","1","1","4","4","5","5","4","3","3","4","3","4","4","4","4","4","5","7","5","4","4","7","1","6","1","5","4","7","6","6","6","1","6","3","7","2","6","4","6","3","6","6","1","5","1","2","2","5","3","6","3","5","3","5","3","3","2","5","1","3","1","4","796473831589027842","肖","196","Male","[""好我"",""坏他"",""坏我"",""好他""]","[""强我"",""弱他"",""弱我"",""强他""]","","","","","","","","3","","","","","","","","","SRET","SRET_math_calculate","","key","3","16.6643709677418","768","428","","","","","6/2= ?","3","1","","","","","","","",""
"2310","","5","psychophysics","125","401171","0.0-7.0-5.0-0.22","5","5","5","5","2","4","3","4","4","4","5","1","-1","2","1","0","1","1","1","4","4","5","5","4","3","3","4","3","4","4","4","4","4","5","7","5","4","4","7","1","6","1","5","4","7","6","6","6","1","6","3","7","2","6","4","6","3","6","6","1","5","1","2","2","5","3","6","3","5","3","5","3","3","2","5","1","3","1","4","796473831589027842","肖","196","Male","[""好我"",""坏他"",""坏我"",""好他""]","[""强我"",""弱他"",""弱我"",""强他""]","","","","","","","","5","","","","","","","","","SRET","SRET_math_calculate","","key","5","16.664427536231823","768","428","","","","","17-12= ? ","5","1","","","","","","","",""
"1933","","3","psychophysics","126","403111","0.0-7.0-5.0-0.23","5","5","5","5","2","4","3","4","4","4","5","1","-1","2","1","0","1","1","1","4","4","5","5","4","3","3","4","3","4","4","4","4","4","5","7","5","4","4","7","1","6","1","5","4","7","6","6","6","1","6","3","7","2","6","4","6","3","6","6","1","5","1","2","2","5","3","6","3","5","3","5","3","3","2","5","1","3","1","4","796473831589027842","肖","196","Male","[""好我"",""坏他"",""坏我"",""好他""]","[""强我"",""弱他"",""弱我"",""强他""]","","","","","","","","3","","","","","","","","","SRET","SRET_math_calculate","","key","3","16.664930434782644","768","428","","","","","2+1= ?","3","1","","","","","","","",""
"1940","","4","psychophysics","127","405058","0.0-7.0-5.0-0.24","5","5","5","5","2","4","3","4","4","4","5","1","-1","2","1","0","1","1","1","4","4","5","5","4","3","3","4","3","4","4","4","4","4","5","7","5","4","4","7","1","6","1","5","4","7","6","6","6","1","6","3","7","2","6","4","6","3","6","6","1","5","1","2","2","5","3","6","3","5","3","5","3","3","2","5","1","3","1","4","796473831589027842","肖","196","Male","[""好我"",""坏他"",""坏我"",""好他""]","[""强我"",""弱他"",""弱我"",""强他""]","","","","","","","","4","","","","","","","","","SRET","SRET_math_calculate","","key","4","16.664474137930764","768","428","","","","","4*1= ?","4","1","","","","","","","",""
"2163","","8","psychophysics","128","407231","0.0-7.0-5.0-0.25","5","5","5","5","2","4","3","4","4","4","5","1","-1","2","1","0","1","1","1","4","4","5","5","4","3","3","4","3","4","4","4","4","4","5","7","5","4","4","7","1","6","1","5","4","7","6","6","6","1","6","3","7","2","6","4","6","3","6","6","1","5","1","2","2","5","3","6","3","5","3","5","3","3","2","5","1","3","1","4","796473831589027842","肖","196","Male","[""好我"",""坏他"",""坏我"",""好他""]","[""强我"",""弱他"",""弱我"",""强他""]","","","","","","","","8","","","","","","","","","SRET","SRET_math_calculate","","key","8","16.664604651162765","768","428","","","","","56/7= ?","8","1","","","","","","","",""
"2009","","0","psychophysics","129","409254","0.0-7.0-5.0-0.26","5","5","5","5","2","4","3","4","4","4","5","1","-1","2","1","0","1","1","1","4","4","5","5","4","3","3","4","3","4","4","4","4","4","5","7","5","4","4","7","1","6","1","5","4","7","6","6","6","1","6","3","7","2","6","4","6","3","6","6","1","5","1","2","2","5","3","6","3","5","3","5","3","3","2","5","1","3","1","4","796473831589027842","肖","196","Male","[""好我"",""坏他"",""坏我"",""好他""]","[""强我"",""弱他"",""弱我"",""强他""]","","","","","","","","0","","","","","","","","","SRET","SRET_math_calculate","","key","0","16.664487603305712","768","428","","","","","1-1= ?","0","1","","","","","","","",""
"1934","","9","psychophysics","130","411194","0.0-7.0-5.0-0.27","5","5","5","5","2","4","3","4","4","4","5","1","-1","2","1","0","1","1","1","4","4","5","5","4","3","3","4","3","4","4","4","4","4","5","7","5","4","4","7","1","6","1","5","4","7","6","6","6","1","6","3","7","2","6","4","6","3","6","6","1","5","1","2","2","5","3","6","3","5","3","5","3","3","2","5","1","3","1","4","796473831589027842","肖","196","Male","[""好我"",""坏他"",""坏我"",""好他""]","[""强我"",""弱他"",""弱我"",""强他""]","","","","","","","","9","","","","","","","","","SRET","SRET_math_calculate","","key","9","16.66414782608677","768","428","","","","","1*9= ?","9","1","","","","","","","",""
"2244","","8","psychophysics","131","413446","0.0-7.0-5.0-0.28","5","5","5","5","2","4","3","4","4","4","5","1","-1","2","1","0","1","1","1","4","4","5","5","4","3","3","4","3","4","4","4","4","4","5","7","5","4","4","7","1","6","1","5","4","7","6","6","6","1","6","3","7","2","6","4","6","3","6","6","1","5","1","2","2","5","3","6","3","5","3","5","3","3","2","5","1","3","1","4","796473831589027842","肖","196","Male","[""好我"",""坏他"",""坏我"",""好他""]","[""强我"",""弱他"",""弱我"",""强他""]","","","","","","","","8","","","","","","","","","SRET","SRET_math_calculate","","key","8","16.663156716418","768","428","","","","","72/9= ?","8","1","","","","","","","",""
"1980","","2","psychophysics","132","415436","0.0-7.0-5.0-0.29","5","5","5","5","2","4","3","4","4","4","5","1","-1","2","1","0","1","1","1","4","4","5","5","4","3","3","4","3","4","4","4","4","4","5","7","5","4","4","7","1","6","1","5","4","7","6","6","6","1","6","3","7","2","6","4","6","3","6","6","1","5","1","2","2","5","3","6","3","5","3","5","3","3","2","5","1","3","1","4","796473831589027842","肖","196","Male","[""好我"",""坏他"",""坏我"",""好他""]","[""强我"",""弱他"",""弱我"",""强他""]","","","","","","","","2","","","","","","","","","SRET","SRET_math_calculate","","key","2","16.664008403361283","768","428","","","","","12/6= ?","2","1","","","","","","","",""
"2208","","3","psychophysics","133","417648","0.0-7.0-5.0-0.30","5","5","5","5","2","4","3","4","4","4","5","1","-1","2","1","0","1","1","1","4","4","5","5","4","3","3","4","3","4","4","4","4","4","5","7","5","4","4","7","1","6","1","5","4","7","6","6","6","1","6","3","7","2","6","4","6","3","6","6","1","5","1","2","2","5","3","6","3","5","3","5","3","3","2","5","1","3","1","4","796473831589027842","肖","196","Male","[""好我"",""坏他"",""坏我"",""好他""]","[""强我"",""弱他"",""弱我"",""强他""]","","","","","","","","3","","","","","","","","","SRET","SRET_math_calculate","","key","3","16.664499999999833","768","428","","","","","21/7=  ?","3","1","","","","","","","",""
"2061","","9","psychophysics","134","419716","0.0-7.0-5.0-0.31","5","5","5","5","2","4","3","4","4","4","5","1","-1","2","1","0","1","1","1","4","4","5","5","4","3","3","4","3","4","4","4","4","4","5","7","5","4","4","7","1","6","1","5","4","7","6","6","6","1","6","3","7","2","6","4","6","3","6","6","1","5","1","2","2","5","3","6","3","5","3","5","3","3","2","5","1","3","1","4","796473831589027842","肖","196","Male","[""好我"",""坏他"",""坏我"",""好他""]","[""强我"",""弱他"",""弱我"",""强他""]","","","","","","","","9","","","","","","","","","SRET","SRET_math_calculate","","key","9","16.66469918699212","768","428","","","","","18/2= ?","9","1","","","","","","","",""
"2026","","2","psychophysics","135","421748","0.0-7.0-5.0-0.32","5","5","5","5","2","4","3","4","4","4","5","1","-1","2","1","0","1","1","1","4","4","5","5","4","3","3","4","3","4","4","4","4","4","5","7","5","4","4","7","1","6","1","5","4","7","6","6","6","1","6","3","7","2","6","4","6","3","6","6","1","5","1","2","2","5","3","6","3","5","3","5","3","3","2","5","1","3","1","4","796473831589027842","肖","196","Male","[""好我"",""坏他"",""坏我"",""好他""]","[""强我"",""弱他"",""弱我"",""强他""]","","","","","","","","2","","","","","","","","","SRET","SRET_math_calculate","","key","2","16.66412396694212","768","428","","","","","8/4= ?","2","1","","","","","","","",""
"1953","","7","psychophysics","136","423707","0.0-7.0-5.0-0.33","5","5","5","5","2","4","3","4","4","4","5","1","-1","2","1","0","1","1","1","4","4","5","5","4","3","3","4","3","4","4","4","4","4","5","7","5","4","4","7","1","6","1","5","4","7","6","6","6","1","6","3","7","2","6","4","6","3","6","6","1","5","1","2","2","5","3","6","3","5","3","5","3","3","2","5","1","3","1","4","796473831589027842","肖","196","Male","[""好我"",""坏他"",""坏我"",""好他""]","[""强我"",""弱他"",""弱我"",""强他""]","","","","","","","","7","","","","","","","","","SRET","SRET_math_calculate","","key","7","16.665698275862237","768","428","","","","","3+4= ?","7","1","","","","","","","",""
"2030","","9","psychophysics","137","425748","0.0-7.0-5.0-0.34","5","5","5","5","2","4","3","4","4","4","5","1","-1","2","1","0","1","1","1","4","4","5","5","4","3","3","4","3","4","4","4","4","4","5","7","5","4","4","7","1","6","1","5","4","7","6","6","6","1","6","3","7","2","6","4","6","3","6","6","1","5","1","2","2","5","3","6","3","5","3","5","3","3","2","5","1","3","1","4","796473831589027842","肖","196","Male","[""好我"",""坏他"",""坏我"",""好他""]","[""强我"",""弱他"",""弱我"",""强他""]","","","","","","","","9","","","","","","","","","SRET","SRET_math_calculate","","key","9","16.663901639344136","768","428","","","","","8+1= ?","9","1","","","","","","","",""
"2380","","4","psychophysics","138","428132","0.0-7.0-5.0-0.35","5","5","5","5","2","4","3","4","4","4","5","1","-1","2","1","0","1","1","1","4","4","5","5","4","3","3","4","3","4","4","4","4","4","5","7","5","4","4","7","1","6","1","5","4","7","6","6","6","1","6","3","7","2","6","4","6","3","6","6","1","5","1","2","2","5","3","6","3","5","3","5","3","3","2","5","1","3","1","4","796473831589027842","肖","196","Male","[""好我"",""坏他"",""坏我"",""好他""]","[""强我"",""弱他"",""弱我"",""强他""]","","","","","","","","4","","","","","","","","","SRET","SRET_math_calculate","","key","4","16.66470422535195","768","428","","","","","8-4= ?","4","1","","","","","","","",""
"1997","","7","psychophysics","139","430135","0.0-7.0-5.0-0.36","5","5","5","5","2","4","3","4","4","4","5","1","-1","2","1","0","1","1","1","4","4","5","5","4","3","3","4","3","4","4","4","4","4","5","7","5","4","4","7","1","6","1","5","4","7","6","6","6","1","6","3","7","2","6","4","6","3","6","6","1","5","1","2","2","5","3","6","3","5","3","5","3","3","2","5","1","3","1","4","796473831589027842","肖","196","Male","[""好我"",""坏他"",""坏我"",""好他""]","[""强我"",""弱他"",""弱我"",""强他""]","","","","","","","","7","","","","","","","","","SRET","SRET_math_calculate","","key","7","16.664596638655457","768","428","","","","","1+6= ?","7","1","","","","","","","",""
"1789","","8","psychophysics","140","431929","0.0-7.0-5.0-0.37","5","5","5","5","2","4","3","4","4","4","5","1","-1","2","1","0","1","1","1","4","4","5","5","4","3","3","4","3","4","4","4","4","4","5","7","5","4","4","7","1","6","1","5","4","7","6","6","6","1","6","3","7","2","6","4","6","3","6","6","1","5","1","2","2","5","3","6","3","5","3","5","3","3","2","5","1","3","1","4","796473831589027842","肖","196","Male","[""好我"",""坏他"",""坏我"",""好他""]","[""强我"",""弱他"",""弱我"",""强他""]","","","","","","","","8","","","","","","","","","SRET","SRET_math_calculate","","key","8","16.664028037383513","768","428","","","","","3+5= ?","8","1","","","","","","","",""
"2101","","3","psychophysics","141","434035","0.0-7.0-5.0-0.38","5","5","5","5","2","4","3","4","4","4","5","1","-1","2","1","0","1","1","1","4","4","5","5","4","3","3","4","3","4","4","4","4","4","5","7","5","4","4","7","1","6","1","5","4","7","6","6","6","1","6","3","7","2","6","4","6","3","6","6","1","5","1","2","2","5","3","6","3","5","3","5","3","3","2","5","1","3","1","4","796473831589027842","肖","196","Male","[""好我"",""坏他"",""坏我"",""好他""]","[""强我"",""弱他"",""弱我"",""强他""]","","","","","","","","3","","","","","","","","","SRET","SRET_math_calculate","","key","3","16.664663999999874","768","428","","","","","9-6= ?","3","1","","","","","","","",""
"2087","","3","psychophysics","142","436128","0.0-7.0-5.0-0.39","5","5","5","5","2","4","3","4","4","4","5","1","-1","2","1","0","1","1","1","4","4","5","5","4","3","3","4","3","4","4","4","4","4","5","7","5","4","4","7","1","6","1","5","4","7","6","6","6","1","6","3","7","2","6","4","6","3","6","6","1","5","1","2","2","5","3","6","3","5","3","5","3","3","2","5","1","3","1","4","796473831589027842","肖","196","Male","[""好我"",""坏他"",""坏我"",""好他""]","[""强我"",""弱他"",""弱我"",""强他""]","","","","","","","","3","","","","","","","","","SRET","SRET_math_calculate","","key","3","16.664207999999636","768","428","","","","","1+2= ?","3","1","","","","","","","",""
