"rt","stimulus","response","trial_type","trial_index","time_elapsed","internal_node_id","swb_1","swb_2","swb_3","swb_4","swb_5","LOT_1","LOT_2","LOT_3","LOT_4","LOT_5","LOT_6","IPC_1","IPC_2","IPC_3","IPC_4","IPC_5","IPC_6","IPC_7","IPC_8","MorIden_1","MorIden_2","MorIden_3","MorIden_4","MorIden_5","MorIden_6","MorIden_7","MorIden_8","MorIden_9","MorIden_10","moralSeImag_1","moralSeImag_2","moralSeImag_3","moralSeImag_4","moralSeImag_5","moralSeImag_6","moralSeImag_7","moralSeImag_8","moralSeImag_9","sde_1","sde_2","sde_3","sde_4","sde_5","sde_6","sde_7","sde_8","sde_9","sde_10","trap2","sde_11","sde_12","sde_13","sde_14","sde_15","sde_16","sde_17","sde_18","sde_19","sde_20","IM_1","IM_2","IM_3","IM_4","IM_5","IM_6","IM_7","IM_8","IM_9","IM_10","IM_11","IM_12","IM_13","IM_14","IM_15","IM_16","IM_17","IM_18","IM_19","IM_20","subj_idx","friend_name","ParticipantID","Sex","Word","Word2","value","success","timeout","failed_images","failed_audio","failed_video","user_agent","responses","item_order","radio_event_ids","radio_event_times","key_event_times","mouse_event_times","straightlining","zigzagging","honeypot","task_id","screen_id","time_stamp","response_type","key_press","avg_frame_time","center_x","center_y","person","word","valence","domain","math","correct_response","correct","status","view_history","identity","duration","Image","condition","question_order","trap2_item"
"23600","
   <p><div style='color:white; font-size: 25px'>您好，欢迎参加本次实验。</div></p>
   <p><div style='color:white; font-size: 25px'>为充分保障您的权利，请确保您已经知晓并同意《参与实验同意书》以及《数据公开知情同意书》。</div></p>
   <p><div style='color:white; font-size: 25px'>如果您未见过上述内容，请咨询实验员。</div></p>
   <p style='color:white; font-size: 25px'>如果您选择继续实验，则表示您已经清楚两份知情同意书的内容并同意。</p>
   <p><div style = ""color: pink;font-size:30px;"">请确保您记得day0的实验编号，您将在本次实验输入该编号，若您忘记，请咨询实验员后作答。</div></p>
   <p><div style = ""color:lightblue;font-size:25px;"">请您尽可能认真地作答，我们将依据您在各问卷和按键任务中的作答质量发放报酬。</div></p>
   <p> <div style = ""color: green""><按空格键至下页></div> </p>
   "," ","html-keyboard-response","0","23603","0.0-0.0","3","2","3","1","2","5","2","4","4","5","5","0","0","-1","1","0","1","2","1","4","5","5","5","4","5","4","4","5","4","5","6","5","7","6","8","6","5","5","4","3","3","2","2","2","5","2","5","2","1","3","3","5","2","3","3","5","4","3","2","2","5","2","3","3","5","4","6","6","7","6","5","5","4","2","7","3","6","2","4","798932137372950529","李","563","Female","[""坏我"",""坏她"",""好她"",""好我""]","[""弱我"",""弱她"",""强她"",""强我""]","","","","","","","","","","","","","","","","","","","","","","","","","","","","","","","","","","","","","","",""
"","","","call-function","1","23608","0.0-1.0-0.0","3","2","3","1","2","5","2","4","4","5","5","0","0","-1","1","0","1","2","1","4","5","5","5","4","5","4","4","5","4","5","6","5","7","6","8","6","5","5","4","3","3","2","2","2","5","2","5","2","1","3","3","5","2","3","3","5","4","3","2","2","5","2","3","3","5","4","6","6","7","6","5","5","4","2","7","3","6","2","4","798932137372950529","李","563","Female","[""坏我"",""坏她"",""好她"",""好我""]","[""弱我"",""弱她"",""强她"",""强我""]","","","","","","","","","","","","","","","","","","","","","","","","","","","","","","","","","","","","","","",""
"61682","","[{""name"":""Sex"",""value"":""1""},{""name"":""friend_name"",""value"":""李""},{""name"":""ParticipantID"",""value"":""563""}]","survey-html-form","2","85293","0.0-1.0-1.0","3","2","3","1","2","5","2","4","4","5","5","0","0","-1","1","0","1","2","1","4","5","5","5","4","5","4","4","5","4","5","6","5","7","6","8","6","5","5","4","3","3","2","2","2","5","2","5","2","1","3","3","5","2","3","3","5","4","3","2","2","5","2","3","3","5","4","6","6","7","6","5","5","4","2","7","3","6","2","4","798932137372950529","李","563","Female","[""坏我"",""坏她"",""好她"",""好我""]","[""弱我"",""弱她"",""强她"",""强我""]","","","","","","","","","","","","","","","","","","","","","","","","","","","","","","","","","","","","","","",""
"","","","preload","3","85467","0.0-2.0","3","2","3","1","2","5","2","4","4","5","5","0","0","-1","1","0","1","2","1","4","5","5","5","4","5","4","4","5","4","5","6","5","7","6","8","6","5","5","4","3","3","2","2","2","5","2","5","2","1","3","3","5","2","3","3","5","4","3","2","2","5","2","3","3","5","4","6","6","7","6","5","5","4","2","7","3","6","2","4","798932137372950529","李","563","Female","[""坏我"",""坏她"",""好她"",""好我""]","[""弱我"",""弱她"",""强她"",""强我""]","","true","false","[]","[]","[]","","","","","","","","","","","","","","","","","","","","","","","","","","","","","","","","",""
"","","","fullscreen","4","87258","0.0-3.0","3","2","3","1","2","5","2","4","4","5","5","0","0","-1","1","0","1","2","1","4","5","5","5","4","5","4","4","5","4","5","6","5","7","6","8","6","5","5","4","3","3","2","2","2","5","2","5","2","1","3","3","5","2","3","3","5","4","3","2","2","5","2","3","3","5","4","6","6","7","6","5","5","4","2","7","3","6","2","4","798932137372950529","李","563","Female","[""坏我"",""坏她"",""好她"",""好我""]","[""弱我"",""弱她"",""强她"",""强我""]","","true","","","","","","","","","","","","","","","","","","","","","","","","","","","","","","","","","","","","",""
"16788.254999992205","","{""Q01"":""3"",""Q02"":""2"",""Q03"":""3"",""Q04"":""1"",""Q05"":""2""}","survey-template","5","104050","0.0-4.0","3","2","3","1","2","5","2","4","4","5","5","0","0","-1","1","0","1","2","1","4","5","5","5","4","5","4","4","5","4","5","6","5","7","6","8","6","5","5","4","3","3","2","2","2","5","2","5","2","1","3","3","5","2","3","3","5","4","3","2","2","5","2","3","3","5","4","6","6","7","6","5","5","4","2","7","3","6","2","4","798932137372950529","李","563","Female","[""坏我"",""坏她"",""好她"",""好我""]","[""弱我"",""弱她"",""强她"",""强我""]","","","","","","","","{""Q01"":""3"",""Q02"":""2"",""Q03"":""3"",""Q04"":""1"",""Q05"":""2""}","[0,1,2,3,4]","[""Q01"",""Q01"",""Q02"",""Q03"",""Q04"",""Q05""]","[10640.420000010636,11280.189999990398,12024.024999991525,13000.27499999851,14943.954999995185,15720.26500001084]","[]","[10640.420000010636,11280.189999990398,12024.024999991525,13000.27499999851,14943.954999995185,15720.26500001084,16785.854999994626]","0.4","0.75","0","","","","","","","","","","","","","","","","","","","","","","",""
"13570.334999996703","","{""Q01"":""5"",""Q02"":""2"",""Q03"":""4"",""Q04"":""4"",""Q05"":""5"",""Q06"":""5""}","survey-template","6","117631","0.0-5.0","3","2","3","1","2","5","2","4","4","5","5","0","0","-1","1","0","1","2","1","4","5","5","5","4","5","4","4","5","4","5","6","5","7","6","8","6","5","5","4","3","3","2","2","2","5","2","5","2","1","3","3","5","2","3","3","5","4","3","2","2","5","2","3","3","5","4","6","6","7","6","5","5","4","2","7","3","6","2","4","798932137372950529","李","563","Female","[""坏我"",""坏她"",""好她"",""好我""]","[""弱我"",""弱她"",""强她"",""强我""]","","","","","","","","{""Q01"":""5"",""Q02"":""2"",""Q03"":""4"",""Q04"":""4"",""Q05"":""5"",""Q06"":""5""}","[0,1,2,3,4,5]","[""Q01"",""Q02"",""Q03"",""Q04"",""Q05"",""Q06""]","[2256.309999997029,4224.770000000717,5520.4199999861885,7200.119999994058,8912.679999979446,12928.869999974268]","[]","[2256.309999997029,4224.770000000717,5520.4199999861885,7200.119999994058,8912.679999979446,10961.774999974295,12928.869999974268,13568.6299999943]","0.3333333333333333","0.6","0","","","","","","","","","","","","","","","","","","","","","","",""
"44793.70499998913","","{""Q01"":""0"",""Q02"":""0"",""Q03"":""-1"",""Q04"":""1"",""Q05"":""0"",""Q06"":""1"",""Q07"":""2"",""Q08"":""1""}","survey-template","7","162434","0.0-6.0","3","2","3","1","2","5","2","4","4","5","5","0","0","-1","1","0","1","2","1","4","5","5","5","4","5","4","4","5","4","5","6","5","7","6","8","6","5","5","4","3","3","2","2","2","5","2","5","2","1","3","3","5","2","3","3","5","4","3","2","2","5","2","3","3","5","4","6","6","7","6","5","5","4","2","7","3","6","2","4","798932137372950529","李","563","Female","[""坏我"",""坏她"",""好她"",""好我""]","[""弱我"",""弱她"",""强她"",""强我""]","","","","","","","","{""Q01"":""0"",""Q02"":""0"",""Q03"":""-1"",""Q04"":""1"",""Q05"":""0"",""Q06"":""1"",""Q07"":""2"",""Q08"":""1""}","[0,1,2,3,4,5,6,7]","[""Q01"",""Q02"",""Q03"",""Q04"",""Q05"",""Q06"",""Q07"",""Q08""]","[1948.9199999952689,3509.124999982305,33948.53999998304,37749.370000005,39116.970000002766,40399.19500000542,42012.229999993,43364.13000000175]","[]","[1948.9199999952689,3509.124999982305,33948.53999998304,37749.370000005,39116.970000002766,40399.19500000542,42012.229999993,43364.13000000175,44792.224999982864]","0.375","0.7142857142857143","0","","","","","","","","","","","","","","","","","","","","","","",""
"26269","
    <p><div style='color:white;font-size:35px; line-height:20px;'>词汇评估任务</div></p><br>
    <p><div style='color:white;font-size:25px; line-height:20px;'>请再次回忆该亲密的朋友，你们至少2年前就认识了，并且最近2年经常见面。</div></p>
    <p><div style='color:white;font-size:25px; line-height:20px;'>在本实验中，您将会看到一些形容词。</div></p>
    <p><div style='color:yellow;font-size:25px; line-height:20px;'>您的任务是判断这些形容词是否符合对您自己或您的朋友的描述。</div></p><p style='font-size:35px'>符合按<span style=""color:lightgreen""> j 键</span>，不符合按<span style=""color:red""> f 键</span></p>","0","html-button-response","8","188708","0.0-7.0-0.0","3","2","3","1","2","5","2","4","4","5","5","0","0","-1","1","0","1","2","1","4","5","5","5","4","5","4","4","5","4","5","6","5","7","6","8","6","5","5","4","3","3","2","2","2","5","2","5","2","1","3","3","5","2","3","3","5","4","3","2","2","5","2","3","3","5","4","6","6","7","6","5","5","4","2","7","3","6","2","4","798932137372950529","李","563","Female","[""坏我"",""坏她"",""好她"",""好我""]","[""弱我"",""弱她"",""强她"",""强我""]","","","","","","","","","","","","","","","","","SRET_EW","EW_instructions","Sun Jan 21 2024 17:16:05 GMT+0800 (中国标准时间)","","","","","","","","","","","","","","","","","","","",""
"260","","j","psychophysics","9","189973","0.0-7.0-1.0-0.0","3","2","3","1","2","5","2","4","4","5","5","0","0","-1","1","0","1","2","1","4","5","5","5","4","5","4","4","5","4","5","6","5","7","6","8","6","5","5","4","3","3","2","2","2","5","2","5","2","1","3","3","5","2","3","3","5","4","3","2","2","5","2","3","3","5","4","6","6","7","6","5","5","4","2","7","3","6","2","4","798932137372950529","李","563","Female","[""坏我"",""坏她"",""好她"",""好我""]","[""弱我"",""弱她"",""强她"",""强我""]","","","","","","","","yes","","","","","","","","","SRET_EW","EW_practice","","key","j","16.671746666666586","853.3333333333334","476","自己","严谨","Positive","ability","","","","","","","","","","",""
"631","","f","psychophysics","10","191605","0.0-7.0-1.0-0.1","3","2","3","1","2","5","2","4","4","5","5","0","0","-1","1","0","1","2","1","4","5","5","5","4","5","4","4","5","4","5","6","5","7","6","8","6","5","5","4","3","3","2","2","2","5","2","5","2","1","3","3","5","2","3","3","5","4","3","2","2","5","2","3","3","5","4","6","6","7","6","5","5","4","2","7","3","6","2","4","798932137372950529","李","563","Female","[""坏我"",""坏她"",""好她"",""好我""]","[""弱我"",""弱她"",""强她"",""强我""]","","","","","","","","no","","","","","","","","","SRET_EW","EW_practice","","key","f","16.67587628866007","853.3333333333334","476","自己","刻板","Negative","ability","","","","","","","","","","",""
"652","","j","psychophysics","11","193258","0.0-7.0-1.0-0.2","3","2","3","1","2","5","2","4","4","5","5","0","0","-1","1","0","1","2","1","4","5","5","5","4","5","4","4","5","4","5","6","5","7","6","8","6","5","5","4","3","3","2","2","2","5","2","5","2","1","3","3","5","2","3","3","5","4","3","2","2","5","2","3","3","5","4","6","6","7","6","5","5","4","2","7","3","6","2","4","798932137372950529","李","563","Female","[""坏我"",""坏她"",""好她"",""好我""]","[""弱我"",""弱她"",""强她"",""强我""]","","","","","","","","yes","","","","","","","","","SRET_EW","EW_practice","","key","j","16.670530612244892","853.3333333333334","476","朋友","徇私","Negative","morality","","","","","","","","","","",""
"591","","j","psychophysics","12","194854","0.0-7.0-1.0-0.3","3","2","3","1","2","5","2","4","4","5","5","0","0","-1","1","0","1","2","1","4","5","5","5","4","5","4","4","5","4","5","6","5","7","6","8","6","5","5","4","3","3","2","2","2","5","2","5","2","1","3","3","5","2","3","3","5","4","3","2","2","5","2","3","3","5","4","6","6","7","6","5","5","4","2","7","3","6","2","4","798932137372950529","李","563","Female","[""坏我"",""坏她"",""好她"",""好我""]","[""弱我"",""弱她"",""强她"",""强我""]","","","","","","","","yes","","","","","","","","","SRET_EW","EW_practice","","key","j","16.671768421052626","853.3333333333334","476","朋友","忠实","Positive","morality","","","","","","","","","","",""
"55578","
    <p><div style='color:white;font-size:35px; line-height:20px;'>请您再次阅读实验要求</div></p><br>
    <p><div style='color:white;font-size:25px; line-height:20px;'>请回忆某一个亲密的朋友，你们至少2年前就认识了，并且最近2年经常见面。</div></p>
    <p><div style='color:white;font-size:25px; line-height:20px;'>在本实验中，您将会看到一些形容词。</div></p>
    <p><div style='color:yellow;font-size:25px; line-height:20px;'>您的任务是判断这些形容词是否符合对您自己或您的朋友的描述。</div></p>
    <p><div class='footer' style='font-size:25px; line-height:20px;'>如果对本实验还有不清楚之处，请立即向实验员咨询。</p><p style='font-size:25px; line-height:20px;'>如果您明白了规则：</p><p style='font-size:22px; line-height:20px;'>请按 继续 进入正式实验</p>
    </div>
    <p style='font-size:35px'>符合按<span style=""color:lightgreen""> j 键</span>，不符合按<span style=""color:red""> f 键</span></p>","0","html-button-response","13","250436","0.0-7.0-2.0","3","2","3","1","2","5","2","4","4","5","5","0","0","-1","1","0","1","2","1","4","5","5","5","4","5","4","4","5","4","5","6","5","7","6","8","6","5","5","4","3","3","2","2","2","5","2","5","2","1","3","3","5","2","3","3","5","4","3","2","2","5","2","3","3","5","4","6","6","7","6","5","5","4","2","7","3","6","2","4","798932137372950529","李","563","Female","[""坏我"",""坏她"",""好她"",""好我""]","[""弱我"",""弱她"",""强她"",""强我""]","","","","","","","","","","","","","","","","","SRET_EW","prac_instructions","Sun Jan 21 2024 17:16:05 GMT+0800 (中国标准时间)","","","","","","","","","","","","","","","","","","","",""
"662","","j","psychophysics","14","252101","0.0-7.0-3.0-0.0","3","2","3","1","2","5","2","4","4","5","5","0","0","-1","1","0","1","2","1","4","5","5","5","4","5","4","4","5","4","5","6","5","7","6","8","6","5","5","4","3","3","2","2","2","5","2","5","2","1","3","3","5","2","3","3","5","4","3","2","2","5","2","3","3","5","4","6","6","7","6","5","5","4","2","7","3","6","2","4","798932137372950529","李","563","Female","[""坏我"",""坏她"",""好她"",""好我""]","[""弱我"",""弱她"",""强她"",""强我""]","","","","","","","","yes","","","","","","","","","SRET","EW_formal","","key","j","16.839909090909217","853.3333333333334","476","朋友","务实","Positive","ability","","","","","","","","","","",""
"646","","j","psychophysics","15","253751","0.0-7.0-3.0-0.1","3","2","3","1","2","5","2","4","4","5","5","0","0","-1","1","0","1","2","1","4","5","5","5","4","5","4","4","5","4","5","6","5","7","6","8","6","5","5","4","3","3","2","2","2","5","2","5","2","1","3","3","5","2","3","3","5","4","3","2","2","5","2","3","3","5","4","6","6","7","6","5","5","4","2","7","3","6","2","4","798932137372950529","李","563","Female","[""坏我"",""坏她"",""好她"",""好我""]","[""弱我"",""弱她"",""强她"",""强我""]","","","","","","","","yes","","","","","","","","","SRET","EW_formal","","key","j","16.670540816326714","853.3333333333334","476","自己","坚贞","Positive","morality","","","","","","","","","","",""
"789","","f","psychophysics","16","255541","0.0-7.0-3.0-0.2","3","2","3","1","2","5","2","4","4","5","5","0","0","-1","1","0","1","2","1","4","5","5","5","4","5","4","4","5","4","5","6","5","7","6","8","6","5","5","4","3","3","2","2","2","5","2","5","2","1","3","3","5","2","3","3","5","4","3","2","2","5","2","3","3","5","4","6","6","7","6","5","5","4","2","7","3","6","2","4","798932137372950529","李","563","Female","[""坏我"",""坏她"",""好她"",""好我""]","[""弱我"",""弱她"",""强她"",""强我""]","","","","","","","","no","","","","","","","","","SRET","EW_formal","","key","f","16.69988679245278","853.3333333333334","476","自己","说谎","Negative","morality","","","","","","","","","","",""
"1103","","f","psychophysics","17","257648","0.0-7.0-3.0-0.3","3","2","3","1","2","5","2","4","4","5","5","0","0","-1","1","0","1","2","1","4","5","5","5","4","5","4","4","5","4","5","6","5","7","6","8","6","5","5","4","3","3","2","2","2","5","2","5","2","1","3","3","5","2","3","3","5","4","3","2","2","5","2","3","3","5","4","6","6","7","6","5","5","4","2","7","3","6","2","4","798932137372950529","李","563","Female","[""坏我"",""坏她"",""好她"",""好我""]","[""弱我"",""弱她"",""强她"",""强我""]","","","","","","","","no","","","","","","","","","SRET","EW_formal","","key","f","16.774792000000133","853.3333333333334","476","朋友","迷糊","Negative","ability","","","","","","","","","","",""
"1031","","j","psychophysics","18","259692","0.0-7.0-3.0-0.4","3","2","3","1","2","5","2","4","4","5","5","0","0","-1","1","0","1","2","1","4","5","5","5","4","5","4","4","5","4","5","6","5","7","6","8","6","5","5","4","3","3","2","2","2","5","2","5","2","1","3","3","5","2","3","3","5","4","3","2","2","5","2","3","3","5","4","6","6","7","6","5","5","4","2","7","3","6","2","4","798932137372950529","李","563","Female","[""坏我"",""坏她"",""好她"",""好我""]","[""弱我"",""弱她"",""强她"",""强我""]","","","","","","","","yes","","","","","","","","","SRET","EW_formal","","key","j","16.68221487603314","853.3333333333334","476","朋友","文明","Positive","morality","","","","","","","","","","",""
"697","","f","psychophysics","19","261392","0.0-7.0-3.0-0.5","3","2","3","1","2","5","2","4","4","5","5","0","0","-1","1","0","1","2","1","4","5","5","5","4","5","4","4","5","4","5","6","5","7","6","8","6","5","5","4","3","3","2","2","2","5","2","5","2","1","3","3","5","2","3","3","5","4","3","2","2","5","2","3","3","5","4","6","6","7","6","5","5","4","2","7","3","6","2","4","798932137372950529","李","563","Female","[""坏我"",""坏她"",""好她"",""好我""]","[""弱我"",""弱她"",""强她"",""强我""]","","","","","","","","no","","","","","","","","","SRET","EW_formal","","key","f","16.639524752475","853.3333333333334","476","朋友","笨蛋","Negative","ability","","","","","","","","","","",""
"885","","j","psychophysics","20","263280","0.0-7.0-3.0-0.6","3","2","3","1","2","5","2","4","4","5","5","0","0","-1","1","0","1","2","1","4","5","5","5","4","5","4","4","5","4","5","6","5","7","6","8","6","5","5","4","3","3","2","2","2","5","2","5","2","1","3","3","5","2","3","3","5","4","3","2","2","5","2","3","3","5","4","6","6","7","6","5","5","4","2","7","3","6","2","4","798932137372950529","李","563","Female","[""坏我"",""坏她"",""好她"",""好我""]","[""弱我"",""弱她"",""强她"",""强我""]","","","","","","","","yes","","","","","","","","","SRET","EW_formal","","key","j","16.672716814159227","853.3333333333334","476","自己","学霸","Positive","ability","","","","","","","","","","",""
"909","","j","psychophysics","21","265192","0.0-7.0-3.0-0.7","3","2","3","1","2","5","2","4","4","5","5","0","0","-1","1","0","1","2","1","4","5","5","5","4","5","4","4","5","4","5","6","5","7","6","8","6","5","5","4","3","3","2","2","2","5","2","5","2","1","3","3","5","2","3","3","5","4","3","2","2","5","2","3","3","5","4","6","6","7","6","5","5","4","2","7","3","6","2","4","798932137372950529","李","563","Female","[""坏我"",""坏她"",""好她"",""好我""]","[""弱我"",""弱她"",""强她"",""强我""]","","","","","","","","yes","","","","","","","","","SRET","EW_formal","","key","j","16.671955752212234","853.3333333333334","476","自己","礼貌","Positive","morality","","","","","","","","","","",""
"582","","j","psychophysics","22","266776","0.0-7.0-3.0-0.8","3","2","3","1","2","5","2","4","4","5","5","0","0","-1","1","0","1","2","1","4","5","5","5","4","5","4","4","5","4","5","6","5","7","6","8","6","5","5","4","3","3","2","2","2","5","2","5","2","1","3","3","5","2","3","3","5","4","3","2","2","5","2","3","3","5","4","6","6","7","6","5","5","4","2","7","3","6","2","4","798932137372950529","李","563","Female","[""坏我"",""坏她"",""好她"",""好我""]","[""弱我"",""弱她"",""强她"",""强我""]","","","","","","","","yes","","","","","","","","","SRET","EW_formal","","key","j","16.670478723404504","853.3333333333334","476","朋友","专注","Positive","ability","","","","","","","","","","",""
"737","","f","psychophysics","23","268516","0.0-7.0-3.0-0.9","3","2","3","1","2","5","2","4","4","5","5","0","0","-1","1","0","1","2","1","4","5","5","5","4","5","4","4","5","4","5","6","5","7","6","8","6","5","5","4","3","3","2","2","2","5","2","5","2","1","3","3","5","2","3","3","5","4","3","2","2","5","2","3","3","5","4","6","6","7","6","5","5","4","2","7","3","6","2","4","798932137372950529","李","563","Female","[""坏我"",""坏她"",""好她"",""好我""]","[""弱我"",""弱她"",""强她"",""强我""]","","","","","","","","no","","","","","","","","","SRET","EW_formal","","key","f","16.675826923076574","853.3333333333334","476","朋友","窝囊","Negative","ability","","","","","","","","","","",""
"860","","j","psychophysics","24","270378","0.0-7.0-3.0-0.10","3","2","3","1","2","5","2","4","4","5","5","0","0","-1","1","0","1","2","1","4","5","5","5","4","5","4","4","5","4","5","6","5","7","6","8","6","5","5","4","3","3","2","2","2","5","2","5","2","1","3","3","5","2","3","3","5","4","3","2","2","5","2","3","3","5","4","6","6","7","6","5","5","4","2","7","3","6","2","4","798932137372950529","李","563","Female","[""坏我"",""坏她"",""好她"",""好我""]","[""弱我"",""弱她"",""强她"",""强我""]","","","","","","","","yes","","","","","","","","","SRET","EW_formal","","key","j","16.670354545454558","853.3333333333334","476","朋友","仁厚","Positive","morality","","","","","","","","","","",""
"619","","f","psychophysics","25","272002","0.0-7.0-3.0-0.11","3","2","3","1","2","5","2","4","4","5","5","0","0","-1","1","0","1","2","1","4","5","5","5","4","5","4","4","5","4","5","6","5","7","6","8","6","5","5","4","3","3","2","2","2","5","2","5","2","1","3","3","5","2","3","3","5","4","3","2","2","5","2","3","3","5","4","6","6","7","6","5","5","4","2","7","3","6","2","4","798932137372950529","李","563","Female","[""坏我"",""坏她"",""好她"",""好我""]","[""弱我"",""弱她"",""强她"",""强我""]","","","","","","","","no","","","","","","","","","SRET","EW_formal","","key","f","16.669329896907097","853.3333333333334","476","朋友","奸诈","Negative","morality","","","","","","","","","","",""
"1080","","f","psychophysics","26","274084","0.0-7.0-3.0-0.12","3","2","3","1","2","5","2","4","4","5","5","0","0","-1","1","0","1","2","1","4","5","5","5","4","5","4","4","5","4","5","6","5","7","6","8","6","5","5","4","3","3","2","2","2","5","2","5","2","1","3","3","5","2","3","3","5","4","3","2","2","5","2","3","3","5","4","6","6","7","6","5","5","4","2","7","3","6","2","4","798932137372950529","李","563","Female","[""坏我"",""坏她"",""好她"",""好我""]","[""弱我"",""弱她"",""强她"",""强我""]","","","","","","","","no","","","","","","","","","SRET","EW_formal","","key","f","16.67034677419372","853.3333333333334","476","自己","势利","Negative","morality","","","","","","","","","","",""
"745","","j","psychophysics","27","275834","0.0-7.0-3.0-0.13","3","2","3","1","2","5","2","4","4","5","5","0","0","-1","1","0","1","2","1","4","5","5","5","4","5","4","4","5","4","5","6","5","7","6","8","6","5","5","4","3","3","2","2","2","5","2","5","2","1","3","3","5","2","3","3","5","4","3","2","2","5","2","3","3","5","4","6","6","7","6","5","5","4","2","7","3","6","2","4","798932137372950529","李","563","Female","[""坏我"",""坏她"",""好她"",""好我""]","[""弱我"",""弱她"",""强她"",""强我""]","","","","","","","","yes","","","","","","","","","SRET","EW_formal","","key","j","16.67119417475758","853.3333333333334","476","自己","善心","Positive","morality","","","","","","","","","","",""
"715","","j","psychophysics","28","277552","0.0-7.0-3.0-0.14","3","2","3","1","2","5","2","4","4","5","5","0","0","-1","1","0","1","2","1","4","5","5","5","4","5","4","4","5","4","5","6","5","7","6","8","6","5","5","4","3","3","2","2","2","5","2","5","2","1","3","3","5","2","3","3","5","4","3","2","2","5","2","3","3","5","4","6","6","7","6","5","5","4","2","7","3","6","2","4","798932137372950529","李","563","Female","[""坏我"",""坏她"",""好她"",""好我""]","[""弱我"",""弱她"",""强她"",""强我""]","","","","","","","","yes","","","","","","","","","SRET","EW_formal","","key","j","16.67049514563094","853.3333333333334","476","自己","努力","Positive","ability","","","","","","","","","","",""
"924","","f","psychophysics","29","279478","0.0-7.0-3.0-0.15","3","2","3","1","2","5","2","4","4","5","5","0","0","-1","1","0","1","2","1","4","5","5","5","4","5","4","4","5","4","5","6","5","7","6","8","6","5","5","4","3","3","2","2","2","5","2","5","2","1","3","3","5","2","3","3","5","4","3","2","2","5","2","3","3","5","4","6","6","7","6","5","5","4","2","7","3","6","2","4","798932137372950529","李","563","Female","[""坏我"",""坏她"",""好她"",""好我""]","[""弱我"",""弱她"",""强她"",""强我""]","","","","","","","","no","","","","","","","","","SRET","EW_formal","","key","f","16.670429824561435","853.3333333333334","476","朋友","偏私","Negative","morality","","","","","","","","","","",""
"1125","","f","psychophysics","30","281604","0.0-7.0-3.0-0.16","3","2","3","1","2","5","2","4","4","5","5","0","0","-1","1","0","1","2","1","4","5","5","5","4","5","4","4","5","4","5","6","5","7","6","8","6","5","5","4","3","3","2","2","2","5","2","5","2","1","3","3","5","2","3","3","5","4","3","2","2","5","2","3","3","5","4","6","6","7","6","5","5","4","2","7","3","6","2","4","798932137372950529","李","563","Female","[""坏我"",""坏她"",""好她"",""好我""]","[""弱我"",""弱她"",""强她"",""强我""]","","","","","","","","no","","","","","","","","","SRET","EW_formal","","key","f","16.67201574803165","853.3333333333334","476","自己","短浅","Negative","ability","","","","","","","","","","",""
"614","","f","psychophysics","31","283221","0.0-7.0-3.0-0.17","3","2","3","1","2","5","2","4","4","5","5","0","0","-1","1","0","1","2","1","4","5","5","5","4","5","4","4","5","4","5","6","5","7","6","8","6","5","5","4","3","3","2","2","2","5","2","5","2","1","3","3","5","2","3","3","5","4","3","2","2","5","2","3","3","5","4","6","6","7","6","5","5","4","2","7","3","6","2","4","798932137372950529","李","563","Female","[""坏我"",""坏她"",""好她"",""好我""]","[""弱我"",""弱她"",""强她"",""强我""]","","","","","","","","no","","","","","","","","","SRET","EW_formal","","key","f","16.669874999999593","853.3333333333334","476","朋友","自私","Negative","morality","","","","","","","","","","",""
"749","","j","psychophysics","32","284972","0.0-7.0-3.0-0.18","3","2","3","1","2","5","2","4","4","5","5","0","0","-1","1","0","1","2","1","4","5","5","5","4","5","4","4","5","4","5","6","5","7","6","8","6","5","5","4","3","3","2","2","2","5","2","5","2","1","3","3","5","2","3","3","5","4","3","2","2","5","2","3","3","5","4","6","6","7","6","5","5","4","2","7","3","6","2","4","798932137372950529","李","563","Female","[""坏我"",""坏她"",""好她"",""好我""]","[""弱我"",""弱她"",""强她"",""强我""]","","","","","","","","yes","","","","","","","","","SRET","EW_formal","","key","j","16.671230769230952","853.3333333333334","476","自己","清廉","Positive","morality","","","","","","","","","","",""
"621","","f","psychophysics","33","286595","0.0-7.0-3.0-0.19","3","2","3","1","2","5","2","4","4","5","5","0","0","-1","1","0","1","2","1","4","5","5","5","4","5","4","4","5","4","5","6","5","7","6","8","6","5","5","4","3","3","2","2","2","5","2","5","2","1","3","3","5","2","3","3","5","4","3","2","2","5","2","3","3","5","4","6","6","7","6","5","5","4","2","7","3","6","2","4","798932137372950529","李","563","Female","[""坏我"",""坏她"",""好她"",""好我""]","[""弱我"",""弱她"",""强她"",""强我""]","","","","","","","","no","","","","","","","","","SRET","EW_formal","","key","f","16.671375000000506","853.3333333333334","476","朋友","背叛","Negative","morality","","","","","","","","","","",""
"656","","f","psychophysics","34","288254","0.0-7.0-3.0-0.20","3","2","3","1","2","5","2","4","4","5","5","0","0","-1","1","0","1","2","1","4","5","5","5","4","5","4","4","5","4","5","6","5","7","6","8","6","5","5","4","3","3","2","2","2","5","2","5","2","1","3","3","5","2","3","3","5","4","3","2","2","5","2","3","3","5","4","6","6","7","6","5","5","4","2","7","3","6","2","4","798932137372950529","李","563","Female","[""坏我"",""坏她"",""好她"",""好我""]","[""弱我"",""弱她"",""强她"",""强我""]","","","","","","","","no","","","","","","","","","SRET","EW_formal","","key","f","16.67105050505059","853.3333333333334","476","朋友","盲目","Negative","ability","","","","","","","","","","",""
"750","","j","psychophysics","35","290006","0.0-7.0-3.0-0.21","3","2","3","1","2","5","2","4","4","5","5","0","0","-1","1","0","1","2","1","4","5","5","5","4","5","4","4","5","4","5","6","5","7","6","8","6","5","5","4","3","3","2","2","2","5","2","5","2","1","3","3","5","2","3","3","5","4","3","2","2","5","2","3","3","5","4","6","6","7","6","5","5","4","2","7","3","6","2","4","798932137372950529","李","563","Female","[""坏我"",""坏她"",""好她"",""好我""]","[""弱我"",""弱她"",""强她"",""强我""]","","","","","","","","yes","","","","","","","","","SRET","EW_formal","","key","j","16.67137499999976","853.3333333333334","476","自己","变通","Positive","ability","","","","","","","","","","",""
"641","","j","psychophysics","36","291650","0.0-7.0-3.0-0.22","3","2","3","1","2","5","2","4","4","5","5","0","0","-1","1","0","1","2","1","4","5","5","5","4","5","4","4","5","4","5","6","5","7","6","8","6","5","5","4","3","3","2","2","2","5","2","5","2","1","3","3","5","2","3","3","5","4","3","2","2","5","2","3","3","5","4","6","6","7","6","5","5","4","2","7","3","6","2","4","798932137372950529","李","563","Female","[""坏我"",""坏她"",""好她"",""好我""]","[""弱我"",""弱她"",""强她"",""强我""]","","","","","","","","yes","","","","","","","","","SRET","EW_formal","","key","j","16.670432989690788","853.3333333333334","476","自己","周到","Positive","ability","","","","","","","","","","",""
"1388","","f","psychophysics","37","294040","0.0-7.0-3.0-0.23","3","2","3","1","2","5","2","4","4","5","5","0","0","-1","1","0","1","2","1","4","5","5","5","4","5","4","4","5","4","5","6","5","7","6","8","6","5","5","4","3","3","2","2","2","5","2","5","2","1","3","3","5","2","3","3","5","4","3","2","2","5","2","3","3","5","4","6","6","7","6","5","5","4","2","7","3","6","2","4","798932137372950529","李","563","Female","[""坏我"",""坏她"",""好她"",""好我""]","[""弱我"",""弱她"",""强她"",""强我""]","","","","","","","","no","","","","","","","","","SRET","EW_formal","","key","f","16.671517482517494","853.3333333333334","476","朋友","无能","Negative","ability","","","","","","","","","","",""
"884","","f","psychophysics","38","295925","0.0-7.0-3.0-0.24","3","2","3","1","2","5","2","4","4","5","5","0","0","-1","1","0","1","2","1","4","5","5","5","4","5","4","4","5","4","5","6","5","7","6","8","6","5","5","4","3","3","2","2","2","5","2","5","2","1","3","3","5","2","3","3","5","4","3","2","2","5","2","3","3","5","4","6","6","7","6","5","5","4","2","7","3","6","2","4","798932137372950529","李","563","Female","[""坏我"",""坏她"",""好她"",""好我""]","[""弱我"",""弱她"",""强她"",""强我""]","","","","","","","","no","","","","","","","","","SRET","EW_formal","","key","f","16.821144144144117","853.3333333333334","476","自己","伪善","Negative","morality","","","","","","","","","","",""
"1382","","j","psychophysics","39","298312","0.0-7.0-3.0-0.25","3","2","3","1","2","5","2","4","4","5","5","0","0","-1","1","0","1","2","1","4","5","5","5","4","5","4","4","5","4","5","6","5","7","6","8","6","5","5","4","3","3","2","2","2","5","2","5","2","1","3","3","5","2","3","3","5","4","3","2","2","5","2","3","3","5","4","6","6","7","6","5","5","4","2","7","3","6","2","4","798932137372950529","李","563","Female","[""坏我"",""坏她"",""好她"",""好我""]","[""弱我"",""弱她"",""强她"",""强我""]","","","","","","","","yes","","","","","","","","","SRET","EW_formal","","key","j","16.670887323943685","853.3333333333334","476","自己","高明","Positive","ability","","","","","","","","","","",""
"1101","","j","psychophysics","40","300414","0.0-7.0-3.0-0.26","3","2","3","1","2","5","2","4","4","5","5","0","0","-1","1","0","1","2","1","4","5","5","5","4","5","4","4","5","4","5","6","5","7","6","8","6","5","5","4","3","3","2","2","2","5","2","5","2","1","3","3","5","2","3","3","5","4","3","2","2","5","2","3","3","5","4","6","6","7","6","5","5","4","2","7","3","6","2","4","798932137372950529","李","563","Female","[""坏我"",""坏她"",""好她"",""好我""]","[""弱我"",""弱她"",""强她"",""强我""]","","","","","","","","yes","","","","","","","","","SRET","EW_formal","","key","j","16.67152000000002","853.3333333333334","476","自己","忠勇","Positive","morality","","","","","","","","","","",""
"1055","","f","psychophysics","41","302472","0.0-7.0-3.0-0.27","3","2","3","1","2","5","2","4","4","5","5","0","0","-1","1","0","1","2","1","4","5","5","5","4","5","4","4","5","4","5","6","5","7","6","8","6","5","5","4","3","3","2","2","2","5","2","5","2","1","3","3","5","2","3","3","5","4","3","2","2","5","2","3","3","5","4","6","6","7","6","5","5","4","2","7","3","6","2","4","798932137372950529","李","563","Female","[""坏我"",""坏她"",""好她"",""好我""]","[""弱我"",""弱她"",""强她"",""强我""]","","","","","","","","no","","","","","","","","","SRET","EW_formal","","key","f","16.670796747967728","853.3333333333334","476","朋友","狡诈","Negative","morality","","","","","","","","","","",""
"1195","","f","psychophysics","42","304668","0.0-7.0-3.0-0.28","3","2","3","1","2","5","2","4","4","5","5","0","0","-1","1","0","1","2","1","4","5","5","5","4","5","4","4","5","4","5","6","5","7","6","8","6","5","5","4","3","3","2","2","2","5","2","5","2","1","3","3","5","2","3","3","5","4","3","2","2","5","2","3","3","5","4","6","6","7","6","5","5","4","2","7","3","6","2","4","798932137372950529","李","563","Female","[""坏我"",""坏她"",""好她"",""好我""]","[""弱我"",""弱她"",""强她"",""强我""]","","","","","","","","no","","","","","","","","","SRET","EW_formal","","key","f","16.670907692307644","853.3333333333334","476","自己","愚蠢","Negative","ability","","","","","","","","","","",""
"740","","j","psychophysics","43","306412","0.0-7.0-3.0-0.29","3","2","3","1","2","5","2","4","4","5","5","0","0","-1","1","0","1","2","1","4","5","5","5","4","5","4","4","5","4","5","6","5","7","6","8","6","5","5","4","3","3","2","2","2","5","2","5","2","1","3","3","5","2","3","3","5","4","3","2","2","5","2","3","3","5","4","6","6","7","6","5","5","4","2","7","3","6","2","4","798932137372950529","李","563","Female","[""坏我"",""坏她"",""好她"",""好我""]","[""弱我"",""弱她"",""强她"",""强我""]","","","","","","","","yes","","","","","","","","","SRET","EW_formal","","key","j","16.671153846153736","853.3333333333334","476","自己","忠义","Positive","morality","","","","","","","","","","",""
"1001","","j","psychophysics","44","308414","0.0-7.0-3.0-0.30","3","2","3","1","2","5","2","4","4","5","5","0","0","-1","1","0","1","2","1","4","5","5","5","4","5","4","4","5","4","5","6","5","7","6","8","6","5","5","4","3","3","2","2","2","5","2","5","2","1","3","3","5","2","3","3","5","4","3","2","2","5","2","3","3","5","4","6","6","7","6","5","5","4","2","7","3","6","2","4","798932137372950529","李","563","Female","[""坏我"",""坏她"",""好她"",""好我""]","[""弱我"",""弱她"",""强她"",""强我""]","","","","","","","","yes","","","","","","","","","SRET","EW_formal","","key","j","16.67142857142828","853.3333333333334","476","朋友","忠良","Positive","morality","","","","","","","","","","",""
"1292","","j","psychophysics","45","310708","0.0-7.0-3.0-0.31","3","2","3","1","2","5","2","4","4","5","5","0","0","-1","1","0","1","2","1","4","5","5","5","4","5","4","4","5","4","5","6","5","7","6","8","6","5","5","4","3","3","2","2","2","5","2","5","2","1","3","3","5","2","3","3","5","4","3","2","2","5","2","3","3","5","4","6","6","7","6","5","5","4","2","7","3","6","2","4","798932137372950529","李","563","Female","[""坏我"",""坏她"",""好她"",""好我""]","[""弱我"",""弱她"",""强她"",""强我""]","","","","","","","","yes","","","","","","","","","SRET","EW_formal","","key","j","16.671248175182132","853.3333333333334","476","自己","君子","Positive","morality","","","","","","","","","","",""
"1652","","j","psychophysics","46","313363","0.0-7.0-3.0-0.32","3","2","3","1","2","5","2","4","4","5","5","0","0","-1","1","0","1","2","1","4","5","5","5","4","5","4","4","5","4","5","6","5","7","6","8","6","5","5","4","3","3","2","2","2","5","2","5","2","1","3","3","5","2","3","3","5","4","3","2","2","5","2","3","3","5","4","6","6","7","6","5","5","4","2","7","3","6","2","4","798932137372950529","李","563","Female","[""坏我"",""坏她"",""好她"",""好我""]","[""弱我"",""弱她"",""强她"",""强我""]","","","","","","","","yes","","","","","","","","","SRET","EW_formal","","key","j","16.67114556962005","853.3333333333334","476","自己","敏捷","Positive","ability","","","","","","","","","","",""
"568","","j","psychophysics","47","314934","0.0-7.0-3.0-0.33","3","2","3","1","2","5","2","4","4","5","5","0","0","-1","1","0","1","2","1","4","5","5","5","4","5","4","4","5","4","5","6","5","7","6","8","6","5","5","4","3","3","2","2","2","5","2","5","2","1","3","3","5","2","3","3","5","4","3","2","2","5","2","3","3","5","4","6","6","7","6","5","5","4","2","7","3","6","2","4","798932137372950529","李","563","Female","[""坏我"",""坏她"",""好她"",""好我""]","[""弱我"",""弱她"",""强她"",""强我""]","","","","","","","","yes","","","","","","","","","SRET","EW_formal","","key","j","16.671279569892512","853.3333333333334","476","朋友","勤奋","Positive","ability","","","","","","","","","","",""
"574","","j","psychophysics","48","316511","0.0-7.0-3.0-0.34","3","2","3","1","2","5","2","4","4","5","5","0","0","-1","1","0","1","2","1","4","5","5","5","4","5","4","4","5","4","5","6","5","7","6","8","6","5","5","4","3","3","2","2","2","5","2","5","2","1","3","3","5","2","3","3","5","4","3","2","2","5","2","3","3","5","4","6","6","7","6","5","5","4","2","7","3","6","2","4","798932137372950529","李","563","Female","[""坏我"",""坏她"",""好她"",""好我""]","[""弱我"",""弱她"",""强她"",""强我""]","","","","","","","","yes","","","","","","","","","SRET","EW_formal","","key","j","16.6711170212762","853.3333333333334","476","朋友","精干","Positive","ability","","","","","","","","","","",""
"861","","j","psychophysics","49","318375","0.0-7.0-3.0-0.35","3","2","3","1","2","5","2","4","4","5","5","0","0","-1","1","0","1","2","1","4","5","5","5","4","5","4","4","5","4","5","6","5","7","6","8","6","5","5","4","3","3","2","2","2","5","2","5","2","1","3","3","5","2","3","3","5","4","3","2","2","5","2","3","3","5","4","6","6","7","6","5","5","4","2","7","3","6","2","4","798932137372950529","李","563","Female","[""坏我"",""坏她"",""好她"",""好我""]","[""弱我"",""弱她"",""强她"",""强我""]","","","","","","","","yes","","","","","","","","","SRET","EW_formal","","key","j","16.670999999999978","853.3333333333334","476","朋友","谦逊","Positive","morality","","","","","","","","","","",""
"836","","j","psychophysics","50","320213","0.0-7.0-3.0-0.36","3","2","3","1","2","5","2","4","4","5","5","0","0","-1","1","0","1","2","1","4","5","5","5","4","5","4","4","5","4","5","6","5","7","6","8","6","5","5","4","3","3","2","2","2","5","2","5","2","1","3","3","5","2","3","3","5","4","3","2","2","5","2","3","3","5","4","6","6","7","6","5","5","4","2","7","3","6","2","4","798932137372950529","李","563","Female","[""坏我"",""坏她"",""好她"",""好我""]","[""弱我"",""弱她"",""强她"",""强我""]","","","","","","","","yes","","","","","","","","","SRET","EW_formal","","key","j","16.671118181817953","853.3333333333334","476","自己","博学","Positive","ability","","","","","","","","","","",""
"1509","","f","psychophysics","51","322725","0.0-7.0-3.0-0.37","3","2","3","1","2","5","2","4","4","5","5","0","0","-1","1","0","1","2","1","4","5","5","5","4","5","4","4","5","4","5","6","5","7","6","8","6","5","5","4","3","3","2","2","2","5","2","5","2","1","3","3","5","2","3","3","5","4","3","2","2","5","2","3","3","5","4","6","6","7","6","5","5","4","2","7","3","6","2","4","798932137372950529","李","563","Female","[""坏我"",""坏她"",""好她"",""好我""]","[""弱我"",""弱她"",""强她"",""强我""]","","","","","","","","no","","","","","","","","","SRET","EW_formal","","key","f","16.670798657718272","853.3333333333334","476","自己","驽钝","Negative","ability","","","","","","","","","","",""
"909","","f","psychophysics","52","324636","0.0-7.0-3.0-0.38","3","2","3","1","2","5","2","4","4","5","5","0","0","-1","1","0","1","2","1","4","5","5","5","4","5","4","4","5","4","5","6","5","7","6","8","6","5","5","4","3","3","2","2","2","5","2","5","2","1","3","3","5","2","3","3","5","4","3","2","2","5","2","3","3","5","4","6","6","7","6","5","5","4","2","7","3","6","2","4","798932137372950529","李","563","Female","[""坏我"",""坏她"",""好她"",""好我""]","[""弱我"",""弱她"",""强她"",""强我""]","","","","","","","","no","","","","","","","","","SRET","EW_formal","","key","f","16.67108771929838","853.3333333333334","476","自己","畏难","Negative","ability","","","","","","","","","","",""
"700","","j","psychophysics","53","326337","0.0-7.0-3.0-0.39","3","2","3","1","2","5","2","4","4","5","5","0","0","-1","1","0","1","2","1","4","5","5","5","4","5","4","4","5","4","5","6","5","7","6","8","6","5","5","4","3","3","2","2","2","5","2","5","2","1","3","3","5","2","3","3","5","4","3","2","2","5","2","3","3","5","4","6","6","7","6","5","5","4","2","7","3","6","2","4","798932137372950529","李","563","Female","[""坏我"",""坏她"",""好她"",""好我""]","[""弱我"",""弱她"",""强她"",""强我""]","","","","","","","","yes","","","","","","","","","SRET","EW_formal","","key","j","16.83844999999972","853.3333333333334","476","自己","仁爱","Positive","morality","","","","","","","","","","",""
"736","","j","psychophysics","54","328077","0.0-7.0-3.0-0.40","3","2","3","1","2","5","2","4","4","5","5","0","0","-1","1","0","1","2","1","4","5","5","5","4","5","4","4","5","4","5","6","5","7","6","8","6","5","5","4","3","3","2","2","2","5","2","5","2","1","3","3","5","2","3","3","5","4","3","2","2","5","2","3","3","5","4","6","6","7","6","5","5","4","2","7","3","6","2","4","798932137372950529","李","563","Female","[""坏我"",""坏她"",""好她"",""好我""]","[""弱我"",""弱她"",""强她"",""强我""]","","","","","","","","yes","","","","","","","","","SRET","EW_formal","","key","j","16.671165048543735","853.3333333333334","476","朋友","仗义","Positive","morality","","","","","","","","","","",""
"1301","","f","psychophysics","55","330382","0.0-7.0-3.0-0.41","3","2","3","1","2","5","2","4","4","5","5","0","0","-1","1","0","1","2","1","4","5","5","5","4","5","4","4","5","4","5","6","5","7","6","8","6","5","5","4","3","3","2","2","2","5","2","5","2","1","3","3","5","2","3","3","5","4","3","2","2","5","2","3","3","5","4","6","6","7","6","5","5","4","2","7","3","6","2","4","798932137372950529","李","563","Female","[""坏我"",""坏她"",""好她"",""好我""]","[""弱我"",""弱她"",""强她"",""强我""]","","","","","","","","no","","","","","","","","","SRET","EW_formal","","key","f","16.67070289855052","853.3333333333334","476","自己","无耻","Negative","morality","","","","","","","","","","",""
"1424","","f","psychophysics","56","332808","0.0-7.0-3.0-0.42","3","2","3","1","2","5","2","4","4","5","5","0","0","-1","1","0","1","2","1","4","5","5","5","4","5","4","4","5","4","5","6","5","7","6","8","6","5","5","4","3","3","2","2","2","5","2","5","2","1","3","3","5","2","3","3","5","4","3","2","2","5","2","3","3","5","4","6","6","7","6","5","5","4","2","7","3","6","2","4","798932137372950529","李","563","Female","[""坏我"",""坏她"",""好她"",""好我""]","[""弱我"",""弱她"",""强她"",""强我""]","","","","","","","","no","","","","","","","","","SRET","EW_formal","","key","f","16.671083333333325","853.3333333333334","476","朋友","逞能","Negative","ability","","","","","","","","","","",""
"689","","f","psychophysics","57","334500","0.0-7.0-3.0-0.43","3","2","3","1","2","5","2","4","4","5","5","0","0","-1","1","0","1","2","1","4","5","5","5","4","5","4","4","5","4","5","6","5","7","6","8","6","5","5","4","3","3","2","2","2","5","2","5","2","1","3","3","5","2","3","3","5","4","3","2","2","5","2","3","3","5","4","6","6","7","6","5","5","4","2","7","3","6","2","4","798932137372950529","李","563","Female","[""坏我"",""坏她"",""好她"",""好我""]","[""弱我"",""弱她"",""强她"",""强我""]","","","","","","","","no","","","","","","","","","SRET","EW_formal","","key","f","16.67103960396005","853.3333333333334","476","朋友","低劣","Negative","morality","","","","","","","","","","",""
"1210","","f","psychophysics","58","336713","0.0-7.0-3.0-0.44","3","2","3","1","2","5","2","4","4","5","5","0","0","-1","1","0","1","2","1","4","5","5","5","4","5","4","4","5","4","5","6","5","7","6","8","6","5","5","4","3","3","2","2","2","5","2","5","2","1","3","3","5","2","3","3","5","4","3","2","2","5","2","3","3","5","4","6","6","7","6","5","5","4","2","7","3","6","2","4","798932137372950529","李","563","Female","[""坏我"",""坏她"",""好她"",""好我""]","[""弱我"",""弱她"",""强她"",""强我""]","","","","","","","","no","","","","","","","","","SRET","EW_formal","","key","f","16.67095419847298","853.3333333333334","476","朋友","全才","Positive","ability","","","","","","","","","","",""
"850","","f","psychophysics","59","338568","0.0-7.0-3.0-0.45","3","2","3","1","2","5","2","4","4","5","5","0","0","-1","1","0","1","2","1","4","5","5","5","4","5","4","4","5","4","5","6","5","7","6","8","6","5","5","4","3","3","2","2","2","5","2","5","2","1","3","3","5","2","3","3","5","4","3","2","2","5","2","3","3","5","4","6","6","7","6","5","5","4","2","7","3","6","2","4","798932137372950529","李","563","Female","[""坏我"",""坏她"",""好她"",""好我""]","[""弱我"",""弱她"",""强她"",""强我""]","","","","","","","","no","","","","","","","","","SRET","EW_formal","","key","f","16.671018018018085","853.3333333333334","476","自己","虚伪","Negative","morality","","","","","","","","","","",""
"946","","f","psychophysics","60","340516","0.0-7.0-3.0-0.46","3","2","3","1","2","5","2","4","4","5","5","0","0","-1","1","0","1","2","1","4","5","5","5","4","5","4","4","5","4","5","6","5","7","6","8","6","5","5","4","3","3","2","2","2","5","2","5","2","1","3","3","5","2","3","3","5","4","3","2","2","5","2","3","3","5","4","6","6","7","6","5","5","4","2","7","3","6","2","4","798932137372950529","李","563","Female","[""坏我"",""坏她"",""好她"",""好我""]","[""弱我"",""弱她"",""强她"",""强我""]","","","","","","","","no","","","","","","","","","SRET","EW_formal","","key","f","16.671232758620793","853.3333333333334","476","朋友","淫乱","Negative","morality","","","","","","","","","","",""
"929","","f","psychophysics","61","342447","0.0-7.0-3.0-0.47","3","2","3","1","2","5","2","4","4","5","5","0","0","-1","1","0","1","2","1","4","5","5","5","4","5","4","4","5","4","5","6","5","7","6","8","6","5","5","4","3","3","2","2","2","5","2","5","2","1","3","3","5","2","3","3","5","4","3","2","2","5","2","3","3","5","4","6","6","7","6","5","5","4","2","7","3","6","2","4","798932137372950529","李","563","Female","[""坏我"",""坏她"",""好她"",""好我""]","[""弱我"",""弱她"",""强她"",""强我""]","","","","","","","","no","","","","","","","","","SRET","EW_formal","","key","f","16.670385964912274","853.3333333333334","476","自己","恶劣","Negative","morality","","","","","","","","","","",""
"781","","f","psychophysics","62","344229","0.0-7.0-3.0-0.48","3","2","3","1","2","5","2","4","4","5","5","0","0","-1","1","0","1","2","1","4","5","5","5","4","5","4","4","5","4","5","6","5","7","6","8","6","5","5","4","3","3","2","2","2","5","2","5","2","1","3","3","5","2","3","3","5","4","3","2","2","5","2","3","3","5","4","6","6","7","6","5","5","4","2","7","3","6","2","4","798932137372950529","李","563","Female","[""坏我"",""坏她"",""好她"",""好我""]","[""弱我"",""弱她"",""强她"",""强我""]","","","","","","","","no","","","","","","","","","SRET","EW_formal","","key","f","16.670962264151246","853.3333333333334","476","自己","愚痴","Negative","ability","","","","","","","","","","",""
"1355","","j","psychophysics","63","346586","0.0-7.0-3.0-0.49","3","2","3","1","2","5","2","4","4","5","5","0","0","-1","1","0","1","2","1","4","5","5","5","4","5","4","4","5","4","5","6","5","7","6","8","6","5","5","4","3","3","2","2","2","5","2","5","2","1","3","3","5","2","3","3","5","4","3","2","2","5","2","3","3","5","4","6","6","7","6","5","5","4","2","7","3","6","2","4","798932137372950529","李","563","Female","[""坏我"",""坏她"",""好她"",""好我""]","[""弱我"",""弱她"",""强她"",""强我""]","","","","","","","","yes","","","","","","","","","SRET","EW_formal","","key","j","16.671695035461216","853.3333333333334","476","自己","高洁","Positive","morality","","","","","","","","","","",""
"742","","j","psychophysics","64","348330","0.0-7.0-3.0-0.50","3","2","3","1","2","5","2","4","4","5","5","0","0","-1","1","0","1","2","1","4","5","5","5","4","5","4","4","5","4","5","6","5","7","6","8","6","5","5","4","3","3","2","2","2","5","2","5","2","1","3","3","5","2","3","3","5","4","3","2","2","5","2","3","3","5","4","6","6","7","6","5","5","4","2","7","3","6","2","4","798932137372950529","李","563","Female","[""坏我"",""坏她"",""好她"",""好我""]","[""弱我"",""弱她"",""强她"",""强我""]","","","","","","","","yes","","","","","","","","","SRET","EW_formal","","key","j","16.67059223300967","853.3333333333334","476","自己","犹豫","Negative","ability","","","","","","","","","","",""
"1175","","j","psychophysics","65","350507","0.0-7.0-3.0-0.51","3","2","3","1","2","5","2","4","4","5","5","0","0","-1","1","0","1","2","1","4","5","5","5","4","5","4","4","5","4","5","6","5","7","6","8","6","5","5","4","3","3","2","2","2","5","2","5","2","1","3","3","5","2","3","3","5","4","3","2","2","5","2","3","3","5","4","6","6","7","6","5","5","4","2","7","3","6","2","4","798932137372950529","李","563","Female","[""坏我"",""坏她"",""好她"",""好我""]","[""弱我"",""弱她"",""强她"",""强我""]","","","","","","","","yes","","","","","","","","","SRET","EW_formal","","key","j","16.67170769230758","853.3333333333334","476","自己","狡狯","Negative","morality","","","","","","","","","","",""
"794","","j","psychophysics","66","352305","0.0-7.0-3.0-0.52","3","2","3","1","2","5","2","4","4","5","5","0","0","-1","1","0","1","2","1","4","5","5","5","4","5","4","4","5","4","5","6","5","7","6","8","6","5","5","4","3","3","2","2","2","5","2","5","2","1","3","3","5","2","3","3","5","4","3","2","2","5","2","3","3","5","4","6","6","7","6","5","5","4","2","7","3","6","2","4","798932137372950529","李","563","Female","[""坏我"",""坏她"",""好她"",""好我""]","[""弱我"",""弱她"",""强她"",""强我""]","","","","","","","","yes","","","","","","","","","SRET","EW_formal","","key","j","16.670738317757284","853.3333333333334","476","自己","守信","Positive","morality","","","","","","","","","","",""
"568","","j","psychophysics","67","353875","0.0-7.0-3.0-0.53","3","2","3","1","2","5","2","4","4","5","5","0","0","-1","1","0","1","2","1","4","5","5","5","4","5","4","4","5","4","5","6","5","7","6","8","6","5","5","4","3","3","2","2","2","5","2","5","2","1","3","3","5","2","3","3","5","4","3","2","2","5","2","3","3","5","4","6","6","7","6","5","5","4","2","7","3","6","2","4","798932137372950529","李","563","Female","[""坏我"",""坏她"",""好她"",""好我""]","[""弱我"",""弱她"",""强她"",""强我""]","","","","","","","","yes","","","","","","","","","SRET","EW_formal","","key","j","16.67084946236523","853.3333333333334","476","自己","善良","Positive","morality","","","","","","","","","","",""
"1794","","f","psychophysics","68","356672","0.0-7.0-3.0-0.54","3","2","3","1","2","5","2","4","4","5","5","0","0","-1","1","0","1","2","1","4","5","5","5","4","5","4","4","5","4","5","6","5","7","6","8","6","5","5","4","3","3","2","2","2","5","2","5","2","1","3","3","5","2","3","3","5","4","3","2","2","5","2","3","3","5","4","6","6","7","6","5","5","4","2","7","3","6","2","4","798932137372950529","李","563","Female","[""坏我"",""坏她"",""好她"",""好我""]","[""弱我"",""弱她"",""强她"",""强我""]","","","","","","","","no","","","","","","","","","SRET","EW_formal","","key","f","16.67113173652711","853.3333333333334","476","朋友","诡诈","Negative","morality","","","","","","","","","","",""
"834","","f","psychophysics","69","358508","0.0-7.0-3.0-0.55","3","2","3","1","2","5","2","4","4","5","5","0","0","-1","1","0","1","2","1","4","5","5","5","4","5","4","4","5","4","5","6","5","7","6","8","6","5","5","4","3","3","2","2","2","5","2","5","2","1","3","3","5","2","3","3","5","4","3","2","2","5","2","3","3","5","4","6","6","7","6","5","5","4","2","7","3","6","2","4","798932137372950529","李","563","Female","[""坏我"",""坏她"",""好她"",""好我""]","[""弱我"",""弱她"",""强她"",""强我""]","","","","","","","","no","","","","","","","","","SRET","EW_formal","","key","f","16.67106422018356","853.3333333333334","476","朋友","远见","Positive","ability","","","","","","","","","","",""
"998","","f","psychophysics","70","360510","0.0-7.0-3.0-0.56","3","2","3","1","2","5","2","4","4","5","5","0","0","-1","1","0","1","2","1","4","5","5","5","4","5","4","4","5","4","5","6","5","7","6","8","6","5","5","4","3","3","2","2","2","5","2","5","2","1","3","3","5","2","3","3","5","4","3","2","2","5","2","3","3","5","4","6","6","7","6","5","5","4","2","7","3","6","2","4","798932137372950529","李","563","Female","[""坏我"",""坏她"",""好她"",""好我""]","[""弱我"",""弱她"",""强她"",""强我""]","","","","","","","","no","","","","","","","","","SRET","EW_formal","","key","f","16.67097478991613","853.3333333333334","476","朋友","果决","Positive","ability","","","","","","","","","","",""
"601","","j","psychophysics","71","362113","0.0-7.0-3.0-0.57","3","2","3","1","2","5","2","4","4","5","5","0","0","-1","1","0","1","2","1","4","5","5","5","4","5","4","4","5","4","5","6","5","7","6","8","6","5","5","4","3","3","2","2","2","5","2","5","2","1","3","3","5","2","3","3","5","4","3","2","2","5","2","3","3","5","4","6","6","7","6","5","5","4","2","7","3","6","2","4","798932137372950529","李","563","Female","[""坏我"",""坏她"",""好她"",""好我""]","[""弱我"",""弱她"",""强她"",""强我""]","","","","","","","","yes","","","","","","","","","SRET","EW_formal","","key","j","16.67172631578961","853.3333333333334","476","朋友","好心","Positive","morality","","","","","","","","","","",""
"1037","","f","psychophysics","72","364152","0.0-7.0-3.0-0.58","3","2","3","1","2","5","2","4","4","5","5","0","0","-1","1","0","1","2","1","4","5","5","5","4","5","4","4","5","4","5","6","5","7","6","8","6","5","5","4","3","3","2","2","2","5","2","5","2","1","3","3","5","2","3","3","5","4","3","2","2","5","2","3","3","5","4","6","6","7","6","5","5","4","2","7","3","6","2","4","798932137372950529","李","563","Female","[""坏我"",""坏她"",""好她"",""好我""]","[""弱我"",""弱她"",""强她"",""强我""]","","","","","","","","no","","","","","","","","","SRET","EW_formal","","key","f","16.670884297520388","853.3333333333334","476","自己","马虎","Negative","ability","","","","","","","","","","",""
"1022","","f","psychophysics","73","366176","0.0-7.0-3.0-0.59","3","2","3","1","2","5","2","4","4","5","5","0","0","-1","1","0","1","2","1","4","5","5","5","4","5","4","4","5","4","5","6","5","7","6","8","6","5","5","4","3","3","2","2","2","5","2","5","2","1","3","3","5","2","3","3","5","4","3","2","2","5","2","3","3","5","4","6","6","7","6","5","5","4","2","7","3","6","2","4","798932137372950529","李","563","Female","[""坏我"",""坏她"",""好她"",""好我""]","[""弱我"",""弱她"",""强她"",""强我""]","","","","","","","","no","","","","","","","","","SRET","EW_formal","","key","f","16.6709338842972","853.3333333333334","476","朋友","稳健","Positive","ability","","","","","","","","","","",""
"718","","j","psychophysics","74","367897","0.0-7.0-3.0-0.60","3","2","3","1","2","5","2","4","4","5","5","0","0","-1","1","0","1","2","1","4","5","5","5","4","5","4","4","5","4","5","6","5","7","6","8","6","5","5","4","3","3","2","2","2","5","2","5","2","1","3","3","5","2","3","3","5","4","3","2","2","5","2","3","3","5","4","6","6","7","6","5","5","4","2","7","3","6","2","4","798932137372950529","李","563","Female","[""坏我"",""坏她"",""好她"",""好我""]","[""弱我"",""弱她"",""强她"",""强我""]","","","","","","","","yes","","","","","","","","","SRET","EW_formal","","key","j","16.67108823529413","853.3333333333334","476","朋友","奉献","Positive","morality","","","","","","","","","","",""
"697","","f","psychophysics","75","369597","0.0-7.0-3.0-0.61","3","2","3","1","2","5","2","4","4","5","5","0","0","-1","1","0","1","2","1","4","5","5","5","4","5","4","4","5","4","5","6","5","7","6","8","6","5","5","4","3","3","2","2","2","5","2","5","2","1","3","3","5","2","3","3","5","4","3","2","2","5","2","3","3","5","4","6","6","7","6","5","5","4","2","7","3","6","2","4","798932137372950529","李","563","Female","[""坏我"",""坏她"",""好她"",""好我""]","[""弱我"",""弱她"",""强她"",""强我""]","","","","","","","","no","","","","","","","","","SRET","EW_formal","","key","f","16.671584158416003","853.3333333333334","476","自己","无知","Negative","ability","","","","","","","","","","",""
"933","","f","psychophysics","76","371532","0.0-7.0-3.0-0.62","3","2","3","1","2","5","2","4","4","5","5","0","0","-1","1","0","1","2","1","4","5","5","5","4","5","4","4","5","4","5","6","5","7","6","8","6","5","5","4","3","3","2","2","2","5","2","5","2","1","3","3","5","2","3","3","5","4","3","2","2","5","2","3","3","5","4","6","6","7","6","5","5","4","2","7","3","6","2","4","798932137372950529","李","563","Female","[""坏我"",""坏她"",""好她"",""好我""]","[""弱我"",""弱她"",""强她"",""强我""]","","","","","","","","no","","","","","","","","","SRET","EW_formal","","key","f","16.67028695652211","853.3333333333334","476","自己","利己","Negative","morality","","","","","","","","","","",""
"1069","","f","psychophysics","77","373604","0.0-7.0-3.0-0.63","3","2","3","1","2","5","2","4","4","5","5","0","0","-1","1","0","1","2","1","4","5","5","5","4","5","4","4","5","4","5","6","5","7","6","8","6","5","5","4","3","3","2","2","2","5","2","5","2","1","3","3","5","2","3","3","5","4","3","2","2","5","2","3","3","5","4","6","6","7","6","5","5","4","2","7","3","6","2","4","798932137372950529","李","563","Female","[""坏我"",""坏她"",""好她"",""好我""]","[""弱我"",""弱她"",""强她"",""强我""]","","","","","","","","no","","","","","","","","","SRET","EW_formal","","key","f","16.67013008130063","853.3333333333334","476","朋友","废物","Negative","ability","","","","","","","","","","",""
"961","","j","psychophysics","78","375568","0.0-7.0-3.0-0.64","3","2","3","1","2","5","2","4","4","5","5","0","0","-1","1","0","1","2","1","4","5","5","5","4","5","4","4","5","4","5","6","5","7","6","8","6","5","5","4","3","3","2","2","2","5","2","5","2","1","3","3","5","2","3","3","5","4","3","2","2","5","2","3","3","5","4","6","6","7","6","5","5","4","2","7","3","6","2","4","798932137372950529","李","563","Female","[""坏我"",""坏她"",""好她"",""好我""]","[""弱我"",""弱她"",""强她"",""强我""]","","","","","","","","yes","","","","","","","","","SRET","EW_formal","","key","j","16.670743589743704","853.3333333333334","476","自己","骁勇","Positive","ability","","","","","","","","","","",""
"611","","j","psychophysics","79","377180","0.0-7.0-3.0-0.65","3","2","3","1","2","5","2","4","4","5","5","0","0","-1","1","0","1","2","1","4","5","5","5","4","5","4","4","5","4","5","6","5","7","6","8","6","5","5","4","3","3","2","2","2","5","2","5","2","1","3","3","5","2","3","3","5","4","3","2","2","5","2","3","3","5","4","6","6","7","6","5","5","4","2","7","3","6","2","4","798932137372950529","李","563","Female","[""坏我"",""坏她"",""好她"",""好我""]","[""弱我"",""弱她"",""强她"",""强我""]","","","","","","","","yes","","","","","","","","","SRET","EW_formal","","key","j","16.671177083333532","853.3333333333334","476","朋友","独断","Negative","ability","","","","","","","","","","",""
"698","","j","psychophysics","80","378883","0.0-7.0-3.0-0.66","3","2","3","1","2","5","2","4","4","5","5","0","0","-1","1","0","1","2","1","4","5","5","5","4","5","4","4","5","4","5","6","5","7","6","8","6","5","5","4","3","3","2","2","2","5","2","5","2","1","3","3","5","2","3","3","5","4","3","2","2","5","2","3","3","5","4","6","6","7","6","5","5","4","2","7","3","6","2","4","798932137372950529","李","563","Female","[""坏我"",""坏她"",""好她"",""好我""]","[""弱我"",""弱她"",""强她"",""强我""]","","","","","","","","yes","","","","","","","","","SRET","EW_formal","","key","j","16.671445544554373","853.3333333333334","476","朋友","中用","Positive","ability","","","","","","","","","","",""
"705","","f","psychophysics","81","380590","0.0-7.0-3.0-0.67","3","2","3","1","2","5","2","4","4","5","5","0","0","-1","1","0","1","2","1","4","5","5","5","4","5","4","4","5","4","5","6","5","7","6","8","6","5","5","4","3","3","2","2","2","5","2","5","2","1","3","3","5","2","3","3","5","4","3","2","2","5","2","3","3","5","4","6","6","7","6","5","5","4","2","7","3","6","2","4","798932137372950529","李","563","Female","[""坏我"",""坏她"",""好她"",""好我""]","[""弱我"",""弱她"",""强她"",""强我""]","","","","","","","","no","","","","","","","","","SRET","EW_formal","","key","f","16.671108910891153","853.3333333333334","476","朋友","业余","Negative","ability","","","","","","","","","","",""
"1430","","j","psychophysics","82","383022","0.0-7.0-3.0-0.68","3","2","3","1","2","5","2","4","4","5","5","0","0","-1","1","0","1","2","1","4","5","5","5","4","5","4","4","5","4","5","6","5","7","6","8","6","5","5","4","3","3","2","2","2","5","2","5","2","1","3","3","5","2","3","3","5","4","3","2","2","5","2","3","3","5","4","6","6","7","6","5","5","4","2","7","3","6","2","4","798932137372950529","李","563","Female","[""坏我"",""坏她"",""好她"",""好我""]","[""弱我"",""弱她"",""强她"",""强我""]","","","","","","","","yes","","","","","","","","","SRET","EW_formal","","key","j","17.023204225351996","853.3333333333334","476","朋友","果断","Positive","ability","","","","","","","","","","",""
"651","","f","psychophysics","83","384676","0.0-7.0-3.0-0.69","3","2","3","1","2","5","2","4","4","5","5","0","0","-1","1","0","1","2","1","4","5","5","5","4","5","4","4","5","4","5","6","5","7","6","8","6","5","5","4","3","3","2","2","2","5","2","5","2","1","3","3","5","2","3","3","5","4","3","2","2","5","2","3","3","5","4","6","6","7","6","5","5","4","2","7","3","6","2","4","798932137372950529","李","563","Female","[""坏我"",""坏她"",""好她"",""好我""]","[""弱我"",""弱她"",""强她"",""强我""]","","","","","","","","no","","","","","","","","","SRET","EW_formal","","key","f","16.670979591836673","853.3333333333334","476","朋友","庸碌","Negative","ability","","","","","","","","","","",""
"566","","f","psychophysics","84","386252","0.0-7.0-3.0-0.70","3","2","3","1","2","5","2","4","4","5","5","0","0","-1","1","0","1","2","1","4","5","5","5","4","5","4","4","5","4","5","6","5","7","6","8","6","5","5","4","3","3","2","2","2","5","2","5","2","1","3","3","5","2","3","3","5","4","3","2","2","5","2","3","3","5","4","6","6","7","6","5","5","4","2","7","3","6","2","4","798932137372950529","李","563","Female","[""坏我"",""坏她"",""好她"",""好我""]","[""弱我"",""弱她"",""强她"",""强我""]","","","","","","","","no","","","","","","","","","SRET","EW_formal","","key","f","16.670574468084947","853.3333333333334","476","自己","拙笨","Negative","ability","","","","","","","","","","",""
"607","","j","psychophysics","85","387861","0.0-7.0-3.0-0.71","3","2","3","1","2","5","2","4","4","5","5","0","0","-1","1","0","1","2","1","4","5","5","5","4","5","4","4","5","4","5","6","5","7","6","8","6","5","5","4","3","3","2","2","2","5","2","5","2","1","3","3","5","2","3","3","5","4","3","2","2","5","2","3","3","5","4","6","6","7","6","5","5","4","2","7","3","6","2","4","798932137372950529","李","563","Female","[""坏我"",""坏她"",""好她"",""好我""]","[""弱我"",""弱她"",""强她"",""强我""]","","","","","","","","yes","","","","","","","","","SRET","EW_formal","","key","j","16.671031578947595","853.3333333333334","476","朋友","厚道","Positive","morality","","","","","","","","","","",""
"711","","j","psychophysics","86","389574","0.0-7.0-3.0-0.72","3","2","3","1","2","5","2","4","4","5","5","0","0","-1","1","0","1","2","1","4","5","5","5","4","5","4","4","5","4","5","6","5","7","6","8","6","5","5","4","3","3","2","2","2","5","2","5","2","1","3","3","5","2","3","3","5","4","3","2","2","5","2","3","3","5","4","6","6","7","6","5","5","4","2","7","3","6","2","4","798932137372950529","李","563","Female","[""坏我"",""坏她"",""好她"",""好我""]","[""弱我"",""弱她"",""强她"",""强我""]","","","","","","","","yes","","","","","","","","","SRET","EW_formal","","key","j","16.671137254902014","853.3333333333334","476","朋友","勤恳","Positive","morality","","","","","","","","","","",""
"728","","f","psychophysics","87","391305","0.0-7.0-3.0-0.73","3","2","3","1","2","5","2","4","4","5","5","0","0","-1","1","0","1","2","1","4","5","5","5","4","5","4","4","5","4","5","6","5","7","6","8","6","5","5","4","3","3","2","2","2","5","2","5","2","1","3","3","5","2","3","3","5","4","3","2","2","5","2","3","3","5","4","6","6","7","6","5","5","4","2","7","3","6","2","4","798932137372950529","李","563","Female","[""坏我"",""坏她"",""好她"",""好我""]","[""弱我"",""弱她"",""强她"",""强我""]","","","","","","","","no","","","","","","","","","SRET","EW_formal","","key","f","16.671456310679364","853.3333333333334","476","自己","邪恶","Negative","morality","","","","","","","","","","",""
"980","","j","psychophysics","88","393286","0.0-7.0-3.0-0.74","3","2","3","1","2","5","2","4","4","5","5","0","0","-1","1","0","1","2","1","4","5","5","5","4","5","4","4","5","4","5","6","5","7","6","8","6","5","5","4","3","3","2","2","2","5","2","5","2","1","3","3","5","2","3","3","5","4","3","2","2","5","2","3","3","5","4","6","6","7","6","5","5","4","2","7","3","6","2","4","798932137372950529","李","563","Female","[""坏我"",""坏她"",""好她"",""好我""]","[""弱我"",""弱她"",""强她"",""强我""]","","","","","","","","yes","","","","","","","","","SRET","EW_formal","","key","j","16.670559322033807","853.3333333333334","476","自己","能干","Positive","ability","","","","","","","","","","",""
"571","","j","psychophysics","89","394860","0.0-7.0-3.0-0.75","3","2","3","1","2","5","2","4","4","5","5","0","0","-1","1","0","1","2","1","4","5","5","5","4","5","4","4","5","4","5","6","5","7","6","8","6","5","5","4","3","3","2","2","2","5","2","5","2","1","3","3","5","2","3","3","5","4","3","2","2","5","2","3","3","5","4","6","6","7","6","5","5","4","2","7","3","6","2","4","798932137372950529","李","563","Female","[""坏我"",""坏她"",""好她"",""好我""]","[""弱我"",""弱她"",""强她"",""强我""]","","","","","","","","yes","","","","","","","","","SRET","EW_formal","","key","j","16.671279569892512","853.3333333333334","476","自己","刻苦","Positive","ability","","","","","","","","","","",""
"616","","f","psychophysics","90","396478","0.0-7.0-3.0-0.76","3","2","3","1","2","5","2","4","4","5","5","0","0","-1","1","0","1","2","1","4","5","5","5","4","5","4","4","5","4","5","6","5","7","6","8","6","5","5","4","3","3","2","2","2","5","2","5","2","1","3","3","5","2","3","3","5","4","3","2","2","5","2","3","3","5","4","6","6","7","6","5","5","4","2","7","3","6","2","4","798932137372950529","李","563","Female","[""坏我"",""坏她"",""好她"",""好我""]","[""弱我"",""弱她"",""强她"",""强我""]","","","","","","","","no","","","","","","","","","SRET","EW_formal","","key","f","16.671135416666704","853.3333333333334","476","朋友","无助","Negative","ability","","","","","","","","","","",""
"744","","j","psychophysics","91","398224","0.0-7.0-3.0-0.77","3","2","3","1","2","5","2","4","4","5","5","0","0","-1","1","0","1","2","1","4","5","5","5","4","5","4","4","5","4","5","6","5","7","6","8","6","5","5","4","3","3","2","2","2","5","2","5","2","1","3","3","5","2","3","3","5","4","3","2","2","5","2","3","3","5","4","6","6","7","6","5","5","4","2","7","3","6","2","4","798932137372950529","李","563","Female","[""坏我"",""坏她"",""好她"",""好我""]","[""弱我"",""弱她"",""强她"",""强我""]","","","","","","","","yes","","","","","","","","","SRET","EW_formal","","key","j","16.671048076923537","853.3333333333334","476","朋友","干练","Positive","ability","","","","","","","","","","",""
"690","","f","psychophysics","92","399915","0.0-7.0-3.0-0.78","3","2","3","1","2","5","2","4","4","5","5","0","0","-1","1","0","1","2","1","4","5","5","5","4","5","4","4","5","4","5","6","5","7","6","8","6","5","5","4","3","3","2","2","2","5","2","5","2","1","3","3","5","2","3","3","5","4","3","2","2","5","2","3","3","5","4","6","6","7","6","5","5","4","2","7","3","6","2","4","798932137372950529","李","563","Female","[""坏我"",""坏她"",""好她"",""好我""]","[""弱我"",""弱她"",""强她"",""强我""]","","","","","","","","no","","","","","","","","","SRET","EW_formal","","key","f","16.683369999999996","853.3333333333334","476","自己","不良","Negative","morality","","","","","","","","","","",""
"924","","f","psychophysics","93","401841","0.0-7.0-3.0-0.79","3","2","3","1","2","5","2","4","4","5","5","0","0","-1","1","0","1","2","1","4","5","5","5","4","5","4","4","5","4","5","6","5","7","6","8","6","5","5","4","3","3","2","2","2","5","2","5","2","1","3","3","5","2","3","3","5","4","3","2","2","5","2","3","3","5","4","6","6","7","6","5","5","4","2","7","3","6","2","4","798932137372950529","李","563","Female","[""坏我"",""坏她"",""好她"",""好我""]","[""弱我"",""弱她"",""强她"",""强我""]","","","","","","","","no","","","","","","","","","SRET","EW_formal","","key","f","16.75276315789476","853.3333333333334","476","自己","罪恶","Negative","morality","","","","","","","","","","",""
"968","","f","psychophysics","94","403811","0.0-7.0-3.0-0.80","3","2","3","1","2","5","2","4","4","5","5","0","0","-1","1","0","1","2","1","4","5","5","5","4","5","4","4","5","4","5","6","5","7","6","8","6","5","5","4","3","3","2","2","2","5","2","5","2","1","3","3","5","2","3","3","5","4","3","2","2","5","2","3","3","5","4","6","6","7","6","5","5","4","2","7","3","6","2","4","798932137372950529","李","563","Female","[""坏我"",""坏她"",""好她"",""好我""]","[""弱我"",""弱她"",""强她"",""强我""]","","","","","","","","no","","","","","","","","","SRET","EW_formal","","key","f","16.722623931624106","853.3333333333334","476","朋友","下流","Negative","morality","","","","","","","","","","",""
"744","","j","psychophysics","95","405557","0.0-7.0-3.0-0.81","3","2","3","1","2","5","2","4","4","5","5","0","0","-1","1","0","1","2","1","4","5","5","5","4","5","4","4","5","4","5","6","5","7","6","8","6","5","5","4","3","3","2","2","2","5","2","5","2","1","3","3","5","2","3","3","5","4","3","2","2","5","2","3","3","5","4","6","6","7","6","5","5","4","2","7","3","6","2","4","798932137372950529","李","563","Female","[""坏我"",""坏她"",""好她"",""好我""]","[""弱我"",""弱她"",""强她"",""强我""]","","","","","","","","yes","","","","","","","","","SRET","EW_formal","","key","j","16.668769230769474","853.3333333333334","476","朋友","慷慨","Positive","morality","","","","","","","","","","",""
"747","","f","psychophysics","96","407307","0.0-7.0-3.0-0.82","3","2","3","1","2","5","2","4","4","5","5","0","0","-1","1","0","1","2","1","4","5","5","5","4","5","4","4","5","4","5","6","5","7","6","8","6","5","5","4","3","3","2","2","2","5","2","5","2","1","3","3","5","2","3","3","5","4","3","2","2","5","2","3","3","5","4","6","6","7","6","5","5","4","2","7","3","6","2","4","798932137372950529","李","563","Female","[""坏我"",""坏她"",""好她"",""好我""]","[""弱我"",""弱她"",""强她"",""强我""]","","","","","","","","no","","","","","","","","","SRET","EW_formal","","key","f","16.998725490196033","853.3333333333334","476","朋友","失信","Negative","morality","","","","","","","","","","",""
"483","","f","psychophysics","97","408792","0.0-7.0-3.0-0.83","3","2","3","1","2","5","2","4","4","5","5","0","0","-1","1","0","1","2","1","4","5","5","5","4","5","4","4","5","4","5","6","5","7","6","8","6","5","5","4","3","3","2","2","2","5","2","5","2","1","3","3","5","2","3","3","5","4","3","2","2","5","2","3","3","5","4","6","6","7","6","5","5","4","2","7","3","6","2","4","798932137372950529","李","563","Female","[""坏我"",""坏她"",""好她"",""好我""]","[""弱我"",""弱她"",""强她"",""强我""]","","","","","","","","no","","","","","","","","","SRET","EW_formal","","key","f","16.673147727272987","853.3333333333334","476","自己","短视","Negative","ability","","","","","","","","","","",""
"627","","f","psychophysics","98","410423","0.0-7.0-3.0-0.84","3","2","3","1","2","5","2","4","4","5","5","0","0","-1","1","0","1","2","1","4","5","5","5","4","5","4","4","5","4","5","6","5","7","6","8","6","5","5","4","3","3","2","2","2","5","2","5","2","1","3","3","5","2","3","3","5","4","3","2","2","5","2","3","3","5","4","6","6","7","6","5","5","4","2","7","3","6","2","4","798932137372950529","李","563","Female","[""坏我"",""坏她"",""好她"",""好我""]","[""弱我"",""弱她"",""强她"",""强我""]","","","","","","","","no","","","","","","","","","SRET","EW_formal","","key","f","16.664845360824646","853.3333333333334","476","自己","缓慢","Negative","ability","","","","","","","","","","",""
"617","","f","psychophysics","99","412043","0.0-7.0-3.0-0.85","3","2","3","1","2","5","2","4","4","5","5","0","0","-1","1","0","1","2","1","4","5","5","5","4","5","4","4","5","4","5","6","5","7","6","8","6","5","5","4","3","3","2","2","2","5","2","5","2","1","3","3","5","2","3","3","5","4","3","2","2","5","2","3","3","5","4","6","6","7","6","5","5","4","2","7","3","6","2","4","798932137372950529","李","563","Female","[""坏我"",""坏她"",""好她"",""好我""]","[""弱我"",""弱她"",""强她"",""强我""]","","","","","","","","no","","","","","","","","","SRET","EW_formal","","key","f","16.671781250000397","853.3333333333334","476","朋友","低俗","Negative","morality","","","","","","","","","","",""
"619","","j","psychophysics","100","413665","0.0-7.0-3.0-0.86","3","2","3","1","2","5","2","4","4","5","5","0","0","-1","1","0","1","2","1","4","5","5","5","4","5","4","4","5","4","5","6","5","7","6","8","6","5","5","4","3","3","2","2","2","5","2","5","2","1","3","3","5","2","3","3","5","4","3","2","2","5","2","3","3","5","4","6","6","7","6","5","5","4","2","7","3","6","2","4","798932137372950529","李","563","Female","[""坏我"",""坏她"",""好她"",""好我""]","[""弱我"",""弱她"",""强她"",""强我""]","","","","","","","","yes","","","","","","","","","SRET","EW_formal","","key","j","16.66952083333369","853.3333333333334","476","朋友","素养","Positive","morality","","","","","","","","","","",""
"538","","j","psychophysics","101","415205","0.0-7.0-3.0-0.87","3","2","3","1","2","5","2","4","4","5","5","0","0","-1","1","0","1","2","1","4","5","5","5","4","5","4","4","5","4","5","6","5","7","6","8","6","5","5","4","3","3","2","2","2","5","2","5","2","1","3","3","5","2","3","3","5","4","3","2","2","5","2","3","3","5","4","6","6","7","6","5","5","4","2","7","3","6","2","4","798932137372950529","李","563","Female","[""坏我"",""坏她"",""好她"",""好我""]","[""弱我"",""弱她"",""强她"",""强我""]","","","","","","","","yes","","","","","","","","","SRET","EW_formal","","key","j","17.041933333333063","853.3333333333334","476","自己","主见","Positive","ability","","","","","","","","","","",""
"20254","
    <p><div style='color:white;font-size:35px; line-height:20px;'>计算任务</div></p><br>
    <p><div style='color:red;font-size:25px; line-height:20px;'>接下来，您将看到一些四则运算题，<b>请从键盘选择 0-9 进行反应。</b></div></p>
    <p><div style='color:red;font-size:25px; line-height:20px;'>请尽可能快地进行计算，计算的速度和正确率将影响报酬的发放。</div></p>
    <p><div class='footer' style='color:white;font-size:25px; line-height:20px;'>如果对本实验还有不清楚之处，请立即向实验员咨询。</p><p style='color:white;font-size:25px; line-height:20px;'>如果您明白了规则：</p><p style='color:white;font-size:22px; line-height:20px;'>请按 继续 进入练习</p>
    </div>
    ","0","html-button-response","102","435461","0.0-7.0-4.0","3","2","3","1","2","5","2","4","4","5","5","0","0","-1","1","0","1","2","1","4","5","5","5","4","5","4","4","5","4","5","6","5","7","6","8","6","5","5","4","3","3","2","2","2","5","2","5","2","1","3","3","5","2","3","3","5","4","3","2","2","5","2","3","3","5","4","6","6","7","6","5","5","4","2","7","3","6","2","4","798932137372950529","李","563","Female","[""坏我"",""坏她"",""好她"",""好我""]","[""弱我"",""弱她"",""强她"",""强我""]","","","","","","","","","","","","","","","","","SRET_math","math_instructions","Sun Jan 21 2024 17:16:05 GMT+0800 (中国标准时间)","","","","","","","","","","","","","","","","","","","",""
"1995","","2","psychophysics","103","437461","0.0-7.0-5.0-0.0","3","2","3","1","2","5","2","4","4","5","5","0","0","-1","1","0","1","2","1","4","5","5","5","4","5","4","4","5","4","5","6","5","7","6","8","6","5","5","4","3","3","2","2","2","5","2","5","2","1","3","3","5","2","3","3","5","4","3","2","2","5","2","3","3","5","4","6","6","7","6","5","5","4","2","7","3","6","2","4","798932137372950529","李","563","Female","[""坏我"",""坏她"",""好她"",""好我""]","[""弱我"",""弱她"",""强她"",""强我""]","","","","","","","","2","","","","","","","","","SRET","SRET_math_calculate","","key","2","16.66923333333349","853.3333333333334","476","","","","","19-17= ?","2","1","","","","","","","",""
"1782","","3","psychophysics","104","439245","0.0-7.0-5.0-0.1","3","2","3","1","2","5","2","4","4","5","5","0","0","-1","1","0","1","2","1","4","5","5","5","4","5","4","4","5","4","5","6","5","7","6","8","6","5","5","4","3","3","2","2","2","5","2","5","2","1","3","3","5","2","3","3","5","4","3","2","2","5","2","3","3","5","4","6","6","7","6","5","5","4","2","7","3","6","2","4","798932137372950529","李","563","Female","[""坏我"",""坏她"",""好她"",""好我""]","[""弱我"",""弱她"",""强她"",""强我""]","","","","","","","","3","","","","","","","","","SRET","SRET_math_calculate","","key","3","16.671367924528653","853.3333333333334","476","","","","","9-6= ?","3","1","","","","","","","",""
"1709","","0","psychophysics","105","440992","0.0-7.0-5.0-0.2","3","2","3","1","2","5","2","4","4","5","5","0","0","-1","1","0","1","2","1","4","5","5","5","4","5","4","4","5","4","5","6","5","7","6","8","6","5","5","4","3","3","2","2","2","5","2","5","2","1","3","3","5","2","3","3","5","4","3","2","2","5","2","3","3","5","4","6","6","7","6","5","5","4","2","7","3","6","2","4","798932137372950529","李","563","Female","[""坏我"",""坏她"",""好她"",""好我""]","[""弱我"",""弱她"",""强她"",""强我""]","","","","","","","","0","","","","","","","","","SRET","SRET_math_calculate","","key","0","16.832728155339318","853.3333333333334","476","","","","","1-1= ?","0","1","","","","","","","",""
"2007","","6","psychophysics","106","443002","0.0-7.0-5.0-0.3","3","2","3","1","2","5","2","4","4","5","5","0","0","-1","1","0","1","2","1","4","5","5","5","4","5","4","4","5","4","5","6","5","7","6","8","6","5","5","4","3","3","2","2","2","5","2","5","2","1","3","3","5","2","3","3","5","4","3","2","2","5","2","3","3","5","4","6","6","7","6","5","5","4","2","7","3","6","2","4","798932137372950529","李","563","Female","[""坏我"",""坏她"",""好她"",""好我""]","[""弱我"",""弱她"",""强她"",""强我""]","","","","","","","","6","","","","","","","","","SRET","SRET_math_calculate","","key","6","16.671563025209817","853.3333333333334","476","","","","","9-3= ?","6","1","","","","","","","",""
"2196","","7","psychophysics","107","445201","0.0-7.0-5.0-0.4","3","2","3","1","2","5","2","4","4","5","5","0","0","-1","1","0","1","2","1","4","5","5","5","4","5","4","4","5","4","5","6","5","7","6","8","6","5","5","4","3","3","2","2","2","5","2","5","2","1","3","3","5","2","3","3","5","4","3","2","2","5","2","3","3","5","4","6","6","7","6","5","5","4","2","7","3","6","2","4","798932137372950529","李","563","Female","[""坏我"",""坏她"",""好她"",""好我""]","[""弱我"",""弱她"",""强她"",""强我""]","","","","","","","","7","","","","","","","","","SRET","SRET_math_calculate","","key","7","16.799153846153953","853.3333333333334","476","","","","","13-5= ?","8","0","","","","","","","",""
"1791","","6","psychophysics","108","446994","0.0-7.0-5.0-0.5","3","2","3","1","2","5","2","4","4","5","5","0","0","-1","1","0","1","2","1","4","5","5","5","4","5","4","4","5","4","5","6","5","7","6","8","6","5","5","4","3","3","2","2","2","5","2","5","2","1","3","3","5","2","3","3","5","4","3","2","2","5","2","3","3","5","4","6","6","7","6","5","5","4","2","7","3","6","2","4","798932137372950529","李","563","Female","[""坏我"",""坏她"",""好她"",""好我""]","[""弱我"",""弱她"",""强她"",""强我""]","","","","","","","","6","","","","","","","","","SRET","SRET_math_calculate","","key","6","16.67096261682248","853.3333333333334","476","","","","","8-2= ?","6","1","","","","","","","",""
"1831","","4","psychophysics","109","448829","0.0-7.0-5.0-0.6","3","2","3","1","2","5","2","4","4","5","5","0","0","-1","1","0","1","2","1","4","5","5","5","4","5","4","4","5","4","5","6","5","7","6","8","6","5","5","4","3","3","2","2","2","5","2","5","2","1","3","3","5","2","3","3","5","4","3","2","2","5","2","3","3","5","4","6","6","7","6","5","5","4","2","7","3","6","2","4","798932137372950529","李","563","Female","[""坏我"",""坏她"",""好她"",""好我""]","[""弱我"",""弱她"",""强她"",""强我""]","","","","","","","","4","","","","","","","","","SRET","SRET_math_calculate","","key","4","16.671256880733555","853.3333333333334","476","","","","","9-5= ?","4","1","","","","","","","",""
"1873","","6","psychophysics","110","450706","0.0-7.0-5.0-0.7","3","2","3","1","2","5","2","4","4","5","5","0","0","-1","1","0","1","2","1","4","5","5","5","4","5","4","4","5","4","5","6","5","7","6","8","6","5","5","4","3","3","2","2","2","5","2","5","2","1","3","3","5","2","3","3","5","4","3","2","2","5","2","3","3","5","4","6","6","7","6","5","5","4","2","7","3","6","2","4","798932137372950529","李","563","Female","[""坏我"",""坏她"",""好她"",""好我""]","[""弱我"",""弱她"",""强她"",""强我""]","","","","","","","","6","","","","","","","","","SRET","SRET_math_calculate","","key","6","16.671189189188997","853.3333333333334","476","","","","","8-3= ? ","5","0","","","","","","","",""
"2237","","9","psychophysics","111","452946","0.0-7.0-5.0-0.8","3","2","3","1","2","5","2","4","4","5","5","0","0","-1","1","0","1","2","1","4","5","5","5","4","5","4","4","5","4","5","6","5","7","6","8","6","5","5","4","3","3","2","2","2","5","2","5","2","1","3","3","5","2","3","3","5","4","3","2","2","5","2","3","3","5","4","6","6","7","6","5","5","4","2","7","3","6","2","4","798932137372950529","李","563","Female","[""坏我"",""坏她"",""好她"",""好我""]","[""弱我"",""弱她"",""强她"",""强我""]","","","","","","","","9","","","","","","","","","SRET","SRET_math_calculate","","key","9","16.671164179104814","853.3333333333334","476","","","","","1+8= ?","9","1","","","","","","","",""
"1925","","3","psychophysics","112","454873","0.0-7.0-5.0-0.9","3","2","3","1","2","5","2","4","4","5","5","0","0","-1","1","0","1","2","1","4","5","5","5","4","5","4","4","5","4","5","6","5","7","6","8","6","5","5","4","3","3","2","2","2","5","2","5","2","1","3","3","5","2","3","3","5","4","3","2","2","5","2","3","3","5","4","6","6","7","6","5","5","4","2","7","3","6","2","4","798932137372950529","李","563","Female","[""坏我"",""坏她"",""好她"",""好我""]","[""弱我"",""弱她"",""强她"",""强我""]","","","","","","","","3","","","","","","","","","SRET","SRET_math_calculate","","key","3","16.67045614035114","853.3333333333334","476","","","","","21/7=  ?","3","1","","","","","","","",""
"1904","","8","psychophysics","113","456780","0.0-7.0-5.0-0.10","3","2","3","1","2","5","2","4","4","5","5","0","0","-1","1","0","1","2","1","4","5","5","5","4","5","4","4","5","4","5","6","5","7","6","8","6","5","5","4","3","3","2","2","2","5","2","5","2","1","3","3","5","2","3","3","5","4","3","2","2","5","2","3","3","5","4","6","6","7","6","5","5","4","2","7","3","6","2","4","798932137372950529","李","563","Female","[""坏我"",""坏她"",""好她"",""好我""]","[""弱我"",""弱她"",""强她"",""强我""]","","","","","","","","8","","","","","","","","","SRET","SRET_math_calculate","","key","8","16.67121052631614","853.3333333333334","476","","","","","4*2= ?","8","1","","","","","","","",""
"1833","","8","psychophysics","114","458617","0.0-7.0-5.0-0.11","3","2","3","1","2","5","2","4","4","5","5","0","0","-1","1","0","1","2","1","4","5","5","5","4","5","4","4","5","4","5","6","5","7","6","8","6","5","5","4","3","3","2","2","2","5","2","5","2","1","3","3","5","2","3","3","5","4","3","2","2","5","2","3","3","5","4","6","6","7","6","5","5","4","2","7","3","6","2","4","798932137372950529","李","563","Female","[""坏我"",""坏她"",""好她"",""好我""]","[""弱我"",""弱她"",""强她"",""强我""]","","","","","","","","8","","","","","","","","","SRET","SRET_math_calculate","","key","8","16.6712385321099","853.3333333333334","476","","","","","4+4= ?","8","1","","","","","","","",""
"2112","","5","psychophysics","115","460732","0.0-7.0-5.0-0.12","3","2","3","1","2","5","2","4","4","5","5","0","0","-1","1","0","1","2","1","4","5","5","5","4","5","4","4","5","4","5","6","5","7","6","8","6","5","5","4","3","3","2","2","2","5","2","5","2","1","3","3","5","2","3","3","5","4","3","2","2","5","2","3","3","5","4","6","6","7","6","5","5","4","2","7","3","6","2","4","798932137372950529","李","563","Female","[""坏我"",""坏她"",""好她"",""好我""]","[""弱我"",""弱她"",""强她"",""强我""]","","","","","","","","5","","","","","","","","","SRET","SRET_math_calculate","","key","5","16.67130952380969","853.3333333333334","476","","","","","13-6= ?","7","0","","","","","","","",""
"1752","","9","psychophysics","116","462491","0.0-7.0-5.0-0.13","3","2","3","1","2","5","2","4","4","5","5","0","0","-1","1","0","1","2","1","4","5","5","5","4","5","4","4","5","4","5","6","5","7","6","8","6","5","5","4","3","3","2","2","2","5","2","5","2","1","3","3","5","2","3","3","5","4","3","2","2","5","2","3","3","5","4","6","6","7","6","5","5","4","2","7","3","6","2","4","798932137372950529","李","563","Female","[""坏我"",""坏她"",""好她"",""好我""]","[""弱我"",""弱她"",""强她"",""强我""]","","","","","","","","9","","","","","","","","","SRET","SRET_math_calculate","","key","9","16.67055769230781","853.3333333333334","476","","","","","5+4= ?","9","1","","","","","","","",""
"1958","","1","psychophysics","117","464452","0.0-7.0-5.0-0.14","3","2","3","1","2","5","2","4","4","5","5","0","0","-1","1","0","1","2","1","4","5","5","5","4","5","4","4","5","4","5","6","5","7","6","8","6","5","5","4","3","3","2","2","2","5","2","5","2","1","3","3","5","2","3","3","5","4","3","2","2","5","2","3","3","5","4","6","6","7","6","5","5","4","2","7","3","6","2","4","798932137372950529","李","563","Female","[""坏我"",""坏她"",""好她"",""好我""]","[""弱我"",""弱她"",""强她"",""强我""]","","","","","","","","1","","","","","","","","","SRET","SRET_math_calculate","","key","1","16.67087179487203","853.3333333333334","476","","","","","9-8= ?","1","1","","","","","","","",""
"1750","","9","psychophysics","118","466205","0.0-7.0-5.0-0.15","3","2","3","1","2","5","2","4","4","5","5","0","0","-1","1","0","1","2","1","4","5","5","5","4","5","4","4","5","4","5","6","5","7","6","8","6","5","5","4","3","3","2","2","2","5","2","5","2","1","3","3","5","2","3","3","5","4","3","2","2","5","2","3","3","5","4","6","6","7","6","5","5","4","2","7","3","6","2","4","798932137372950529","李","563","Female","[""坏我"",""坏她"",""好她"",""好我""]","[""弱我"",""弱她"",""强她"",""强我""]","","","","","","","","9","","","","","","","","","SRET","SRET_math_calculate","","key","9","16.67142307692344","853.3333333333334","476","","","","","43-34= ?","9","1","","","","","","","",""
"2434","","3","psychophysics","119","468645","0.0-7.0-5.0-0.16","3","2","3","1","2","5","2","4","4","5","5","0","0","-1","1","0","1","2","1","4","5","5","5","4","5","4","4","5","4","5","6","5","7","6","8","6","5","5","4","3","3","2","2","2","5","2","5","2","1","3","3","5","2","3","3","5","4","3","2","2","5","2","3","3","5","4","6","6","7","6","5","5","4","2","7","3","6","2","4","798932137372950529","李","563","Female","[""坏我"",""坏她"",""好她"",""好我""]","[""弱我"",""弱她"",""强她"",""强我""]","","","","","","","","3","","","","","","","","","SRET","SRET_math_calculate","","key","3","16.67118620689645","853.3333333333334","476","","","","","11-8= ?","3","1","","","","","","","",""
"1798","","0","psychophysics","120","470447","0.0-7.0-5.0-0.17","3","2","3","1","2","5","2","4","4","5","5","0","0","-1","1","0","1","2","1","4","5","5","5","4","5","4","4","5","4","5","6","5","7","6","8","6","5","5","4","3","3","2","2","2","5","2","5","2","1","3","3","5","2","3","3","5","4","3","2","2","5","2","3","3","5","4","6","6","7","6","5","5","4","2","7","3","6","2","4","798932137372950529","李","563","Female","[""坏我"",""坏她"",""好她"",""好我""]","[""弱我"",""弱她"",""强她"",""强我""]","","","","","","","","0","","","","","","","","","SRET","SRET_math_calculate","","key","0","16.670850467289338","853.3333333333334","476","","","","","5*0= ?","0","1","","","","","","","",""
"2025","","8","psychophysics","121","472477","0.0-7.0-5.0-0.18","3","2","3","1","2","5","2","4","4","5","5","0","0","-1","1","0","1","2","1","4","5","5","5","4","5","4","4","5","4","5","6","5","7","6","8","6","5","5","4","3","3","2","2","2","5","2","5","2","1","3","3","5","2","3","3","5","4","3","2","2","5","2","3","3","5","4","6","6","7","6","5","5","4","2","7","3","6","2","4","798932137372950529","李","563","Female","[""坏我"",""坏她"",""好她"",""好我""]","[""弱我"",""弱她"",""强她"",""强我""]","","","","","","","","8","","","","","","","","","SRET","SRET_math_calculate","","key","8","16.670710743801795","853.3333333333334","476","","","","","8*1= ?","8","1","","","","","","","",""
"1755","","2","psychophysics","122","474235","0.0-7.0-5.0-0.19","3","2","3","1","2","5","2","4","4","5","5","0","0","-1","1","0","1","2","1","4","5","5","5","4","5","4","4","5","4","5","6","5","7","6","8","6","5","5","4","3","3","2","2","2","5","2","5","2","1","3","3","5","2","3","3","5","4","3","2","2","5","2","3","3","5","4","6","6","7","6","5","5","4","2","7","3","6","2","4","798932137372950529","李","563","Female","[""坏我"",""坏她"",""好她"",""好我""]","[""弱我"",""弱她"",""强她"",""强我""]","","","","","","","","2","","","","","","","","","SRET","SRET_math_calculate","","key","2","16.67156190476214","853.3333333333334","476","","","","","1+1= ?","2","1","","","","","","","",""
"1687","","3","psychophysics","123","475926","0.0-7.0-5.0-0.20","3","2","3","1","2","5","2","4","4","5","5","0","0","-1","1","0","1","2","1","4","5","5","5","4","5","4","4","5","4","5","6","5","7","6","8","6","5","5","4","3","3","2","2","2","5","2","5","2","1","3","3","5","2","3","3","5","4","3","2","2","5","2","3","3","5","4","6","6","7","6","5","5","4","2","7","3","6","2","4","798932137372950529","李","563","Female","[""坏我"",""坏她"",""好她"",""好我""]","[""弱我"",""弱她"",""强她"",""强我""]","","","","","","","","3","","","","","","","","","SRET","SRET_math_calculate","","key","3","16.671180000000167","853.3333333333334","476","","","","","1+2= ?","3","1","","","","","","","",""
"1770","","6","psychophysics","124","477707","0.0-7.0-5.0-0.21","3","2","3","1","2","5","2","4","4","5","5","0","0","-1","1","0","1","2","1","4","5","5","5","4","5","4","4","5","4","5","6","5","7","6","8","6","5","5","4","3","3","2","2","2","5","2","5","2","1","3","3","5","2","3","3","5","4","3","2","2","5","2","3","3","5","4","6","6","7","6","5","5","4","2","7","3","6","2","4","798932137372950529","李","563","Female","[""坏我"",""坏她"",""好她"",""好我""]","[""弱我"",""弱她"",""强她"",""强我""]","","","","","","","","6","","","","","","","","","SRET","SRET_math_calculate","","key","6","16.671141509433994","853.3333333333334","476","","","","","4+2= ?","6","1","","","","","","","",""
"1750","","2","psychophysics","125","479459","0.0-7.0-5.0-0.22","3","2","3","1","2","5","2","4","4","5","5","0","0","-1","1","0","1","2","1","4","5","5","5","4","5","4","4","5","4","5","6","5","7","6","8","6","5","5","4","3","3","2","2","2","5","2","5","2","1","3","3","5","2","3","3","5","4","3","2","2","5","2","3","3","5","4","6","6","7","6","5","5","4","2","7","3","6","2","4","798932137372950529","李","563","Female","[""坏我"",""坏她"",""好她"",""好我""]","[""弱我"",""弱她"",""强她"",""强我""]","","","","","","","","2","","","","","","","","","SRET","SRET_math_calculate","","key","2","16.6709230769232","853.3333333333334","476","","","","","9-7= ?","2","1","","","","","","","",""
"1758","","1","psychophysics","126","481222","0.0-7.0-5.0-0.23","3","2","3","1","2","5","2","4","4","5","5","0","0","-1","1","0","1","2","1","4","5","5","5","4","5","4","4","5","4","5","6","5","7","6","8","6","5","5","4","3","3","2","2","2","5","2","5","2","1","3","3","5","2","3","3","5","4","3","2","2","5","2","3","3","5","4","6","6","7","6","5","5","4","2","7","3","6","2","4","798932137372950529","李","563","Female","[""坏我"",""坏她"",""好她"",""好我""]","[""弱我"",""弱她"",""强她"",""强我""]","","","","","","","","1","","","","","","","","","SRET","SRET_math_calculate","","key","1","16.67153333333332","853.3333333333334","476","","","","","4/4= ?","1","1","","","","","","","",""
"1948","","2","psychophysics","127","483175","0.0-7.0-5.0-0.24","3","2","3","1","2","5","2","4","4","5","5","0","0","-1","1","0","1","2","1","4","5","5","5","4","5","4","4","5","4","5","6","5","7","6","8","6","5","5","4","3","3","2","2","2","5","2","5","2","1","3","3","5","2","3","3","5","4","3","2","2","5","2","3","3","5","4","6","6","7","6","5","5","4","2","7","3","6","2","4","798932137372950529","李","563","Female","[""坏我"",""坏她"",""好她"",""好我""]","[""弱我"",""弱她"",""强她"",""强我""]","","","","","","","","2","","","","","","","","","SRET","SRET_math_calculate","","key","2","16.670543103448743","853.3333333333334","476","","","","","90/45= ?","2","1","","","","","","","",""
"1816","","8","psychophysics","128","484994","0.0-7.0-5.0-0.25","3","2","3","1","2","5","2","4","4","5","5","0","0","-1","1","0","1","2","1","4","5","5","5","4","5","4","4","5","4","5","6","5","7","6","8","6","5","5","4","3","3","2","2","2","5","2","5","2","1","3","3","5","2","3","3","5","4","3","2","2","5","2","3","3","5","4","6","6","7","6","5","5","4","2","7","3","6","2","4","798932137372950529","李","563","Female","[""坏我"",""坏她"",""好她"",""好我""]","[""弱我"",""弱她"",""强她"",""强我""]","","","","","","","","8","","","","","","","","","SRET","SRET_math_calculate","","key","8","16.6708981481481","853.3333333333334","476","","","","","1+7= ?","8","1","","","","","","","",""
"2016","","8","psychophysics","129","487013","0.0-7.0-5.0-0.26","3","2","3","1","2","5","2","4","4","5","5","0","0","-1","1","0","1","2","1","4","5","5","5","4","5","4","4","5","4","5","6","5","7","6","8","6","5","5","4","3","3","2","2","2","5","2","5","2","1","3","3","5","2","3","3","5","4","3","2","2","5","2","3","3","5","4","6","6","7","6","5","5","4","2","7","3","6","2","4","798932137372950529","李","563","Female","[""坏我"",""坏她"",""好她"",""好我""]","[""弱我"",""弱她"",""强她"",""强我""]","","","","","","","","8","","","","","","","","","SRET","SRET_math_calculate","","key","8","16.670666666666513","853.3333333333334","476","","","","","12-5= ?","7","0","","","","","","","",""
"1896","","0","psychophysics","130","488911","0.0-7.0-5.0-0.27","3","2","3","1","2","5","2","4","4","5","5","0","0","-1","1","0","1","2","1","4","5","5","5","4","5","4","4","5","4","5","6","5","7","6","8","6","5","5","4","3","3","2","2","2","5","2","5","2","1","3","3","5","2","3","3","5","4","3","2","2","5","2","3","3","5","4","6","6","7","6","5","5","4","2","7","3","6","2","4","798932137372950529","李","563","Female","[""坏我"",""坏她"",""好她"",""好我""]","[""弱我"",""弱她"",""强她"",""强我""]","","","","","","","","0","","","","","","","","","SRET","SRET_math_calculate","","key","0","16.671424778760926","853.3333333333334","476","","","","","12-12= ?","0","1","","","","","","","",""
"1735","","6","psychophysics","131","490649","0.0-7.0-5.0-0.28","3","2","3","1","2","5","2","4","4","5","5","0","0","-1","1","0","1","2","1","4","5","5","5","4","5","4","4","5","4","5","6","5","7","6","8","6","5","5","4","3","3","2","2","2","5","2","5","2","1","3","3","5","2","3","3","5","4","3","2","2","5","2","3","3","5","4","6","6","7","6","5","5","4","2","7","3","6","2","4","798932137372950529","李","563","Female","[""坏我"",""坏她"",""好她"",""好我""]","[""弱我"",""弱她"",""强她"",""强我""]","","","","","","","","6","","","","","","","","","SRET","SRET_math_calculate","","key","6","16.671262135922465","853.3333333333334","476","","","","","2*3= ?","6","1","","","","","","","",""
"1807","","5","psychophysics","132","492460","0.0-7.0-5.0-0.29","3","2","3","1","2","5","2","4","4","5","5","0","0","-1","1","0","1","2","1","4","5","5","5","4","5","4","4","5","4","5","6","5","7","6","8","6","5","5","4","3","3","2","2","2","5","2","5","2","1","3","3","5","2","3","3","5","4","3","2","2","5","2","3","3","5","4","6","6","7","6","5","5","4","2","7","3","6","2","4","798932137372950529","李","563","Female","[""坏我"",""坏她"",""好她"",""好我""]","[""弱我"",""弱她"",""强她"",""强我""]","","","","","","","","5","","","","","","","","","SRET","SRET_math_calculate","","key","5","16.67108333333346","853.3333333333334","476","","","","","10-5= ?","5","1","","","","","","","",""
"1977","","7","psychophysics","133","494440","0.0-7.0-5.0-0.30","3","2","3","1","2","5","2","4","4","5","5","0","0","-1","1","0","1","2","1","4","5","5","5","4","5","4","4","5","4","5","6","5","7","6","8","6","5","5","4","3","3","2","2","2","5","2","5","2","1","3","3","5","2","3","3","5","4","3","2","2","5","2","3","3","5","4","6","6","7","6","5","5","4","2","7","3","6","2","4","798932137372950529","李","563","Female","[""坏我"",""坏她"",""好她"",""好我""]","[""弱我"",""弱她"",""强她"",""强我""]","","","","","","","","7","","","","","","","","","SRET","SRET_math_calculate","","key","7","16.670805084746","853.3333333333334","476","","","","","3+4= ?","7","1","","","","","","","",""
"2242","","5","psychophysics","134","496684","0.0-7.0-5.0-0.31","3","2","3","1","2","5","2","4","4","5","5","0","0","-1","1","0","1","2","1","4","5","5","5","4","5","4","4","5","4","5","6","5","7","6","8","6","5","5","4","3","3","2","2","2","5","2","5","2","1","3","3","5","2","3","3","5","4","3","2","2","5","2","3","3","5","4","6","6","7","6","5","5","4","2","7","3","6","2","4","798932137372950529","李","563","Female","[""坏我"",""坏她"",""好她"",""好我""]","[""弱我"",""弱她"",""强她"",""强我""]","","","","","","","","5","","","","","","","","","SRET","SRET_math_calculate","","key","5","16.671037593985123","853.3333333333334","476","","","","","14-9= ?","5","1","","","","","","","",""
"1786","","4","psychophysics","135","498474","0.0-7.0-5.0-0.32","3","2","3","1","2","5","2","4","4","5","5","0","0","-1","1","0","1","2","1","4","5","5","5","4","5","4","4","5","4","5","6","5","7","6","8","6","5","5","4","3","3","2","2","2","5","2","5","2","1","3","3","5","2","3","3","5","4","3","2","2","5","2","3","3","5","4","6","6","7","6","5","5","4","2","7","3","6","2","4","798932137372950529","李","563","Female","[""坏我"",""坏她"",""好她"",""好我""]","[""弱我"",""弱她"",""强她"",""强我""]","","","","","","","","4","","","","","","","","","SRET","SRET_math_calculate","","key","4","16.671336448597984","853.3333333333334","476","","","","","8-4= ?","4","1","","","","","","","",""
"1898","","5","psychophysics","136","500376","0.0-7.0-5.0-0.33","3","2","3","1","2","5","2","4","4","5","5","0","0","-1","1","0","1","2","1","4","5","5","5","4","5","4","4","5","4","5","6","5","7","6","8","6","5","5","4","3","3","2","2","2","5","2","5","2","1","3","3","5","2","3","3","5","4","3","2","2","5","2","3","3","5","4","6","6","7","6","5","5","4","2","7","3","6","2","4","798932137372950529","李","563","Female","[""坏我"",""坏她"",""好她"",""好我""]","[""弱我"",""弱她"",""强她"",""强我""]","","","","","","","","5","","","","","","","","","SRET","SRET_math_calculate","","key","5","16.671743362831915","853.3333333333334","476","","","","","16-11= ?","5","1","","","","","","","",""
"1855","","3","psychophysics","137","502234","0.0-7.0-5.0-0.34","3","2","3","1","2","5","2","4","4","5","5","0","0","-1","1","0","1","2","1","4","5","5","5","4","5","4","4","5","4","5","6","5","7","6","8","6","5","5","4","3","3","2","2","2","5","2","5","2","1","3","3","5","2","3","3","5","4","3","2","2","5","2","3","3","5","4","6","6","7","6","5","5","4","2","7","3","6","2","4","798932137372950529","李","563","Female","[""坏我"",""坏她"",""好她"",""好我""]","[""弱我"",""弱她"",""强她"",""强我""]","","","","","","","","3","","","","","","","","","SRET","SRET_math_calculate","","key","3","16.67140909090892","853.3333333333334","476","","","","","3+0= ?","3","1","","","","","","","",""
"1752","","9","psychophysics","138","503990","0.0-7.0-5.0-0.35","3","2","3","1","2","5","2","4","4","5","5","0","0","-1","1","0","1","2","1","4","5","5","5","4","5","4","4","5","4","5","6","5","7","6","8","6","5","5","4","3","3","2","2","2","5","2","5","2","1","3","3","5","2","3","3","5","4","3","2","2","5","2","3","3","5","4","6","6","7","6","5","5","4","2","7","3","6","2","4","798932137372950529","李","563","Female","[""坏我"",""坏她"",""好她"",""好我""]","[""弱我"",""弱她"",""强她"",""强我""]","","","","","","","","9","","","","","","","","","SRET","SRET_math_calculate","","key","9","16.66986538461564","853.3333333333334","476","","","","","1*9= ?","9","1","","","","","","","",""
"1762","","2","psychophysics","139","505755","0.0-7.0-5.0-0.36","3","2","3","1","2","5","2","4","4","5","5","0","0","-1","1","0","1","2","1","4","5","5","5","4","5","4","4","5","4","5","6","5","7","6","8","6","5","5","4","3","3","2","2","2","5","2","5","2","1","3","3","5","2","3","3","5","4","3","2","2","5","2","3","3","5","4","6","6","7","6","5","5","4","2","7","3","6","2","4","798932137372950529","李","563","Female","[""坏我"",""坏她"",""好她"",""好我""]","[""弱我"",""弱她"",""强她"",""强我""]","","","","","","","","2","","","","","","","","","SRET","SRET_math_calculate","","key","2","16.671466666666813","853.3333333333334","476","","","","","8/4= ?","2","1","","","","","","","",""
