"rt","stimulus","response","trial_type","trial_index","time_elapsed","internal_node_id","swb_1","swb_2","swb_3","swb_4","swb_5","LOT_1","LOT_2","LOT_3","LOT_4","LOT_5","LOT_6","IPC_1","IPC_2","IPC_3","IPC_4","IPC_5","IPC_6","IPC_7","IPC_8","MorIden_1","MorIden_2","MorIden_3","MorIden_4","MorIden_5","MorIden_6","MorIden_7","MorIden_8","MorIden_9","MorIden_10","moralSeImag_1","moralSeImag_2","moralSeImag_3","moralSeImag_4","moralSeImag_5","moralSeImag_6","moralSeImag_7","moralSeImag_8","moralSeImag_9","sde_1","sde_2","sde_3","sde_4","sde_5","sde_6","sde_7","sde_8","sde_9","sde_10","trap2","sde_11","sde_12","sde_13","sde_14","sde_15","sde_16","sde_17","sde_18","sde_19","sde_20","IM_1","IM_2","IM_3","IM_4","IM_5","IM_6","IM_7","IM_8","IM_9","IM_10","IM_11","IM_12","IM_13","IM_14","IM_15","IM_16","IM_17","IM_18","IM_19","IM_20","subj_idx","friend_name","ParticipantID","Sex","Word","Word2","value","success","timeout","failed_images","failed_audio","failed_video","user_agent","responses","item_order","radio_event_ids","radio_event_times","key_event_times","mouse_event_times","straightlining","zigzagging","honeypot","view_history","response_type","key_press","avg_frame_time","center_x","center_y","correct_response","correct","identity","Image","word","condition","task_id","screen_id","time_stamp","person","valence","domain","math","status","duration","question_order","trap2_item"
"1953","
   <p><div style='color:white; font-size: 25px'>您好，欢迎参加本次实验。</div></p>
   <p><div style='color:white; font-size: 25px'>为充分保障您的权利，请确保您已经知晓并同意《参与实验同意书》以及《数据公开知情同意书》。</div></p>
   <p><div style='color:white; font-size: 25px'>如果您未见过上述内容，请咨询实验员。</div></p>
   <p style='color:white; font-size: 25px'>如果您选择继续实验，则表示您已经清楚两份知情同意书的内容并同意。</p>
   <p><div style = ""color: pink;font-size:30px;"">请确保您记得day0的实验编号，您将在本次实验输入该编号，若您忘记，请咨询实验员后作答。</div></p>
   <p><div style = ""color:lightblue;font-size:25px;"">请您尽可能认真地作答，我们将依据您在各问卷和按键任务中的作答质量发放报酬。</div></p>
   <p> <div style = ""color: green""><按空格键至下页></div> </p>
   "," ","html-keyboard-response","0","1956","0.0-0.0","5","4","4","3","3","4","3","4","3","3","4","-1","0","0","1","-1","0","1","0","4","4","5","4","4","3","4","3","3","4","6","5","4","6","4","5","6","5","6","4","3","4","5","4","3","5","3","6","3","1","4","3","4","4","5","4","3","6","5","4","3","4","3","4","3","4","3","4","4","6","7","5","3","6","3","4","3","6","5","4","581839949964247040","王","145","Female","[""好我"",""坏我"",""坏她"",""好她""]","[""强我"",""弱我"",""弱她"",""强她""]","","","","","","","","","","","","","","","","","","","","","","","","","","","","","","","","","","","","","","",""
"","","","call-function","1","1956","0.0-1.0-0.0","5","4","4","3","3","4","3","4","3","3","4","-1","0","0","1","-1","0","1","0","4","4","5","4","4","3","4","3","3","4","6","5","4","6","4","5","6","5","6","4","3","4","5","4","3","5","3","6","3","1","4","3","4","4","5","4","3","6","5","4","3","4","3","4","3","4","3","4","4","6","7","5","3","6","3","4","3","6","5","4","581839949964247040","王","145","Female","[""好我"",""坏我"",""坏她"",""好她""]","[""强我"",""弱我"",""弱她"",""强她""]","","","","","","","","","","","","","","","","","","","","","","","","","","","","","","","","","","","","","","",""
"29536","","[{""name"":""Sex"",""value"":""1""},{""name"":""friend_name"",""value"":""王""},{""name"":""ParticipantID"",""value"":""145""}]","survey-html-form","2","31493","0.0-1.0-1.0","5","4","4","3","3","4","3","4","3","3","4","-1","0","0","1","-1","0","1","0","4","4","5","4","4","3","4","3","3","4","6","5","4","6","4","5","6","5","6","4","3","4","5","4","3","5","3","6","3","1","4","3","4","4","5","4","3","6","5","4","3","4","3","4","3","4","3","4","4","6","7","5","3","6","3","4","3","6","5","4","581839949964247040","王","145","Female","[""好我"",""坏我"",""坏她"",""好她""]","[""强我"",""弱我"",""弱她"",""强她""]","","","","","","","","","","","","","","","","","","","","","","","","","","","","","","","","","","","","","","",""
"","","","preload","3","31933","0.0-2.0","5","4","4","3","3","4","3","4","3","3","4","-1","0","0","1","-1","0","1","0","4","4","5","4","4","3","4","3","3","4","6","5","4","6","4","5","6","5","6","4","3","4","5","4","3","5","3","6","3","1","4","3","4","4","5","4","3","6","5","4","3","4","3","4","3","4","3","4","4","6","7","5","3","6","3","4","3","6","5","4","581839949964247040","王","145","Female","[""好我"",""坏我"",""坏她"",""好她""]","[""强我"",""弱我"",""弱她"",""强她""]","","true","false","[]","[]","[]","","","","","","","","","","","","","","","","","","","","","","","","","","","","","","","","",""
"","","","fullscreen","4","34338","0.0-3.0","5","4","4","3","3","4","3","4","3","3","4","-1","0","0","1","-1","0","1","0","4","4","5","4","4","3","4","3","3","4","6","5","4","6","4","5","6","5","6","4","3","4","5","4","3","5","3","6","3","1","4","3","4","4","5","4","3","6","5","4","3","4","3","4","3","4","3","4","4","6","7","5","3","6","3","4","3","6","5","4","581839949964247040","王","145","Female","[""好我"",""坏我"",""坏她"",""好她""]","[""强我"",""弱我"",""弱她"",""强她""]","","true","","","","","{}","","","","","","","","","","","","","","","","","","","","","","","","","","","","","","","",""
"10021.699999928474","","{""Q01"":""5"",""Q02"":""4"",""Q03"":""4"",""Q04"":""3"",""Q05"":""3""}","survey-template","5","44362","0.0-4.0","5","4","4","3","3","4","3","4","3","3","4","-1","0","0","1","-1","0","1","0","4","4","5","4","4","3","4","3","3","4","6","5","4","6","4","5","6","5","6","4","3","4","5","4","3","5","3","6","3","1","4","3","4","4","5","4","3","6","5","4","3","4","3","4","3","4","3","4","4","6","7","5","3","6","3","4","3","6","5","4","581839949964247040","王","145","Female","[""好我"",""坏我"",""坏她"",""好她""]","[""强我"",""弱我"",""弱她"",""强她""]","","","","","","","","{""Q01"":""5"",""Q02"":""4"",""Q03"":""4"",""Q04"":""3"",""Q05"":""3""}","[0,1,2,3,4]","[""Q01"",""Q02"",""Q03"",""Q04"",""Q05""]","[3355,4714.899999976158,6026.599999904633,7769.399999976158,9348.599999904633]","[]","[3355,4714.899999976158,6026.599999904633,7769.399999976158,9348.599999904633,10021]","0.4","0.5","0","","","","","","","","","","","","","","","","","","","","","","",""
"15532.699999928474","","{""Q01"":""4"",""Q02"":""3"",""Q03"":""4"",""Q04"":""3"",""Q05"":""3"",""Q06"":""4""}","survey-template","6","59898","0.0-5.0","5","4","4","3","3","4","3","4","3","3","4","-1","0","0","1","-1","0","1","0","4","4","5","4","4","3","4","3","3","4","6","5","4","6","4","5","6","5","6","4","3","4","5","4","3","5","3","6","3","1","4","3","4","4","5","4","3","6","5","4","3","4","3","4","3","4","3","4","4","6","7","5","3","6","3","4","3","6","5","4","581839949964247040","王","145","Female","[""好我"",""坏我"",""坏她"",""好她""]","[""强我"",""弱我"",""弱她"",""强她""]","","","","","","","","{""Q01"":""4"",""Q02"":""3"",""Q03"":""4"",""Q04"":""3"",""Q05"":""3"",""Q06"":""4""}","[0,1,2,3,4,5]","[""Q01"",""Q02"",""Q03"",""Q04"",""Q05"",""Q06""]","[3544.899999976158,5198.899999976158,6351.199999928474,7562.099999904633,10702.299999952316,15092.899999976158]","[]","[3544.899999976158,5198.899999976158,6351.199999928474,7562.099999904633,10702.299999952316,15092.899999976158,15532.099999904633]","0.5","0.8","0","","","","","","","","","","","","","","","","","","","","","","",""
"19178.899999976158","","{""Q01"":""-1"",""Q02"":""0"",""Q03"":""0"",""Q04"":""1"",""Q05"":""-1"",""Q06"":""0"",""Q07"":""1"",""Q08"":""0""}","survey-template","7","79079","0.0-6.0","5","4","4","3","3","4","3","4","3","3","4","-1","0","0","1","-1","0","1","0","4","4","5","4","4","3","4","3","3","4","6","5","4","6","4","5","6","5","6","4","3","4","5","4","3","5","3","6","3","1","4","3","4","4","5","4","3","6","5","4","3","4","3","4","3","4","3","4","4","6","7","5","3","6","3","4","3","6","5","4","581839949964247040","王","145","Female","[""好我"",""坏我"",""坏她"",""好她""]","[""强我"",""弱我"",""弱她"",""强她""]","","","","","","","","{""Q01"":""-1"",""Q02"":""0"",""Q03"":""0"",""Q04"":""1"",""Q05"":""-1"",""Q06"":""0"",""Q07"":""1"",""Q08"":""0""}","[0,1,2,3,4,5,6,7]","[""Q01"",""Q02"",""Q03"",""Q04"",""Q05"",""Q06"",""Q07"",""Q08""]","[5479.199999928474,6575.5,8295.099999904633,10195.5,11896,13765.299999952316,15753.299999952316,18197.5]","[]","[5479.199999928474,6575.5,8295.099999904633,10195.5,11896,13765.299999952316,15753.299999952316,18197.5,19177.799999952316]","0.5","0.7142857142857143","0","","","","","","","","","","","","","","","","","","","","","","",""
"10937","","","instructions","8","90019","0.0-7.0","5","4","4","3","3","4","3","4","3","3","4","-1","0","0","1","-1","0","1","0","4","4","5","4","4","3","4","3","3","4","6","5","4","6","4","5","6","5","6","4","3","4","5","4","3","5","3","6","3","1","4","3","4","4","5","4","3","6","5","4","3","4","3","4","3","4","3","4","4","6","7","5","3","6","3","4","3","6","5","4","581839949964247040","王","145","Female","[""好我"",""坏我"",""坏她"",""好她""]","[""强我"",""弱我"",""弱她"",""强她""]","","","","","","","","","","","","","","","","","[{""page_index"":0,""viewing_time"":10937}]","","","","","","","","","","","","","","","","","","","","","",""
"118246","","","instructions","9","208266","0.0-8.0-0.0-0.0","5","4","4","3","3","4","3","4","3","3","4","-1","0","0","1","-1","0","1","0","4","4","5","4","4","3","4","3","3","4","6","5","4","6","4","5","6","5","6","4","3","4","5","4","3","5","3","6","3","1","4","3","4","4","5","4","3","6","5","4","3","4","3","4","3","4","3","4","4","6","7","5","3","6","3","4","3","6","5","4","581839949964247040","王","145","Female","[""好我"",""坏我"",""坏她"",""好她""]","[""强我"",""弱我"",""弱她"",""强她""]","","","","","","","","","","","","","","","","","[{""page_index"":0,""viewing_time"":2522},{""page_index"":1,""viewing_time"":112552},{""page_index"":2,""viewing_time"":1401},{""page_index"":3,""viewing_time"":1770}]","","","","","","","","","","","","","","","","","","","","","",""
"887","","j","psychophysics","10","210158","0.0-8.0-0.0-1.0-0.0-0.0","5","4","4","3","3","4","3","4","3","3","4","-1","0","0","1","-1","0","1","0","4","4","5","4","4","3","4","3","3","4","6","5","4","6","4","5","6","5","6","4","3","4","5","4","3","5","3","6","3","1","4","3","4","4","5","4","3","6","5","4","3","4","3","4","3","4","3","4","4","6","7","5","3","6","3","4","3","6","5","4","581839949964247040","王","145","Female","[""好我"",""坏我"",""坏她"",""好她""]","[""强我"",""弱我"",""弱她"",""强她""]","","","","","","","","match","","","","","","","","","","key","j","16.66902654867262","768","428","f","false","nonmatch","img/ellipse.png","好我","坏她","prac_ALT2_moral","practice_moral","","","","","","","","",""
"null","<span style='color:red; font-size: 70px;'>错误! </span>","null","html-keyboard-response","11","210659","0.0-8.0-0.0-1.0-0.0-1.0","5","4","4","3","3","4","3","4","3","3","4","-1","0","0","1","-1","0","1","0","4","4","5","4","4","3","4","3","3","4","6","5","4","6","4","5","6","5","6","4","3","4","5","4","3","5","3","6","3","1","4","3","4","4","5","4","3","6","5","4","3","4","3","4","3","4","3","4","4","6","7","5","3","6","3","4","3","6","5","4","581839949964247040","王","145","Female","[""好我"",""坏我"",""坏她"",""好她""]","[""强我"",""弱我"",""弱她"",""强她""]","","","","","","","","","","","","","","","","","","","","","","","","","","","","","","feedback_test","","","","","","","","",""
"878","","j","psychophysics","12","212540","0.0-8.0-0.0-1.0-0.0-0.1","5","4","4","3","3","4","3","4","3","3","4","-1","0","0","1","-1","0","1","0","4","4","5","4","4","3","4","3","3","4","6","5","4","6","4","5","6","5","6","4","3","4","5","4","3","5","3","6","3","1","4","3","4","4","5","4","3","6","5","4","3","4","3","4","3","4","3","4","4","6","7","5","3","6","3","4","3","6","5","4","581839949964247040","王","145","Female","[""好我"",""坏我"",""坏她"",""好她""]","[""强我"",""弱我"",""弱她"",""强她""]","","","","","","","","match","","","","","","","","","","key","j","16.667857142857038","768","428","f","false","nonmatch","img/square.png","坏我","好她","prac_ALT2_moral","practice_moral","","","","","","","","",""
"null","<span style='color:red; font-size: 70px;'>错误! </span>","null","html-keyboard-response","13","213041","0.0-8.0-0.0-1.0-0.0-1.1","5","4","4","3","3","4","3","4","3","3","4","-1","0","0","1","-1","0","1","0","4","4","5","4","4","3","4","3","3","4","6","5","4","6","4","5","6","5","6","4","3","4","5","4","3","5","3","6","3","1","4","3","4","4","5","4","3","6","5","4","3","4","3","4","3","4","3","4","4","6","7","5","3","6","3","4","3","6","5","4","581839949964247040","王","145","Female","[""好我"",""坏我"",""坏她"",""好她""]","[""强我"",""弱我"",""弱她"",""强她""]","","","","","","","","","","","","","","","","","","","","","","","","","","","","","","feedback_test","","","","","","","","",""
"705","","f","psychophysics","14","214748","0.0-8.0-0.0-1.0-0.0-0.2","5","4","4","3","3","4","3","4","3","3","4","-1","0","0","1","-1","0","1","0","4","4","5","4","4","3","4","3","3","4","6","5","4","6","4","5","6","5","6","4","3","4","5","4","3","5","3","6","3","1","4","3","4","4","5","4","3","6","5","4","3","4","3","4","3","4","3","4","4","6","7","5","3","6","3","4","3","6","5","4","581839949964247040","王","145","Female","[""好我"",""坏我"",""坏她"",""好她""]","[""强我"",""弱我"",""弱她"",""强她""]","","","","","","","","nonmatch","","","","","","","","","","key","f","16.670297029703086","768","428","j","false","match","img/hexagon.png","坏我","坏我","prac_ALT2_moral","practice_moral","","","","","","","","",""
"null","<span style='color:red; font-size: 70px;'>错误! </span>","null","html-keyboard-response","15","215249","0.0-8.0-0.0-1.0-0.0-1.2","5","4","4","3","3","4","3","4","3","3","4","-1","0","0","1","-1","0","1","0","4","4","5","4","4","3","4","3","3","4","6","5","4","6","4","5","6","5","6","4","3","4","5","4","3","5","3","6","3","1","4","3","4","4","5","4","3","6","5","4","3","4","3","4","3","4","3","4","4","6","7","5","3","6","3","4","3","6","5","4","581839949964247040","王","145","Female","[""好我"",""坏我"",""坏她"",""好她""]","[""强我"",""弱我"",""弱她"",""强她""]","","","","","","","","","","","","","","","","","","","","","","","","","","","","","","feedback_test","","","","","","","","",""
"920","","f","psychophysics","16","217171","0.0-8.0-0.0-1.0-0.0-0.3","5","4","4","3","3","4","3","4","3","3","4","-1","0","0","1","-1","0","1","0","4","4","5","4","4","3","4","3","3","4","6","5","4","6","4","5","6","5","6","4","3","4","5","4","3","5","3","6","3","1","4","3","4","4","5","4","3","6","5","4","3","4","3","4","3","4","3","4","4","6","7","5","3","6","3","4","3","6","5","4","581839949964247040","王","145","Female","[""好我"",""坏我"",""坏她"",""好她""]","[""强我"",""弱我"",""弱她"",""强她""]","","","","","","","","nonmatch","","","","","","","","","","key","f","16.66725663716809","768","428","j","false","match","img/diamond.png","好我","好我","prac_ALT2_moral","practice_moral","","","","","","","","",""
"null","<span style='color:red; font-size: 70px;'>错误! </span>","null","html-keyboard-response","17","217672","0.0-8.0-0.0-1.0-0.0-1.3","5","4","4","3","3","4","3","4","3","3","4","-1","0","0","1","-1","0","1","0","4","4","5","4","4","3","4","3","3","4","6","5","4","6","4","5","6","5","6","4","3","4","5","4","3","5","3","6","3","1","4","3","4","4","5","4","3","6","5","4","3","4","3","4","3","4","3","4","4","6","7","5","3","6","3","4","3","6","5","4","581839949964247040","王","145","Female","[""好我"",""坏我"",""坏她"",""好她""]","[""强我"",""弱我"",""弱她"",""强她""]","","","","","","","","","","","","","","","","","","","","","","","","","","","","","","feedback_test","","","","","","","","",""
"680","","f","psychophysics","18","219355","0.0-8.0-0.0-1.0-0.0-0.4","5","4","4","3","3","4","3","4","3","3","4","-1","0","0","1","-1","0","1","0","4","4","5","4","4","3","4","3","3","4","6","5","4","6","4","5","6","5","6","4","3","4","5","4","3","5","3","6","3","1","4","3","4","4","5","4","3","6","5","4","3","4","3","4","3","4","3","4","4","6","7","5","3","6","3","4","3","6","5","4","581839949964247040","王","145","Female","[""好我"",""坏我"",""坏她"",""好她""]","[""强我"",""弱我"",""弱她"",""强她""]","","","","","","","","nonmatch","","","","","","","","","","key","f","16.665999999999766","768","428","f","true","nonmatch","img/square.png","好我","好她","prac_ALT2_moral","practice_moral","","","","","","","","",""
"null","<span style='color:GreenYellow; font-size: 70px;'>正确! </span>","null","html-keyboard-response","19","219856","0.0-8.0-0.0-1.0-0.0-1.4","5","4","4","3","3","4","3","4","3","3","4","-1","0","0","1","-1","0","1","0","4","4","5","4","4","3","4","3","3","4","6","5","4","6","4","5","6","5","6","4","3","4","5","4","3","5","3","6","3","1","4","3","4","4","5","4","3","6","5","4","3","4","3","4","3","4","3","4","4","6","7","5","3","6","3","4","3","6","5","4","581839949964247040","王","145","Female","[""好我"",""坏我"",""坏她"",""好她""]","[""强我"",""弱我"",""弱她"",""强她""]","","","","","","","","","","","","","","","","","","","","","","","","","","","","","","feedback_test","","","","","","","","",""
"809","","j","psychophysics","20","221667","0.0-8.0-0.0-1.0-0.0-0.5","5","4","4","3","3","4","3","4","3","3","4","-1","0","0","1","-1","0","1","0","4","4","5","4","4","3","4","3","3","4","6","5","4","6","4","5","6","5","6","4","3","4","5","4","3","5","3","6","3","1","4","3","4","4","5","4","3","6","5","4","3","4","3","4","3","4","3","4","4","6","7","5","3","6","3","4","3","6","5","4","581839949964247040","王","145","Female","[""好我"",""坏我"",""坏她"",""好她""]","[""强我"",""弱我"",""弱她"",""强她""]","","","","","","","","match","","","","","","","","","","key","j","16.669158878504728","768","428","f","false","nonmatch","img/ellipse.png","好她","坏她","prac_ALT2_moral","practice_moral","","","","","","","","",""
"null","<span style='color:red; font-size: 70px;'>错误! </span>","null","html-keyboard-response","21","222184","0.0-8.0-0.0-1.0-0.0-1.5","5","4","4","3","3","4","3","4","3","3","4","-1","0","0","1","-1","0","1","0","4","4","5","4","4","3","4","3","3","4","6","5","4","6","4","5","6","5","6","4","3","4","5","4","3","5","3","6","3","1","4","3","4","4","5","4","3","6","5","4","3","4","3","4","3","4","3","4","4","6","7","5","3","6","3","4","3","6","5","4","581839949964247040","王","145","Female","[""好我"",""坏我"",""坏她"",""好她""]","[""强我"",""弱我"",""弱她"",""强她""]","","","","","","","","","","","","","","","","","","","","","","","","","","","","","","feedback_test","","","","","","","","",""
"682","","f","psychophysics","22","223869","0.0-8.0-0.0-1.0-0.0-0.6","5","4","4","3","3","4","3","4","3","3","4","-1","0","0","1","-1","0","1","0","4","4","5","4","4","3","4","3","3","4","6","5","4","6","4","5","6","5","6","4","3","4","5","4","3","5","3","6","3","1","4","3","4","4","5","4","3","6","5","4","3","4","3","4","3","4","3","4","4","6","7","5","3","6","3","4","3","6","5","4","581839949964247040","王","145","Female","[""好我"",""坏我"",""坏她"",""好她""]","[""强我"",""弱我"",""弱她"",""强她""]","","","","","","","","nonmatch","","","","","","","","","","key","f","16.673999999999943","768","428","j","false","match","img/diamond.png","好我","好我","prac_ALT2_moral","practice_moral","","","","","","","","",""
"null","<span style='color:red; font-size: 70px;'>错误! </span>","null","html-keyboard-response","23","224381","0.0-8.0-0.0-1.0-0.0-1.6","5","4","4","3","3","4","3","4","3","3","4","-1","0","0","1","-1","0","1","0","4","4","5","4","4","3","4","3","3","4","6","5","4","6","4","5","6","5","6","4","3","4","5","4","3","5","3","6","3","1","4","3","4","4","5","4","3","6","5","4","3","4","3","4","3","4","3","4","4","6","7","5","3","6","3","4","3","6","5","4","581839949964247040","王","145","Female","[""好我"",""坏我"",""坏她"",""好她""]","[""强我"",""弱我"",""弱她"",""强她""]","","","","","","","","","","","","","","","","","","","","","","","","","","","","","","feedback_test","","","","","","","","",""
"604","","f","psychophysics","24","225987","0.0-8.0-0.0-1.0-0.0-0.7","5","4","4","3","3","4","3","4","3","3","4","-1","0","0","1","-1","0","1","0","4","4","5","4","4","3","4","3","3","4","6","5","4","6","4","5","6","5","6","4","3","4","5","4","3","5","3","6","3","1","4","3","4","4","5","4","3","6","5","4","3","4","3","4","3","4","3","4","4","6","7","5","3","6","3","4","3","6","5","4","581839949964247040","王","145","Female","[""好我"",""坏我"",""坏她"",""好她""]","[""强我"",""弱我"",""弱她"",""强她""]","","","","","","","","nonmatch","","","","","","","","","","key","f","16.6715789473683","768","428","f","true","nonmatch","img/ellipse.png","坏我","坏她","prac_ALT2_moral","practice_moral","","","","","","","","",""
"null","<span style='color:GreenYellow; font-size: 70px;'>正确! </span>","null","html-keyboard-response","25","226488","0.0-8.0-0.0-1.0-0.0-1.7","5","4","4","3","3","4","3","4","3","3","4","-1","0","0","1","-1","0","1","0","4","4","5","4","4","3","4","3","3","4","6","5","4","6","4","5","6","5","6","4","3","4","5","4","3","5","3","6","3","1","4","3","4","4","5","4","3","6","5","4","3","4","3","4","3","4","3","4","4","6","7","5","3","6","3","4","3","6","5","4","581839949964247040","王","145","Female","[""好我"",""坏我"",""坏她"",""好她""]","[""强我"",""弱我"",""弱她"",""强她""]","","","","","","","","","","","","","","","","","","","","","","","","","","","","","","feedback_test","","","","","","","","",""
"880","","j","psychophysics","26","228369","0.0-8.0-0.0-1.0-0.0-0.8","5","4","4","3","3","4","3","4","3","3","4","-1","0","0","1","-1","0","1","0","4","4","5","4","4","3","4","3","3","4","6","5","4","6","4","5","6","5","6","4","3","4","5","4","3","5","3","6","3","1","4","3","4","4","5","4","3","6","5","4","3","4","3","4","3","4","3","4","4","6","7","5","3","6","3","4","3","6","5","4","581839949964247040","王","145","Female","[""好我"",""坏我"",""坏她"",""好她""]","[""强我"",""弱我"",""弱她"",""强她""]","","","","","","","","match","","","","","","","","","","key","j","16.669369369369264","768","428","f","false","nonmatch","img/hexagon.png","好她","坏我","prac_ALT2_moral","practice_moral","","","","","","","","",""
"null","<span style='color:red; font-size: 70px;'>错误! </span>","null","html-keyboard-response","27","228871","0.0-8.0-0.0-1.0-0.0-1.8","5","4","4","3","3","4","3","4","3","3","4","-1","0","0","1","-1","0","1","0","4","4","5","4","4","3","4","3","3","4","6","5","4","6","4","5","6","5","6","4","3","4","5","4","3","5","3","6","3","1","4","3","4","4","5","4","3","6","5","4","3","4","3","4","3","4","3","4","4","6","7","5","3","6","3","4","3","6","5","4","581839949964247040","王","145","Female","[""好我"",""坏我"",""坏她"",""好她""]","[""强我"",""弱我"",""弱她"",""强她""]","","","","","","","","","","","","","","","","","","","","","","","","","","","","","","feedback_test","","","","","","","","",""
"411","","f","psychophysics","28","230283","0.0-8.0-0.0-1.0-0.0-0.9","5","4","4","3","3","4","3","4","3","3","4","-1","0","0","1","-1","0","1","0","4","4","5","4","4","3","4","3","3","4","6","5","4","6","4","5","6","5","6","4","3","4","5","4","3","5","3","6","3","1","4","3","4","4","5","4","3","6","5","4","3","4","3","4","3","4","3","4","4","6","7","5","3","6","3","4","3","6","5","4","581839949964247040","王","145","Female","[""好我"",""坏我"",""坏她"",""好她""]","[""强我"",""弱我"",""弱她"",""强她""]","","","","","","","","nonmatch","","","","","","","","","","key","f","16.66987951807236","768","428","j","false","match","img/square.png","好她","好她","prac_ALT2_moral","practice_moral","","","","","","","","",""
"null","<span style='color:red; font-size: 70px;'>错误! </span>","null","html-keyboard-response","29","230784","0.0-8.0-0.0-1.0-0.0-1.9","5","4","4","3","3","4","3","4","3","3","4","-1","0","0","1","-1","0","1","0","4","4","5","4","4","3","4","3","3","4","6","5","4","6","4","5","6","5","6","4","3","4","5","4","3","5","3","6","3","1","4","3","4","4","5","4","3","6","5","4","3","4","3","4","3","4","3","4","4","6","7","5","3","6","3","4","3","6","5","4","581839949964247040","王","145","Female","[""好我"",""坏我"",""坏她"",""好她""]","[""强我"",""弱我"",""弱她"",""强她""]","","","","","","","","","","","","","","","","","","","","","","","","","","","","","","feedback_test","","","","","","","","",""
"662","","j","psychophysics","30","232448","0.0-8.0-0.0-1.0-0.0-0.10","5","4","4","3","3","4","3","4","3","3","4","-1","0","0","1","-1","0","1","0","4","4","5","4","4","3","4","3","3","4","6","5","4","6","4","5","6","5","6","4","3","4","5","4","3","5","3","6","3","1","4","3","4","4","5","4","3","6","5","4","3","4","3","4","3","4","3","4","4","6","7","5","3","6","3","4","3","6","5","4","581839949964247040","王","145","Female","[""好我"",""坏我"",""坏她"",""好她""]","[""强我"",""弱我"",""弱她"",""强她""]","","","","","","","","match","","","","","","","","","","key","j","16.669387755101802","768","428","f","false","nonmatch","img/hexagon.png","坏她","坏我","prac_ALT2_moral","practice_moral","","","","","","","","",""
"null","<span style='color:red; font-size: 70px;'>错误! </span>","null","html-keyboard-response","31","232950","0.0-8.0-0.0-1.0-0.0-1.10","5","4","4","3","3","4","3","4","3","3","4","-1","0","0","1","-1","0","1","0","4","4","5","4","4","3","4","3","3","4","6","5","4","6","4","5","6","5","6","4","3","4","5","4","3","5","3","6","3","1","4","3","4","4","5","4","3","6","5","4","3","4","3","4","3","4","3","4","4","6","7","5","3","6","3","4","3","6","5","4","581839949964247040","王","145","Female","[""好我"",""坏我"",""坏她"",""好她""]","[""强我"",""弱我"",""弱她"",""强她""]","","","","","","","","","","","","","","","","","","","","","","","","","","","","","","feedback_test","","","","","","","","",""
"942","","f","psychophysics","32","234894","0.0-8.0-0.0-1.0-0.0-0.11","5","4","4","3","3","4","3","4","3","3","4","-1","0","0","1","-1","0","1","0","4","4","5","4","4","3","4","3","3","4","6","5","4","6","4","5","6","5","6","4","3","4","5","4","3","5","3","6","3","1","4","3","4","4","5","4","3","6","5","4","3","4","3","4","3","4","3","4","4","6","7","5","3","6","3","4","3","6","5","4","581839949964247040","王","145","Female","[""好我"",""坏我"",""坏她"",""好她""]","[""强我"",""弱我"",""弱她"",""强她""]","","","","","","","","nonmatch","","","","","","","","","","key","f","16.669827586206747","768","428","j","false","match","img/square.png","好她","好她","prac_ALT2_moral","practice_moral","","","","","","","","",""
"null","<span style='color:red; font-size: 70px;'>错误! </span>","null","html-keyboard-response","33","235395","0.0-8.0-0.0-1.0-0.0-1.11","5","4","4","3","3","4","3","4","3","3","4","-1","0","0","1","-1","0","1","0","4","4","5","4","4","3","4","3","3","4","6","5","4","6","4","5","6","5","6","4","3","4","5","4","3","5","3","6","3","1","4","3","4","4","5","4","3","6","5","4","3","4","3","4","3","4","3","4","4","6","7","5","3","6","3","4","3","6","5","4","581839949964247040","王","145","Female","[""好我"",""坏我"",""坏她"",""好她""]","[""强我"",""弱我"",""弱她"",""强她""]","","","","","","","","","","","","","","","","","","","","","","","","","","","","","","feedback_test","","","","","","","","",""
"627","","f","psychophysics","34","237024","0.0-8.0-0.0-1.0-0.0-0.12","5","4","4","3","3","4","3","4","3","3","4","-1","0","0","1","-1","0","1","0","4","4","5","4","4","3","4","3","3","4","6","5","4","6","4","5","6","5","6","4","3","4","5","4","3","5","3","6","3","1","4","3","4","4","5","4","3","6","5","4","3","4","3","4","3","4","3","4","4","6","7","5","3","6","3","4","3","6","5","4","581839949964247040","王","145","Female","[""好我"",""坏我"",""坏她"",""好她""]","[""强我"",""弱我"",""弱她"",""强她""]","","","","","","","","nonmatch","","","","","","","","","","key","f","16.66701030927847","768","428","f","true","nonmatch","img/square.png","坏她","好她","prac_ALT2_moral","practice_moral","","","","","","","","",""
"null","<span style='color:GreenYellow; font-size: 70px;'>正确! </span>","null","html-keyboard-response","35","237526","0.0-8.0-0.0-1.0-0.0-1.12","5","4","4","3","3","4","3","4","3","3","4","-1","0","0","1","-1","0","1","0","4","4","5","4","4","3","4","3","3","4","6","5","4","6","4","5","6","5","6","4","3","4","5","4","3","5","3","6","3","1","4","3","4","4","5","4","3","6","5","4","3","4","3","4","3","4","3","4","4","6","7","5","3","6","3","4","3","6","5","4","581839949964247040","王","145","Female","[""好我"",""坏我"",""坏她"",""好她""]","[""强我"",""弱我"",""弱她"",""强她""]","","","","","","","","","","","","","","","","","","","","","","","","","","","","","","feedback_test","","","","","","","","",""
"624","","f","psychophysics","36","239151","0.0-8.0-0.0-1.0-0.0-0.13","5","4","4","3","3","4","3","4","3","3","4","-1","0","0","1","-1","0","1","0","4","4","5","4","4","3","4","3","3","4","6","5","4","6","4","5","6","5","6","4","3","4","5","4","3","5","3","6","3","1","4","3","4","4","5","4","3","6","5","4","3","4","3","4","3","4","3","4","4","6","7","5","3","6","3","4","3","6","5","4","581839949964247040","王","145","Female","[""好我"",""坏我"",""坏她"",""好她""]","[""强我"",""弱我"",""弱她"",""强她""]","","","","","","","","nonmatch","","","","","","","","","","key","f","16.667708333333394","768","428","f","true","nonmatch","img/hexagon.png","好我","坏我","prac_ALT2_moral","practice_moral","","","","","","","","",""
"null","<span style='color:GreenYellow; font-size: 70px;'>正确! </span>","null","html-keyboard-response","37","239652","0.0-8.0-0.0-1.0-0.0-1.13","5","4","4","3","3","4","3","4","3","3","4","-1","0","0","1","-1","0","1","0","4","4","5","4","4","3","4","3","3","4","6","5","4","6","4","5","6","5","6","4","3","4","5","4","3","5","3","6","3","1","4","3","4","4","5","4","3","6","5","4","3","4","3","4","3","4","3","4","4","6","7","5","3","6","3","4","3","6","5","4","581839949964247040","王","145","Female","[""好我"",""坏我"",""坏她"",""好她""]","[""强我"",""弱我"",""弱她"",""强她""]","","","","","","","","","","","","","","","","","","","","","","","","","","","","","","feedback_test","","","","","","","","",""
"773","","f","psychophysics","38","241427","0.0-8.0-0.0-1.0-0.0-0.14","5","4","4","3","3","4","3","4","3","3","4","-1","0","0","1","-1","0","1","0","4","4","5","4","4","3","4","3","3","4","6","5","4","6","4","5","6","5","6","4","3","4","5","4","3","5","3","6","3","1","4","3","4","4","5","4","3","6","5","4","3","4","3","4","3","4","3","4","4","6","7","5","3","6","3","4","3","6","5","4","581839949964247040","王","145","Female","[""好我"",""坏我"",""坏她"",""好她""]","[""强我"",""弱我"",""弱她"",""强她""]","","","","","","","","nonmatch","","","","","","","","","","key","f","16.666037735849113","768","428","j","false","match","img/hexagon.png","坏我","坏我","prac_ALT2_moral","practice_moral","","","","","","","","",""
"null","<span style='color:red; font-size: 70px;'>错误! </span>","null","html-keyboard-response","39","241929","0.0-8.0-0.0-1.0-0.0-1.14","5","4","4","3","3","4","3","4","3","3","4","-1","0","0","1","-1","0","1","0","4","4","5","4","4","3","4","3","3","4","6","5","4","6","4","5","6","5","6","4","3","4","5","4","3","5","3","6","3","1","4","3","4","4","5","4","3","6","5","4","3","4","3","4","3","4","3","4","4","6","7","5","3","6","3","4","3","6","5","4","581839949964247040","王","145","Female","[""好我"",""坏我"",""坏她"",""好她""]","[""强我"",""弱我"",""弱她"",""强她""]","","","","","","","","","","","","","","","","","","","","","","","","","","","","","","feedback_test","","","","","","","","",""
"1150","","f","psychophysics","40","244080","0.0-8.0-0.0-1.0-0.0-0.15","5","4","4","3","3","4","3","4","3","3","4","-1","0","0","1","-1","0","1","0","4","4","5","4","4","3","4","3","3","4","6","5","4","6","4","5","6","5","6","4","3","4","5","4","3","5","3","6","3","1","4","3","4","4","5","4","3","6","5","4","3","4","3","4","3","4","3","4","4","6","7","5","3","6","3","4","3","6","5","4","581839949964247040","王","145","Female","[""好我"",""坏我"",""坏她"",""好她""]","[""强我"",""弱我"",""弱她"",""强她""]","","","","","","","","nonmatch","","","","","","","","","","key","f","16.66692913385813","768","428","j","false","match","img/ellipse.png","坏她","坏她","prac_ALT2_moral","practice_moral","","","","","","","","",""
"null","<span style='color:red; font-size: 70px;'>错误! </span>","null","html-keyboard-response","41","244581","0.0-8.0-0.0-1.0-0.0-1.15","5","4","4","3","3","4","3","4","3","3","4","-1","0","0","1","-1","0","1","0","4","4","5","4","4","3","4","3","3","4","6","5","4","6","4","5","6","5","6","4","3","4","5","4","3","5","3","6","3","1","4","3","4","4","5","4","3","6","5","4","3","4","3","4","3","4","3","4","4","6","7","5","3","6","3","4","3","6","5","4","581839949964247040","王","145","Female","[""好我"",""坏我"",""坏她"",""好她""]","[""强我"",""弱我"",""弱她"",""强她""]","","","","","","","","","","","","","","","","","","","","","","","","","","","","","","feedback_test","","","","","","","","",""
"803","","j","psychophysics","42","246386","0.0-8.0-0.0-1.0-0.0-0.16","5","4","4","3","3","4","3","4","3","3","4","-1","0","0","1","-1","0","1","0","4","4","5","4","4","3","4","3","3","4","6","5","4","6","4","5","6","5","6","4","3","4","5","4","3","5","3","6","3","1","4","3","4","4","5","4","3","6","5","4","3","4","3","4","3","4","3","4","4","6","7","5","3","6","3","4","3","6","5","4","581839949964247040","王","145","Female","[""好我"",""坏我"",""坏她"",""好她""]","[""强我"",""弱我"",""弱她"",""强她""]","","","","","","","","match","","","","","","","","","","key","j","16.667289719626115","768","428","j","true","match","img/ellipse.png","坏她","坏她","prac_ALT2_moral","practice_moral","","","","","","","","",""
"null","<span style='color:GreenYellow; font-size: 70px;'>正确! </span>","null","html-keyboard-response","43","246887","0.0-8.0-0.0-1.0-0.0-1.16","5","4","4","3","3","4","3","4","3","3","4","-1","0","0","1","-1","0","1","0","4","4","5","4","4","3","4","3","3","4","6","5","4","6","4","5","6","5","6","4","3","4","5","4","3","5","3","6","3","1","4","3","4","4","5","4","3","6","5","4","3","4","3","4","3","4","3","4","4","6","7","5","3","6","3","4","3","6","5","4","581839949964247040","王","145","Female","[""好我"",""坏我"",""坏她"",""好她""]","[""强我"",""弱我"",""弱她"",""强她""]","","","","","","","","","","","","","","","","","","","","","","","","","","","","","","feedback_test","","","","","","","","",""
"834","","f","psychophysics","44","248723","0.0-8.0-0.0-1.0-0.0-0.17","5","4","4","3","3","4","3","4","3","3","4","-1","0","0","1","-1","0","1","0","4","4","5","4","4","3","4","3","3","4","6","5","4","6","4","5","6","5","6","4","3","4","5","4","3","5","3","6","3","1","4","3","4","4","5","4","3","6","5","4","3","4","3","4","3","4","3","4","4","6","7","5","3","6","3","4","3","6","5","4","581839949964247040","王","145","Female","[""好我"",""坏我"",""坏她"",""好她""]","[""强我"",""弱我"",""弱她"",""强她""]","","","","","","","","nonmatch","","","","","","","","","","key","f","16.6697247706422","768","428","f","true","nonmatch","img/diamond.png","坏她","好我","prac_ALT2_moral","practice_moral","","","","","","","","",""
"null","<span style='color:GreenYellow; font-size: 70px;'>正确! </span>","null","html-keyboard-response","45","249224","0.0-8.0-0.0-1.0-0.0-1.17","5","4","4","3","3","4","3","4","3","3","4","-1","0","0","1","-1","0","1","0","4","4","5","4","4","3","4","3","3","4","6","5","4","6","4","5","6","5","6","4","3","4","5","4","3","5","3","6","3","1","4","3","4","4","5","4","3","6","5","4","3","4","3","4","3","4","3","4","4","6","7","5","3","6","3","4","3","6","5","4","581839949964247040","王","145","Female","[""好我"",""坏我"",""坏她"",""好她""]","[""强我"",""弱我"",""弱她"",""强她""]","","","","","","","","","","","","","","","","","","","","","","","","","","","","","","feedback_test","","","","","","","","",""
"678","","j","psychophysics","46","250904","0.0-8.0-0.0-1.0-0.0-0.18","5","4","4","3","3","4","3","4","3","3","4","-1","0","0","1","-1","0","1","0","4","4","5","4","4","3","4","3","3","4","6","5","4","6","4","5","6","5","6","4","3","4","5","4","3","5","3","6","3","1","4","3","4","4","5","4","3","6","5","4","3","4","3","4","3","4","3","4","4","6","7","5","3","6","3","4","3","6","5","4","581839949964247040","王","145","Female","[""好我"",""坏我"",""坏她"",""好她""]","[""强我"",""弱我"",""弱她"",""强她""]","","","","","","","","match","","","","","","","","","","key","j","16.67070707070701","768","428","j","true","match","img/ellipse.png","坏她","坏她","prac_ALT2_moral","practice_moral","","","","","","","","",""
"null","<span style='color:GreenYellow; font-size: 70px;'>正确! </span>","null","html-keyboard-response","47","251405","0.0-8.0-0.0-1.0-0.0-1.18","5","4","4","3","3","4","3","4","3","3","4","-1","0","0","1","-1","0","1","0","4","4","5","4","4","3","4","3","3","4","6","5","4","6","4","5","6","5","6","4","3","4","5","4","3","5","3","6","3","1","4","3","4","4","5","4","3","6","5","4","3","4","3","4","3","4","3","4","4","6","7","5","3","6","3","4","3","6","5","4","581839949964247040","王","145","Female","[""好我"",""坏我"",""坏她"",""好她""]","[""强我"",""弱我"",""弱她"",""强她""]","","","","","","","","","","","","","","","","","","","","","","","","","","","","","","feedback_test","","","","","","","","",""
"878","","j","psychophysics","48","253284","0.0-8.0-0.0-1.0-0.0-0.19","5","4","4","3","3","4","3","4","3","3","4","-1","0","0","1","-1","0","1","0","4","4","5","4","4","3","4","3","3","4","6","5","4","6","4","5","6","5","6","4","3","4","5","4","3","5","3","6","3","1","4","3","4","4","5","4","3","6","5","4","3","4","3","4","3","4","3","4","4","6","7","5","3","6","3","4","3","6","5","4","581839949964247040","王","145","Female","[""好我"",""坏我"",""坏她"",""好她""]","[""强我"",""弱我"",""弱她"",""强她""]","","","","","","","","match","","","","","","","","","","key","j","16.666666666666668","768","428","f","false","nonmatch","img/diamond.png","好她","好我","prac_ALT2_moral","practice_moral","","","","","","","","",""
"null","<span style='color:red; font-size: 70px;'>错误! </span>","null","html-keyboard-response","49","253786","0.0-8.0-0.0-1.0-0.0-1.19","5","4","4","3","3","4","3","4","3","3","4","-1","0","0","1","-1","0","1","0","4","4","5","4","4","3","4","3","3","4","6","5","4","6","4","5","6","5","6","4","3","4","5","4","3","5","3","6","3","1","4","3","4","4","5","4","3","6","5","4","3","4","3","4","3","4","3","4","4","6","7","5","3","6","3","4","3","6","5","4","581839949964247040","王","145","Female","[""好我"",""坏我"",""坏她"",""好她""]","[""强我"",""弱我"",""弱她"",""强她""]","","","","","","","","","","","","","","","","","","","","","","","","","","","","","","feedback_test","","","","","","","","",""
"1102","","j","psychophysics","50","255890","0.0-8.0-0.0-1.0-0.0-0.20","5","4","4","3","3","4","3","4","3","3","4","-1","0","0","1","-1","0","1","0","4","4","5","4","4","3","4","3","3","4","6","5","4","6","4","5","6","5","6","4","3","4","5","4","3","5","3","6","3","1","4","3","4","4","5","4","3","6","5","4","3","4","3","4","3","4","3","4","4","6","7","5","3","6","3","4","3","6","5","4","581839949964247040","王","145","Female","[""好我"",""坏我"",""坏她"",""好她""]","[""强我"",""弱我"",""弱她"",""强她""]","","","","","","","","match","","","","","","","","","","key","j","16.660800000000048","768","428","j","true","match","img/hexagon.png","坏我","坏我","prac_ALT2_moral","practice_moral","","","","","","","","",""
"null","<span style='color:GreenYellow; font-size: 70px;'>正确! </span>","null","html-keyboard-response","51","256391","0.0-8.0-0.0-1.0-0.0-1.20","5","4","4","3","3","4","3","4","3","3","4","-1","0","0","1","-1","0","1","0","4","4","5","4","4","3","4","3","3","4","6","5","4","6","4","5","6","5","6","4","3","4","5","4","3","5","3","6","3","1","4","3","4","4","5","4","3","6","5","4","3","4","3","4","3","4","3","4","4","6","7","5","3","6","3","4","3","6","5","4","581839949964247040","王","145","Female","[""好我"",""坏我"",""坏她"",""好她""]","[""强我"",""弱我"",""弱她"",""强她""]","","","","","","","","","","","","","","","","","","","","","","","","","","","","","","feedback_test","","","","","","","","",""
"877","","f","psychophysics","52","258270","0.0-8.0-0.0-1.0-0.0-0.21","5","4","4","3","3","4","3","4","3","3","4","-1","0","0","1","-1","0","1","0","4","4","5","4","4","3","4","3","3","4","6","5","4","6","4","5","6","5","6","4","3","4","5","4","3","5","3","6","3","1","4","3","4","4","5","4","3","6","5","4","3","4","3","4","3","4","3","4","4","6","7","5","3","6","3","4","3","6","5","4","581839949964247040","王","145","Female","[""好我"",""坏我"",""坏她"",""好她""]","[""强我"",""弱我"",""弱她"",""强她""]","","","","","","","","nonmatch","","","","","","","","","","key","f","16.668468468468312","768","428","j","false","match","img/square.png","好她","好她","prac_ALT2_moral","practice_moral","","","","","","","","",""
"null","<span style='color:red; font-size: 70px;'>错误! </span>","null","html-keyboard-response","53","258771","0.0-8.0-0.0-1.0-0.0-1.21","5","4","4","3","3","4","3","4","3","3","4","-1","0","0","1","-1","0","1","0","4","4","5","4","4","3","4","3","3","4","6","5","4","6","4","5","6","5","6","4","3","4","5","4","3","5","3","6","3","1","4","3","4","4","5","4","3","6","5","4","3","4","3","4","3","4","3","4","4","6","7","5","3","6","3","4","3","6","5","4","581839949964247040","王","145","Female","[""好我"",""坏我"",""坏她"",""好她""]","[""强我"",""弱我"",""弱她"",""强她""]","","","","","","","","","","","","","","","","","","","","","","","","","","","","","","feedback_test","","","","","","","","",""
"1120","","j","psychophysics","54","260894","0.0-8.0-0.0-1.0-0.0-0.22","5","4","4","3","3","4","3","4","3","3","4","-1","0","0","1","-1","0","1","0","4","4","5","4","4","3","4","3","3","4","6","5","4","6","4","5","6","5","6","4","3","4","5","4","3","5","3","6","3","1","4","3","4","4","5","4","3","6","5","4","3","4","3","4","3","4","3","4","4","6","7","5","3","6","3","4","3","6","5","4","581839949964247040","王","145","Female","[""好我"",""坏我"",""坏她"",""好她""]","[""强我"",""弱我"",""弱她"",""强她""]","","","","","","","","match","","","","","","","","","","key","j","16.669841269841225","768","428","f","false","nonmatch","img/diamond.png","坏我","好我","prac_ALT2_moral","practice_moral","","","","","","","","",""
"null","<span style='color:red; font-size: 70px;'>错误! </span>","null","html-keyboard-response","55","261395","0.0-8.0-0.0-1.0-0.0-1.22","5","4","4","3","3","4","3","4","3","3","4","-1","0","0","1","-1","0","1","0","4","4","5","4","4","3","4","3","3","4","6","5","4","6","4","5","6","5","6","4","3","4","5","4","3","5","3","6","3","1","4","3","4","4","5","4","3","6","5","4","3","4","3","4","3","4","3","4","4","6","7","5","3","6","3","4","3","6","5","4","581839949964247040","王","145","Female","[""好我"",""坏我"",""坏她"",""好她""]","[""强我"",""弱我"",""弱她"",""强她""]","","","","","","","","","","","","","","","","","","","","","","","","","","","","","","feedback_test","","","","","","","","",""
"null","","null","psychophysics","56","263600","0.0-8.0-0.0-1.0-0.0-0.23","5","4","4","3","3","4","3","4","3","3","4","-1","0","0","1","-1","0","1","0","4","4","5","4","4","3","4","3","3","4","6","5","4","6","4","5","6","5","6","4","3","4","5","4","3","5","3","6","3","1","4","3","4","4","5","4","3","6","5","4","3","4","3","4","3","4","3","4","4","6","7","5","3","6","3","4","3","6","5","4","581839949964247040","王","145","Female","[""好我"",""坏我"",""坏她"",""好她""]","[""强我"",""弱我"",""弱她"",""强她""]","","","","","","","","null","","","","","","","","","","key","null","16.66870229007616","768","428","j","false","match","img/diamond.png","好我","好我","prac_ALT2_moral","practice_moral","","","","","","","","",""
"null","<span class='add_' style='color:yellow; font-size: 70px;'> 太慢! </span>","null","html-keyboard-response","57","264101","0.0-8.0-0.0-1.0-0.0-1.23","5","4","4","3","3","4","3","4","3","3","4","-1","0","0","1","-1","0","1","0","4","4","5","4","4","3","4","3","3","4","6","5","4","6","4","5","6","5","6","4","3","4","5","4","3","5","3","6","3","1","4","3","4","4","5","4","3","6","5","4","3","4","3","4","3","4","3","4","4","6","7","5","3","6","3","4","3","6","5","4","581839949964247040","王","145","Female","[""好我"",""坏我"",""坏她"",""好她""]","[""强我"",""弱我"",""弱她"",""强她""]","","","","","","","","","","","","","","","","","","","","","","","","","","","","","","feedback_test","","","","","","","","",""
"356","","j","psychophysics","58","265460","0.0-8.0-0.0-1.0-0.0-0.24","5","4","4","3","3","4","3","4","3","3","4","-1","0","0","1","-1","0","1","0","4","4","5","4","4","3","4","3","3","4","6","5","4","6","4","5","6","5","6","4","3","4","5","4","3","5","3","6","3","1","4","3","4","4","5","4","3","6","5","4","3","4","3","4","3","4","3","4","4","6","7","5","3","6","3","4","3","6","5","4","581839949964247040","王","145","Female","[""好我"",""坏我"",""坏她"",""好她""]","[""强我"",""弱我"",""弱她"",""强她""]","","","","","","","","match","","","","","","","","","","key","j","16.66296296296239","768","428","j","true","match","img/diamond.png","好我","好我","prac_ALT2_moral","practice_moral","","","","","","","","",""
"null","<span style='color:GreenYellow; font-size: 70px;'>正确! </span>","null","html-keyboard-response","59","265961","0.0-8.0-0.0-1.0-0.0-1.24","5","4","4","3","3","4","3","4","3","3","4","-1","0","0","1","-1","0","1","0","4","4","5","4","4","3","4","3","3","4","6","5","4","6","4","5","6","5","6","4","3","4","5","4","3","5","3","6","3","1","4","3","4","4","5","4","3","6","5","4","3","4","3","4","3","4","3","4","4","6","7","5","3","6","3","4","3","6","5","4","581839949964247040","王","145","Female","[""好我"",""坏我"",""坏她"",""好她""]","[""强我"",""弱我"",""弱她"",""强她""]","","","","","","","","","","","","","","","","","","","","","","","","","","","","","","feedback_test","","","","","","","","",""
"458","","j","psychophysics","60","267421","0.0-8.0-0.0-1.0-0.0-0.25","5","4","4","3","3","4","3","4","3","3","4","-1","0","0","1","-1","0","1","0","4","4","5","4","4","3","4","3","3","4","6","5","4","6","4","5","6","5","6","4","3","4","5","4","3","5","3","6","3","1","4","3","4","4","5","4","3","6","5","4","3","4","3","4","3","4","3","4","4","6","7","5","3","6","3","4","3","6","5","4","581839949964247040","王","145","Female","[""好我"",""坏我"",""坏她"",""好她""]","[""强我"",""弱我"",""弱她"",""强她""]","","","","","","","","match","","","","","","","","","","key","j","16.666666666666668","768","428","f","false","nonmatch","img/square.png","坏她","好她","prac_ALT2_moral","practice_moral","","","","","","","","",""
"null","<span style='color:red; font-size: 70px;'>错误! </span>","null","html-keyboard-response","61","267922","0.0-8.0-0.0-1.0-0.0-1.25","5","4","4","3","3","4","3","4","3","3","4","-1","0","0","1","-1","0","1","0","4","4","5","4","4","3","4","3","3","4","6","5","4","6","4","5","6","5","6","4","3","4","5","4","3","5","3","6","3","1","4","3","4","4","5","4","3","6","5","4","3","4","3","4","3","4","3","4","4","6","7","5","3","6","3","4","3","6","5","4","581839949964247040","王","145","Female","[""好我"",""坏我"",""坏她"",""好她""]","[""强我"",""弱我"",""弱她"",""强她""]","","","","","","","","","","","","","","","","","","","","","","","","","","","","","","feedback_test","","","","","","","","",""
"867","","j","psychophysics","62","269791","0.0-8.0-0.0-1.0-0.0-0.26","5","4","4","3","3","4","3","4","3","3","4","-1","0","0","1","-1","0","1","0","4","4","5","4","4","3","4","3","3","4","6","5","4","6","4","5","6","5","6","4","3","4","5","4","3","5","3","6","3","1","4","3","4","4","5","4","3","6","5","4","3","4","3","4","3","4","3","4","4","6","7","5","3","6","3","4","3","6","5","4","581839949964247040","王","145","Female","[""好我"",""坏我"",""坏她"",""好她""]","[""强我"",""弱我"",""弱她"",""强她""]","","","","","","","","match","","","","","","","","","","key","j","16.67117117117117","768","428","f","false","nonmatch","img/diamond.png","坏我","好我","prac_ALT2_moral","practice_moral","","","","","","","","",""
"null","<span style='color:red; font-size: 70px;'>错误! </span>","null","html-keyboard-response","63","270292","0.0-8.0-0.0-1.0-0.0-1.26","5","4","4","3","3","4","3","4","3","3","4","-1","0","0","1","-1","0","1","0","4","4","5","4","4","3","4","3","3","4","6","5","4","6","4","5","6","5","6","4","3","4","5","4","3","5","3","6","3","1","4","3","4","4","5","4","3","6","5","4","3","4","3","4","3","4","3","4","4","6","7","5","3","6","3","4","3","6","5","4","581839949964247040","王","145","Female","[""好我"",""坏我"",""坏她"",""好她""]","[""强我"",""弱我"",""弱她"",""强她""]","","","","","","","","","","","","","","","","","","","","","","","","","","","","","","feedback_test","","","","","","","","",""
"null","","null","psychophysics","64","272496","0.0-8.0-0.0-1.0-0.0-0.27","5","4","4","3","3","4","3","4","3","3","4","-1","0","0","1","-1","0","1","0","4","4","5","4","4","3","4","3","3","4","6","5","4","6","4","5","6","5","6","4","3","4","5","4","3","5","3","6","3","1","4","3","4","4","5","4","3","6","5","4","3","4","3","4","3","4","3","4","4","6","7","5","3","6","3","4","3","6","5","4","581839949964247040","王","145","Female","[""好我"",""坏我"",""坏她"",""好她""]","[""强我"",""弱我"",""弱她"",""强她""]","","","","","","","","null","","","","","","","","","","key","null","16.669465648854608","768","428","f","false","nonmatch","img/diamond.png","坏她","好我","prac_ALT2_moral","practice_moral","","","","","","","","",""
"null","<span class='add_' style='color:yellow; font-size: 70px;'> 太慢! </span>","null","html-keyboard-response","65","272997","0.0-8.0-0.0-1.0-0.0-1.27","5","4","4","3","3","4","3","4","3","3","4","-1","0","0","1","-1","0","1","0","4","4","5","4","4","3","4","3","3","4","6","5","4","6","4","5","6","5","6","4","3","4","5","4","3","5","3","6","3","1","4","3","4","4","5","4","3","6","5","4","3","4","3","4","3","4","3","4","4","6","7","5","3","6","3","4","3","6","5","4","581839949964247040","王","145","Female","[""好我"",""坏我"",""坏她"",""好她""]","[""强我"",""弱我"",""弱她"",""强她""]","","","","","","","","","","","","","","","","","","","","","","","","","","","","","","feedback_test","","","","","","","","",""
"261","","j","psychophysics","66","274259","0.0-8.0-0.0-1.0-0.0-0.28","5","4","4","3","3","4","3","4","3","3","4","-1","0","0","1","-1","0","1","0","4","4","5","4","4","3","4","3","3","4","6","5","4","6","4","5","6","5","6","4","3","4","5","4","3","5","3","6","3","1","4","3","4","4","5","4","3","6","5","4","3","4","3","4","3","4","3","4","4","6","7","5","3","6","3","4","3","6","5","4","581839949964247040","王","145","Female","[""好我"",""坏我"",""坏她"",""好她""]","[""强我"",""弱我"",""弱她"",""强她""]","","","","","","","","match","","","","","","","","","","key","j","16.66891891891892","768","428","f","false","nonmatch","img/square.png","坏我","好她","prac_ALT2_moral","practice_moral","","","","","","","","",""
"null","<span style='color:red; font-size: 70px;'>错误! </span>","null","html-keyboard-response","67","274760","0.0-8.0-0.0-1.0-0.0-1.28","5","4","4","3","3","4","3","4","3","3","4","-1","0","0","1","-1","0","1","0","4","4","5","4","4","3","4","3","3","4","6","5","4","6","4","5","6","5","6","4","3","4","5","4","3","5","3","6","3","1","4","3","4","4","5","4","3","6","5","4","3","4","3","4","3","4","3","4","4","6","7","5","3","6","3","4","3","6","5","4","581839949964247040","王","145","Female","[""好我"",""坏我"",""坏她"",""好她""]","[""强我"",""弱我"",""弱她"",""强她""]","","","","","","","","","","","","","","","","","","","","","","","","","","","","","","feedback_test","","","","","","","","",""
"null","","null","psychophysics","68","276964","0.0-8.0-0.0-1.0-0.0-0.29","5","4","4","3","3","4","3","4","3","3","4","-1","0","0","1","-1","0","1","0","4","4","5","4","4","3","4","3","3","4","6","5","4","6","4","5","6","5","6","4","3","4","5","4","3","5","3","6","3","1","4","3","4","4","5","4","3","6","5","4","3","4","3","4","3","4","3","4","4","6","7","5","3","6","3","4","3","6","5","4","581839949964247040","王","145","Female","[""好我"",""坏我"",""坏她"",""好她""]","[""强我"",""弱我"",""弱她"",""强她""]","","","","","","","","null","","","","","","","","","","key","null","16.66846153846127","768","428","j","false","match","img/ellipse.png","坏她","坏她","prac_ALT2_moral","practice_moral","","","","","","","","",""
"null","<span class='add_' style='color:yellow; font-size: 70px;'> 太慢! </span>","null","html-keyboard-response","69","277466","0.0-8.0-0.0-1.0-0.0-1.29","5","4","4","3","3","4","3","4","3","3","4","-1","0","0","1","-1","0","1","0","4","4","5","4","4","3","4","3","3","4","6","5","4","6","4","5","6","5","6","4","3","4","5","4","3","5","3","6","3","1","4","3","4","4","5","4","3","6","5","4","3","4","3","4","3","4","3","4","4","6","7","5","3","6","3","4","3","6","5","4","581839949964247040","王","145","Female","[""好我"",""坏我"",""坏她"",""好她""]","[""强我"",""弱我"",""弱她"",""强她""]","","","","","","","","","","","","","","","","","","","","","","","","","","","","","","feedback_test","","","","","","","","",""
"null","","null","psychophysics","70","279669","0.0-8.0-0.0-1.0-0.0-0.30","5","4","4","3","3","4","3","4","3","3","4","-1","0","0","1","-1","0","1","0","4","4","5","4","4","3","4","3","3","4","6","5","4","6","4","5","6","5","6","4","3","4","5","4","3","5","3","6","3","1","4","3","4","4","5","4","3","6","5","4","3","4","3","4","3","4","3","4","4","6","7","5","3","6","3","4","3","6","5","4","581839949964247040","王","145","Female","[""好我"",""坏我"",""坏她"",""好她""]","[""强我"",""弱我"",""弱她"",""强她""]","","","","","","","","null","","","","","","","","","","key","null","16.66846153846127","768","428","j","false","match","img/hexagon.png","坏我","坏我","prac_ALT2_moral","practice_moral","","","","","","","","",""
"null","<span class='add_' style='color:yellow; font-size: 70px;'> 太慢! </span>","null","html-keyboard-response","71","280170","0.0-8.0-0.0-1.0-0.0-1.30","5","4","4","3","3","4","3","4","3","3","4","-1","0","0","1","-1","0","1","0","4","4","5","4","4","3","4","3","3","4","6","5","4","6","4","5","6","5","6","4","3","4","5","4","3","5","3","6","3","1","4","3","4","4","5","4","3","6","5","4","3","4","3","4","3","4","3","4","4","6","7","5","3","6","3","4","3","6","5","4","581839949964247040","王","145","Female","[""好我"",""坏我"",""坏她"",""好她""]","[""强我"",""弱我"",""弱她"",""强她""]","","","","","","","","","","","","","","","","","","","","","","","","","","","","","","feedback_test","","","","","","","","",""
"980","","j","psychophysics","72","282151","0.0-8.0-0.0-1.0-0.0-0.31","5","4","4","3","3","4","3","4","3","3","4","-1","0","0","1","-1","0","1","0","4","4","5","4","4","3","4","3","3","4","6","5","4","6","4","5","6","5","6","4","3","4","5","4","3","5","3","6","3","1","4","3","4","4","5","4","3","6","5","4","3","4","3","4","3","4","3","4","4","6","7","5","3","6","3","4","3","6","5","4","581839949964247040","王","145","Female","[""好我"",""坏我"",""坏她"",""好她""]","[""强我"",""弱我"",""弱她"",""强她""]","","","","","","","","match","","","","","","","","","","key","j","16.666666666666668","768","428","f","false","nonmatch","img/diamond.png","好她","好我","prac_ALT2_moral","practice_moral","","","","","","","","",""
"null","<span style='color:red; font-size: 70px;'>错误! </span>","null","html-keyboard-response","73","282652","0.0-8.0-0.0-1.0-0.0-1.31","5","4","4","3","3","4","3","4","3","3","4","-1","0","0","1","-1","0","1","0","4","4","5","4","4","3","4","3","3","4","6","5","4","6","4","5","6","5","6","4","3","4","5","4","3","5","3","6","3","1","4","3","4","4","5","4","3","6","5","4","3","4","3","4","3","4","3","4","4","6","7","5","3","6","3","4","3","6","5","4","581839949964247040","王","145","Female","[""好我"",""坏我"",""坏她"",""好她""]","[""强我"",""弱我"",""弱她"",""强她""]","","","","","","","","","","","","","","","","","","","","","","","","","","","","","","feedback_test","","","","","","","","",""
"869","","f","psychophysics","74","284522","0.0-8.0-0.0-1.0-0.0-0.32","5","4","4","3","3","4","3","4","3","3","4","-1","0","0","1","-1","0","1","0","4","4","5","4","4","3","4","3","3","4","6","5","4","6","4","5","6","5","6","4","3","4","5","4","3","5","3","6","3","1","4","3","4","4","5","4","3","6","5","4","3","4","3","4","3","4","3","4","4","6","7","5","3","6","3","4","3","6","5","4","581839949964247040","王","145","Female","[""好我"",""坏我"",""坏她"",""好她""]","[""强我"",""弱我"",""弱她"",""强她""]","","","","","","","","nonmatch","","","","","","","","","","key","f","16.666666666666668","768","428","j","false","match","img/ellipse.png","坏她","坏她","prac_ALT2_moral","practice_moral","","","","","","","","",""
"null","<span style='color:red; font-size: 70px;'>错误! </span>","null","html-keyboard-response","75","285023","0.0-8.0-0.0-1.0-0.0-1.32","5","4","4","3","3","4","3","4","3","3","4","-1","0","0","1","-1","0","1","0","4","4","5","4","4","3","4","3","3","4","6","5","4","6","4","5","6","5","6","4","3","4","5","4","3","5","3","6","3","1","4","3","4","4","5","4","3","6","5","4","3","4","3","4","3","4","3","4","4","6","7","5","3","6","3","4","3","6","5","4","581839949964247040","王","145","Female","[""好我"",""坏我"",""坏她"",""好她""]","[""强我"",""弱我"",""弱她"",""强她""]","","","","","","","","","","","","","","","","","","","","","","","","","","","","","","feedback_test","","","","","","","","",""
"null","","null","psychophysics","76","287228","0.0-8.0-0.0-1.0-0.0-0.33","5","4","4","3","3","4","3","4","3","3","4","-1","0","0","1","-1","0","1","0","4","4","5","4","4","3","4","3","3","4","6","5","4","6","4","5","6","5","6","4","3","4","5","4","3","5","3","6","3","1","4","3","4","4","5","4","3","6","5","4","3","4","3","4","3","4","3","4","4","6","7","5","3","6","3","4","3","6","5","4","581839949964247040","王","145","Female","[""好我"",""坏我"",""坏她"",""好她""]","[""强我"",""弱我"",""弱她"",""强她""]","","","","","","","","null","","","","","","","","","","key","null","16.669465648855052","768","428","j","false","match","img/diamond.png","好我","好我","prac_ALT2_moral","practice_moral","","","","","","","","",""
"null","<span class='add_' style='color:yellow; font-size: 70px;'> 太慢! </span>","null","html-keyboard-response","77","287730","0.0-8.0-0.0-1.0-0.0-1.33","5","4","4","3","3","4","3","4","3","3","4","-1","0","0","1","-1","0","1","0","4","4","5","4","4","3","4","3","3","4","6","5","4","6","4","5","6","5","6","4","3","4","5","4","3","5","3","6","3","1","4","3","4","4","5","4","3","6","5","4","3","4","3","4","3","4","3","4","4","6","7","5","3","6","3","4","3","6","5","4","581839949964247040","王","145","Female","[""好我"",""坏我"",""坏她"",""好她""]","[""强我"",""弱我"",""弱她"",""强她""]","","","","","","","","","","","","","","","","","","","","","","","","","","","","","","feedback_test","","","","","","","","",""
"932","","f","psychophysics","78","289663","0.0-8.0-0.0-1.0-0.0-0.34","5","4","4","3","3","4","3","4","3","3","4","-1","0","0","1","-1","0","1","0","4","4","5","4","4","3","4","3","3","4","6","5","4","6","4","5","6","5","6","4","3","4","5","4","3","5","3","6","3","1","4","3","4","4","5","4","3","6","5","4","3","4","3","4","3","4","3","4","4","6","7","5","3","6","3","4","3","6","5","4","581839949964247040","王","145","Female","[""好我"",""坏我"",""坏她"",""好她""]","[""强我"",""弱我"",""弱她"",""强她""]","","","","","","","","nonmatch","","","","","","","","","","key","f","16.66491228070216","768","428","j","false","match","img/hexagon.png","坏我","坏我","prac_ALT2_moral","practice_moral","","","","","","","","",""
"null","<span style='color:red; font-size: 70px;'>错误! </span>","null","html-keyboard-response","79","290164","0.0-8.0-0.0-1.0-0.0-1.34","5","4","4","3","3","4","3","4","3","3","4","-1","0","0","1","-1","0","1","0","4","4","5","4","4","3","4","3","3","4","6","5","4","6","4","5","6","5","6","4","3","4","5","4","3","5","3","6","3","1","4","3","4","4","5","4","3","6","5","4","3","4","3","4","3","4","3","4","4","6","7","5","3","6","3","4","3","6","5","4","581839949964247040","王","145","Female","[""好我"",""坏我"",""坏她"",""好她""]","[""强我"",""弱我"",""弱她"",""强她""]","","","","","","","","","","","","","","","","","","","","","","","","","","","","","","feedback_test","","","","","","","","",""
"672","","j","psychophysics","80","291838","0.0-8.0-0.0-1.0-0.0-0.35","5","4","4","3","3","4","3","4","3","3","4","-1","0","0","1","-1","0","1","0","4","4","5","4","4","3","4","3","3","4","6","5","4","6","4","5","6","5","6","4","3","4","5","4","3","5","3","6","3","1","4","3","4","4","5","4","3","6","5","4","3","4","3","4","3","4","3","4","4","6","7","5","3","6","3","4","3","6","5","4","581839949964247040","王","145","Female","[""好我"",""坏我"",""坏她"",""好她""]","[""强我"",""弱我"",""弱她"",""强她""]","","","","","","","","match","","","","","","","","","","key","j","16.66969696969685","768","428","j","true","match","img/ellipse.png","坏她","坏她","prac_ALT2_moral","practice_moral","","","","","","","","",""
"null","<span style='color:GreenYellow; font-size: 70px;'>正确! </span>","null","html-keyboard-response","81","292339","0.0-8.0-0.0-1.0-0.0-1.35","5","4","4","3","3","4","3","4","3","3","4","-1","0","0","1","-1","0","1","0","4","4","5","4","4","3","4","3","3","4","6","5","4","6","4","5","6","5","6","4","3","4","5","4","3","5","3","6","3","1","4","3","4","4","5","4","3","6","5","4","3","4","3","4","3","4","3","4","4","6","7","5","3","6","3","4","3","6","5","4","581839949964247040","王","145","Female","[""好我"",""坏我"",""坏她"",""好她""]","[""强我"",""弱我"",""弱她"",""强她""]","","","","","","","","","","","","","","","","","","","","","","","","","","","","","","feedback_test","","","","","","","","",""
"926","","f","psychophysics","82","294268","0.0-8.0-0.0-1.0-0.0-0.36","5","4","4","3","3","4","3","4","3","3","4","-1","0","0","1","-1","0","1","0","4","4","5","4","4","3","4","3","3","4","6","5","4","6","4","5","6","5","6","4","3","4","5","4","3","5","3","6","3","1","4","3","4","4","5","4","3","6","5","4","3","4","3","4","3","4","3","4","4","6","7","5","3","6","3","4","3","6","5","4","581839949964247040","王","145","Female","[""好我"",""坏我"",""坏她"",""好她""]","[""强我"",""弱我"",""弱她"",""强她""]","","","","","","","","nonmatch","","","","","","","","","","key","f","16.66754385964892","768","428","f","true","nonmatch","img/ellipse.png","坏我","坏她","prac_ALT2_moral","practice_moral","","","","","","","","",""
"null","<span style='color:GreenYellow; font-size: 70px;'>正确! </span>","null","html-keyboard-response","83","294768","0.0-8.0-0.0-1.0-0.0-1.36","5","4","4","3","3","4","3","4","3","3","4","-1","0","0","1","-1","0","1","0","4","4","5","4","4","3","4","3","3","4","6","5","4","6","4","5","6","5","6","4","3","4","5","4","3","5","3","6","3","1","4","3","4","4","5","4","3","6","5","4","3","4","3","4","3","4","3","4","4","6","7","5","3","6","3","4","3","6","5","4","581839949964247040","王","145","Female","[""好我"",""坏我"",""坏她"",""好她""]","[""强我"",""弱我"",""弱她"",""强她""]","","","","","","","","","","","","","","","","","","","","","","","","","","","","","","feedback_test","","","","","","","","",""
"684","","j","psychophysics","84","296454","0.0-8.0-0.0-1.0-0.0-0.37","5","4","4","3","3","4","3","4","3","3","4","-1","0","0","1","-1","0","1","0","4","4","5","4","4","3","4","3","3","4","6","5","4","6","4","5","6","5","6","4","3","4","5","4","3","5","3","6","3","1","4","3","4","4","5","4","3","6","5","4","3","4","3","4","3","4","3","4","4","6","7","5","3","6","3","4","3","6","5","4","581839949964247040","王","145","Female","[""好我"",""坏我"",""坏她"",""好她""]","[""强我"",""弱我"",""弱她"",""强她""]","","","","","","","","match","","","","","","","","","","key","j","16.655999999999768","768","428","f","false","nonmatch","img/hexagon.png","好她","坏我","prac_ALT2_moral","practice_moral","","","","","","","","",""
"null","<span style='color:red; font-size: 70px;'>错误! </span>","null","html-keyboard-response","85","296955","0.0-8.0-0.0-1.0-0.0-1.37","5","4","4","3","3","4","3","4","3","3","4","-1","0","0","1","-1","0","1","0","4","4","5","4","4","3","4","3","3","4","6","5","4","6","4","5","6","5","6","4","3","4","5","4","3","5","3","6","3","1","4","3","4","4","5","4","3","6","5","4","3","4","3","4","3","4","3","4","4","6","7","5","3","6","3","4","3","6","5","4","581839949964247040","王","145","Female","[""好我"",""坏我"",""坏她"",""好她""]","[""强我"",""弱我"",""弱她"",""强她""]","","","","","","","","","","","","","","","","","","","","","","","","","","","","","","feedback_test","","","","","","","","",""
"947","","f","psychophysics","86","298903","0.0-8.0-0.0-1.0-0.0-0.38","5","4","4","3","3","4","3","4","3","3","4","-1","0","0","1","-1","0","1","0","4","4","5","4","4","3","4","3","3","4","6","5","4","6","4","5","6","5","6","4","3","4","5","4","3","5","3","6","3","1","4","3","4","4","5","4","3","6","5","4","3","4","3","4","3","4","3","4","4","6","7","5","3","6","3","4","3","6","5","4","581839949964247040","王","145","Female","[""好我"",""坏我"",""坏她"",""好她""]","[""强我"",""弱我"",""弱她"",""强她""]","","","","","","","","nonmatch","","","","","","","","","","key","f","16.66869565217361","768","428","j","false","match","img/hexagon.png","坏我","坏我","prac_ALT2_moral","practice_moral","","","","","","","","",""
"null","<span style='color:red; font-size: 70px;'>错误! </span>","null","html-keyboard-response","87","299406","0.0-8.0-0.0-1.0-0.0-1.38","5","4","4","3","3","4","3","4","3","3","4","-1","0","0","1","-1","0","1","0","4","4","5","4","4","3","4","3","3","4","6","5","4","6","4","5","6","5","6","4","3","4","5","4","3","5","3","6","3","1","4","3","4","4","5","4","3","6","5","4","3","4","3","4","3","4","3","4","4","6","7","5","3","6","3","4","3","6","5","4","581839949964247040","王","145","Female","[""好我"",""坏我"",""坏她"",""好她""]","[""强我"",""弱我"",""弱她"",""强她""]","","","","","","","","","","","","","","","","","","","","","","","","","","","","","","feedback_test","","","","","","","","",""
"938","","j","psychophysics","88","301346","0.0-8.0-0.0-1.0-0.0-0.39","5","4","4","3","3","4","3","4","3","3","4","-1","0","0","1","-1","0","1","0","4","4","5","4","4","3","4","3","3","4","6","5","4","6","4","5","6","5","6","4","3","4","5","4","3","5","3","6","3","1","4","3","4","4","5","4","3","6","5","4","3","4","3","4","3","4","3","4","4","6","7","5","3","6","3","4","3","6","5","4","581839949964247040","王","145","Female","[""好我"",""坏我"",""坏她"",""好她""]","[""强我"",""弱我"",""弱她"",""强她""]","","","","","","","","match","","","","","","","","","","key","j","16.669565217391305","768","428","f","false","nonmatch","img/ellipse.png","好我","坏她","prac_ALT2_moral","practice_moral","","","","","","","","",""
"null","<span style='color:red; font-size: 70px;'>错误! </span>","null","html-keyboard-response","89","301846","0.0-8.0-0.0-1.0-0.0-1.39","5","4","4","3","3","4","3","4","3","3","4","-1","0","0","1","-1","0","1","0","4","4","5","4","4","3","4","3","3","4","6","5","4","6","4","5","6","5","6","4","3","4","5","4","3","5","3","6","3","1","4","3","4","4","5","4","3","6","5","4","3","4","3","4","3","4","3","4","4","6","7","5","3","6","3","4","3","6","5","4","581839949964247040","王","145","Female","[""好我"",""坏我"",""坏她"",""好她""]","[""强我"",""弱我"",""弱她"",""强她""]","","","","","","","","","","","","","","","","","","","","","","","","","","","","","","feedback_test","","","","","","","","",""
"null","","null","psychophysics","90","304051","0.0-8.0-0.0-1.0-0.0-0.40","5","4","4","3","3","4","3","4","3","3","4","-1","0","0","1","-1","0","1","0","4","4","5","4","4","3","4","3","3","4","6","5","4","6","4","5","6","5","6","4","3","4","5","4","3","5","3","6","3","1","4","3","4","4","5","4","3","6","5","4","3","4","3","4","3","4","3","4","4","6","7","5","3","6","3","4","3","6","5","4","581839949964247040","王","145","Female","[""好我"",""坏我"",""坏她"",""好她""]","[""强我"",""弱我"",""弱她"",""强她""]","","","","","","","","null","","","","","","","","","","key","null","16.66923076923077","768","428","j","false","match","img/square.png","好她","好她","prac_ALT2_moral","practice_moral","","","","","","","","",""
"null","<span class='add_' style='color:yellow; font-size: 70px;'> 太慢! </span>","null","html-keyboard-response","91","304553","0.0-8.0-0.0-1.0-0.0-1.40","5","4","4","3","3","4","3","4","3","3","4","-1","0","0","1","-1","0","1","0","4","4","5","4","4","3","4","3","3","4","6","5","4","6","4","5","6","5","6","4","3","4","5","4","3","5","3","6","3","1","4","3","4","4","5","4","3","6","5","4","3","4","3","4","3","4","3","4","4","6","7","5","3","6","3","4","3","6","5","4","581839949964247040","王","145","Female","[""好我"",""坏我"",""坏她"",""好她""]","[""强我"",""弱我"",""弱她"",""强她""]","","","","","","","","","","","","","","","","","","","","","","","","","","","","","","feedback_test","","","","","","","","",""
"null","","null","psychophysics","92","306757","0.0-8.0-0.0-1.0-0.0-0.41","5","4","4","3","3","4","3","4","3","3","4","-1","0","0","1","-1","0","1","0","4","4","5","4","4","3","4","3","3","4","6","5","4","6","4","5","6","5","6","4","3","4","5","4","3","5","3","6","3","1","4","3","4","4","5","4","3","6","5","4","3","4","3","4","3","4","3","4","4","6","7","5","3","6","3","4","3","6","5","4","581839949964247040","王","145","Female","[""好我"",""坏我"",""坏她"",""好她""]","[""强我"",""弱我"",""弱她"",""强她""]","","","","","","","","null","","","","","","","","","","key","null","16.669465648855052","768","428","f","false","nonmatch","img/hexagon.png","坏她","坏我","prac_ALT2_moral","practice_moral","","","","","","","","",""
"null","<span class='add_' style='color:yellow; font-size: 70px;'> 太慢! </span>","null","html-keyboard-response","93","307258","0.0-8.0-0.0-1.0-0.0-1.41","5","4","4","3","3","4","3","4","3","3","4","-1","0","0","1","-1","0","1","0","4","4","5","4","4","3","4","3","3","4","6","5","4","6","4","5","6","5","6","4","3","4","5","4","3","5","3","6","3","1","4","3","4","4","5","4","3","6","5","4","3","4","3","4","3","4","3","4","4","6","7","5","3","6","3","4","3","6","5","4","581839949964247040","王","145","Female","[""好我"",""坏我"",""坏她"",""好她""]","[""强我"",""弱我"",""弱她"",""强她""]","","","","","","","","","","","","","","","","","","","","","","","","","","","","","","feedback_test","","","","","","","","",""
"388","","j","psychophysics","94","308647","0.0-8.0-0.0-1.0-0.0-0.42","5","4","4","3","3","4","3","4","3","3","4","-1","0","0","1","-1","0","1","0","4","4","5","4","4","3","4","3","3","4","6","5","4","6","4","5","6","5","6","4","3","4","5","4","3","5","3","6","3","1","4","3","4","4","5","4","3","6","5","4","3","4","3","4","3","4","3","4","4","6","7","5","3","6","3","4","3","6","5","4","581839949964247040","王","145","Female","[""好我"",""坏我"",""坏她"",""好她""]","[""强我"",""弱我"",""弱她"",""强她""]","","","","","","","","match","","","","","","","","","","key","j","16.67195121951191","768","428","f","false","nonmatch","img/hexagon.png","好我","坏我","prac_ALT2_moral","practice_moral","","","","","","","","",""
"null","<span style='color:red; font-size: 70px;'>错误! </span>","null","html-keyboard-response","95","309148","0.0-8.0-0.0-1.0-0.0-1.42","5","4","4","3","3","4","3","4","3","3","4","-1","0","0","1","-1","0","1","0","4","4","5","4","4","3","4","3","3","4","6","5","4","6","4","5","6","5","6","4","3","4","5","4","3","5","3","6","3","1","4","3","4","4","5","4","3","6","5","4","3","4","3","4","3","4","3","4","4","6","7","5","3","6","3","4","3","6","5","4","581839949964247040","王","145","Female","[""好我"",""坏我"",""坏她"",""好她""]","[""强我"",""弱我"",""弱她"",""强她""]","","","","","","","","","","","","","","","","","","","","","","","","","","","","","","feedback_test","","","","","","","","",""
"507","","j","psychophysics","96","310657","0.0-8.0-0.0-1.0-0.0-0.43","5","4","4","3","3","4","3","4","3","3","4","-1","0","0","1","-1","0","1","0","4","4","5","4","4","3","4","3","3","4","6","5","4","6","4","5","6","5","6","4","3","4","5","4","3","5","3","6","3","1","4","3","4","4","5","4","3","6","5","4","3","4","3","4","3","4","3","4","4","6","7","5","3","6","3","4","3","6","5","4","581839949964247040","王","145","Female","[""好我"",""坏我"",""坏她"",""好她""]","[""强我"",""弱我"",""弱她"",""强她""]","","","","","","","","match","","","","","","","","","","key","j","16.669662921348053","768","428","j","true","match","img/diamond.png","好我","好我","prac_ALT2_moral","practice_moral","","","","","","","","",""
"null","<span style='color:GreenYellow; font-size: 70px;'>正确! </span>","null","html-keyboard-response","97","311157","0.0-8.0-0.0-1.0-0.0-1.43","5","4","4","3","3","4","3","4","3","3","4","-1","0","0","1","-1","0","1","0","4","4","5","4","4","3","4","3","3","4","6","5","4","6","4","5","6","5","6","4","3","4","5","4","3","5","3","6","3","1","4","3","4","4","5","4","3","6","5","4","3","4","3","4","3","4","3","4","4","6","7","5","3","6","3","4","3","6","5","4","581839949964247040","王","145","Female","[""好我"",""坏我"",""坏她"",""好她""]","[""强我"",""弱我"",""弱她"",""强她""]","","","","","","","","","","","","","","","","","","","","","","","","","","","","","","feedback_test","","","","","","","","",""
"911","","j","psychophysics","98","313070","0.0-8.0-0.0-1.0-0.0-0.44","5","4","4","3","3","4","3","4","3","3","4","-1","0","0","1","-1","0","1","0","4","4","5","4","4","3","4","3","3","4","6","5","4","6","4","5","6","5","6","4","3","4","5","4","3","5","3","6","3","1","4","3","4","4","5","4","3","6","5","4","3","4","3","4","3","4","3","4","4","6","7","5","3","6","3","4","3","6","5","4","581839949964247040","王","145","Female","[""好我"",""坏我"",""坏她"",""好她""]","[""强我"",""弱我"",""弱她"",""强她""]","","","","","","","","match","","","","","","","","","","key","j","16.667543859649427","768","428","j","true","match","img/square.png","好她","好她","prac_ALT2_moral","practice_moral","","","","","","","","",""
"null","<span style='color:GreenYellow; font-size: 70px;'>正确! </span>","null","html-keyboard-response","99","313571","0.0-8.0-0.0-1.0-0.0-1.44","5","4","4","3","3","4","3","4","3","3","4","-1","0","0","1","-1","0","1","0","4","4","5","4","4","3","4","3","3","4","6","5","4","6","4","5","6","5","6","4","3","4","5","4","3","5","3","6","3","1","4","3","4","4","5","4","3","6","5","4","3","4","3","4","3","4","3","4","4","6","7","5","3","6","3","4","3","6","5","4","581839949964247040","王","145","Female","[""好我"",""坏我"",""坏她"",""好她""]","[""强我"",""弱我"",""弱她"",""强她""]","","","","","","","","","","","","","","","","","","","","","","","","","","","","","","feedback_test","","","","","","","","",""
"883","","f","psychophysics","100","315455","0.0-8.0-0.0-1.0-0.0-0.45","5","4","4","3","3","4","3","4","3","3","4","-1","0","0","1","-1","0","1","0","4","4","5","4","4","3","4","3","3","4","6","5","4","6","4","5","6","5","6","4","3","4","5","4","3","5","3","6","3","1","4","3","4","4","5","4","3","6","5","4","3","4","3","4","3","4","3","4","4","6","7","5","3","6","3","4","3","6","5","4","581839949964247040","王","145","Female","[""好我"",""坏我"",""坏她"",""好她""]","[""强我"",""弱我"",""弱她"",""强她""]","","","","","","","","nonmatch","","","","","","","","","","key","f","16.669642857142858","768","428","f","true","nonmatch","img/square.png","好我","好她","prac_ALT2_moral","practice_moral","","","","","","","","",""
"null","<span style='color:GreenYellow; font-size: 70px;'>正确! </span>","null","html-keyboard-response","101","315956","0.0-8.0-0.0-1.0-0.0-1.45","5","4","4","3","3","4","3","4","3","3","4","-1","0","0","1","-1","0","1","0","4","4","5","4","4","3","4","3","3","4","6","5","4","6","4","5","6","5","6","4","3","4","5","4","3","5","3","6","3","1","4","3","4","4","5","4","3","6","5","4","3","4","3","4","3","4","3","4","4","6","7","5","3","6","3","4","3","6","5","4","581839949964247040","王","145","Female","[""好我"",""坏我"",""坏她"",""好她""]","[""强我"",""弱我"",""弱她"",""强她""]","","","","","","","","","","","","","","","","","","","","","","","","","","","","","","feedback_test","","","","","","","","",""
"833","","j","psychophysics","102","317791","0.0-8.0-0.0-1.0-0.0-0.46","5","4","4","3","3","4","3","4","3","3","4","-1","0","0","1","-1","0","1","0","4","4","5","4","4","3","4","3","3","4","6","5","4","6","4","5","6","5","6","4","3","4","5","4","3","5","3","6","3","1","4","3","4","4","5","4","3","6","5","4","3","4","3","4","3","4","3","4","4","6","7","5","3","6","3","4","3","6","5","4","581839949964247040","王","145","Female","[""好我"",""坏我"",""坏她"",""好她""]","[""强我"",""弱我"",""弱她"",""强她""]","","","","","","","","match","","","","","","","","","","key","j","16.670642201835182","768","428","f","false","nonmatch","img/ellipse.png","好她","坏她","prac_ALT2_moral","practice_moral","","","","","","","","",""
"null","<span style='color:red; font-size: 70px;'>错误! </span>","null","html-keyboard-response","103","318292","0.0-8.0-0.0-1.0-0.0-1.46","5","4","4","3","3","4","3","4","3","3","4","-1","0","0","1","-1","0","1","0","4","4","5","4","4","3","4","3","3","4","6","5","4","6","4","5","6","5","6","4","3","4","5","4","3","5","3","6","3","1","4","3","4","4","5","4","3","6","5","4","3","4","3","4","3","4","3","4","4","6","7","5","3","6","3","4","3","6","5","4","581839949964247040","王","145","Female","[""好我"",""坏我"",""坏她"",""好她""]","[""强我"",""弱我"",""弱她"",""强她""]","","","","","","","","","","","","","","","","","","","","","","","","","","","","","","feedback_test","","","","","","","","",""
"801","","f","psychophysics","104","320095","0.0-8.0-0.0-1.0-0.0-0.47","5","4","4","3","3","4","3","4","3","3","4","-1","0","0","1","-1","0","1","0","4","4","5","4","4","3","4","3","3","4","6","5","4","6","4","5","6","5","6","4","3","4","5","4","3","5","3","6","3","1","4","3","4","4","5","4","3","6","5","4","3","4","3","4","3","4","3","4","4","6","7","5","3","6","3","4","3","6","5","4","581839949964247040","王","145","Female","[""好我"",""坏我"",""坏她"",""好她""]","[""强我"",""弱我"",""弱她"",""强她""]","","","","","","","","nonmatch","","","","","","","","","","key","f","16.670093457944034","768","428","j","false","match","img/square.png","好她","好她","prac_ALT2_moral","practice_moral","","","","","","","","",""
"null","<span style='color:red; font-size: 70px;'>错误! </span>","null","html-keyboard-response","105","320596","0.0-8.0-0.0-1.0-0.0-1.47","5","4","4","3","3","4","3","4","3","3","4","-1","0","0","1","-1","0","1","0","4","4","5","4","4","3","4","3","3","4","6","5","4","6","4","5","6","5","6","4","3","4","5","4","3","5","3","6","3","1","4","3","4","4","5","4","3","6","5","4","3","4","3","4","3","4","3","4","4","6","7","5","3","6","3","4","3","6","5","4","581839949964247040","王","145","Female","[""好我"",""坏我"",""坏她"",""好她""]","[""强我"",""弱我"",""弱她"",""强她""]","","","","","","","","","","","","","","","","","","","","","","","","","","","","","","feedback_test","","","","","","","","",""
"1984","<style>.context{color:white; font-size: 35px; line-height:40px}</style>                            <div><p class='context'>您正确回答了29% 的试次。</p><p class='context'>您的平均反应时为729毫秒。</p><p class='context'>按空格键继续。</p></div>"," ","html-keyboard-response","106","322583","0.0-8.0-0.0-1.0-1.0-0.0","5","4","4","3","3","4","3","4","3","3","4","-1","0","0","1","-1","0","1","0","4","4","5","4","4","3","4","3","3","4","6","5","4","6","4","5","6","5","6","4","3","4","5","4","3","5","3","6","3","1","4","3","4","4","5","4","3","6","5","4","3","4","3","4","3","4","3","4","4","6","7","5","3","6","3","4","3","6","5","4","581839949964247040","王","145","Female","[""好我"",""坏我"",""坏她"",""好她""]","[""强我"",""弱我"",""弱她"",""强她""]","","","","","","","","","","","","","","","","","","","","","","","","","","","","","","","","","","","","","","",""
"56175","","","instructions","107","378761","0.0-8.0-0.0-1.0-1.0-1.0","5","4","4","3","3","4","3","4","3","3","4","-1","0","0","1","-1","0","1","0","4","4","5","4","4","3","4","3","3","4","6","5","4","6","4","5","6","5","6","4","3","4","5","4","3","5","3","6","3","1","4","3","4","4","5","4","3","6","5","4","3","4","3","4","3","4","3","4","4","6","7","5","3","6","3","4","3","6","5","4","581839949964247040","王","145","Female","[""好我"",""坏我"",""坏她"",""好她""]","[""强我"",""弱我"",""弱她"",""强她""]","","","","","","","","","","","","","","","","","[{""page_index"":0,""viewing_time"":2128},{""page_index"":1,""viewing_time"":49131},{""page_index"":2,""viewing_time"":4915}]","","","","","","","","","","","","","","","","","","","","","",""
"668","","j","psychophysics","108","380432","0.0-8.0-0.0-1.1-0.1-0.48","5","4","4","3","3","4","3","4","3","3","4","-1","0","0","1","-1","0","1","0","4","4","5","4","4","3","4","3","3","4","6","5","4","6","4","5","6","5","6","4","3","4","5","4","3","5","3","6","3","1","4","3","4","4","5","4","3","6","5","4","3","4","3","4","3","4","3","4","4","6","7","5","3","6","3","4","3","6","5","4","581839949964247040","王","145","Female","[""好我"",""坏我"",""坏她"",""好她""]","[""强我"",""弱我"",""弱她"",""强她""]","","","","","","","","match","","","","","","","","","","key","j","16.666666666666668","768","428","j","true","match","img/ellipse.png","坏她","坏她","prac_ALT2_moral","practice_moral","","","","","","","","",""
"null","<span style='color:GreenYellow; font-size: 70px;'>正确! </span>","null","html-keyboard-response","109","380933","0.0-8.0-0.0-1.1-0.1-1.48","5","4","4","3","3","4","3","4","3","3","4","-1","0","0","1","-1","0","1","0","4","4","5","4","4","3","4","3","3","4","6","5","4","6","4","5","6","5","6","4","3","4","5","4","3","5","3","6","3","1","4","3","4","4","5","4","3","6","5","4","3","4","3","4","3","4","3","4","4","6","7","5","3","6","3","4","3","6","5","4","581839949964247040","王","145","Female","[""好我"",""坏我"",""坏她"",""好她""]","[""强我"",""弱我"",""弱她"",""强她""]","","","","","","","","","","","","","","","","","","","","","","","","","","","","","","feedback_test","","","","","","","","",""
"914","","j","psychophysics","110","382849","0.0-8.0-0.0-1.1-0.1-0.49","5","4","4","3","3","4","3","4","3","3","4","-1","0","0","1","-1","0","1","0","4","4","5","4","4","3","4","3","3","4","6","5","4","6","4","5","6","5","6","4","3","4","5","4","3","5","3","6","3","1","4","3","4","4","5","4","3","6","5","4","3","4","3","4","3","4","3","4","4","6","7","5","3","6","3","4","3","6","5","4","581839949964247040","王","145","Female","[""好我"",""坏我"",""坏她"",""好她""]","[""强我"",""弱我"",""弱她"",""强她""]","","","","","","","","match","","","","","","","","","","key","j","16.65929203539823","768","428","j","true","match","img/diamond.png","好我","好我","prac_ALT2_moral","practice_moral","","","","","","","","",""
"null","<span style='color:GreenYellow; font-size: 70px;'>正确! </span>","null","html-keyboard-response","111","383350","0.0-8.0-0.0-1.1-0.1-1.49","5","4","4","3","3","4","3","4","3","3","4","-1","0","0","1","-1","0","1","0","4","4","5","4","4","3","4","3","3","4","6","5","4","6","4","5","6","5","6","4","3","4","5","4","3","5","3","6","3","1","4","3","4","4","5","4","3","6","5","4","3","4","3","4","3","4","3","4","4","6","7","5","3","6","3","4","3","6","5","4","581839949964247040","王","145","Female","[""好我"",""坏我"",""坏她"",""好她""]","[""强我"",""弱我"",""弱她"",""强她""]","","","","","","","","","","","","","","","","","","","","","","","","","","","","","","feedback_test","","","","","","","","",""
"847","","j","psychophysics","112","385199","0.0-8.0-0.0-1.1-0.1-0.50","5","4","4","3","3","4","3","4","3","3","4","-1","0","0","1","-1","0","1","0","4","4","5","4","4","3","4","3","3","4","6","5","4","6","4","5","6","5","6","4","3","4","5","4","3","5","3","6","3","1","4","3","4","4","5","4","3","6","5","4","3","4","3","4","3","4","3","4","4","6","7","5","3","6","3","4","3","6","5","4","581839949964247040","王","145","Female","[""好我"",""坏我"",""坏她"",""好她""]","[""强我"",""弱我"",""弱她"",""强她""]","","","","","","","","match","","","","","","","","","","key","j","16.662385321101024","768","428","f","false","nonmatch","img/ellipse.png","坏我","坏她","prac_ALT2_moral","practice_moral","","","","","","","","",""
"null","<span style='color:red; font-size: 70px;'>错误! </span>","null","html-keyboard-response","113","385700","0.0-8.0-0.0-1.1-0.1-1.50","5","4","4","3","3","4","3","4","3","3","4","-1","0","0","1","-1","0","1","0","4","4","5","4","4","3","4","3","3","4","6","5","4","6","4","5","6","5","6","4","3","4","5","4","3","5","3","6","3","1","4","3","4","4","5","4","3","6","5","4","3","4","3","4","3","4","3","4","4","6","7","5","3","6","3","4","3","6","5","4","581839949964247040","王","145","Female","[""好我"",""坏我"",""坏她"",""好她""]","[""强我"",""弱我"",""弱她"",""强她""]","","","","","","","","","","","","","","","","","","","","","","","","","","","","","","feedback_test","","","","","","","","",""
"915","","f","psychophysics","114","387617","0.0-8.0-0.0-1.1-0.1-0.51","5","4","4","3","3","4","3","4","3","3","4","-1","0","0","1","-1","0","1","0","4","4","5","4","4","3","4","3","3","4","6","5","4","6","4","5","6","5","6","4","3","4","5","4","3","5","3","6","3","1","4","3","4","4","5","4","3","6","5","4","3","4","3","4","3","4","3","4","4","6","7","5","3","6","3","4","3","6","5","4","581839949964247040","王","145","Female","[""好我"",""坏我"",""坏她"",""好她""]","[""强我"",""弱我"",""弱她"",""强她""]","","","","","","","","nonmatch","","","","","","","","","","key","f","16.669026548672875","768","428","f","true","nonmatch","img/diamond.png","坏她","好我","prac_ALT2_moral","practice_moral","","","","","","","","",""
"null","<span style='color:GreenYellow; font-size: 70px;'>正确! </span>","null","html-keyboard-response","115","388118","0.0-8.0-0.0-1.1-0.1-1.51","5","4","4","3","3","4","3","4","3","3","4","-1","0","0","1","-1","0","1","0","4","4","5","4","4","3","4","3","3","4","6","5","4","6","4","5","6","5","6","4","3","4","5","4","3","5","3","6","3","1","4","3","4","4","5","4","3","6","5","4","3","4","3","4","3","4","3","4","4","6","7","5","3","6","3","4","3","6","5","4","581839949964247040","王","145","Female","[""好我"",""坏我"",""坏她"",""好她""]","[""强我"",""弱我"",""弱她"",""强她""]","","","","","","","","","","","","","","","","","","","","","","","","","","","","","","feedback_test","","","","","","","","",""
"909","","f","psychophysics","116","390029","0.0-8.0-0.0-1.1-0.1-0.52","5","4","4","3","3","4","3","4","3","3","4","-1","0","0","1","-1","0","1","0","4","4","5","4","4","3","4","3","3","4","6","5","4","6","4","5","6","5","6","4","3","4","5","4","3","5","3","6","3","1","4","3","4","4","5","4","3","6","5","4","3","4","3","4","3","4","3","4","4","6","7","5","3","6","3","4","3","6","5","4","581839949964247040","王","145","Female","[""好我"",""坏我"",""坏她"",""好她""]","[""强我"",""弱我"",""弱她"",""强她""]","","","","","","","","nonmatch","","","","","","","","","","key","f","16.670796460176888","768","428","f","true","nonmatch","img/ellipse.png","好我","坏她","prac_ALT2_moral","practice_moral","","","","","","","","",""
"null","<span style='color:GreenYellow; font-size: 70px;'>正确! </span>","null","html-keyboard-response","117","390530","0.0-8.0-0.0-1.1-0.1-1.52","5","4","4","3","3","4","3","4","3","3","4","-1","0","0","1","-1","0","1","0","4","4","5","4","4","3","4","3","3","4","6","5","4","6","4","5","6","5","6","4","3","4","5","4","3","5","3","6","3","1","4","3","4","4","5","4","3","6","5","4","3","4","3","4","3","4","3","4","4","6","7","5","3","6","3","4","3","6","5","4","581839949964247040","王","145","Female","[""好我"",""坏我"",""坏她"",""好她""]","[""强我"",""弱我"",""弱她"",""强她""]","","","","","","","","","","","","","","","","","","","","","","","","","","","","","","feedback_test","","","","","","","","",""
"811","","j","psychophysics","118","392343","0.0-8.0-0.0-1.1-0.1-0.53","5","4","4","3","3","4","3","4","3","3","4","-1","0","0","1","-1","0","1","0","4","4","5","4","4","3","4","3","3","4","6","5","4","6","4","5","6","5","6","4","3","4","5","4","3","5","3","6","3","1","4","3","4","4","5","4","3","6","5","4","3","4","3","4","3","4","3","4","4","6","7","5","3","6","3","4","3","6","5","4","581839949964247040","王","145","Female","[""好我"",""坏我"",""坏她"",""好她""]","[""强我"",""弱我"",""弱她"",""强她""]","","","","","","","","match","","","","","","","","","","key","j","16.669158878504454","768","428","j","true","match","img/square.png","好她","好她","prac_ALT2_moral","practice_moral","","","","","","","","",""
"null","<span style='color:GreenYellow; font-size: 70px;'>正确! </span>","null","html-keyboard-response","119","392845","0.0-8.0-0.0-1.1-0.1-1.53","5","4","4","3","3","4","3","4","3","3","4","-1","0","0","1","-1","0","1","0","4","4","5","4","4","3","4","3","3","4","6","5","4","6","4","5","6","5","6","4","3","4","5","4","3","5","3","6","3","1","4","3","4","4","5","4","3","6","5","4","3","4","3","4","3","4","3","4","4","6","7","5","3","6","3","4","3","6","5","4","581839949964247040","王","145","Female","[""好我"",""坏我"",""坏她"",""好她""]","[""强我"",""弱我"",""弱她"",""强她""]","","","","","","","","","","","","","","","","","","","","","","","","","","","","","","feedback_test","","","","","","","","",""
"846","","f","psychophysics","120","394692","0.0-8.0-0.0-1.1-0.1-0.54","5","4","4","3","3","4","3","4","3","3","4","-1","0","0","1","-1","0","1","0","4","4","5","4","4","3","4","3","3","4","6","5","4","6","4","5","6","5","6","4","3","4","5","4","3","5","3","6","3","1","4","3","4","4","5","4","3","6","5","4","3","4","3","4","3","4","3","4","4","6","7","5","3","6","3","4","3","6","5","4","581839949964247040","王","145","Female","[""好我"",""坏我"",""坏她"",""好她""]","[""强我"",""弱我"",""弱她"",""强她""]","","","","","","","","nonmatch","","","","","","","","","","key","f","16.670000000000105","768","428","f","true","nonmatch","img/square.png","坏我","好她","prac_ALT2_moral","practice_moral","","","","","","","","",""
"null","<span style='color:GreenYellow; font-size: 70px;'>正确! </span>","null","html-keyboard-response","121","395193","0.0-8.0-0.0-1.1-0.1-1.54","5","4","4","3","3","4","3","4","3","3","4","-1","0","0","1","-1","0","1","0","4","4","5","4","4","3","4","3","3","4","6","5","4","6","4","5","6","5","6","4","3","4","5","4","3","5","3","6","3","1","4","3","4","4","5","4","3","6","5","4","3","4","3","4","3","4","3","4","4","6","7","5","3","6","3","4","3","6","5","4","581839949964247040","王","145","Female","[""好我"",""坏我"",""坏她"",""好她""]","[""强我"",""弱我"",""弱她"",""强她""]","","","","","","","","","","","","","","","","","","","","","","","","","","","","","","feedback_test","","","","","","","","",""
"948","","j","psychophysics","122","397143","0.0-8.0-0.0-1.1-0.1-0.55","5","4","4","3","3","4","3","4","3","3","4","-1","0","0","1","-1","0","1","0","4","4","5","4","4","3","4","3","3","4","6","5","4","6","4","5","6","5","6","4","3","4","5","4","3","5","3","6","3","1","4","3","4","4","5","4","3","6","5","4","3","4","3","4","3","4","3","4","4","6","7","5","3","6","3","4","3","6","5","4","581839949964247040","王","145","Female","[""好我"",""坏我"",""坏她"",""好她""]","[""强我"",""弱我"",""弱她"",""强她""]","","","","","","","","match","","","","","","","","","","key","j","16.66782608695642","768","428","f","false","nonmatch","img/ellipse.png","好她","坏她","prac_ALT2_moral","practice_moral","","","","","","","","",""
"null","<span style='color:red; font-size: 70px;'>错误! </span>","null","html-keyboard-response","123","397644","0.0-8.0-0.0-1.1-0.1-1.55","5","4","4","3","3","4","3","4","3","3","4","-1","0","0","1","-1","0","1","0","4","4","5","4","4","3","4","3","3","4","6","5","4","6","4","5","6","5","6","4","3","4","5","4","3","5","3","6","3","1","4","3","4","4","5","4","3","6","5","4","3","4","3","4","3","4","3","4","4","6","7","5","3","6","3","4","3","6","5","4","581839949964247040","王","145","Female","[""好我"",""坏我"",""坏她"",""好她""]","[""强我"",""弱我"",""弱她"",""强她""]","","","","","","","","","","","","","","","","","","","","","","","","","","","","","","feedback_test","","","","","","","","",""
"627","","j","psychophysics","124","399279","0.0-8.0-0.0-1.1-0.1-0.56","5","4","4","3","3","4","3","4","3","3","4","-1","0","0","1","-1","0","1","0","4","4","5","4","4","3","4","3","3","4","6","5","4","6","4","5","6","5","6","4","3","4","5","4","3","5","3","6","3","1","4","3","4","4","5","4","3","6","5","4","3","4","3","4","3","4","3","4","4","6","7","5","3","6","3","4","3","6","5","4","581839949964247040","王","145","Female","[""好我"",""坏我"",""坏她"",""好她""]","[""强我"",""弱我"",""弱她"",""强她""]","","","","","","","","match","","","","","","","","","","key","j","16.670103092783506","768","428","j","true","match","img/ellipse.png","坏她","坏她","prac_ALT2_moral","practice_moral","","","","","","","","",""
"null","<span style='color:GreenYellow; font-size: 70px;'>正确! </span>","null","html-keyboard-response","125","399779","0.0-8.0-0.0-1.1-0.1-1.56","5","4","4","3","3","4","3","4","3","3","4","-1","0","0","1","-1","0","1","0","4","4","5","4","4","3","4","3","3","4","6","5","4","6","4","5","6","5","6","4","3","4","5","4","3","5","3","6","3","1","4","3","4","4","5","4","3","6","5","4","3","4","3","4","3","4","3","4","4","6","7","5","3","6","3","4","3","6","5","4","581839949964247040","王","145","Female","[""好我"",""坏我"",""坏她"",""好她""]","[""强我"",""弱我"",""弱她"",""强她""]","","","","","","","","","","","","","","","","","","","","","","","","","","","","","","feedback_test","","","","","","","","",""
"754","","f","psychophysics","126","401536","0.0-8.0-0.0-1.1-0.1-0.57","5","4","4","3","3","4","3","4","3","3","4","-1","0","0","1","-1","0","1","0","4","4","5","4","4","3","4","3","3","4","6","5","4","6","4","5","6","5","6","4","3","4","5","4","3","5","3","6","3","1","4","3","4","4","5","4","3","6","5","4","3","4","3","4","3","4","3","4","4","6","7","5","3","6","3","4","3","6","5","4","581839949964247040","王","145","Female","[""好我"",""坏我"",""坏她"",""好她""]","[""强我"",""弱我"",""弱她"",""强她""]","","","","","","","","nonmatch","","","","","","","","","","key","f","16.667307692307357","768","428","f","true","nonmatch","img/square.png","好我","好她","prac_ALT2_moral","practice_moral","","","","","","","","",""
"null","<span style='color:GreenYellow; font-size: 70px;'>正确! </span>","null","html-keyboard-response","127","402037","0.0-8.0-0.0-1.1-0.1-1.57","5","4","4","3","3","4","3","4","3","3","4","-1","0","0","1","-1","0","1","0","4","4","5","4","4","3","4","3","3","4","6","5","4","6","4","5","6","5","6","4","3","4","5","4","3","5","3","6","3","1","4","3","4","4","5","4","3","6","5","4","3","4","3","4","3","4","3","4","4","6","7","5","3","6","3","4","3","6","5","4","581839949964247040","王","145","Female","[""好我"",""坏我"",""坏她"",""好她""]","[""强我"",""弱我"",""弱她"",""强她""]","","","","","","","","","","","","","","","","","","","","","","","","","","","","","","feedback_test","","","","","","","","",""
"774","","j","psychophysics","128","403813","0.0-8.0-0.0-1.1-0.1-0.58","5","4","4","3","3","4","3","4","3","3","4","-1","0","0","1","-1","0","1","0","4","4","5","4","4","3","4","3","3","4","6","5","4","6","4","5","6","5","6","4","3","4","5","4","3","5","3","6","3","1","4","3","4","4","5","4","3","6","5","4","3","4","3","4","3","4","3","4","4","6","7","5","3","6","3","4","3","6","5","4","581839949964247040","王","145","Female","[""好我"",""坏我"",""坏她"",""好她""]","[""强我"",""弱我"",""弱她"",""强她""]","","","","","","","","match","","","","","","","","","","key","j","16.67047619047641","768","428","f","false","nonmatch","img/diamond.png","好她","好我","prac_ALT2_moral","practice_moral","","","","","","","","",""
"null","<span style='color:red; font-size: 70px;'>错误! </span>","null","html-keyboard-response","129","404326","0.0-8.0-0.0-1.1-0.1-1.58","5","4","4","3","3","4","3","4","3","3","4","-1","0","0","1","-1","0","1","0","4","4","5","4","4","3","4","3","3","4","6","5","4","6","4","5","6","5","6","4","3","4","5","4","3","5","3","6","3","1","4","3","4","4","5","4","3","6","5","4","3","4","3","4","3","4","3","4","4","6","7","5","3","6","3","4","3","6","5","4","581839949964247040","王","145","Female","[""好我"",""坏我"",""坏她"",""好她""]","[""强我"",""弱我"",""弱她"",""强她""]","","","","","","","","","","","","","","","","","","","","","","","","","","","","","","feedback_test","","","","","","","","",""
"1147","","j","psychophysics","130","406474","0.0-8.0-0.0-1.1-0.1-0.59","5","4","4","3","3","4","3","4","3","3","4","-1","0","0","1","-1","0","1","0","4","4","5","4","4","3","4","3","3","4","6","5","4","6","4","5","6","5","6","4","3","4","5","4","3","5","3","6","3","1","4","3","4","4","5","4","3","6","5","4","3","4","3","4","3","4","3","4","4","6","7","5","3","6","3","4","3","6","5","4","581839949964247040","王","145","Female","[""好我"",""坏我"",""坏她"",""好她""]","[""强我"",""弱我"",""弱她"",""强她""]","","","","","","","","match","","","","","","","","","","key","j","16.671093750000182","768","428","f","false","nonmatch","img/square.png","坏她","好她","prac_ALT2_moral","practice_moral","","","","","","","","",""
"null","<span style='color:red; font-size: 70px;'>错误! </span>","null","html-keyboard-response","131","406975","0.0-8.0-0.0-1.1-0.1-1.59","5","4","4","3","3","4","3","4","3","3","4","-1","0","0","1","-1","0","1","0","4","4","5","4","4","3","4","3","3","4","6","5","4","6","4","5","6","5","6","4","3","4","5","4","3","5","3","6","3","1","4","3","4","4","5","4","3","6","5","4","3","4","3","4","3","4","3","4","4","6","7","5","3","6","3","4","3","6","5","4","581839949964247040","王","145","Female","[""好我"",""坏我"",""坏她"",""好她""]","[""强我"",""弱我"",""弱她"",""强她""]","","","","","","","","","","","","","","","","","","","","","","","","","","","","","","feedback_test","","","","","","","","",""
"901","","f","psychophysics","132","408877","0.0-8.0-0.0-1.1-0.1-0.60","5","4","4","3","3","4","3","4","3","3","4","-1","0","0","1","-1","0","1","0","4","4","5","4","4","3","4","3","3","4","6","5","4","6","4","5","6","5","6","4","3","4","5","4","3","5","3","6","3","1","4","3","4","4","5","4","3","6","5","4","3","4","3","4","3","4","3","4","4","6","7","5","3","6","3","4","3","6","5","4","581839949964247040","王","145","Female","[""好我"",""坏我"",""坏她"",""好她""]","[""强我"",""弱我"",""弱她"",""强她""]","","","","","","","","nonmatch","","","","","","","","","","key","f","16.66875000000021","768","428","j","false","match","img/hexagon.png","坏我","坏我","prac_ALT2_moral","practice_moral","","","","","","","","",""
"null","<span style='color:red; font-size: 70px;'>错误! </span>","null","html-keyboard-response","133","409378","0.0-8.0-0.0-1.1-0.1-1.60","5","4","4","3","3","4","3","4","3","3","4","-1","0","0","1","-1","0","1","0","4","4","5","4","4","3","4","3","3","4","6","5","4","6","4","5","6","5","6","4","3","4","5","4","3","5","3","6","3","1","4","3","4","4","5","4","3","6","5","4","3","4","3","4","3","4","3","4","4","6","7","5","3","6","3","4","3","6","5","4","581839949964247040","王","145","Female","[""好我"",""坏我"",""坏她"",""好她""]","[""强我"",""弱我"",""弱她"",""强她""]","","","","","","","","","","","","","","","","","","","","","","","","","","","","","","feedback_test","","","","","","","","",""
"919","","f","psychophysics","134","411299","0.0-8.0-0.0-1.1-0.1-0.61","5","4","4","3","3","4","3","4","3","3","4","-1","0","0","1","-1","0","1","0","4","4","5","4","4","3","4","3","3","4","6","5","4","6","4","5","6","5","6","4","3","4","5","4","3","5","3","6","3","1","4","3","4","4","5","4","3","6","5","4","3","4","3","4","3","4","3","4","4","6","7","5","3","6","3","4","3","6","5","4","581839949964247040","王","145","Female","[""好我"",""坏我"",""坏她"",""好她""]","[""强我"",""弱我"",""弱她"",""强她""]","","","","","","","","nonmatch","","","","","","","","","","key","f","16.670175438596697","768","428","j","false","match","img/hexagon.png","坏我","坏我","prac_ALT2_moral","practice_moral","","","","","","","","",""
"null","<span style='color:red; font-size: 70px;'>错误! </span>","null","html-keyboard-response","135","411801","0.0-8.0-0.0-1.1-0.1-1.61","5","4","4","3","3","4","3","4","3","3","4","-1","0","0","1","-1","0","1","0","4","4","5","4","4","3","4","3","3","4","6","5","4","6","4","5","6","5","6","4","3","4","5","4","3","5","3","6","3","1","4","3","4","4","5","4","3","6","5","4","3","4","3","4","3","4","3","4","4","6","7","5","3","6","3","4","3","6","5","4","581839949964247040","王","145","Female","[""好我"",""坏我"",""坏她"",""好她""]","[""强我"",""弱我"",""弱她"",""强她""]","","","","","","","","","","","","","","","","","","","","","","","","","","","","","","feedback_test","","","","","","","","",""
"1046","","j","psychophysics","136","413848","0.0-8.0-0.0-1.1-0.1-0.62","5","4","4","3","3","4","3","4","3","3","4","-1","0","0","1","-1","0","1","0","4","4","5","4","4","3","4","3","3","4","6","5","4","6","4","5","6","5","6","4","3","4","5","4","3","5","3","6","3","1","4","3","4","4","5","4","3","6","5","4","3","4","3","4","3","4","3","4","4","6","7","5","3","6","3","4","3","6","5","4","581839949964247040","王","145","Female","[""好我"",""坏我"",""坏她"",""好她""]","[""强我"",""弱我"",""弱她"",""强她""]","","","","","","","","match","","","","","","","","","","key","j","16.666942148759947","768","428","j","true","match","img/diamond.png","好我","好我","prac_ALT2_moral","practice_moral","","","","","","","","",""
"null","<span style='color:GreenYellow; font-size: 70px;'>正确! </span>","null","html-keyboard-response","137","414349","0.0-8.0-0.0-1.1-0.1-1.62","5","4","4","3","3","4","3","4","3","3","4","-1","0","0","1","-1","0","1","0","4","4","5","4","4","3","4","3","3","4","6","5","4","6","4","5","6","5","6","4","3","4","5","4","3","5","3","6","3","1","4","3","4","4","5","4","3","6","5","4","3","4","3","4","3","4","3","4","4","6","7","5","3","6","3","4","3","6","5","4","581839949964247040","王","145","Female","[""好我"",""坏我"",""坏她"",""好她""]","[""强我"",""弱我"",""弱她"",""强她""]","","","","","","","","","","","","","","","","","","","","","","","","","","","","","","feedback_test","","","","","","","","",""
"936","","j","psychophysics","138","416287","0.0-8.0-0.0-1.1-0.1-0.63","5","4","4","3","3","4","3","4","3","3","4","-1","0","0","1","-1","0","1","0","4","4","5","4","4","3","4","3","3","4","6","5","4","6","4","5","6","5","6","4","3","4","5","4","3","5","3","6","3","1","4","3","4","4","5","4","3","6","5","4","3","4","3","4","3","4","3","4","4","6","7","5","3","6","3","4","3","6","5","4","581839949964247040","王","145","Female","[""好我"",""坏我"",""坏她"",""好她""]","[""强我"",""弱我"",""弱她"",""强她""]","","","","","","","","match","","","","","","","","","","key","j","16.659999999999695","768","428","j","true","match","img/square.png","好她","好她","prac_ALT2_moral","practice_moral","","","","","","","","",""
