"rt","stimulus","response","trial_type","trial_index","time_elapsed","internal_node_id","swb_1","swb_2","swb_3","swb_4","swb_5","LOT_1","LOT_2","LOT_3","LOT_4","LOT_5","LOT_6","IPC_1","IPC_2","IPC_3","IPC_4","IPC_5","IPC_6","IPC_7","IPC_8","MorIden_1","MorIden_2","MorIden_3","MorIden_4","MorIden_5","MorIden_6","MorIden_7","MorIden_8","MorIden_9","MorIden_10","moralSeImag_1","moralSeImag_2","moralSeImag_3","moralSeImag_4","moralSeImag_5","moralSeImag_6","moralSeImag_7","moralSeImag_8","moralSeImag_9","sde_1","sde_2","sde_3","sde_4","sde_5","sde_6","sde_7","sde_8","sde_9","sde_10","trap2","sde_11","sde_12","sde_13","sde_14","sde_15","sde_16","sde_17","sde_18","sde_19","sde_20","IM_1","IM_2","IM_3","IM_4","IM_5","IM_6","IM_7","IM_8","IM_9","IM_10","IM_11","IM_12","IM_13","IM_14","IM_15","IM_16","IM_17","IM_18","IM_19","IM_20","subj_idx","friend_name","ParticipantID","Sex","Word","Word2","value","success","timeout","failed_images","failed_audio","failed_video","user_agent","responses","item_order","radio_event_ids","radio_event_times","key_event_times","mouse_event_times","straightlining","zigzagging","honeypot","task_id","screen_id","time_stamp","response_type","key_press","avg_frame_time","center_x","center_y","person","word","valence","domain","math","correct_response","correct","status","view_history","identity","duration","Image","condition","question_order","trap2_item"
"624","
   <p><div style='color:white; font-size: 25px'>您好，欢迎参加本次实验。</div></p>
   <p><div style='color:white; font-size: 25px'>为充分保障您的权利，请确保您已经知晓并同意《参与实验同意书》以及《数据公开知情同意书》。</div></p>
   <p><div style='color:white; font-size: 25px'>如果您未见过上述内容，请咨询实验员。</div></p>
   <p style='color:white; font-size: 25px'>如果您选择继续实验，则表示您已经清楚两份知情同意书的内容并同意。</p>
   <p><div style = ""color: pink;font-size:30px;"">请确保您记得day0的实验编号，您将在本次实验输入该编号，若您忘记，请咨询实验员后作答。</div></p>
   <p><div style = ""color:lightblue;font-size:25px;"">请您尽可能认真地作答，我们将依据您在各问卷和按键任务中的作答质量发放报酬。</div></p>
   <p> <div style = ""color: green""><按空格键至下页></div> </p>
   "," ","html-keyboard-response","0","626","0.0-0.0","7","7","7","7","7","5","5","5","5","5","5","2","2","2","2","2","2","2","2","5","5","5","5","5","5","5","5","5","5","8","7","8","8","7","6","8","8","8","7","7","7","7","7","6","7","1","7","7","1","7","7","7","7","7","6","7","7","7","7","7","7","7","7","7","7","7","7","7","7","7","7","7","7","7","7","7","7","6","7","634117356192268288","张","467","Male","[""坏我"",""坏他"",""好他"",""好我""]","[""弱我"",""弱他"",""强他"",""强我""]","","","","","","","","","","","","","","","","","","","","","","","","","","","","","","","","","","","","","","",""
"","","","call-function","1","626","0.0-1.0-0.0","7","7","7","7","7","5","5","5","5","5","5","2","2","2","2","2","2","2","2","5","5","5","5","5","5","5","5","5","5","8","7","8","8","7","6","8","8","8","7","7","7","7","7","6","7","1","7","7","1","7","7","7","7","7","6","7","7","7","7","7","7","7","7","7","7","7","7","7","7","7","7","7","7","7","7","7","7","6","7","634117356192268288","张","467","Male","[""坏我"",""坏他"",""好他"",""好我""]","[""弱我"",""弱他"",""强他"",""强我""]","","","","","","","","","","","","","","","","","","","","","","","","","","","","","","","","","","","","","","",""
"11535","","[{""name"":""Sex"",""value"":""0""},{""name"":""friend_name"",""value"":""张""},{""name"":""ParticipantID"",""value"":""467""}]","survey-html-form","2","12162","0.0-1.0-1.0","7","7","7","7","7","5","5","5","5","5","5","2","2","2","2","2","2","2","2","5","5","5","5","5","5","5","5","5","5","8","7","8","8","7","6","8","8","8","7","7","7","7","7","6","7","1","7","7","1","7","7","7","7","7","6","7","7","7","7","7","7","7","7","7","7","7","7","7","7","7","7","7","7","7","7","7","7","6","7","634117356192268288","张","467","Male","[""坏我"",""坏他"",""好他"",""好我""]","[""弱我"",""弱他"",""强他"",""强我""]","","","","","","","","","","","","","","","","","","","","","","","","","","","","","","","","","","","","","","",""
"","","","preload","3","12442","0.0-2.0","7","7","7","7","7","5","5","5","5","5","5","2","2","2","2","2","2","2","2","5","5","5","5","5","5","5","5","5","5","8","7","8","8","7","6","8","8","8","7","7","7","7","7","6","7","1","7","7","1","7","7","7","7","7","6","7","7","7","7","7","7","7","7","7","7","7","7","7","7","7","7","7","7","7","7","7","7","6","7","634117356192268288","张","467","Male","[""坏我"",""坏他"",""好他"",""好我""]","[""弱我"",""弱他"",""强他"",""强我""]","","true","false","[]","[]","[]","","","","","","","","","","","","","","","","","","","","","","","","","","","","","","","","",""
"","","","fullscreen","4","19736","0.0-3.0","7","7","7","7","7","5","5","5","5","5","5","2","2","2","2","2","2","2","2","5","5","5","5","5","5","5","5","5","5","8","7","8","8","7","6","8","8","8","7","7","7","7","7","6","7","1","7","7","1","7","7","7","7","7","6","7","7","7","7","7","7","7","7","7","7","7","7","7","7","7","7","7","7","7","7","7","7","6","7","634117356192268288","张","467","Male","[""坏我"",""坏他"",""好他"",""好我""]","[""弱我"",""弱他"",""强他"",""强我""]","","true","","","","","{}","","","","","","","","","","","","","","","","","","","","","","","","","","","","","","","",""
"5372.89999999851","","{""Q01"":""7"",""Q02"":""7"",""Q03"":""7"",""Q04"":""7"",""Q05"":""7""}","survey-template","5","25115","0.0-4.0","7","7","7","7","7","5","5","5","5","5","5","2","2","2","2","2","2","2","2","5","5","5","5","5","5","5","5","5","5","8","7","8","8","7","6","8","8","8","7","7","7","7","7","6","7","1","7","7","1","7","7","7","7","7","6","7","7","7","7","7","7","7","7","7","7","7","7","7","7","7","7","7","7","7","7","7","7","6","7","634117356192268288","张","467","Male","[""坏我"",""坏他"",""好他"",""好我""]","[""弱我"",""弱他"",""强他"",""强我""]","","","","","","","","{""Q01"":""7"",""Q02"":""7"",""Q03"":""7"",""Q04"":""7"",""Q05"":""7""}","[0,1,2,3,4]","[""Q01"",""Q02"",""Q03"",""Q04"",""Q05""]","[1852.3999999985099,2237.2000000029802,3028.2000000029802,3452.2000000029802,4029.60000000149]","[]","[1357.5,1852.3999999985099,2237.2000000029802,2756.2999999970198,3028.2000000029802,3452.2000000029802,4029.60000000149,5372.20000000298]","1","0","0","","","","","","","","","","","","","","","","","","","","","","",""
"8325.60000000149","","{""Q01"":""5"",""Q02"":""5"",""Q03"":""5"",""Q04"":""5"",""Q05"":""5"",""Q06"":""5""}","survey-template","6","33443","0.0-5.0","7","7","7","7","7","5","5","5","5","5","5","2","2","2","2","2","2","2","2","5","5","5","5","5","5","5","5","5","5","8","7","8","8","7","6","8","8","8","7","7","7","7","7","6","7","1","7","7","1","7","7","7","7","7","6","7","7","7","7","7","7","7","7","7","7","7","7","7","7","7","7","7","7","7","7","7","7","6","7","634117356192268288","张","467","Male","[""坏我"",""坏他"",""好他"",""好我""]","[""弱我"",""弱他"",""强他"",""强我""]","","","","","","","","{""Q01"":""5"",""Q02"":""5"",""Q03"":""5"",""Q04"":""5"",""Q05"":""5"",""Q06"":""5""}","[0,1,2,3,4,5]","[""Q01"",""Q02"",""Q03"",""Q04"",""Q05"",""Q06""]","[2188.10000000149,3076.60000000149,4228.5,5132.29999999702,5460.60000000149,7100.20000000298]","[]","[2188.10000000149,3076.60000000149,4228.5,5132.29999999702,5460.60000000149,6852.70000000298,7100.20000000298,8325.10000000149]","0.5","0.8","0","","","","","","","","","","","","","","","","","","","","","","",""
"7901.39999999851","","{""Q01"":""2"",""Q02"":""2"",""Q03"":""2"",""Q04"":""2"",""Q05"":""2"",""Q06"":""2"",""Q07"":""2"",""Q08"":""2""}","survey-template","7","41347","0.0-6.0","7","7","7","7","7","5","5","5","5","5","5","2","2","2","2","2","2","2","2","5","5","5","5","5","5","5","5","5","5","8","7","8","8","7","6","8","8","8","7","7","7","7","7","6","7","1","7","7","1","7","7","7","7","7","6","7","7","7","7","7","7","7","7","7","7","7","7","7","7","7","7","7","7","7","7","7","7","6","7","634117356192268288","张","467","Male","[""坏我"",""坏他"",""好他"",""好我""]","[""弱我"",""弱他"",""强他"",""强我""]","","","","","","","","{""Q01"":""2"",""Q02"":""2"",""Q03"":""2"",""Q04"":""2"",""Q05"":""2"",""Q06"":""2"",""Q07"":""2"",""Q08"":""2""}","[0,1,2,3,4,5,6,7]","[""Q01"",""Q02"",""Q02"",""Q03"",""Q04"",""Q05"",""Q06"",""Q08"",""Q07""]","[1396.3999999985099,1756.2000000029802,1925.2000000029802,2148.2000000029802,2684.3000000044703,4004.5,4822.60000000149,5645.80000000447,6012.70000000298]","[]","[1396.3999999985099,1756.2000000029802,1925.2000000029802,2148.2000000029802,2684.3000000044703,3132,3364.7000000029802,4004.5,4564.80000000447,4822.60000000149,5150.10000000149,5645.80000000447,6012.70000000298,7900.5]","1","0","0","","","","","","","","","","","","","","","","","","","","","","",""
"32317","
    <p><div style='color:white;font-size:35px; line-height:20px;'>词汇评估任务</div></p><br>
    <p><div style='color:white;font-size:25px; line-height:20px;'>请再次回忆该亲密的朋友，你们至少2年前就认识了，并且最近2年经常见面。</div></p>
    <p><div style='color:white;font-size:25px; line-height:20px;'>在本实验中，您将会看到一些形容词。</div></p>
    <p><div style='color:yellow;font-size:25px; line-height:20px;'>您的任务是判断这些形容词是否符合对您自己或您的朋友的描述。</div></p><p style='font-size:35px'>符合按<span style=""color:lightgreen""> j 键</span>，不符合按<span style=""color:red""> f 键</span></p>","0","html-button-response","8","73666","0.0-7.0-0.0","7","7","7","7","7","5","5","5","5","5","5","2","2","2","2","2","2","2","2","5","5","5","5","5","5","5","5","5","5","8","7","8","8","7","6","8","8","8","7","7","7","7","7","6","7","1","7","7","1","7","7","7","7","7","6","7","7","7","7","7","7","7","7","7","7","7","7","7","7","7","7","7","7","7","7","7","7","6","7","634117356192268288","张","467","Male","[""坏我"",""坏他"",""好他"",""好我""]","[""弱我"",""弱他"",""强他"",""强我""]","","","","","","","","","","","","","","","","","SRET_EW","EW_instructions","Sat Jan 20 2024 21:31:08 GMT+0800 (中国标准时间)","","","","","","","","","","","","","","","","","","","",""
"724","","j","psychophysics","9","75395","0.0-7.0-1.0-0.0","7","7","7","7","7","5","5","5","5","5","5","2","2","2","2","2","2","2","2","5","5","5","5","5","5","5","5","5","5","8","7","8","8","7","6","8","8","8","7","7","7","7","7","6","7","1","7","7","1","7","7","7","7","7","6","7","7","7","7","7","7","7","7","7","7","7","7","7","7","7","7","7","7","7","7","7","7","6","7","634117356192268288","张","467","Male","[""坏我"",""坏他"",""好他"",""好我""]","[""弱我"",""弱他"",""强他"",""强我""]","","","","","","","","yes","","","","","","","","","SRET_EW","EW_practice","","key","j","16.658252427184493","768","428","朋友","忠实","Positive","morality","","","","","","","","","","",""
"548","","f","psychophysics","10","76947","0.0-7.0-1.0-0.1","7","7","7","7","7","5","5","5","5","5","5","2","2","2","2","2","2","2","2","5","5","5","5","5","5","5","5","5","5","8","7","8","8","7","6","8","8","8","7","7","7","7","7","6","7","1","7","7","1","7","7","7","7","7","6","7","7","7","7","7","7","7","7","7","7","7","7","7","7","7","7","7","7","7","7","7","7","6","7","634117356192268288","张","467","Male","[""坏我"",""坏他"",""好他"",""好我""]","[""弱我"",""弱他"",""强他"",""强我""]","","","","","","","","no","","","","","","","","","SRET_EW","EW_practice","","key","f","16.665217391304317","768","428","自己","刻板","Negative","ability","","","","","","","","","","",""
"493","","j","psychophysics","11","78441","0.0-7.0-1.0-0.2","7","7","7","7","7","5","5","5","5","5","5","2","2","2","2","2","2","2","2","5","5","5","5","5","5","5","5","5","5","8","7","8","8","7","6","8","8","8","7","7","7","7","7","6","7","1","7","7","1","7","7","7","7","7","6","7","7","7","7","7","7","7","7","7","7","7","7","7","7","7","7","7","7","7","7","7","7","6","7","634117356192268288","张","467","Male","[""坏我"",""坏他"",""好他"",""好我""]","[""弱我"",""弱他"",""强他"",""强我""]","","","","","","","","yes","","","","","","","","","SRET_EW","EW_practice","","key","j","16.661797752809086","768","428","自己","严谨","Positive","ability","","","","","","","","","","",""
"752","","f","psychophysics","12","80194","0.0-7.0-1.0-0.3","7","7","7","7","7","5","5","5","5","5","5","2","2","2","2","2","2","2","2","5","5","5","5","5","5","5","5","5","5","8","7","8","8","7","6","8","8","8","7","7","7","7","7","6","7","1","7","7","1","7","7","7","7","7","6","7","7","7","7","7","7","7","7","7","7","7","7","7","7","7","7","7","7","7","7","7","7","6","7","634117356192268288","张","467","Male","[""坏我"",""坏他"",""好他"",""好我""]","[""弱我"",""弱他"",""强他"",""强我""]","","","","","","","","no","","","","","","","","","SRET_EW","EW_practice","","key","f","16.664423076923132","768","428","朋友","徇私","Negative","morality","","","","","","","","","","",""
"2287","
    <p><div style='color:white;font-size:35px; line-height:20px;'>请您再次阅读实验要求</div></p><br>
    <p><div style='color:white;font-size:25px; line-height:20px;'>请回忆某一个亲密的朋友，你们至少2年前就认识了，并且最近2年经常见面。</div></p>
    <p><div style='color:white;font-size:25px; line-height:20px;'>在本实验中，您将会看到一些形容词。</div></p>
    <p><div style='color:yellow;font-size:25px; line-height:20px;'>您的任务是判断这些形容词是否符合对您自己或您的朋友的描述。</div></p>
    <p><div class='footer' style='font-size:25px; line-height:20px;'>如果对本实验还有不清楚之处，请立即向实验员咨询。</p><p style='font-size:25px; line-height:20px;'>如果您明白了规则：</p><p style='font-size:22px; line-height:20px;'>请按 继续 进入正式实验</p>
    </div>
    <p style='font-size:35px'>符合按<span style=""color:lightgreen""> j 键</span>，不符合按<span style=""color:red""> f 键</span></p>","0","html-button-response","13","82482","0.0-7.0-2.0","7","7","7","7","7","5","5","5","5","5","5","2","2","2","2","2","2","2","2","5","5","5","5","5","5","5","5","5","5","8","7","8","8","7","6","8","8","8","7","7","7","7","7","6","7","1","7","7","1","7","7","7","7","7","6","7","7","7","7","7","7","7","7","7","7","7","7","7","7","7","7","7","7","7","7","7","7","6","7","634117356192268288","张","467","Male","[""坏我"",""坏他"",""好他"",""好我""]","[""弱我"",""弱他"",""强他"",""强我""]","","","","","","","","","","","","","","","","","SRET_EW","prac_instructions","Sat Jan 20 2024 21:31:08 GMT+0800 (中国标准时间)","","","","","","","","","","","","","","","","","","","",""
"816","","f","psychophysics","14","84301","0.0-7.0-3.0-0.0","7","7","7","7","7","5","5","5","5","5","5","2","2","2","2","2","2","2","2","5","5","5","5","5","5","5","5","5","5","8","7","8","8","7","6","8","8","8","7","7","7","7","7","6","7","1","7","7","1","7","7","7","7","7","6","7","7","7","7","7","7","7","7","7","7","7","7","7","7","7","7","7","7","7","7","7","7","6","7","634117356192268288","张","467","Male","[""坏我"",""坏他"",""好他"",""好我""]","[""弱我"",""弱他"",""强他"",""强我""]","","","","","","","","no","","","","","","","","","SRET","EW_formal","","key","f","16.664220183486318","768","428","朋友","迷糊","Negative","ability","","","","","","","","","","",""
"659","","f","psychophysics","15","85962","0.0-7.0-3.0-0.1","7","7","7","7","7","5","5","5","5","5","5","2","2","2","2","2","2","2","2","5","5","5","5","5","5","5","5","5","5","8","7","8","8","7","6","8","8","8","7","7","7","7","7","6","7","1","7","7","1","7","7","7","7","7","6","7","7","7","7","7","7","7","7","7","7","7","7","7","7","7","7","7","7","7","7","7","7","6","7","634117356192268288","张","467","Male","[""坏我"",""坏他"",""好他"",""好我""]","[""弱我"",""弱他"",""强他"",""强我""]","","","","","","","","no","","","","","","","","","SRET","EW_formal","","key","f","16.663265306122447","768","428","自己","说谎","Negative","morality","","","","","","","","","","",""
"607","","j","psychophysics","16","87570","0.0-7.0-3.0-0.2","7","7","7","7","7","5","5","5","5","5","5","2","2","2","2","2","2","2","2","5","5","5","5","5","5","5","5","5","5","8","7","8","8","7","6","8","8","8","7","7","7","7","7","6","7","1","7","7","1","7","7","7","7","7","6","7","7","7","7","7","7","7","7","7","7","7","7","7","7","7","7","7","7","7","7","7","7","6","7","634117356192268288","张","467","Male","[""坏我"",""坏他"",""好他"",""好我""]","[""弱我"",""弱他"",""强他"",""强我""]","","","","","","","","yes","","","","","","","","","SRET","EW_formal","","key","j","16.66562500000009","768","428","朋友","务实","Positive","ability","","","","","","","","","","",""
"709","","j","psychophysics","17","89282","0.0-7.0-3.0-0.3","7","7","7","7","7","5","5","5","5","5","5","2","2","2","2","2","2","2","2","5","5","5","5","5","5","5","5","5","5","8","7","8","8","7","6","8","8","8","7","7","7","7","7","6","7","1","7","7","1","7","7","7","7","7","6","7","7","7","7","7","7","7","7","7","7","7","7","7","7","7","7","7","7","7","7","7","7","6","7","634117356192268288","张","467","Male","[""坏我"",""坏他"",""好他"",""好我""]","[""弱我"",""弱他"",""强他"",""强我""]","","","","","","","","yes","","","","","","","","","SRET","EW_formal","","key","j","16.66470588235297","768","428","自己","坚贞","Positive","morality","","","","","","","","","","",""
"1500","","j","psychophysics","18","91785","0.0-7.0-3.0-0.4","7","7","7","7","7","5","5","5","5","5","5","2","2","2","2","2","2","2","2","5","5","5","5","5","5","5","5","5","5","8","7","8","8","7","6","8","8","8","7","7","7","7","7","6","7","1","7","7","1","7","7","7","7","7","6","7","7","7","7","7","7","7","7","7","7","7","7","7","7","7","7","7","7","7","7","7","7","6","7","634117356192268288","张","467","Male","[""坏我"",""坏他"",""好他"",""好我""]","[""弱我"",""弱他"",""强他"",""强我""]","","","","","","","","yes","","","","","","","","","SRET","EW_formal","","key","j","16.66510067114088","768","428","朋友","刻苦","Positive","ability","","","","","","","","","","",""
"1291","","j","psychophysics","19","94078","0.0-7.0-3.0-0.5","7","7","7","7","7","5","5","5","5","5","5","2","2","2","2","2","2","2","2","5","5","5","5","5","5","5","5","5","5","8","7","8","8","7","6","8","8","8","7","7","7","7","7","6","7","1","7","7","1","7","7","7","7","7","6","7","7","7","7","7","7","7","7","7","7","7","7","7","7","7","7","7","7","7","7","7","7","6","7","634117356192268288","张","467","Male","[""坏我"",""坏他"",""好他"",""好我""]","[""弱我"",""弱他"",""强他"",""强我""]","","","","","","","","yes","","","","","","","","","SRET","EW_formal","","key","j","16.664705882352898","768","428","朋友","善心","Positive","morality","","","","","","","","","","",""
"639","","f","psychophysics","20","95722","0.0-7.0-3.0-0.6","7","7","7","7","7","5","5","5","5","5","5","2","2","2","2","2","2","2","2","5","5","5","5","5","5","5","5","5","5","8","7","8","8","7","6","8","8","8","7","7","7","7","7","6","7","1","7","7","1","7","7","7","7","7","6","7","7","7","7","7","7","7","7","7","7","7","7","7","7","7","7","7","7","7","7","7","7","6","7","634117356192268288","张","467","Male","[""坏我"",""坏他"",""好他"",""好我""]","[""弱我"",""弱他"",""强他"",""强我""]","","","","","","","","no","","","","","","","","","SRET","EW_formal","","key","f","16.666326530612274","768","428","自己","伪善","Negative","morality","","","","","","","","","","",""
"971","","f","psychophysics","21","97697","0.0-7.0-3.0-0.7","7","7","7","7","7","5","5","5","5","5","5","2","2","2","2","2","2","2","2","5","5","5","5","5","5","5","5","5","5","8","7","8","8","7","6","8","8","8","7","7","7","7","7","6","7","1","7","7","1","7","7","7","7","7","6","7","7","7","7","7","7","7","7","7","7","7","7","7","7","7","7","7","7","7","7","7","7","6","7","634117356192268288","张","467","Male","[""坏我"",""坏他"",""好他"",""好我""]","[""弱我"",""弱他"",""强他"",""强我""]","","","","","","","","no","","","","","","","","","SRET","EW_formal","","key","f","16.665254237288135","768","428","朋友","不孝","Negative","morality","","","","","","","","","","",""
"760","","f","psychophysics","22","99458","0.0-7.0-3.0-0.8","7","7","7","7","7","5","5","5","5","5","5","2","2","2","2","2","2","2","2","5","5","5","5","5","5","5","5","5","5","8","7","8","8","7","6","8","8","8","7","7","7","7","7","6","7","1","7","7","1","7","7","7","7","7","6","7","7","7","7","7","7","7","7","7","7","7","7","7","7","7","7","7","7","7","7","7","7","6","7","634117356192268288","张","467","Male","[""坏我"",""坏他"",""好他"",""好我""]","[""弱我"",""弱他"",""强他"",""强我""]","","","","","","","","no","","","","","","","","","SRET","EW_formal","","key","f","16.667307692307638","768","428","朋友","缺德","Negative","morality","","","","","","","","","","",""
"932","","f","psychophysics","23","101393","0.0-7.0-3.0-0.9","7","7","7","7","7","5","5","5","5","5","5","2","2","2","2","2","2","2","2","5","5","5","5","5","5","5","5","5","5","8","7","8","8","7","6","8","8","8","7","7","7","7","7","6","7","1","7","7","1","7","7","7","7","7","6","7","7","7","7","7","7","7","7","7","7","7","7","7","7","7","7","7","7","7","7","7","7","6","7","634117356192268288","张","467","Male","[""坏我"",""坏他"",""好他"",""好我""]","[""弱我"",""弱他"",""强他"",""强我""]","","","","","","","","no","","","","","","","","","SRET","EW_formal","","key","f","16.66434782608703","768","428","自己","偏私","Negative","morality","","","","","","","","","","",""
"855","","f","psychophysics","24","103249","0.0-7.0-3.0-0.10","7","7","7","7","7","5","5","5","5","5","5","2","2","2","2","2","2","2","2","5","5","5","5","5","5","5","5","5","5","8","7","8","8","7","6","8","8","8","7","7","7","7","7","6","7","1","7","7","1","7","7","7","7","7","6","7","7","7","7","7","7","7","7","7","7","7","7","7","7","7","7","7","7","7","7","7","7","6","7","634117356192268288","张","467","Male","[""坏我"",""坏他"",""好他"",""好我""]","[""弱我"",""弱他"",""强他"",""强我""]","","","","","","","","no","","","","","","","","","SRET","EW_formal","","key","f","16.666666666666668","768","428","自己","奸诈","Negative","morality","","","","","","","","","","",""
"983","","f","psychophysics","25","105233","0.0-7.0-3.0-0.11","7","7","7","7","7","5","5","5","5","5","5","2","2","2","2","2","2","2","2","5","5","5","5","5","5","5","5","5","5","8","7","8","8","7","6","8","8","8","7","7","7","7","7","6","7","1","7","7","1","7","7","7","7","7","6","7","7","7","7","7","7","7","7","7","7","7","7","7","7","7","7","7","7","7","7","7","7","6","7","634117356192268288","张","467","Male","[""坏我"",""坏他"",""好他"",""好我""]","[""弱我"",""弱他"",""强他"",""强我""]","","","","","","","","no","","","","","","","","","SRET","EW_formal","","key","f","16.662711864406877","768","428","自己","腐败","Negative","morality","","","","","","","","","","",""
"1152","","j","psychophysics","26","107386","0.0-7.0-3.0-0.12","7","7","7","7","7","5","5","5","5","5","5","2","2","2","2","2","2","2","2","5","5","5","5","5","5","5","5","5","5","8","7","8","8","7","6","8","8","8","7","7","7","7","7","6","7","1","7","7","1","7","7","7","7","7","6","7","7","7","7","7","7","7","7","7","7","7","7","7","7","7","7","7","7","7","7","7","7","6","7","634117356192268288","张","467","Male","[""坏我"",""坏他"",""好他"",""好我""]","[""弱我"",""弱他"",""强他"",""强我""]","","","","","","","","yes","","","","","","","","","SRET","EW_formal","","key","j","16.66562500000009","768","428","朋友","文明","Positive","morality","","","","","","","","","","",""
"773","","j","psychophysics","27","109161","0.0-7.0-3.0-0.13","7","7","7","7","7","5","5","5","5","5","5","2","2","2","2","2","2","2","2","5","5","5","5","5","5","5","5","5","5","8","7","8","8","7","6","8","8","8","7","7","7","7","7","6","7","1","7","7","1","7","7","7","7","7","6","7","7","7","7","7","7","7","7","7","7","7","7","7","7","7","7","7","7","7","7","7","7","6","7","634117356192268288","张","467","Male","[""坏我"",""坏他"",""好他"",""好我""]","[""弱我"",""弱他"",""强他"",""强我""]","","","","","","","","yes","","","","","","","","","SRET","EW_formal","","key","j","16.6632075471697","768","428","朋友","爱国","Positive","morality","","","","","","","","","","",""
"896","","f","psychophysics","28","111058","0.0-7.0-3.0-0.14","7","7","7","7","7","5","5","5","5","5","5","2","2","2","2","2","2","2","2","5","5","5","5","5","5","5","5","5","5","8","7","8","8","7","6","8","8","8","7","7","7","7","7","6","7","1","7","7","1","7","7","7","7","7","6","7","7","7","7","7","7","7","7","7","7","7","7","7","7","7","7","7","7","7","7","7","7","6","7","634117356192268288","张","467","Male","[""坏我"",""坏他"",""好他"",""好我""]","[""弱我"",""弱他"",""强他"",""强我""]","","","","","","","","no","","","","","","","","","SRET","EW_formal","","key","f","16.66696428571426","768","428","朋友","犹豫","Negative","ability","","","","","","","","","","",""
"973","","j","psychophysics","29","113033","0.0-7.0-3.0-0.15","7","7","7","7","7","5","5","5","5","5","5","2","2","2","2","2","2","2","2","5","5","5","5","5","5","5","5","5","5","8","7","8","8","7","6","8","8","8","7","7","7","7","7","6","7","1","7","7","1","7","7","7","7","7","6","7","7","7","7","7","7","7","7","7","7","7","7","7","7","7","7","7","7","7","7","7","7","6","7","634117356192268288","张","467","Male","[""坏我"",""坏他"",""好他"",""好我""]","[""弱我"",""弱他"",""强他"",""强我""]","","","","","","","","yes","","","","","","","","","SRET","EW_formal","","key","j","17.097391304347926","768","428","朋友","高明","Positive","ability","","","","","","","","","","",""
"855","","j","psychophysics","30","114889","0.0-7.0-3.0-0.16","7","7","7","7","7","5","5","5","5","5","5","2","2","2","2","2","2","2","2","5","5","5","5","5","5","5","5","5","5","8","7","8","8","7","6","8","8","8","7","7","7","7","7","6","7","1","7","7","1","7","7","7","7","7","6","7","7","7","7","7","7","7","7","7","7","7","7","7","7","7","7","7","7","7","7","7","7","6","7","634117356192268288","张","467","Male","[""坏我"",""坏他"",""好他"",""好我""]","[""弱我"",""弱他"",""强他"",""强我""]","","","","","","","","yes","","","","","","","","","SRET","EW_formal","","key","j","16.66545454545452","768","428","朋友","全才","Positive","ability","","","","","","","","","","",""
"975","","j","psychophysics","31","116866","0.0-7.0-3.0-0.17","7","7","7","7","7","5","5","5","5","5","5","2","2","2","2","2","2","2","2","5","5","5","5","5","5","5","5","5","5","8","7","8","8","7","6","8","8","8","7","7","7","7","7","6","7","1","7","7","1","7","7","7","7","7","6","7","7","7","7","7","7","7","7","7","7","7","7","7","7","7","7","7","7","7","7","7","7","6","7","634117356192268288","张","467","Male","[""坏我"",""坏他"",""好他"",""好我""]","[""弱我"",""弱他"",""强他"",""强我""]","","","","","","","","yes","","","","","","","","","SRET","EW_formal","","key","j","16.666949152542347","768","428","朋友","敬业","Positive","morality","","","","","","","","","","",""
"876","","j","psychophysics","32","118745","0.0-7.0-3.0-0.18","7","7","7","7","7","5","5","5","5","5","5","2","2","2","2","2","2","2","2","5","5","5","5","5","5","5","5","5","5","8","7","8","8","7","6","8","8","8","7","7","7","7","7","6","7","1","7","7","1","7","7","7","7","7","6","7","7","7","7","7","7","7","7","7","7","7","7","7","7","7","7","7","7","7","7","7","7","6","7","634117356192268288","张","467","Male","[""坏我"",""坏他"",""好他"",""好我""]","[""弱我"",""弱他"",""强他"",""强我""]","","","","","","","","yes","","","","","","","","","SRET","EW_formal","","key","j","16.664285714285793","768","428","自己","守信","Positive","morality","","","","","","","","","","",""
"752","","j","psychophysics","33","120498","0.0-7.0-3.0-0.19","7","7","7","7","7","5","5","5","5","5","5","2","2","2","2","2","2","2","2","5","5","5","5","5","5","5","5","5","5","8","7","8","8","7","6","8","8","8","7","7","7","7","7","6","7","1","7","7","1","7","7","7","7","7","6","7","7","7","7","7","7","7","7","7","7","7","7","7","7","7","7","7","7","7","7","7","7","6","7","634117356192268288","张","467","Male","[""坏我"",""坏他"",""好他"",""好我""]","[""弱我"",""弱他"",""强他"",""强我""]","","","","","","","","yes","","","","","","","","","SRET","EW_formal","","key","j","16.66538461538459","768","428","自己","有力","Positive","ability","","","","","","","","","","",""
"1550","","j","psychophysics","34","123050","0.0-7.0-3.0-0.20","7","7","7","7","7","5","5","5","5","5","5","2","2","2","2","2","2","2","2","5","5","5","5","5","5","5","5","5","5","8","7","8","8","7","6","8","8","8","7","7","7","7","7","6","7","1","7","7","1","7","7","7","7","7","6","7","7","7","7","7","7","7","7","7","7","7","7","7","7","7","7","7","7","7","7","7","7","6","7","634117356192268288","张","467","Male","[""坏我"",""坏他"",""好他"",""好我""]","[""弱我"",""弱他"",""强他"",""强我""]","","","","","","","","yes","","","","","","","","","SRET","EW_formal","","key","j","16.66644736842107","768","428","自己","思辨","Positive","ability","","","","","","","","","","",""
"661","","f","psychophysics","35","124713","0.0-7.0-3.0-0.21","7","7","7","7","7","5","5","5","5","5","5","2","2","2","2","2","2","2","2","5","5","5","5","5","5","5","5","5","5","8","7","8","8","7","6","8","8","8","7","7","7","7","7","6","7","1","7","7","1","7","7","7","7","7","6","7","7","7","7","7","7","7","7","7","7","7","7","7","7","7","7","7","7","7","7","7","7","6","7","634117356192268288","张","467","Male","[""坏我"",""坏他"",""好他"",""好我""]","[""弱我"",""弱他"",""强他"",""强我""]","","","","","","","","no","","","","","","","","","SRET","EW_formal","","key","f","16.66565656565651","768","428","自己","恶劣","Negative","morality","","","","","","","","","","",""
"681","","j","psychophysics","36","126395","0.0-7.0-3.0-0.22","7","7","7","7","7","5","5","5","5","5","5","2","2","2","2","2","2","2","2","5","5","5","5","5","5","5","5","5","5","8","7","8","8","7","6","8","8","8","7","7","7","7","7","6","7","1","7","7","1","7","7","7","7","7","6","7","7","7","7","7","7","7","7","7","7","7","7","7","7","7","7","7","7","7","7","7","7","6","7","634117356192268288","张","467","Male","[""坏我"",""坏他"",""好他"",""好我""]","[""弱我"",""弱他"",""强他"",""强我""]","","","","","","","","yes","","","","","","","","","SRET","EW_formal","","key","j","16.666000000000057","768","428","自己","正气","Positive","morality","","","","","","","","","","",""
"709","","f","psychophysics","37","128106","0.0-7.0-3.0-0.23","7","7","7","7","7","5","5","5","5","5","5","2","2","2","2","2","2","2","2","5","5","5","5","5","5","5","5","5","5","8","7","8","8","7","6","8","8","8","7","7","7","7","7","6","7","1","7","7","1","7","7","7","7","7","6","7","7","7","7","7","7","7","7","7","7","7","7","7","7","7","7","7","7","7","7","7","7","6","7","634117356192268288","张","467","Male","[""坏我"",""坏他"",""好他"",""好我""]","[""弱我"",""弱他"",""强他"",""强我""]","","","","","","","","no","","","","","","","","","SRET","EW_formal","","key","f","16.664356435643477","768","428","朋友","外行","Negative","ability","","","","","","","","","","",""
"638","","f","psychophysics","38","129745","0.0-7.0-3.0-0.24","7","7","7","7","7","5","5","5","5","5","5","2","2","2","2","2","2","2","2","5","5","5","5","5","5","5","5","5","5","8","7","8","8","7","6","8","8","8","7","7","7","7","7","6","7","1","7","7","1","7","7","7","7","7","6","7","7","7","7","7","7","7","7","7","7","7","7","7","7","7","7","7","7","7","7","7","7","6","7","634117356192268288","张","467","Male","[""坏我"",""坏他"",""好他"",""好我""]","[""弱我"",""弱他"",""强他"",""强我""]","","","","","","","","no","","","","","","","","","SRET","EW_formal","","key","f","16.666326530612274","768","428","自己","无助","Negative","ability","","","","","","","","","","",""
"878","","f","psychophysics","39","131625","0.0-7.0-3.0-0.25","7","7","7","7","7","5","5","5","5","5","5","2","2","2","2","2","2","2","2","5","5","5","5","5","5","5","5","5","5","8","7","8","8","7","6","8","8","8","7","7","7","7","7","6","7","1","7","7","1","7","7","7","7","7","6","7","7","7","7","7","7","7","7","7","7","7","7","7","7","7","7","7","7","7","7","7","7","6","7","634117356192268288","张","467","Male","[""坏我"",""坏他"",""好他"",""好我""]","[""弱我"",""弱他"",""强他"",""强我""]","","","","","","","","no","","","","","","","","","SRET","EW_formal","","key","f","16.663963963963937","768","428","朋友","蛇蝎","Negative","morality","","","","","","","","","","",""
"622","","f","psychophysics","40","133249","0.0-7.0-3.0-0.26","7","7","7","7","7","5","5","5","5","5","5","2","2","2","2","2","2","2","2","5","5","5","5","5","5","5","5","5","5","8","7","8","8","7","6","8","8","8","7","7","7","7","7","6","7","1","7","7","1","7","7","7","7","7","6","7","7","7","7","7","7","7","7","7","7","7","7","7","7","7","7","7","7","7","7","7","7","6","7","634117356192268288","张","467","Male","[""坏我"",""坏他"",""好他"",""好我""]","[""弱我"",""弱他"",""强他"",""强我""]","","","","","","","","no","","","","","","","","","SRET","EW_formal","","key","f","16.663917525773137","768","428","朋友","愚钝","Negative","ability","","","","","","","","","","",""
"976","","j","psychophysics","41","135226","0.0-7.0-3.0-0.27","7","7","7","7","7","5","5","5","5","5","5","2","2","2","2","2","2","2","2","5","5","5","5","5","5","5","5","5","5","8","7","8","8","7","6","8","8","8","7","7","7","7","7","6","7","1","7","7","1","7","7","7","7","7","6","7","7","7","7","7","7","7","7","7","7","7","7","7","7","7","7","7","7","7","7","7","7","6","7","634117356192268288","张","467","Male","[""坏我"",""坏他"",""好他"",""好我""]","[""弱我"",""弱他"",""强他"",""强我""]","","","","","","","","yes","","","","","","","","","SRET","EW_formal","","key","j","16.665811965811915","768","428","自己","清廉","Positive","morality","","","","","","","","","","",""
"635","","f","psychophysics","42","136864","0.0-7.0-3.0-0.28","7","7","7","7","7","5","5","5","5","5","5","2","2","2","2","2","2","2","2","5","5","5","5","5","5","5","5","5","5","8","7","8","8","7","6","8","8","8","7","7","7","7","7","6","7","1","7","7","1","7","7","7","7","7","6","7","7","7","7","7","7","7","7","7","7","7","7","7","7","7","7","7","7","7","7","7","7","6","7","634117356192268288","张","467","Male","[""坏我"",""坏他"",""好他"",""好我""]","[""弱我"",""弱他"",""强他"",""强我""]","","","","","","","","no","","","","","","","","","SRET","EW_formal","","key","f","16.663265306122447","768","428","自己","龌龊","Negative","morality","","","","","","","","","","",""
"1056","","f","psychophysics","43","138922","0.0-7.0-3.0-0.29","7","7","7","7","7","5","5","5","5","5","5","2","2","2","2","2","2","2","2","5","5","5","5","5","5","5","5","5","5","8","7","8","8","7","6","8","8","8","7","7","7","7","7","6","7","1","7","7","1","7","7","7","7","7","6","7","7","7","7","7","7","7","7","7","7","7","7","7","7","7","7","7","7","7","7","7","7","6","7","634117356192268288","张","467","Male","[""坏我"",""坏他"",""好他"",""好我""]","[""弱我"",""弱他"",""强他"",""强我""]","","","","","","","","no","","","","","","","","","SRET","EW_formal","","key","f","16.6655737704919","768","428","自己","庸碌","Negative","ability","","","","","","","","","","",""
"744","","f","psychophysics","44","140668","0.0-7.0-3.0-0.30","7","7","7","7","7","5","5","5","5","5","5","2","2","2","2","2","2","2","2","5","5","5","5","5","5","5","5","5","5","8","7","8","8","7","6","8","8","8","7","7","7","7","7","6","7","1","7","7","1","7","7","7","7","7","6","7","7","7","7","7","7","7","7","7","7","7","7","7","7","7","7","7","7","7","7","7","7","6","7","634117356192268288","张","467","Male","[""坏我"",""坏他"",""好他"",""好我""]","[""弱我"",""弱他"",""强他"",""强我""]","","","","","","","","no","","","","","","","","","SRET","EW_formal","","key","f","16.665384615384728","768","428","自己","浅薄","Negative","ability","","","","","","","","","","",""
"878","","j","psychophysics","45","142548","0.0-7.0-3.0-0.31","7","7","7","7","7","5","5","5","5","5","5","2","2","2","2","2","2","2","2","5","5","5","5","5","5","5","5","5","5","8","7","8","8","7","6","8","8","8","7","7","7","7","7","6","7","1","7","7","1","7","7","7","7","7","6","7","7","7","7","7","7","7","7","7","7","7","7","7","7","7","7","7","7","7","7","7","7","6","7","634117356192268288","张","467","Male","[""坏我"",""坏他"",""好他"",""好我""]","[""弱我"",""弱他"",""强他"",""强我""]","","","","","","","","yes","","","","","","","","","SRET","EW_formal","","key","j","16.66696428571439","768","428","朋友","果断","Positive","ability","","","","","","","","","","",""
"668","","j","psychophysics","46","144217","0.0-7.0-3.0-0.32","7","7","7","7","7","5","5","5","5","5","5","2","2","2","2","2","2","2","2","5","5","5","5","5","5","5","5","5","5","8","7","8","8","7","6","8","8","8","7","7","7","7","7","6","7","1","7","7","1","7","7","7","7","7","6","7","7","7","7","7","7","7","7","7","7","7","7","7","7","7","7","7","7","7","7","7","7","6","7","634117356192268288","张","467","Male","[""坏我"",""坏他"",""好他"",""好我""]","[""弱我"",""弱他"",""强他"",""强我""]","","","","","","","","yes","","","","","","","","","SRET","EW_formal","","key","j","16.666666666666668","768","428","朋友","忠勇","Positive","morality","","","","","","","","","","",""
"855","","j","psychophysics","47","146073","0.0-7.0-3.0-0.33","7","7","7","7","7","5","5","5","5","5","5","2","2","2","2","2","2","2","2","5","5","5","5","5","5","5","5","5","5","8","7","8","8","7","6","8","8","8","7","7","7","7","7","6","7","1","7","7","1","7","7","7","7","7","6","7","7","7","7","7","7","7","7","7","7","7","7","7","7","7","7","7","7","7","7","7","7","6","7","634117356192268288","张","467","Male","[""坏我"",""坏他"",""好他"",""好我""]","[""弱我"",""弱他"",""强他"",""强我""]","","","","","","","","yes","","","","","","","","","SRET","EW_formal","","key","j","16.667272727272675","768","428","朋友","利落","Positive","ability","","","","","","","","","","",""
"586","","j","psychophysics","48","147659","0.0-7.0-3.0-0.34","7","7","7","7","7","5","5","5","5","5","5","2","2","2","2","2","2","2","2","5","5","5","5","5","5","5","5","5","5","8","7","8","8","7","6","8","8","8","7","7","7","7","7","6","7","1","7","7","1","7","7","7","7","7","6","7","7","7","7","7","7","7","7","7","7","7","7","7","7","7","7","7","7","7","7","7","7","6","7","634117356192268288","张","467","Male","[""坏我"",""坏他"",""好他"",""好我""]","[""弱我"",""弱他"",""强他"",""强我""]","","","","","","","","yes","","","","","","","","","SRET","EW_formal","","key","j","16.666315789473867","768","428","朋友","肯干","Positive","ability","","","","","","","","","","",""
"894","","j","psychophysics","49","149554","0.0-7.0-3.0-0.35","7","7","7","7","7","5","5","5","5","5","5","2","2","2","2","2","2","2","2","5","5","5","5","5","5","5","5","5","5","8","7","8","8","7","6","8","8","8","7","7","7","7","7","6","7","1","7","7","1","7","7","7","7","7","6","7","7","7","7","7","7","7","7","7","7","7","7","7","7","7","7","7","7","7","7","7","7","6","7","634117356192268288","张","467","Male","[""坏我"",""坏他"",""好他"",""好我""]","[""弱我"",""弱他"",""强他"",""强我""]","","","","","","","","yes","","","","","","","","","SRET","EW_formal","","key","j","16.667857142857038","768","428","自己","远见","Positive","ability","","","","","","","","","","",""
"639","","f","psychophysics","50","151195","0.0-7.0-3.0-0.36","7","7","7","7","7","5","5","5","5","5","5","2","2","2","2","2","2","2","2","5","5","5","5","5","5","5","5","5","5","8","7","8","8","7","6","8","8","8","7","7","7","7","7","6","7","1","7","7","1","7","7","7","7","7","6","7","7","7","7","7","7","7","7","7","7","7","7","7","7","7","7","7","7","7","7","7","7","6","7","634117356192268288","张","467","Male","[""坏我"",""坏他"",""好他"",""好我""]","[""弱我"",""弱他"",""强他"",""强我""]","","","","","","","","no","","","","","","","","","SRET","EW_formal","","key","f","16.667346938775452","768","428","自己","不仁","Negative","morality","","","","","","","","","","",""
"772","","f","psychophysics","51","152969","0.0-7.0-3.0-0.37","7","7","7","7","7","5","5","5","5","5","5","2","2","2","2","2","2","2","2","5","5","5","5","5","5","5","5","5","5","8","7","8","8","7","6","8","8","8","7","7","7","7","7","6","7","1","7","7","1","7","7","7","7","7","6","7","7","7","7","7","7","7","7","7","7","7","7","7","7","7","7","7","7","7","7","7","7","6","7","634117356192268288","张","467","Male","[""坏我"",""坏他"",""好他"",""好我""]","[""弱我"",""弱他"",""强他"",""强我""]","","","","","","","","no","","","","","","","","","SRET","EW_formal","","key","f","16.66380952380936","768","428","朋友","愚痴","Negative","ability","","","","","","","","","","",""
"728","","f","psychophysics","52","154697","0.0-7.0-3.0-0.38","7","7","7","7","7","5","5","5","5","5","5","2","2","2","2","2","2","2","2","5","5","5","5","5","5","5","5","5","5","8","7","8","8","7","6","8","8","8","7","7","7","7","7","6","7","1","7","7","1","7","7","7","7","7","6","7","7","7","7","7","7","7","7","7","7","7","7","7","7","7","7","7","7","7","7","7","7","6","7","634117356192268288","张","467","Male","[""坏我"",""坏他"",""好他"",""好我""]","[""弱我"",""弱他"",""强他"",""强我""]","","","","","","","","no","","","","","","","","","SRET","EW_formal","","key","f","16.664077669902856","768","428","朋友","歹毒","Negative","morality","","","","","","","","","","",""
"759","","f","psychophysics","53","156457","0.0-7.0-3.0-0.39","7","7","7","7","7","5","5","5","5","5","5","2","2","2","2","2","2","2","2","5","5","5","5","5","5","5","5","5","5","8","7","8","8","7","6","8","8","8","7","7","7","7","7","6","7","1","7","7","1","7","7","7","7","7","6","7","7","7","7","7","7","7","7","7","7","7","7","7","7","7","7","7","7","7","7","7","7","6","7","634117356192268288","张","467","Male","[""坏我"",""坏他"",""好他"",""好我""]","[""弱我"",""弱他"",""强他"",""强我""]","","","","","","","","no","","","","","","","","","SRET","EW_formal","","key","f","16.665714285714508","768","428","朋友","无赖","Negative","morality","","","","","","","","","","",""
"897","","f","psychophysics","54","158355","0.0-7.0-3.0-0.40","7","7","7","7","7","5","5","5","5","5","5","2","2","2","2","2","2","2","2","5","5","5","5","5","5","5","5","5","5","8","7","8","8","7","6","8","8","8","7","7","7","7","7","6","7","1","7","7","1","7","7","7","7","7","6","7","7","7","7","7","7","7","7","7","7","7","7","7","7","7","7","7","7","7","7","7","7","6","7","634117356192268288","张","467","Male","[""坏我"",""坏他"",""好他"",""好我""]","[""弱我"",""弱他"",""强他"",""强我""]","","","","","","","","no","","","","","","","","","SRET","EW_formal","","key","f","16.66428571428592","768","428","自己","新手","Negative","ability","","","","","","","","","","",""
"710","","f","psychophysics","55","160065","0.0-7.0-3.0-0.41","7","7","7","7","7","5","5","5","5","5","5","2","2","2","2","2","2","2","2","5","5","5","5","5","5","5","5","5","5","8","7","8","8","7","6","8","8","8","7","7","7","7","7","6","7","1","7","7","1","7","7","7","7","7","6","7","7","7","7","7","7","7","7","7","7","7","7","7","7","7","7","7","7","7","7","7","7","6","7","634117356192268288","张","467","Male","[""坏我"",""坏他"",""好他"",""好我""]","[""弱我"",""弱他"",""强他"",""强我""]","","","","","","","","no","","","","","","","","","SRET","EW_formal","","key","f","16.665686274509746","768","428","朋友","迂拙","Negative","ability","","","","","","","","","","",""
"696","","f","psychophysics","56","161762","0.0-7.0-3.0-0.42","7","7","7","7","7","5","5","5","5","5","5","2","2","2","2","2","2","2","2","5","5","5","5","5","5","5","5","5","5","8","7","8","8","7","6","8","8","8","7","7","7","7","7","6","7","1","7","7","1","7","7","7","7","7","6","7","7","7","7","7","7","7","7","7","7","7","7","7","7","7","7","7","7","7","7","7","7","6","7","634117356192268288","张","467","Male","[""坏我"",""坏他"",""好他"",""好我""]","[""弱我"",""弱他"",""强他"",""强我""]","","","","","","","","no","","","","","","","","","SRET","EW_formal","","key","f","16.66534653465358","768","428","朋友","狡诈","Negative","morality","","","","","","","","","","",""
"645","","j","psychophysics","57","163409","0.0-7.0-3.0-0.43","7","7","7","7","7","5","5","5","5","5","5","2","2","2","2","2","2","2","2","5","5","5","5","5","5","5","5","5","5","8","7","8","8","7","6","8","8","8","7","7","7","7","7","6","7","1","7","7","1","7","7","7","7","7","6","7","7","7","7","7","7","7","7","7","7","7","7","7","7","7","7","7","7","7","7","7","7","6","7","634117356192268288","张","467","Male","[""坏我"",""坏他"",""好他"",""好我""]","[""弱我"",""弱他"",""强他"",""强我""]","","","","","","","","yes","","","","","","","","","SRET","EW_formal","","key","j","16.663265306122447","768","428","自己","果决","Positive","ability","","","","","","","","","","",""
"971","","f","psychophysics","58","165382","0.0-7.0-3.0-0.44","7","7","7","7","7","5","5","5","5","5","5","2","2","2","2","2","2","2","2","5","5","5","5","5","5","5","5","5","5","8","7","8","8","7","6","8","8","8","7","7","7","7","7","6","7","1","7","7","1","7","7","7","7","7","6","7","7","7","7","7","7","7","7","7","7","7","7","7","7","7","7","7","7","7","7","7","7","6","7","634117356192268288","张","467","Male","[""坏我"",""坏他"",""好他"",""好我""]","[""弱我"",""弱他"",""强他"",""强我""]","","","","","","","","no","","","","","","","","","SRET","EW_formal","","key","f","16.665811965811915","768","428","朋友","拖拉","Negative","ability","","","","","","","","","","",""
"796","","j","psychophysics","59","167178","0.0-7.0-3.0-0.45","7","7","7","7","7","5","5","5","5","5","5","2","2","2","2","2","2","2","2","5","5","5","5","5","5","5","5","5","5","8","7","8","8","7","6","8","8","8","7","7","7","7","7","6","7","1","7","7","1","7","7","7","7","7","6","7","7","7","7","7","7","7","7","7","7","7","7","7","7","7","7","7","7","7","7","7","7","6","7","634117356192268288","张","467","Male","[""坏我"",""坏他"",""好他"",""好我""]","[""弱我"",""弱他"",""强他"",""强我""]","","","","","","","","yes","","","","","","","","","SRET","EW_formal","","key","j","16.66635514018708","768","428","自己","侠义","Positive","morality","","","","","","","","","","",""
"633","","j","psychophysics","60","168814","0.0-7.0-3.0-0.46","7","7","7","7","7","5","5","5","5","5","5","2","2","2","2","2","2","2","2","5","5","5","5","5","5","5","5","5","5","8","7","8","8","7","6","8","8","8","7","7","7","7","7","6","7","1","7","7","1","7","7","7","7","7","6","7","7","7","7","7","7","7","7","7","7","7","7","7","7","7","7","7","7","7","7","7","7","6","7","634117356192268288","张","467","Male","[""坏我"",""坏他"",""好他"",""好我""]","[""弱我"",""弱他"",""强他"",""强我""]","","","","","","","","yes","","","","","","","","","SRET","EW_formal","","key","j","16.66597938144336","768","428","朋友","依靠","Negative","ability","","","","","","","","","","",""
"953","","f","psychophysics","61","170769","0.0-7.0-3.0-0.47","7","7","7","7","7","5","5","5","5","5","5","2","2","2","2","2","2","2","2","5","5","5","5","5","5","5","5","5","5","8","7","8","8","7","6","8","8","8","7","7","7","7","7","6","7","1","7","7","1","7","7","7","7","7","6","7","7","7","7","7","7","7","7","7","7","7","7","7","7","7","7","7","7","7","7","7","7","6","7","634117356192268288","张","467","Male","[""坏我"",""坏他"",""好他"",""好我""]","[""弱我"",""弱他"",""强他"",""强我""]","","","","","","","","no","","","","","","","","","SRET","EW_formal","","key","f","16.664655172413845","768","428","自己","驽钝","Negative","ability","","","","","","","","","","",""
"760","","j","psychophysics","62","172530","0.0-7.0-3.0-0.48","7","7","7","7","7","5","5","5","5","5","5","2","2","2","2","2","2","2","2","5","5","5","5","5","5","5","5","5","5","8","7","8","8","7","6","8","8","8","7","7","7","7","7","6","7","1","7","7","1","7","7","7","7","7","6","7","7","7","7","7","7","7","7","7","7","7","7","7","7","7","7","7","7","7","7","7","7","6","7","634117356192268288","张","467","Male","[""坏我"",""坏他"",""好他"",""好我""]","[""弱我"",""弱他"",""强他"",""强我""]","","","","","","","","yes","","","","","","","","","SRET","EW_formal","","key","j","16.666666666666668","768","428","自己","上进","Positive","ability","","","","","","","","","","",""
"750","","j","psychophysics","63","174282","0.0-7.0-3.0-0.49","7","7","7","7","7","5","5","5","5","5","5","2","2","2","2","2","2","2","2","5","5","5","5","5","5","5","5","5","5","8","7","8","8","7","6","8","8","8","7","7","7","7","7","6","7","1","7","7","1","7","7","7","7","7","6","7","7","7","7","7","7","7","7","7","7","7","7","7","7","7","7","7","7","7","7","7","7","6","7","634117356192268288","张","467","Male","[""坏我"",""坏他"",""好他"",""好我""]","[""弱我"",""弱他"",""强他"",""强我""]","","","","","","","","yes","","","","","","","","","SRET","EW_formal","","key","j","16.665384615384447","768","428","朋友","高洁","Positive","morality","","","","","","","","","","",""
"621","","f","psychophysics","64","175905","0.0-7.0-3.0-0.50","7","7","7","7","7","5","5","5","5","5","5","2","2","2","2","2","2","2","2","5","5","5","5","5","5","5","5","5","5","8","7","8","8","7","6","8","8","8","7","7","7","7","7","6","7","1","7","7","1","7","7","7","7","7","6","7","7","7","7","7","7","7","7","7","7","7","7","7","7","7","7","7","7","7","7","7","7","6","7","634117356192268288","张","467","Male","[""坏我"",""坏他"",""好他"",""好我""]","[""弱我"",""弱他"",""强他"",""强我""]","","","","","","","","no","","","","","","","","","SRET","EW_formal","","key","f","16.664948453608247","768","428","朋友","奸险","Negative","morality","","","","","","","","","","",""
"751","","f","psychophysics","65","177657","0.0-7.0-3.0-0.51","7","7","7","7","7","5","5","5","5","5","5","2","2","2","2","2","2","2","2","5","5","5","5","5","5","5","5","5","5","8","7","8","8","7","6","8","8","8","7","7","7","7","7","6","7","1","7","7","1","7","7","7","7","7","6","7","7","7","7","7","7","7","7","7","7","7","7","7","7","7","7","7","7","7","7","7","7","6","7","634117356192268288","张","467","Male","[""坏我"",""坏他"",""好他"",""好我""]","[""弱我"",""弱他"",""强他"",""强我""]","","","","","","","","no","","","","","","","","","SRET","EW_formal","","key","f","16.664423076923132","768","428","朋友","下流","Negative","morality","","","","","","","","","","",""
"630","","f","psychophysics","66","179289","0.0-7.0-3.0-0.52","7","7","7","7","7","5","5","5","5","5","5","2","2","2","2","2","2","2","2","5","5","5","5","5","5","5","5","5","5","8","7","8","8","7","6","8","8","8","7","7","7","7","7","6","7","1","7","7","1","7","7","7","7","7","6","7","7","7","7","7","7","7","7","7","7","7","7","7","7","7","7","7","7","7","7","7","7","6","7","634117356192268288","张","467","Male","[""坏我"",""坏他"",""好他"",""好我""]","[""弱我"",""弱他"",""强他"",""强我""]","","","","","","","","no","","","","","","","","","SRET","EW_formal","","key","f","16.664948453608247","768","428","自己","贪腐","Negative","morality","","","","","","","","","","",""
"632","","f","psychophysics","67","180922","0.0-7.0-3.0-0.53","7","7","7","7","7","5","5","5","5","5","5","2","2","2","2","2","2","2","2","5","5","5","5","5","5","5","5","5","5","8","7","8","8","7","6","8","8","8","7","7","7","7","7","6","7","1","7","7","1","7","7","7","7","7","6","7","7","7","7","7","7","7","7","7","7","7","7","7","7","7","7","7","7","7","7","7","7","6","7","634117356192268288","张","467","Male","[""坏我"",""坏他"",""好他"",""好我""]","[""弱我"",""弱他"",""强他"",""强我""]","","","","","","","","no","","","","","","","","","SRET","EW_formal","","key","f","16.662886597938023","768","428","朋友","失信","Negative","morality","","","","","","","","","","",""
"621","","f","psychophysics","68","182545","0.0-7.0-3.0-0.54","7","7","7","7","7","5","5","5","5","5","5","2","2","2","2","2","2","2","2","5","5","5","5","5","5","5","5","5","5","8","7","8","8","7","6","8","8","8","7","7","7","7","7","6","7","1","7","7","1","7","7","7","7","7","6","7","7","7","7","7","7","7","7","7","7","7","7","7","7","7","7","7","7","7","7","7","7","6","7","634117356192268288","张","467","Male","[""坏我"",""坏他"",""好他"",""好我""]","[""弱我"",""弱他"",""强他"",""强我""]","","","","","","","","no","","","","","","","","","SRET","EW_formal","","key","f","16.665624999999938","768","428","朋友","无知","Negative","ability","","","","","","","","","","",""
"656","","f","psychophysics","69","184202","0.0-7.0-3.0-0.55","7","7","7","7","7","5","5","5","5","5","5","2","2","2","2","2","2","2","2","5","5","5","5","5","5","5","5","5","5","8","7","8","8","7","6","8","8","8","7","7","7","7","7","6","7","1","7","7","1","7","7","7","7","7","6","7","7","7","7","7","7","7","7","7","7","7","7","7","7","7","7","7","7","7","7","7","7","6","7","634117356192268288","张","467","Male","[""坏我"",""坏他"",""好他"",""好我""]","[""弱我"",""弱他"",""强他"",""强我""]","","","","","","","","no","","","","","","","","","SRET","EW_formal","","key","f","16.668367346938776","768","428","自己","无私","Positive","morality","","","","","","","","","","",""
"845","","f","psychophysics","70","186049","0.0-7.0-3.0-0.56","7","7","7","7","7","5","5","5","5","5","5","2","2","2","2","2","2","2","2","5","5","5","5","5","5","5","5","5","5","8","7","8","8","7","6","8","8","8","7","7","7","7","7","6","7","1","7","7","1","7","7","7","7","7","6","7","7","7","7","7","7","7","7","7","7","7","7","7","7","7","7","7","7","7","7","7","7","6","7","634117356192268288","张","467","Male","[""坏我"",""坏他"",""好他"",""好我""]","[""弱我"",""弱他"",""强他"",""强我""]","","","","","","","","no","","","","","","","","","SRET","EW_formal","","key","f","16.66545454545465","768","428","自己","怠惰","Negative","ability","","","","","","","","","","",""
"560","","j","psychophysics","71","187610","0.0-7.0-3.0-0.57","7","7","7","7","7","5","5","5","5","5","5","2","2","2","2","2","2","2","2","5","5","5","5","5","5","5","5","5","5","8","7","8","8","7","6","8","8","8","7","7","7","7","7","6","7","1","7","7","1","7","7","7","7","7","6","7","7","7","7","7","7","7","7","7","7","7","7","7","7","7","7","7","7","7","7","7","7","6","7","634117356192268288","张","467","Male","[""坏我"",""坏他"",""好他"",""好我""]","[""弱我"",""弱他"",""强他"",""强我""]","","","","","","","","yes","","","","","","","","","SRET","EW_formal","","key","j","16.667741935483935","768","428","朋友","细心","Positive","ability","","","","","","","","","","",""
"1039","","f","psychophysics","72","189651","0.0-7.0-3.0-0.58","7","7","7","7","7","5","5","5","5","5","5","2","2","2","2","2","2","2","2","5","5","5","5","5","5","5","5","5","5","8","7","8","8","7","6","8","8","8","7","7","7","7","7","6","7","1","7","7","1","7","7","7","7","7","6","7","7","7","7","7","7","7","7","7","7","7","7","7","7","7","7","7","7","7","7","7","7","6","7","634117356192268288","张","467","Male","[""坏我"",""坏他"",""好他"",""好我""]","[""弱我"",""弱他"",""强他"",""强我""]","","","","","","","","no","","","","","","","","","SRET","EW_formal","","key","f","16.666115702479388","768","428","自己","无敌","Positive","ability","","","","","","","","","","",""
"1869","","f","psychophysics","73","192521","0.0-7.0-3.0-0.59","7","7","7","7","7","5","5","5","5","5","5","2","2","2","2","2","2","2","2","5","5","5","5","5","5","5","5","5","5","8","7","8","8","7","6","8","8","8","7","7","7","7","7","6","7","1","7","7","1","7","7","7","7","7","6","7","7","7","7","7","7","7","7","7","7","7","7","7","7","7","7","7","7","7","7","7","7","6","7","634117356192268288","张","467","Male","[""坏我"",""坏他"",""好他"",""好我""]","[""弱我"",""弱他"",""强他"",""强我""]","","","","","","","","no","","","","","","","","","SRET","EW_formal","","key","f","16.664534883721032","768","428","自己","屈才","Negative","ability","","","","","","","","","","",""
"856","","j","psychophysics","74","194379","0.0-7.0-3.0-0.60","7","7","7","7","7","5","5","5","5","5","5","2","2","2","2","2","2","2","2","5","5","5","5","5","5","5","5","5","5","8","7","8","8","7","6","8","8","8","7","7","7","7","7","6","7","1","7","7","1","7","7","7","7","7","6","7","7","7","7","7","7","7","7","7","7","7","7","7","7","7","7","7","7","7","7","7","7","6","7","634117356192268288","张","467","Male","[""坏我"",""坏他"",""好他"",""好我""]","[""弱我"",""弱他"",""强他"",""强我""]","","","","","","","","yes","","","","","","","","","SRET","EW_formal","","key","j","16.667272727272675","768","428","自己","奉献","Positive","morality","","","","","","","","","","",""
"846","","f","psychophysics","75","196226","0.0-7.0-3.0-0.61","7","7","7","7","7","5","5","5","5","5","5","2","2","2","2","2","2","2","2","5","5","5","5","5","5","5","5","5","5","8","7","8","8","7","6","8","8","8","7","7","7","7","7","6","7","1","7","7","1","7","7","7","7","7","6","7","7","7","7","7","7","7","7","7","7","7","7","7","7","7","7","7","7","7","7","7","7","6","7","634117356192268288","张","467","Male","[""坏我"",""坏他"",""好他"",""好我""]","[""弱我"",""弱他"",""强他"",""强我""]","","","","","","","","no","","","","","","","","","SRET","EW_formal","","key","f","16.66545454545465","768","428","自己","无为","Negative","ability","","","","","","","","","","",""
"617","","j","psychophysics","76","197850","0.0-7.0-3.0-0.62","7","7","7","7","7","5","5","5","5","5","5","2","2","2","2","2","2","2","2","5","5","5","5","5","5","5","5","5","5","8","7","8","8","7","6","8","8","8","7","7","7","7","7","6","7","1","7","7","1","7","7","7","7","7","6","7","7","7","7","7","7","7","7","7","7","7","7","7","7","7","7","7","7","7","7","7","7","6","7","634117356192268288","张","467","Male","[""坏我"",""坏他"",""好他"",""好我""]","[""弱我"",""弱他"",""强他"",""强我""]","","","","","","","","yes","","","","","","","","","SRET","EW_formal","","key","j","16.664583333333514","768","428","自己","中用","Positive","ability","","","","","","","","","","",""
"1161","","f","psychophysics","77","200016","0.0-7.0-3.0-0.63","7","7","7","7","7","5","5","5","5","5","5","2","2","2","2","2","2","2","2","5","5","5","5","5","5","5","5","5","5","8","7","8","8","7","6","8","8","8","7","7","7","7","7","6","7","1","7","7","1","7","7","7","7","7","6","7","7","7","7","7","7","7","7","7","7","7","7","7","7","7","7","7","7","7","7","7","7","6","7","634117356192268288","张","467","Male","[""坏我"",""坏他"",""好他"",""好我""]","[""弱我"",""弱他"",""强他"",""强我""]","","","","","","","","no","","","","","","","","","SRET","EW_formal","","key","f","16.66434108527141","768","428","朋友","弱智","Negative","ability","","","","","","","","","","",""
"736","","j","psychophysics","78","201754","0.0-7.0-3.0-0.64","7","7","7","7","7","5","5","5","5","5","5","2","2","2","2","2","2","2","2","5","5","5","5","5","5","5","5","5","5","8","7","8","8","7","6","8","8","8","7","7","7","7","7","6","7","1","7","7","1","7","7","7","7","7","6","7","7","7","7","7","7","7","7","7","7","7","7","7","7","7","7","7","7","7","7","7","7","6","7","634117356192268288","张","467","Male","[""坏我"",""坏他"",""好他"",""好我""]","[""弱我"",""弱他"",""强他"",""强我""]","","","","","","","","yes","","","","","","","","","SRET","EW_formal","","key","j","16.666346153846042","768","428","自己","独立","Positive","ability","","","","","","","","","","",""
"1000","","f","psychophysics","79","203755","0.0-7.0-3.0-0.65","7","7","7","7","7","5","5","5","5","5","5","2","2","2","2","2","2","2","2","5","5","5","5","5","5","5","5","5","5","8","7","8","8","7","6","8","8","8","7","7","7","7","7","6","7","1","7","7","1","7","7","7","7","7","6","7","7","7","7","7","7","7","7","7","7","7","7","7","7","7","7","7","7","7","7","7","7","6","7","634117356192268288","张","467","Male","[""坏我"",""坏他"",""好他"",""好我""]","[""弱我"",""弱他"",""强他"",""强我""]","","","","","","","","no","","","","","","","","","SRET","EW_formal","","key","f","16.667226890756254","768","428","朋友","废物","Negative","ability","","","","","","","","","","",""
"1069","","f","psychophysics","80","205825","0.0-7.0-3.0-0.66","7","7","7","7","7","5","5","5","5","5","5","2","2","2","2","2","2","2","2","5","5","5","5","5","5","5","5","5","5","8","7","8","8","7","6","8","8","8","7","7","7","7","7","6","7","1","7","7","1","7","7","7","7","7","6","7","7","7","7","7","7","7","7","7","7","7","7","7","7","7","7","7","7","7","7","7","7","6","7","634117356192268288","张","467","Male","[""坏我"",""坏他"",""好他"",""好我""]","[""弱我"",""弱他"",""强他"",""强我""]","","","","","","","","no","","","","","","","","","SRET","EW_formal","","key","f","16.66341463414639","768","428","自己","利己","Negative","morality","","","","","","","","","","",""
"662","","j","psychophysics","81","207489","0.0-7.0-3.0-0.67","7","7","7","7","7","5","5","5","5","5","5","2","2","2","2","2","2","2","2","5","5","5","5","5","5","5","5","5","5","8","7","8","8","7","6","8","8","8","7","7","7","7","7","6","7","1","7","7","1","7","7","7","7","7","6","7","7","7","7","7","7","7","7","7","7","7","7","7","7","7","7","7","7","7","7","7","7","6","7","634117356192268288","张","467","Male","[""坏我"",""坏他"",""好他"",""好我""]","[""弱我"",""弱他"",""强他"",""强我""]","","","","","","","","yes","","","","","","","","","SRET","EW_formal","","key","j","16.6656565656568","768","428","自己","沉着","Positive","ability","","","","","","","","","","",""
"767","","j","psychophysics","82","209257","0.0-7.0-3.0-0.68","7","7","7","7","7","5","5","5","5","5","5","2","2","2","2","2","2","2","2","5","5","5","5","5","5","5","5","5","5","8","7","8","8","7","6","8","8","8","7","7","7","7","7","6","7","1","7","7","1","7","7","7","7","7","6","7","7","7","7","7","7","7","7","7","7","7","7","7","7","7","7","7","7","7","7","7","7","6","7","634117356192268288","张","467","Male","[""坏我"",""坏他"",""好他"",""好我""]","[""弱我"",""弱他"",""强他"",""强我""]","","","","","","","","yes","","","","","","","","","SRET","EW_formal","","key","j","16.664761904761793","768","428","朋友","淡泊","Positive","morality","","","","","","","","","","",""
"744","","f","psychophysics","83","211002","0.0-7.0-3.0-0.69","7","7","7","7","7","5","5","5","5","5","5","2","2","2","2","2","2","2","2","5","5","5","5","5","5","5","5","5","5","8","7","8","8","7","6","8","8","8","7","7","7","7","7","6","7","1","7","7","1","7","7","7","7","7","6","7","7","7","7","7","7","7","7","7","7","7","7","7","7","7","7","7","7","7","7","7","7","6","7","634117356192268288","张","467","Male","[""坏我"",""坏他"",""好他"",""好我""]","[""弱我"",""弱他"",""强他"",""强我""]","","","","","","","","no","","","","","","","","","SRET","EW_formal","","key","f","16.667307692307638","768","428","自己","小人","Negative","morality","","","","","","","","","","",""
"887","","j","psychophysics","84","212890","0.0-7.0-3.0-0.70","7","7","7","7","7","5","5","5","5","5","5","2","2","2","2","2","2","2","2","5","5","5","5","5","5","5","5","5","5","8","7","8","8","7","6","8","8","8","7","7","7","7","7","6","7","1","7","7","1","7","7","7","7","7","6","7","7","7","7","7","7","7","7","7","7","7","7","7","7","7","7","7","7","7","7","7","7","6","7","634117356192268288","张","467","Male","[""坏我"",""坏他"",""好他"",""好我""]","[""弱我"",""弱他"",""强他"",""强我""]","","","","","","","","yes","","","","","","","","","SRET","EW_formal","","key","j","16.663392857142753","768","428","朋友","仁爱","Positive","morality","","","","","","","","","","",""
"575","","j","psychophysics","85","214466","0.0-7.0-3.0-0.71","7","7","7","7","7","5","5","5","5","5","5","2","2","2","2","2","2","2","2","5","5","5","5","5","5","5","5","5","5","8","7","8","8","7","6","8","8","8","7","7","7","7","7","6","7","1","7","7","1","7","7","7","7","7","6","7","7","7","7","7","7","7","7","7","7","7","7","7","7","7","7","7","7","7","7","7","7","6","7","634117356192268288","张","467","Male","[""坏我"",""坏他"",""好他"",""好我""]","[""弱我"",""弱他"",""强他"",""强我""]","","","","","","","","yes","","","","","","","","","SRET","EW_formal","","key","j","16.664516129032133","768","428","自己","忠义","Positive","morality","","","","","","","","","","",""
"894","","f","psychophysics","86","216362","0.0-7.0-3.0-0.72","7","7","7","7","7","5","5","5","5","5","5","2","2","2","2","2","2","2","2","5","5","5","5","5","5","5","5","5","5","8","7","8","8","7","6","8","8","8","7","7","7","7","7","6","7","1","7","7","1","7","7","7","7","7","6","7","7","7","7","7","7","7","7","7","7","7","7","7","7","7","7","7","7","7","7","7","7","6","7","634117356192268288","张","467","Male","[""坏我"",""坏他"",""好他"",""好我""]","[""弱我"",""弱他"",""强他"",""强我""]","","","","","","","","no","","","","","","","","","SRET","EW_formal","","key","f","16.664601769911297","768","428","自己","草率","Negative","ability","","","","","","","","","","",""
"629","","j","psychophysics","87","217993","0.0-7.0-3.0-0.73","7","7","7","7","7","5","5","5","5","5","5","2","2","2","2","2","2","2","2","5","5","5","5","5","5","5","5","5","5","8","7","8","8","7","6","8","8","8","7","7","7","7","7","6","7","1","7","7","1","7","7","7","7","7","6","7","7","7","7","7","7","7","7","7","7","7","7","7","7","7","7","7","7","7","7","7","7","6","7","634117356192268288","张","467","Male","[""坏我"",""坏他"",""好他"",""好我""]","[""弱我"",""弱他"",""强他"",""强我""]","","","","","","","","yes","","","","","","","","","SRET","EW_formal","","key","j","16.66597938144336","768","428","朋友","周到","Positive","ability","","","","","","","","","","",""
"808","","j","psychophysics","88","219802","0.0-7.0-3.0-0.74","7","7","7","7","7","5","5","5","5","5","5","2","2","2","2","2","2","2","2","5","5","5","5","5","5","5","5","5","5","8","7","8","8","7","6","8","8","8","7","7","7","7","7","6","7","1","7","7","1","7","7","7","7","7","6","7","7","7","7","7","7","7","7","7","7","7","7","7","7","7","7","7","7","7","7","7","7","6","7","634117356192268288","张","467","Male","[""坏我"",""坏他"",""好他"",""好我""]","[""弱我"",""弱他"",""强他"",""强我""]","","","","","","","","yes","","","","","","","","","SRET","EW_formal","","key","j","16.668518518518628","768","428","自己","守法","Positive","morality","","","","","","","","","","",""
"956","","f","psychophysics","89","221760","0.0-7.0-3.0-0.75","7","7","7","7","7","5","5","5","5","5","5","2","2","2","2","2","2","2","2","5","5","5","5","5","5","5","5","5","5","8","7","8","8","7","6","8","8","8","7","7","7","7","7","6","7","1","7","7","1","7","7","7","7","7","6","7","7","7","7","7","7","7","7","7","7","7","7","7","7","7","7","7","7","7","7","7","7","6","7","634117356192268288","张","467","Male","[""坏我"",""坏他"",""好他"",""好我""]","[""弱我"",""弱他"",""强他"",""强我""]","","","","","","","","no","","","","","","","","","SRET","EW_formal","","key","f","16.663793103448278","768","428","自己","愚蠢","Negative","ability","","","","","","","","","","",""
"602","","j","psychophysics","90","223363","0.0-7.0-3.0-0.76","7","7","7","7","7","5","5","5","5","5","5","2","2","2","2","2","2","2","2","5","5","5","5","5","5","5","5","5","5","8","7","8","8","7","6","8","8","8","7","7","7","7","7","6","7","1","7","7","1","7","7","7","7","7","6","7","7","7","7","7","7","7","7","7","7","7","7","7","7","7","7","7","7","7","7","7","7","6","7","634117356192268288","张","467","Male","[""坏我"",""坏他"",""好他"",""好我""]","[""弱我"",""弱他"",""强他"",""强我""]","","","","","","","","yes","","","","","","","","","SRET","EW_formal","","key","j","16.66631578947356","768","428","朋友","稳健","Positive","ability","","","","","","","","","","",""
"735","","j","psychophysics","91","225101","0.0-7.0-3.0-0.77","7","7","7","7","7","5","5","5","5","5","5","2","2","2","2","2","2","2","2","5","5","5","5","5","5","5","5","5","5","8","7","8","8","7","6","8","8","8","7","7","7","7","7","6","7","1","7","7","1","7","7","7","7","7","6","7","7","7","7","7","7","7","7","7","7","7","7","7","7","7","7","7","7","7","7","7","7","6","7","634117356192268288","张","467","Male","[""坏我"",""坏他"",""好他"",""好我""]","[""弱我"",""弱他"",""强他"",""强我""]","","","","","","","","yes","","","","","","","","","SRET","EW_formal","","key","j","16.667307692307638","768","428","自己","变通","Positive","ability","","","","","","","","","","",""
"802","","j","psychophysics","92","226905","0.0-7.0-3.0-0.78","7","7","7","7","7","5","5","5","5","5","5","2","2","2","2","2","2","2","2","5","5","5","5","5","5","5","5","5","5","8","7","8","8","7","6","8","8","8","7","7","7","7","7","6","7","1","7","7","1","7","7","7","7","7","6","7","7","7","7","7","7","7","7","7","7","7","7","7","7","7","7","7","7","7","7","7","7","6","7","634117356192268288","张","467","Male","[""坏我"",""坏他"",""好他"",""好我""]","[""弱我"",""弱他"",""强他"",""强我""]","","","","","","","","yes","","","","","","","","","SRET","EW_formal","","key","j","16.66355140186916","768","428","自己","慈悲","Positive","morality","","","","","","","","","","",""
"920","","f","psychophysics","93","228827","0.0-7.0-3.0-0.79","7","7","7","7","7","5","5","5","5","5","5","2","2","2","2","2","2","2","2","5","5","5","5","5","5","5","5","5","5","8","7","8","8","7","6","8","8","8","7","7","7","7","7","6","7","1","7","7","1","7","7","7","7","7","6","7","7","7","7","7","7","7","7","7","7","7","7","7","7","7","7","7","7","7","7","7","7","6","7","634117356192268288","张","467","Male","[""坏我"",""坏他"",""好他"",""好我""]","[""弱我"",""弱他"",""强他"",""强我""]","","","","","","","","no","","","","","","","","","SRET","EW_formal","","key","f","16.664035087719146","768","428","朋友","混账","Negative","morality","","","","","","","","","","",""
"812","","j","psychophysics","94","230640","0.0-7.0-3.0-0.80","7","7","7","7","7","5","5","5","5","5","5","2","2","2","2","2","2","2","2","5","5","5","5","5","5","5","5","5","5","8","7","8","8","7","6","8","8","8","7","7","7","7","7","6","7","1","7","7","1","7","7","7","7","7","6","7","7","7","7","7","7","7","7","7","7","7","7","7","7","7","7","7","7","7","7","7","7","6","7","634117356192268288","张","467","Male","[""坏我"",""坏他"",""好他"",""好我""]","[""弱我"",""弱他"",""强他"",""强我""]","","","","","","","","yes","","","","","","","","","SRET","EW_formal","","key","j","16.667592592592648","768","428","朋友","义气","Positive","morality","","","","","","","","","","",""
"775","","j","psychophysics","95","232416","0.0-7.0-3.0-0.81","7","7","7","7","7","5","5","5","5","5","5","2","2","2","2","2","2","2","2","5","5","5","5","5","5","5","5","5","5","8","7","8","8","7","6","8","8","8","7","7","7","7","7","6","7","1","7","7","1","7","7","7","7","7","6","7","7","7","7","7","7","7","7","7","7","7","7","7","7","7","7","7","7","7","7","7","7","6","7","634117356192268288","张","467","Male","[""坏我"",""坏他"",""好他"",""好我""]","[""弱我"",""弱他"",""强他"",""强我""]","","","","","","","","yes","","","","","","","","","SRET","EW_formal","","key","j","16.6632075471697","768","428","自己","勤恳","Positive","morality","","","","","","","","","","",""
"823","","j","psychophysics","96","234241","0.0-7.0-3.0-0.82","7","7","7","7","7","5","5","5","5","5","5","2","2","2","2","2","2","2","2","5","5","5","5","5","5","5","5","5","5","8","7","8","8","7","6","8","8","8","7","7","7","7","7","6","7","1","7","7","1","7","7","7","7","7","6","7","7","7","7","7","7","7","7","7","7","7","7","7","7","7","7","7","7","7","7","7","7","6","7","634117356192268288","张","467","Male","[""坏我"",""坏他"",""好他"",""好我""]","[""弱我"",""弱他"",""强他"",""强我""]","","","","","","","","yes","","","","","","","","","SRET","EW_formal","","key","j","16.666666666666668","768","428","朋友","坦荡","Positive","morality","","","","","","","","","","",""
"600","","j","psychophysics","97","235842","0.0-7.0-3.0-0.83","7","7","7","7","7","5","5","5","5","5","5","2","2","2","2","2","2","2","2","5","5","5","5","5","5","5","5","5","5","8","7","8","8","7","6","8","8","8","7","7","7","7","7","6","7","1","7","7","1","7","7","7","7","7","6","7","7","7","7","7","7","7","7","7","7","7","7","7","7","7","7","7","7","7","7","7","7","6","7","634117356192268288","张","467","Male","[""坏我"",""坏他"",""好他"",""好我""]","[""弱我"",""弱他"",""强他"",""强我""]","","","","","","","","yes","","","","","","","","","SRET","EW_formal","","key","j","16.66631578947356","768","428","朋友","坚持","Positive","ability","","","","","","","","","","",""
"953","","j","psychophysics","98","237795","0.0-7.0-3.0-0.84","7","7","7","7","7","5","5","5","5","5","5","2","2","2","2","2","2","2","2","5","5","5","5","5","5","5","5","5","5","8","7","8","8","7","6","8","8","8","7","7","7","7","7","6","7","1","7","7","1","7","7","7","7","7","6","7","7","7","7","7","7","7","7","7","7","7","7","7","7","7","7","7","7","7","7","7","7","6","7","634117356192268288","张","467","Male","[""坏我"",""坏他"",""好他"",""好我""]","[""弱我"",""弱他"",""强他"",""强我""]","","","","","","","","yes","","","","","","","","","SRET","EW_formal","","key","j","16.665517241379412","768","428","朋友","素养","Positive","morality","","","","","","","","","","",""
"701","","j","psychophysics","99","239498","0.0-7.0-3.0-0.85","7","7","7","7","7","5","5","5","5","5","5","2","2","2","2","2","2","2","2","5","5","5","5","5","5","5","5","5","5","8","7","8","8","7","6","8","8","8","7","7","7","7","7","6","7","1","7","7","1","7","7","7","7","7","6","7","7","7","7","7","7","7","7","7","7","7","7","7","7","7","7","7","7","7","7","7","7","6","7","634117356192268288","张","467","Male","[""坏我"",""坏他"",""好他"",""好我""]","[""弱我"",""弱他"",""强他"",""强我""]","","","","","","","","yes","","","","","","","","","SRET","EW_formal","","key","j","16.66470588235311","768","428","自己","主见","Positive","ability","","","","","","","","","","",""
"765","","f","psychophysics","100","241264","0.0-7.0-3.0-0.86","7","7","7","7","7","5","5","5","5","5","5","2","2","2","2","2","2","2","2","5","5","5","5","5","5","5","5","5","5","8","7","8","8","7","6","8","8","8","7","7","7","7","7","6","7","1","7","7","1","7","7","7","7","7","6","7","7","7","7","7","7","7","7","7","7","7","7","7","7","7","7","7","7","7","7","7","7","6","7","634117356192268288","张","467","Male","[""坏我"",""坏他"",""好他"",""好我""]","[""弱我"",""弱他"",""强他"",""强我""]","","","","","","","","no","","","","","","","","","SRET","EW_formal","","key","f","16.66380952380936","768","428","自己","缓慢","Negative","ability","","","","","","","","","","",""
"697","","f","psychophysics","101","242962","0.0-7.0-3.0-0.87","7","7","7","7","7","5","5","5","5","5","5","2","2","2","2","2","2","2","2","5","5","5","5","5","5","5","5","5","5","8","7","8","8","7","6","8","8","8","7","7","7","7","7","6","7","1","7","7","1","7","7","7","7","7","6","7","7","7","7","7","7","7","7","7","7","7","7","7","7","7","7","7","7","7","7","7","7","6","7","634117356192268288","张","467","Male","[""坏我"",""坏他"",""好他"",""好我""]","[""弱我"",""弱他"",""强他"",""强我""]","","","","","","","","no","","","","","","","","","SRET","EW_formal","","key","f","16.663000000000174","768","428","朋友","低俗","Negative","morality","","","","","","","","","","",""
"4624","
    <p><div style='color:white;font-size:35px; line-height:20px;'>计算任务</div></p><br>
    <p><div style='color:red;font-size:25px; line-height:20px;'>接下来，您将看到一些四则运算题，<b>请从键盘选择 0-9 进行反应。</b></div></p>
    <p><div style='color:red;font-size:25px; line-height:20px;'>请尽可能快地进行计算，计算的速度和正确率将影响报酬的发放。</div></p>
    <p><div class='footer' style='color:white;font-size:25px; line-height:20px;'>如果对本实验还有不清楚之处，请立即向实验员咨询。</p><p style='color:white;font-size:25px; line-height:20px;'>如果您明白了规则：</p><p style='color:white;font-size:22px; line-height:20px;'>请按 继续 进入练习</p>
    </div>
    ","0","html-button-response","102","247587","0.0-7.0-4.0","7","7","7","7","7","5","5","5","5","5","5","2","2","2","2","2","2","2","2","5","5","5","5","5","5","5","5","5","5","8","7","8","8","7","6","8","8","8","7","7","7","7","7","6","7","1","7","7","1","7","7","7","7","7","6","7","7","7","7","7","7","7","7","7","7","7","7","7","7","7","7","7","7","7","7","7","7","6","7","634117356192268288","张","467","Male","[""坏我"",""坏他"",""好他"",""好我""]","[""弱我"",""弱他"",""强他"",""强我""]","","","","","","","","","","","","","","","","","SRET_math","math_instructions","Sat Jan 20 2024 21:31:08 GMT+0800 (中国标准时间)","","","","","","","","","","","","","","","","","","","",""
"1700","","7","psychophysics","103","249288","0.0-7.0-5.0-0.0","7","7","7","7","7","5","5","5","5","5","5","2","2","2","2","2","2","2","2","5","5","5","5","5","5","5","5","5","5","8","7","8","8","7","6","8","8","8","7","7","7","7","7","6","7","1","7","7","1","7","7","7","7","7","6","7","7","7","7","7","7","7","7","7","7","7","7","7","7","7","7","7","7","7","7","7","7","6","7","634117356192268288","张","467","Male","[""坏我"",""坏他"",""好他"",""好我""]","[""弱我"",""弱他"",""强他"",""强我""]","","","","","","","","7","","","","","","","","","SRET","SRET_math_calculate","","key","7","16.66176470588235","768","428","","","","","6+1= ?","7","1","","","","","","","",""
"1687","","8","psychophysics","104","250977","0.0-7.0-5.0-0.1","7","7","7","7","7","5","5","5","5","5","5","2","2","2","2","2","2","2","2","5","5","5","5","5","5","5","5","5","5","8","7","8","8","7","6","8","8","8","7","7","7","7","7","6","7","1","7","7","1","7","7","7","7","7","6","7","7","7","7","7","7","7","7","7","7","7","7","7","7","7","7","7","7","7","7","7","7","6","7","634117356192268288","张","467","Male","[""坏我"",""坏他"",""好他"",""好我""]","[""弱我"",""弱他"",""强他"",""强我""]","","","","","","","","8","","","","","","","","","SRET","SRET_math_calculate","","key","8","16.665","768","428","","","","","50-42= ?","8","1","","","","","","","",""
"1591","","9","psychophysics","105","252569","0.0-7.0-5.0-0.2","7","7","7","7","7","5","5","5","5","5","5","2","2","2","2","2","2","2","2","5","5","5","5","5","5","5","5","5","5","8","7","8","8","7","6","8","8","8","7","7","7","7","7","6","7","1","7","7","1","7","7","7","7","7","6","7","7","7","7","7","7","7","7","7","7","7","7","7","7","7","7","7","7","7","7","7","7","6","7","634117356192268288","张","467","Male","[""坏我"",""坏他"",""好他"",""好我""]","[""弱我"",""弱他"",""强他"",""强我""]","","","","","","","","9","","","","","","","","","SRET","SRET_math_calculate","","key","9","16.66631578947356","768","428","","","","","8+1= ?","9","1","","","","","","","",""
"1724","","9","psychophysics","106","254297","0.0-7.0-5.0-0.3","7","7","7","7","7","5","5","5","5","5","5","2","2","2","2","2","2","2","2","5","5","5","5","5","5","5","5","5","5","8","7","8","8","7","6","8","8","8","7","7","7","7","7","6","7","1","7","7","1","7","7","7","7","7","6","7","7","7","7","7","7","7","7","7","7","7","7","7","7","7","7","7","7","7","7","7","7","6","7","634117356192268288","张","467","Male","[""坏我"",""坏他"",""好他"",""好我""]","[""弱我"",""弱他"",""强他"",""强我""]","","","","","","","","9","","","","","","","","","SRET","SRET_math_calculate","","key","9","16.664077669902856","768","428","","","","","81/9= ?","9","1","","","","","","","",""
"1656","","5","psychophysics","107","255954","0.0-7.0-5.0-0.4","7","7","7","7","7","5","5","5","5","5","5","2","2","2","2","2","2","2","2","5","5","5","5","5","5","5","5","5","5","8","7","8","8","7","6","8","8","8","7","7","7","7","7","6","7","1","7","7","1","7","7","7","7","7","6","7","7","7","7","7","7","7","7","7","7","7","7","7","7","7","7","7","7","7","7","7","7","6","7","634117356192268288","张","467","Male","[""坏我"",""坏他"",""好他"",""好我""]","[""弱我"",""弱他"",""强他"",""强我""]","","","","","","","","5","","","","","","","","","SRET","SRET_math_calculate","","key","5","16.6653061224488","768","428","","","","","16-11= ?","5","1","","","","","","","",""
"1598","","2","psychophysics","108","257552","0.0-7.0-5.0-0.5","7","7","7","7","7","5","5","5","5","5","5","2","2","2","2","2","2","2","2","5","5","5","5","5","5","5","5","5","5","8","7","8","8","7","6","8","8","8","7","7","7","7","7","6","7","1","7","7","1","7","7","7","7","7","6","7","7","7","7","7","7","7","7","7","7","7","7","7","7","7","7","7","7","7","7","7","7","6","7","634117356192268288","张","467","Male","[""坏我"",""坏他"",""好他"",""好我""]","[""弱我"",""弱他"",""强他"",""强我""]","","","","","","","","2","","","","","","","","","SRET","SRET_math_calculate","","key","2","16.664210526315852","768","428","","","","","1+1= ?","2","1","","","","","","","",""
"1795","","0","psychophysics","109","259349","0.0-7.0-5.0-0.6","7","7","7","7","7","5","5","5","5","5","5","2","2","2","2","2","2","2","2","5","5","5","5","5","5","5","5","5","5","8","7","8","8","7","6","8","8","8","7","7","7","7","7","6","7","1","7","7","1","7","7","7","7","7","6","7","7","7","7","7","7","7","7","7","7","7","7","7","7","7","7","7","7","7","7","7","7","6","7","634117356192268288","张","467","Male","[""坏我"",""坏他"",""好他"",""好我""]","[""弱我"",""弱他"",""强他"",""强我""]","","","","","","","","0","","","","","","","","","SRET","SRET_math_calculate","","key","0","16.66355140186916","768","428","","","","","1-1= ?","0","1","","","","","","","",""
"1570","","4","psychophysics","110","260921","0.0-7.0-5.0-0.7","7","7","7","7","7","5","5","5","5","5","5","2","2","2","2","2","2","2","2","5","5","5","5","5","5","5","5","5","5","8","7","8","8","7","6","8","8","8","7","7","7","7","7","6","7","1","7","7","1","7","7","7","7","7","6","7","7","7","7","7","7","7","7","7","7","7","7","7","7","7","7","7","7","7","7","7","7","6","7","634117356192268288","张","467","Male","[""坏我"",""坏他"",""好他"",""好我""]","[""弱我"",""弱他"",""强他"",""强我""]","","","","","","","","4","","","","","","","","","SRET","SRET_math_calculate","","key","4","16.6655913978494","768","428","","","","","2+2= ?","4","1","","","","","","","",""
"1841","","5","psychophysics","111","262768","0.0-7.0-5.0-0.8","7","7","7","7","7","5","5","5","5","5","5","2","2","2","2","2","2","2","2","5","5","5","5","5","5","5","5","5","5","8","7","8","8","7","6","8","8","8","7","7","7","7","7","6","7","1","7","7","1","7","7","7","7","7","6","7","7","7","7","7","7","7","7","7","7","7","7","7","7","7","7","7","7","7","7","7","7","6","7","634117356192268288","张","467","Male","[""坏我"",""坏他"",""好他"",""好我""]","[""弱我"",""弱他"",""强他"",""强我""]","","","","","","","","5","","","","","","","","","SRET","SRET_math_calculate","","key","5","16.667272727272408","768","428","","","","","5/1= ?","5","1","","","","","","","",""
"1745","","9","psychophysics","112","264514","0.0-7.0-5.0-0.9","7","7","7","7","7","5","5","5","5","5","5","2","2","2","2","2","2","2","2","5","5","5","5","5","5","5","5","5","5","8","7","8","8","7","6","8","8","8","7","7","7","7","7","6","7","1","7","7","1","7","7","7","7","7","6","7","7","7","7","7","7","7","7","7","7","7","7","7","7","7","7","7","7","7","7","7","7","6","7","634117356192268288","张","467","Male","[""坏我"",""坏他"",""好他"",""好我""]","[""弱我"",""弱他"",""强他"",""强我""]","","","","","","","","9","","","","","","","","","SRET","SRET_math_calculate","","key","9","16.665384615384728","768","428","","","","","6+3= ?","9","1","","","","","","","",""
"1685","","3","psychophysics","113","266202","0.0-7.0-5.0-0.10","7","7","7","7","7","5","5","5","5","5","5","2","2","2","2","2","2","2","2","5","5","5","5","5","5","5","5","5","5","8","7","8","8","7","6","8","8","8","7","7","7","7","7","6","7","1","7","7","1","7","7","7","7","7","6","7","7","7","7","7","7","7","7","7","7","7","7","7","7","7","7","7","7","7","7","7","7","6","7","634117356192268288","张","467","Male","[""坏我"",""坏他"",""好他"",""好我""]","[""弱我"",""弱他"",""强他"",""强我""]","","","","","","","","3","","","","","","","","","SRET","SRET_math_calculate","","key","3","16.667000000000115","768","428","","","","","9-6= ?","3","1","","","","","","","",""
"1775","","8","psychophysics","114","267978","0.0-7.0-5.0-0.11","7","7","7","7","7","5","5","5","5","5","5","2","2","2","2","2","2","2","2","5","5","5","5","5","5","5","5","5","5","8","7","8","8","7","6","8","8","8","7","7","7","7","7","6","7","1","7","7","1","7","7","7","7","7","6","7","7","7","7","7","7","7","7","7","7","7","7","7","7","7","7","7","7","7","7","7","7","6","7","634117356192268288","张","467","Male","[""坏我"",""坏他"",""好他"",""好我""]","[""弱我"",""弱他"",""强他"",""强我""]","","","","","","","","8","","","","","","","","","SRET","SRET_math_calculate","","key","8","16.66698113207558","768","428","","","","","4*2= ?","8","1","","","","","","","",""
"1686","","0","psychophysics","115","269666","0.0-7.0-5.0-0.12","7","7","7","7","7","5","5","5","5","5","5","2","2","2","2","2","2","2","2","5","5","5","5","5","5","5","5","5","5","8","7","8","8","7","6","8","8","8","7","7","7","7","7","6","7","1","7","7","1","7","7","7","7","7","6","7","7","7","7","7","7","7","7","7","7","7","7","7","7","7","7","7","7","7","7","7","7","6","7","634117356192268288","张","467","Male","[""坏我"",""坏他"",""好他"",""好我""]","[""弱我"",""弱他"",""强他"",""强我""]","","","","","","","","0","","","","","","","","","SRET","SRET_math_calculate","","key","0","16.664000000000232","768","428","","","","","6*0= ?","0","1","","","","","","","",""
"2037","","2","psychophysics","116","271706","0.0-7.0-5.0-0.13","7","7","7","7","7","5","5","5","5","5","5","2","2","2","2","2","2","2","2","5","5","5","5","5","5","5","5","5","5","8","7","8","8","7","6","8","8","8","7","7","7","7","7","6","7","1","7","7","1","7","7","7","7","7","6","7","7","7","7","7","7","7","7","7","7","7","7","7","7","7","7","7","7","7","7","7","7","6","7","634117356192268288","张","467","Male","[""坏我"",""坏他"",""好他"",""好我""]","[""弱我"",""弱他"",""强他"",""强我""]","","","","","","","","2","","","","","","","","","SRET","SRET_math_calculate","","key","2","16.666115702479626","768","428","","","","","90/45= ?","2","1","","","","","","","",""
"1666","","3","psychophysics","117","273377","0.0-7.0-5.0-0.14","7","7","7","7","7","5","5","5","5","5","5","2","2","2","2","2","2","2","2","5","5","5","5","5","5","5","5","5","5","8","7","8","8","7","6","8","8","8","7","7","7","7","7","6","7","1","7","7","1","7","7","7","7","7","6","7","7","7","7","7","7","7","7","7","7","7","7","7","7","7","7","7","7","7","7","7","7","6","7","634117356192268288","张","467","Male","[""坏我"",""坏他"",""好他"",""好我""]","[""弱我"",""弱他"",""强他"",""强我""]","","","","","","","","3","","","","","","","","","SRET","SRET_math_calculate","","key","3","16.665","768","428","","","","","6/2= ?","3","1","","","","","","","",""
"2001","","9","psychophysics","118","275378","0.0-7.0-5.0-0.15","7","7","7","7","7","5","5","5","5","5","5","2","2","2","2","2","2","2","2","5","5","5","5","5","5","5","5","5","5","8","7","8","8","7","6","8","8","8","7","7","7","7","7","6","7","1","7","7","1","7","7","7","7","7","6","7","7","7","7","7","7","7","7","7","7","7","7","7","7","7","7","7","7","7","7","7","7","6","7","634117356192268288","张","467","Male","[""坏我"",""坏他"",""好他"",""好我""]","[""弱我"",""弱他"",""强他"",""强我""]","","","","","","","","9","","","","","","","","","SRET","SRET_math_calculate","","key","9","16.665546218487492","768","428","","","","","3+3= ?","6","0","","","","","","","",""
"1773","","7","psychophysics","119","277153","0.0-7.0-5.0-0.16","7","7","7","7","7","5","5","5","5","5","5","2","2","2","2","2","2","2","2","5","5","5","5","5","5","5","5","5","5","8","7","8","8","7","6","8","8","8","7","7","7","7","7","6","7","1","7","7","1","7","7","7","7","7","6","7","7","7","7","7","7","7","7","7","7","7","7","7","7","7","7","7","7","7","7","7","7","6","7","634117356192268288","张","467","Male","[""坏我"",""坏他"",""好他"",""好我""]","[""弱我"",""弱他"",""强他"",""强我""]","","","","","","","","7","","","","","","","","","SRET","SRET_math_calculate","","key","7","16.663809523809082","768","428","","","","","7*1=  ?","7","1","","","","","","","",""
"1767","","8","psychophysics","120","278921","0.0-7.0-5.0-0.17","7","7","7","7","7","5","5","5","5","5","5","2","2","2","2","2","2","2","2","5","5","5","5","5","5","5","5","5","5","8","7","8","8","7","6","8","8","8","7","7","7","7","7","6","7","1","7","7","1","7","7","7","7","7","6","7","7","7","7","7","7","7","7","7","7","7","7","7","7","7","7","7","7","7","7","7","7","6","7","634117356192268288","张","467","Male","[""坏我"",""坏他"",""好他"",""好我""]","[""弱我"",""弱他"",""强他"",""强我""]","","","","","","","","8","","","","","","","","","SRET","SRET_math_calculate","","key","8","16.664761904761793","768","428","","","","","13-5= ?","8","1","","","","","","","",""
"1761","","2","psychophysics","121","280682","0.0-7.0-5.0-0.18","7","7","7","7","7","5","5","5","5","5","5","2","2","2","2","2","2","2","2","5","5","5","5","5","5","5","5","5","5","8","7","8","8","7","6","8","8","8","7","7","7","7","7","6","7","1","7","7","1","7","7","7","7","7","6","7","7","7","7","7","7","7","7","7","7","7","7","7","7","7","7","7","7","7","7","7","7","6","7","634117356192268288","张","467","Male","[""坏我"",""坏他"",""好他"",""好我""]","[""弱我"",""弱他"",""强他"",""强我""]","","","","","","","","2","","","","","","","","","SRET","SRET_math_calculate","","key","2","16.665714285713953","768","428","","","","","29-27= ?","2","1","","","","","","","",""
"1860","","3","psychophysics","122","282546","0.0-7.0-5.0-0.19","7","7","7","7","7","5","5","5","5","5","5","2","2","2","2","2","2","2","2","5","5","5","5","5","5","5","5","5","5","8","7","8","8","7","6","8","8","8","7","7","7","7","7","6","7","1","7","7","1","7","7","7","7","7","6","7","7","7","7","7","7","7","7","7","7","7","7","7","7","7","7","7","7","7","7","7","7","6","7","634117356192268288","张","467","Male","[""坏我"",""坏他"",""好他"",""好我""]","[""弱我"",""弱他"",""强他"",""强我""]","","","","","","","","3","","","","","","","","","SRET","SRET_math_calculate","","key","3","16.668468468468575","768","428","","","","","21/7=  ?","3","1","","","","","","","",""
"1877","","6","psychophysics","123","284425","0.0-7.0-5.0-0.20","7","7","7","7","7","5","5","5","5","5","5","2","2","2","2","2","2","2","2","5","5","5","5","5","5","5","5","5","5","8","7","8","8","7","6","8","8","8","7","7","7","7","7","6","7","1","7","7","1","7","7","7","7","7","6","7","7","7","7","7","7","7","7","7","7","7","7","7","7","7","7","7","7","7","7","7","7","6","7","634117356192268288","张","467","Male","[""坏我"",""坏他"",""好他"",""好我""]","[""弱我"",""弱他"",""强他"",""强我""]","","","","","","","","6","","","","","","","","","SRET","SRET_math_calculate","","key","6","16.66696428571439","768","428","","","","","8-2= ?","6","1","","","","","","","",""
"1648","","9","psychophysics","124","286074","0.0-7.0-5.0-0.21","7","7","7","7","7","5","5","5","5","5","5","2","2","2","2","2","2","2","2","5","5","5","5","5","5","5","5","5","5","8","7","8","8","7","6","8","8","8","7","7","7","7","7","6","7","1","7","7","1","7","7","7","7","7","6","7","7","7","7","7","7","7","7","7","7","7","7","7","7","7","7","7","7","7","7","7","7","6","7","634117356192268288","张","467","Male","[""坏我"",""坏他"",""好他"",""好我""]","[""弱我"",""弱他"",""强他"",""强我""]","","","","","","","","9","","","","","","","","","SRET","SRET_math_calculate","","key","9","16.66597938144306","768","428","","","","","1+8= ?","9","1","","","","","","","",""
"1609","","8","psychophysics","125","287700","0.0-7.0-5.0-0.22","7","7","7","7","7","5","5","5","5","5","5","2","2","2","2","2","2","2","2","5","5","5","5","5","5","5","5","5","5","8","7","8","8","7","6","8","8","8","7","7","7","7","7","6","7","1","7","7","1","7","7","7","7","7","6","7","7","7","7","7","7","7","7","7","7","7","7","7","7","7","7","7","7","7","7","7","7","6","7","634117356192268288","张","467","Male","[""坏我"",""坏他"",""好他"",""好我""]","[""弱我"",""弱他"",""强他"",""强我""]","","","","","","","","8","","","","","","","","","SRET","SRET_math_calculate","","key","8","16.664948453608247","768","428","","","","","3+5= ?","8","1","","","","","","","",""
"2251","","7","psychophysics","126","289952","0.0-7.0-5.0-0.23","7","7","7","7","7","5","5","5","5","5","5","2","2","2","2","2","2","2","2","5","5","5","5","5","5","5","5","5","5","8","7","8","8","7","6","8","8","8","7","7","7","7","7","6","7","1","7","7","1","7","7","7","7","7","6","7","7","7","7","7","7","7","7","7","7","7","7","7","7","7","7","7","7","7","7","7","7","6","7","634117356192268288","张","467","Male","[""坏我"",""坏他"",""好他"",""好我""]","[""弱我"",""弱他"",""强他"",""强我""]","","","","","","","","7","","","","","","","","","SRET","SRET_math_calculate","","key","7","16.66492537313459","768","428","","","","","11-4= ?","7","1","","","","","","","",""
"1848","","1","psychophysics","127","291802","0.0-7.0-5.0-0.24","7","7","7","7","7","5","5","5","5","5","5","2","2","2","2","2","2","2","2","5","5","5","5","5","5","5","5","5","5","8","7","8","8","7","6","8","8","8","7","7","7","7","7","6","7","1","7","7","1","7","7","7","7","7","6","7","7","7","7","7","7","7","7","7","7","7","7","7","7","7","7","7","7","7","7","7","7","6","7","634117356192268288","张","467","Male","[""坏我"",""坏他"",""好他"",""好我""]","[""弱我"",""弱他"",""强他"",""强我""]","","","","","","","","1","","","","","","","","","SRET","SRET_math_calculate","","key","1","16.66545454545465","768","428","","","","","10-9= ?","1","1","","","","","","","",""
"1708","","4","psychophysics","128","293513","0.0-7.0-5.0-0.25","7","7","7","7","7","5","5","5","5","5","5","2","2","2","2","2","2","2","2","5","5","5","5","5","5","5","5","5","5","8","7","8","8","7","6","8","8","8","7","7","7","7","7","6","7","1","7","7","1","7","7","7","7","7","6","7","7","7","7","7","7","7","7","7","7","7","7","7","7","7","7","7","7","7","7","7","7","6","7","634117356192268288","张","467","Male","[""坏我"",""坏他"",""好他"",""好我""]","[""弱我"",""弱他"",""强他"",""强我""]","","","","","","","","4","","","","","","","","","SRET","SRET_math_calculate","","key","4","16.66372549019562","768","428","","","","","4*1= ?","4","1","","","","","","","",""
"1772","","7","psychophysics","129","295285","0.0-7.0-5.0-0.26","7","7","7","7","7","5","5","5","5","5","5","2","2","2","2","2","2","2","2","5","5","5","5","5","5","5","5","5","5","8","7","8","8","7","6","8","8","8","7","7","7","7","7","6","7","1","7","7","1","7","7","7","7","7","6","7","7","7","7","7","7","7","7","7","7","7","7","7","7","7","7","7","7","7","7","7","7","6","7","634117356192268288","张","467","Male","[""坏我"",""坏他"",""好他"",""好我""]","[""弱我"",""弱他"",""强他"",""强我""]","","","","","","","","7","","","","","","","","","SRET","SRET_math_calculate","","key","7","16.665714285713953","768","428","","","","","5+2= ?","7","1","","","","","","","",""
"1771","","8","psychophysics","130","297058","0.0-7.0-5.0-0.27","7","7","7","7","7","5","5","5","5","5","5","2","2","2","2","2","2","2","2","5","5","5","5","5","5","5","5","5","5","8","7","8","8","7","6","8","8","8","7","7","7","7","7","6","7","1","7","7","1","7","7","7","7","7","6","7","7","7","7","7","7","7","7","7","7","7","7","7","7","7","7","7","7","7","7","7","7","6","7","634117356192268288","张","467","Male","[""坏我"",""坏他"",""好他"",""好我""]","[""弱我"",""弱他"",""强他"",""强我""]","","","","","","","","8","","","","","","","","","SRET","SRET_math_calculate","","key","8","16.66698113207558","768","428","","","","","9-1= ?","8","1","","","","","","","",""
"1704","","9","psychophysics","131","298766","0.0-7.0-5.0-0.28","7","7","7","7","7","5","5","5","5","5","5","2","2","2","2","2","2","2","2","5","5","5","5","5","5","5","5","5","5","8","7","8","8","7","6","8","8","8","7","7","7","7","7","6","7","1","7","7","1","7","7","7","7","7","6","7","7","7","7","7","7","7","7","7","7","7","7","7","7","7","7","7","7","7","7","7","7","6","7","634117356192268288","张","467","Male","[""坏我"",""坏他"",""好他"",""好我""]","[""弱我"",""弱他"",""强他"",""强我""]","","","","","","","","9","","","","","","","","","SRET","SRET_math_calculate","","key","9","16.667326732672922","768","428","","","","","18/2= ?","9","1","","","","","","","",""
"1658","","8","psychophysics","132","300426","0.0-7.0-5.0-0.29","7","7","7","7","7","5","5","5","5","5","5","2","2","2","2","2","2","2","2","5","5","5","5","5","5","5","5","5","5","8","7","8","8","7","6","8","8","8","7","7","7","7","7","6","7","1","7","7","1","7","7","7","7","7","6","7","7","7","7","7","7","7","7","7","7","7","7","7","7","7","7","7","7","7","7","7","7","6","7","634117356192268288","张","467","Male","[""坏我"",""坏他"",""好他"",""好我""]","[""弱我"",""弱他"",""强他"",""强我""]","","","","","","","","8","","","","","","","","","SRET","SRET_math_calculate","","key","8","16.665656565656214","768","428","","","","","8*1= ?","8","1","","","","","","","",""
"1805","","0","psychophysics","133","302234","0.0-7.0-5.0-0.30","7","7","7","7","7","5","5","5","5","5","5","2","2","2","2","2","2","2","2","5","5","5","5","5","5","5","5","5","5","8","7","8","8","7","6","8","8","8","7","7","7","7","7","6","7","1","7","7","1","7","7","7","7","7","6","7","7","7","7","7","7","7","7","7","7","7","7","7","7","7","7","7","7","7","7","7","7","6","7","634117356192268288","张","467","Male","[""坏我"",""坏他"",""好他"",""好我""]","[""弱我"",""弱他"",""强他"",""强我""]","","","","","","","","0","","","","","","","","","SRET","SRET_math_calculate","","key","0","16.666355140186806","768","428","","","","","5*0= ?","0","1","","","","","","","",""
"1565","","4","psychophysics","134","303801","0.0-7.0-5.0-0.31","7","7","7","7","7","5","5","5","5","5","5","2","2","2","2","2","2","2","2","5","5","5","5","5","5","5","5","5","5","8","7","8","8","7","6","8","8","8","7","7","7","7","7","6","7","1","7","7","1","7","7","7","7","7","6","7","7","7","7","7","7","7","7","7","7","7","7","7","7","7","7","7","7","7","7","7","7","6","7","634117356192268288","张","467","Male","[""坏我"",""坏他"",""好他"",""好我""]","[""弱我"",""弱他"",""强他"",""强我""]","","","","","","","","4","","","","","","","","","SRET","SRET_math_calculate","","key","4","16.664516129032133","768","428","","","","","8-4= ?","4","1","","","","","","","",""
"1721","","5","psychophysics","135","305523","0.0-7.0-5.0-0.32","7","7","7","7","7","5","5","5","5","5","5","2","2","2","2","2","2","2","2","5","5","5","5","5","5","5","5","5","5","8","7","8","8","7","6","8","8","8","7","7","7","7","7","6","7","1","7","7","1","7","7","7","7","7","6","7","7","7","7","7","7","7","7","7","7","7","7","7","7","7","7","7","7","7","7","7","7","6","7","634117356192268288","张","467","Male","[""坏我"",""坏他"",""好他"",""好我""]","[""弱我"",""弱他"",""强他"",""强我""]","","","","","","","","5","","","","","","","","","SRET","SRET_math_calculate","","key","5","16.66699029126225","768","428","","","","","9-4= ?","5","1","","","","","","","",""
"1958","","1","psychophysics","136","307484","0.0-7.0-5.0-0.33","7","7","7","7","7","5","5","5","5","5","5","2","2","2","2","2","2","2","2","5","5","5","5","5","5","5","5","5","5","8","7","8","8","7","6","8","8","8","7","7","7","7","7","6","7","1","7","7","1","7","7","7","7","7","6","7","7","7","7","7","7","7","7","7","7","7","7","7","7","7","7","7","7","7","7","7","7","6","7","634117356192268288","张","467","Male","[""坏我"",""坏他"",""好他"",""好我""]","[""弱我"",""弱他"",""强他"",""强我""]","","","","","","","","1","","","","","","","","","SRET","SRET_math_calculate","","key","1","16.665517241378907","768","428","","","","","30-29= ?","1","1","","","","","","","",""
"1596","","5","psychophysics","137","309081","0.0-7.0-5.0-0.34","7","7","7","7","7","5","5","5","5","5","5","2","2","2","2","2","2","2","2","5","5","5","5","5","5","5","5","5","5","8","7","8","8","7","6","8","8","8","7","7","7","7","7","6","7","1","7","7","1","7","7","7","7","7","6","7","7","7","7","7","7","7","7","7","7","7","7","7","7","7","7","7","7","7","7","7","7","6","7","634117356192268288","张","467","Male","[""坏我"",""坏他"",""好他"",""好我""]","[""弱我"",""弱他"",""强他"",""强我""]","","","","","","","","5","","","","","","","","","SRET","SRET_math_calculate","","key","5","16.667368421052878","768","428","","","","","15-10= ?","5","1","","","","","","","",""
"1680","","0","psychophysics","138","310762","0.0-7.0-5.0-0.35","7","7","7","7","7","5","5","5","5","5","5","2","2","2","2","2","2","2","2","5","5","5","5","5","5","5","5","5","5","8","7","8","8","7","6","8","8","8","7","7","7","7","7","6","7","1","7","7","1","7","7","7","7","7","6","7","7","7","7","7","7","7","7","7","7","7","7","7","7","7","7","7","7","7","7","7","7","6","7","634117356192268288","张","467","Male","[""坏我"",""坏他"",""好他"",""好我""]","[""弱我"",""弱他"",""强他"",""强我""]","","","","","","","","0","","","","","","","","","SRET","SRET_math_calculate","","key","0","16.665999999999766","768","428","","","","","7*0= ?","0","1","","","","","","","",""
"1757","","9","psychophysics","139","312522","0.0-7.0-5.0-0.36","7","7","7","7","7","5","5","5","5","5","5","2","2","2","2","2","2","2","2","5","5","5","5","5","5","5","5","5","5","8","7","8","8","7","6","8","8","8","7","7","7","7","7","6","7","1","7","7","1","7","7","7","7","7","6","7","7","7","7","7","7","7","7","7","7","7","7","7","7","7","7","7","7","7","7","7","7","6","7","634117356192268288","张","467","Male","[""坏我"",""坏他"",""好他"",""好我""]","[""弱我"",""弱他"",""强他"",""强我""]","","","","","","","","9","","","","","","","","","SRET","SRET_math_calculate","","key","9","16.66761904761938","768","428","","","","","2+7= ?","9","1","","","","","","","",""
"1733","","9","psychophysics","140","314258","0.0-7.0-5.0-0.37","7","7","7","7","7","5","5","5","5","5","5","2","2","2","2","2","2","2","2","5","5","5","5","5","5","5","5","5","5","8","7","8","8","7","6","8","8","8","7","7","7","7","7","6","7","1","7","7","1","7","7","7","7","7","6","7","7","7","7","7","7","7","7","7","7","7","7","7","7","7","7","7","7","7","7","7","7","6","7","634117356192268288","张","467","Male","[""坏我"",""坏他"",""好他"",""好我""]","[""弱我"",""弱他"",""强他"",""强我""]","","","","","","","","9","","","","","","","","","SRET","SRET_math_calculate","","key","9","16.666019417475503","768","428","","","","","5+4= ?","9","1","","","","","","","",""
"1669","","8","psychophysics","141","315930","0.0-7.0-5.0-0.38","7","7","7","7","7","5","5","5","5","5","5","2","2","2","2","2","2","2","2","5","5","5","5","5","5","5","5","5","5","8","7","8","8","7","6","8","8","8","7","7","7","7","7","6","7","1","7","7","1","7","7","7","7","7","6","7","7","7","7","7","7","7","7","7","7","7","7","7","7","7","7","7","7","7","7","7","7","6","7","634117356192268288","张","467","Male","[""坏我"",""坏他"",""好他"",""好我""]","[""弱我"",""弱他"",""强他"",""强我""]","","","","","","","","8","","","","","","","","","SRET","SRET_math_calculate","","key","8","16.66363636363648","768","428","","","","","4+4= ?","8","1","","","","","","","",""
"1644","","5","psychophysics","142","317577","0.0-7.0-5.0-0.39","7","7","7","7","7","5","5","5","5","5","5","2","2","2","2","2","2","2","2","5","5","5","5","5","5","5","5","5","5","8","7","8","8","7","6","8","8","8","7","7","7","7","7","6","7","1","7","7","1","7","7","7","7","7","6","7","7","7","7","7","7","7","7","7","7","7","7","7","7","7","7","7","7","7","7","7","7","6","7","634117356192268288","张","467","Male","[""坏我"",""坏他"",""好他"",""好我""]","[""弱我"",""弱他"",""强他"",""强我""]","","","","","","","","5","","","","","","","","","SRET","SRET_math_calculate","","key","5","16.670408163265424","768","428","","","","","14-9= ?","5","1","","","","","","","",""
"1767","","4","psychophysics","143","319345","0.0-7.0-5.0-0.40","7","7","7","7","7","5","5","5","5","5","5","2","2","2","2","2","2","2","2","5","5","5","5","5","5","5","5","5","5","8","7","8","8","7","6","8","8","8","7","7","7","7","7","6","7","1","7","7","1","7","7","7","7","7","6","7","7","7","7","7","7","7","7","7","7","7","7","7","7","7","7","7","7","7","7","7","7","6","7","634117356192268288","张","467","Male","[""坏我"",""坏他"",""好他"",""好我""]","[""弱我"",""弱他"",""强他"",""强我""]","","","","","","","","4","","","","","","","","","SRET","SRET_math_calculate","","key","4","16.664761904761793","768","428","","","","","3+1= ?","4","1","","","","","","","",""
