"rt","stimulus","response","trial_type","trial_index","time_elapsed","internal_node_id","swb_1","swb_2","swb_3","swb_4","swb_5","LOT_1","LOT_2","LOT_3","LOT_4","LOT_5","LOT_6","IPC_1","IPC_2","IPC_3","IPC_4","IPC_5","IPC_6","IPC_7","IPC_8","MorIden_1","MorIden_2","MorIden_3","MorIden_4","MorIden_5","MorIden_6","MorIden_7","MorIden_8","MorIden_9","MorIden_10","moralSeImag_1","moralSeImag_2","moralSeImag_3","moralSeImag_4","moralSeImag_5","moralSeImag_6","moralSeImag_7","moralSeImag_8","moralSeImag_9","sde_1","sde_2","sde_3","sde_4","sde_5","sde_6","sde_7","sde_8","sde_9","sde_10","trap2","sde_11","sde_12","sde_13","sde_14","sde_15","sde_16","sde_17","sde_18","sde_19","sde_20","IM_1","IM_2","IM_3","IM_4","IM_5","IM_6","IM_7","IM_8","IM_9","IM_10","IM_11","IM_12","IM_13","IM_14","IM_15","IM_16","IM_17","IM_18","IM_19","IM_20","subj_idx","friend_name","ParticipantID","Sex","Word","Word2","value","success","timeout","failed_images","failed_audio","failed_video","user_agent","responses","item_order","radio_event_ids","radio_event_times","key_event_times","mouse_event_times","straightlining","zigzagging","honeypot","view_history","response_type","key_press","avg_frame_time","center_x","center_y","correct_response","correct","identity","Image","word","condition","task_id","screen_id","time_stamp","person","valence","domain","math","status","duration","question_order","trap2_item"
"15864","
   <p><div style='color:white; font-size: 25px'>您好，欢迎参加本次实验。</div></p>
   <p><div style='color:white; font-size: 25px'>为充分保障您的权利，请确保您已经知晓并同意《参与实验同意书》以及《数据公开知情同意书》。</div></p>
   <p><div style='color:white; font-size: 25px'>如果您未见过上述内容，请咨询实验员。</div></p>
   <p style='color:white; font-size: 25px'>如果您选择继续实验，则表示您已经清楚两份知情同意书的内容并同意。</p>
   <p><div style = ""color: pink;font-size:30px;"">请确保您记得day0的实验编号，您将在本次实验输入该编号，若您忘记，请咨询实验员后作答。</div></p>
   <p><div style = ""color:lightblue;font-size:25px;"">请您尽可能认真地作答，我们将依据您在各问卷和按键任务中的作答质量发放报酬。</div></p>
   <p> <div style = ""color: green""><按空格键至下页></div> </p>
   "," ","html-keyboard-response","0","15874","0.0-0.0","5","4","5","5","6","4","4","4","5","4","4","-1","-2","1","1","-1","2","1","1","5","5","4","5","5","4","4","4","5","4","6","6","5","6","4","4","7","4","5","4","2","6","5","5","3","6","2","4","3","1","5","3","6","2","3","5","4","4","5","4","3","5","6","7","2","6","5","5","7","5","5","6","6","5","6","6","5","5","3","6","797768746788855810","赵","580","Female","[""好我"",""坏她"",""坏我"",""好她""]","[""强我"",""弱她"",""弱我"",""强她""]","","","","","","","","","","","","","","","","","","","","","","","","","","","","","","","","","","","","","","",""
"","","","call-function","1","15877","0.0-1.0-0.0","5","4","5","5","6","4","4","4","5","4","4","-1","-2","1","1","-1","2","1","1","5","5","4","5","5","4","4","4","5","4","6","6","5","6","4","4","7","4","5","4","2","6","5","5","3","6","2","4","3","1","5","3","6","2","3","5","4","4","5","4","3","5","6","7","2","6","5","5","7","5","5","6","6","5","6","6","5","5","3","6","797768746788855810","赵","580","Female","[""好我"",""坏她"",""坏我"",""好她""]","[""强我"",""弱她"",""弱我"",""强她""]","","","","","","","","","","","","","","","","","","","","","","","","","","","","","","","","","","","","","","",""
"19353","","[{""name"":""Sex"",""value"":""1""},{""name"":""friend_name"",""value"":""赵""},{""name"":""ParticipantID"",""value"":""580""}]","survey-html-form","2","35233","0.0-1.0-1.0","5","4","5","5","6","4","4","4","5","4","4","-1","-2","1","1","-1","2","1","1","5","5","4","5","5","4","4","4","5","4","6","6","5","6","4","4","7","4","5","4","2","6","5","5","3","6","2","4","3","1","5","3","6","2","3","5","4","4","5","4","3","5","6","7","2","6","5","5","7","5","5","6","6","5","6","6","5","5","3","6","797768746788855810","赵","580","Female","[""好我"",""坏她"",""坏我"",""好她""]","[""强我"",""弱她"",""弱我"",""强她""]","","","","","","","","","","","","","","","","","","","","","","","","","","","","","","","","","","","","","","",""
"","","","preload","3","35869","0.0-2.0","5","4","5","5","6","4","4","4","5","4","4","-1","-2","1","1","-1","2","1","1","5","5","4","5","5","4","4","4","5","4","6","6","5","6","4","4","7","4","5","4","2","6","5","5","3","6","2","4","3","1","5","3","6","2","3","5","4","4","5","4","3","5","6","7","2","6","5","5","7","5","5","6","6","5","6","6","5","5","3","6","797768746788855810","赵","580","Female","[""好我"",""坏她"",""坏我"",""好她""]","[""强我"",""弱她"",""弱我"",""强她""]","","true","false","[]","[]","[]","","","","","","","","","","","","","","","","","","","","","","","","","","","","","","","","",""
"","","","fullscreen","4","37186","0.0-3.0","5","4","5","5","6","4","4","4","5","4","4","-1","-2","1","1","-1","2","1","1","5","5","4","5","5","4","4","4","5","4","6","6","5","6","4","4","7","4","5","4","2","6","5","5","3","6","2","4","3","1","5","3","6","2","3","5","4","4","5","4","3","5","6","7","2","6","5","5","7","5","5","6","6","5","6","6","5","5","3","6","797768746788855810","赵","580","Female","[""好我"",""坏她"",""坏我"",""好她""]","[""强我"",""弱她"",""弱我"",""强她""]","","true","","","","","{}","","","","","","","","","","","","","","","","","","","","","","","","","","","","","","","",""
"20826.199999999255","","{""Q01"":""5"",""Q02"":""4"",""Q03"":""5"",""Q04"":""5"",""Q05"":""6""}","survey-template","5","58022","0.0-4.0","5","4","5","5","6","4","4","4","5","4","4","-1","-2","1","1","-1","2","1","1","5","5","4","5","5","4","4","4","5","4","6","6","5","6","4","4","7","4","5","4","2","6","5","5","3","6","2","4","3","1","5","3","6","2","3","5","4","4","5","4","3","5","6","7","2","6","5","5","7","5","5","6","6","5","6","6","5","5","3","6","797768746788855810","赵","580","Female","[""好我"",""坏她"",""坏我"",""好她""]","[""强我"",""弱她"",""弱我"",""强她""]","","","","","","","","{""Q01"":""5"",""Q02"":""4"",""Q03"":""5"",""Q04"":""5"",""Q05"":""6""}","[0,1,2,3,4]","[""Q01"",""Q02"",""Q03"",""Q04"",""Q05""]","[8839.79999999702,9910.79999999702,11302.699999999255,12302.5,14654.699999999255]","[]","[8839.79999999702,9910.79999999702,11302.699999999255,12302.5,14654.699999999255,20822.5]","0.6","0.75","0","","","","","","","","","","","","","","","","","","","","","","",""
"16876.20000000298","","{""Q01"":""4"",""Q02"":""4"",""Q03"":""4"",""Q04"":""5"",""Q05"":""4"",""Q06"":""4""}","survey-template","6","74915","0.0-5.0","5","4","5","5","6","4","4","4","5","4","4","-1","-2","1","1","-1","2","1","1","5","5","4","5","5","4","4","4","5","4","6","6","5","6","4","4","7","4","5","4","2","6","5","5","3","6","2","4","3","1","5","3","6","2","3","5","4","4","5","4","3","5","6","7","2","6","5","5","7","5","5","6","6","5","6","6","5","5","3","6","797768746788855810","赵","580","Female","[""好我"",""坏她"",""坏我"",""好她""]","[""强我"",""弱她"",""弱我"",""强她""]","","","","","","","","{""Q01"":""4"",""Q02"":""4"",""Q03"":""4"",""Q04"":""5"",""Q05"":""4"",""Q06"":""4""}","[0,1,2,3,4,5]","[""Q01"",""Q02"",""Q03"",""Q04"",""Q05"",""Q06""]","[2554.2000000029802,4018.10000000149,5186.10000000149,7266.20000000298,8458,11137.900000002235]","[]","[2554.2000000029802,4018.10000000149,5186.10000000149,7266.20000000298,7946.20000000298,8458,11137.900000002235,16873.900000002235]","0.5","0.2","0","","","","","","","","","","","","","","","","","","","","","","",""
"21978.199999999255","","{""Q01"":""-1"",""Q02"":""-2"",""Q03"":""1"",""Q04"":""1"",""Q05"":""-1"",""Q06"":""2"",""Q07"":""1"",""Q08"":""1""}","survey-template","7","96909","0.0-6.0","5","4","5","5","6","4","4","4","5","4","4","-1","-2","1","1","-1","2","1","1","5","5","4","5","5","4","4","4","5","4","6","6","5","6","4","4","7","4","5","4","2","6","5","5","3","6","2","4","3","1","5","3","6","2","3","5","4","4","5","4","3","5","6","7","2","6","5","5","7","5","5","6","6","5","6","6","5","5","3","6","797768746788855810","赵","580","Female","[""好我"",""坏她"",""坏我"",""好她""]","[""强我"",""弱她"",""弱我"",""强她""]","","","","","","","","{""Q01"":""-1"",""Q02"":""-2"",""Q03"":""1"",""Q04"":""1"",""Q05"":""-1"",""Q06"":""2"",""Q07"":""1"",""Q08"":""1""}","[0,1,2,3,4,5,6,7]","[""Q01"",""Q02"",""Q03"",""Q04"",""Q05"",""Q06"",""Q07"",""Q08""]","[2230.599999997765,3710.5,5830.39999999851,7462.300000000745,10358.5,12694.300000000745,14622.300000000745,15902.199999999255]","[]","[2230.599999997765,3710.5,5830.39999999851,7462.300000000745,10358.5,12318.199999999255,12694.300000000745,14622.300000000745,15902.199999999255,21974.5]","0.5","0.2857142857142857","0","","","","","","","","","","","","","","","","","","","","","","",""
"19600","","","instructions","8","116522","0.0-7.0","5","4","5","5","6","4","4","4","5","4","4","-1","-2","1","1","-1","2","1","1","5","5","4","5","5","4","4","4","5","4","6","6","5","6","4","4","7","4","5","4","2","6","5","5","3","6","2","4","3","1","5","3","6","2","3","5","4","4","5","4","3","5","6","7","2","6","5","5","7","5","5","6","6","5","6","6","5","5","3","6","797768746788855810","赵","580","Female","[""好我"",""坏她"",""坏我"",""好她""]","[""强我"",""弱她"",""弱我"",""强她""]","","","","","","","","","","","","","","","","","[{""page_index"":0,""viewing_time"":19598}]","","","","","","","","","","","","","","","","","","","","","",""
"65616","","","instructions","9","182144","0.0-8.0-0.0-0.0","5","4","5","5","6","4","4","4","5","4","4","-1","-2","1","1","-1","2","1","1","5","5","4","5","5","4","4","4","5","4","6","6","5","6","4","4","7","4","5","4","2","6","5","5","3","6","2","4","3","1","5","3","6","2","3","5","4","4","5","4","3","5","6","7","2","6","5","5","7","5","5","6","6","5","6","6","5","5","3","6","797768746788855810","赵","580","Female","[""好我"",""坏她"",""坏我"",""好她""]","[""强我"",""弱她"",""弱我"",""强她""]","","","","","","","","","","","","","","","","","[{""page_index"":0,""viewing_time"":1057},{""page_index"":1,""viewing_time"":63151},{""page_index"":2,""viewing_time"":760},{""page_index"":3,""viewing_time"":648}]","","","","","","","","","","","","","","","","","","","","","",""
"1214","","j","psychophysics","10","184370","0.0-8.0-0.0-1.0-0.0-0.0","5","4","5","5","6","4","4","4","5","4","4","-1","-2","1","1","-1","2","1","1","5","5","4","5","5","4","4","4","5","4","6","6","5","6","4","4","7","4","5","4","2","6","5","5","3","6","2","4","3","1","5","3","6","2","3","5","4","4","5","4","3","5","6","7","2","6","5","5","7","5","5","6","6","5","6","6","5","5","3","6","797768746788855810","赵","580","Female","[""好我"",""坏她"",""坏我"",""好她""]","[""强我"",""弱她"",""弱我"",""强她""]","","","","","","","","nonmatch","","","","","","","","","","key","j","17.056781250000085","680","380","f","false","match","img/pentagon.png","坏她","坏她","prac_ALT2_moral","practice_moral","","","","","","","","",""
"null","<span class='add_' style='color:yellow; font-size: 70px;'> 太慢! </span>","null","html-keyboard-response","11","184877","0.0-8.0-0.0-1.0-0.0-1.0","5","4","5","5","6","4","4","4","5","4","4","-1","-2","1","1","-1","2","1","1","5","5","4","5","5","4","4","4","5","4","6","6","5","6","4","4","7","4","5","4","2","6","5","5","3","6","2","4","3","1","5","3","6","2","3","5","4","4","5","4","3","5","6","7","2","6","5","5","7","5","5","6","6","5","6","6","5","5","3","6","797768746788855810","赵","580","Female","[""好我"",""坏她"",""坏我"",""好她""]","[""强我"",""弱她"",""弱我"",""强她""]","","","","","","","","","","","","","","","","","","","","","","","","","","","","","","feedback_test","","","","","","","","",""
"984","","j","psychophysics","12","186872","0.0-8.0-0.0-1.0-0.0-0.1","5","4","5","5","6","4","4","4","5","4","4","-1","-2","1","1","-1","2","1","1","5","5","4","5","5","4","4","4","5","4","6","6","5","6","4","4","7","4","5","4","2","6","5","5","3","6","2","4","3","1","5","3","6","2","3","5","4","4","5","4","3","5","6","7","2","6","5","5","7","5","5","6","6","5","6","6","5","5","3","6","797768746788855810","赵","580","Female","[""好我"",""坏她"",""坏我"",""好她""]","[""强我"",""弱她"",""弱我"",""强她""]","","","","","","","","nonmatch","","","","","","","","","","key","j","16.654252100840335","680","380","j","true","nonmatch","img/pentagon.png","好她","坏她","prac_ALT2_moral","practice_moral","","","","","","","","",""
"null","<span style='color:GreenYellow; font-size: 70px;'>正确! </span>","null","html-keyboard-response","13","187381","0.0-8.0-0.0-1.0-0.0-1.1","5","4","5","5","6","4","4","4","5","4","4","-1","-2","1","1","-1","2","1","1","5","5","4","5","5","4","4","4","5","4","6","6","5","6","4","4","7","4","5","4","2","6","5","5","3","6","2","4","3","1","5","3","6","2","3","5","4","4","5","4","3","5","6","7","2","6","5","5","7","5","5","6","6","5","6","6","5","5","3","6","797768746788855810","赵","580","Female","[""好我"",""坏她"",""坏我"",""好她""]","[""强我"",""弱她"",""弱我"",""强她""]","","","","","","","","","","","","","","","","","","","","","","","","","","","","","","feedback_test","","","","","","","","",""
"1092","","j","psychophysics","14","189479","0.0-8.0-0.0-1.0-0.0-0.2","5","4","5","5","6","4","4","4","5","4","4","-1","-2","1","1","-1","2","1","1","5","5","4","5","5","4","4","4","5","4","6","6","5","6","4","4","7","4","5","4","2","6","5","5","3","6","2","4","3","1","5","3","6","2","3","5","4","4","5","4","3","5","6","7","2","6","5","5","7","5","5","6","6","5","6","6","5","5","3","6","797768746788855810","赵","580","Female","[""好我"",""坏她"",""坏我"",""好她""]","[""强我"",""弱她"",""弱我"",""强她""]","","","","","","","","nonmatch","","","","","","","","","","key","j","16.791298387096884","680","380","f","false","match","img/pentagon.png","坏她","坏她","prac_ALT2_moral","practice_moral","","","","","","","","",""
"null","<span style='color:red; font-size: 70px;'>错误! </span>","null","html-keyboard-response","15","189981","0.0-8.0-0.0-1.0-0.0-1.2","5","4","5","5","6","4","4","4","5","4","4","-1","-2","1","1","-1","2","1","1","5","5","4","5","5","4","4","4","5","4","6","6","5","6","4","4","7","4","5","4","2","6","5","5","3","6","2","4","3","1","5","3","6","2","3","5","4","4","5","4","3","5","6","7","2","6","5","5","7","5","5","6","6","5","6","6","5","5","3","6","797768746788855810","赵","580","Female","[""好我"",""坏她"",""坏我"",""好她""]","[""强我"",""弱她"",""弱我"",""强她""]","","","","","","","","","","","","","","","","","","","","","","","","","","","","","","feedback_test","","","","","","","","",""
"1044","","f","psychophysics","16","192031","0.0-8.0-0.0-1.0-0.0-0.3","5","4","5","5","6","4","4","4","5","4","4","-1","-2","1","1","-1","2","1","1","5","5","4","5","5","4","4","4","5","4","6","6","5","6","4","4","7","4","5","4","2","6","5","5","3","6","2","4","3","1","5","3","6","2","3","5","4","4","5","4","3","5","6","7","2","6","5","5","7","5","5","6","6","5","6","6","5","5","3","6","797768746788855810","赵","580","Female","[""好我"",""坏她"",""坏我"",""好她""]","[""强我"",""弱她"",""弱我"",""强她""]","","","","","","","","match","","","","","","","","","","key","f","16.653901639344127","680","380","j","false","nonmatch","img/trapezoid.png","好我","好她","prac_ALT2_moral","practice_moral","","","","","","","","",""
"null","<span style='color:red; font-size: 70px;'>错误! </span>","null","html-keyboard-response","17","192532","0.0-8.0-0.0-1.0-0.0-1.3","5","4","5","5","6","4","4","4","5","4","4","-1","-2","1","1","-1","2","1","1","5","5","4","5","5","4","4","4","5","4","6","6","5","6","4","4","7","4","5","4","2","6","5","5","3","6","2","4","3","1","5","3","6","2","3","5","4","4","5","4","3","5","6","7","2","6","5","5","7","5","5","6","6","5","6","6","5","5","3","6","797768746788855810","赵","580","Female","[""好我"",""坏她"",""坏我"",""好她""]","[""强我"",""弱她"",""弱我"",""强她""]","","","","","","","","","","","","","","","","","","","","","","","","","","","","","","feedback_test","","","","","","","","",""
"1103","","f","psychophysics","18","194639","0.0-8.0-0.0-1.0-0.0-0.4","5","4","5","5","6","4","4","4","5","4","4","-1","-2","1","1","-1","2","1","1","5","5","4","5","5","4","4","4","5","4","6","6","5","6","4","4","7","4","5","4","2","6","5","5","3","6","2","4","3","1","5","3","6","2","3","5","4","4","5","4","3","5","6","7","2","6","5","5","7","5","5","6","6","5","6","6","5","5","3","6","797768746788855810","赵","580","Female","[""好我"",""坏她"",""坏我"",""好她""]","[""强我"",""弱她"",""弱我"",""强她""]","","","","","","","","match","","","","","","","","","","key","f","16.66667741935488","680","380","f","true","match","img/circle.png","好我","好我","prac_ALT2_moral","practice_moral","","","","","","","","",""
"null","<span style='color:GreenYellow; font-size: 70px;'>正确! </span>","null","html-keyboard-response","19","195148","0.0-8.0-0.0-1.0-0.0-1.4","5","4","5","5","6","4","4","4","5","4","4","-1","-2","1","1","-1","2","1","1","5","5","4","5","5","4","4","4","5","4","6","6","5","6","4","4","7","4","5","4","2","6","5","5","3","6","2","4","3","1","5","3","6","2","3","5","4","4","5","4","3","5","6","7","2","6","5","5","7","5","5","6","6","5","6","6","5","5","3","6","797768746788855810","赵","580","Female","[""好我"",""坏她"",""坏我"",""好她""]","[""强我"",""弱她"",""弱我"",""强她""]","","","","","","","","","","","","","","","","","","","","","","","","","","","","","","feedback_test","","","","","","","","",""
"1071","","j","psychophysics","20","197223","0.0-8.0-0.0-1.0-0.0-0.5","5","4","5","5","6","4","4","4","5","4","4","-1","-2","1","1","-1","2","1","1","5","5","4","5","5","4","4","4","5","4","6","6","5","6","4","4","7","4","5","4","2","6","5","5","3","6","2","4","3","1","5","3","6","2","3","5","4","4","5","4","3","5","6","7","2","6","5","5","7","5","5","6","6","5","6","6","5","5","3","6","797768746788855810","赵","580","Female","[""好我"",""坏她"",""坏我"",""好她""]","[""强我"",""弱她"",""弱我"",""强她""]","","","","","","","","nonmatch","","","","","","","","","","key","j","16.662837398373824","680","380","j","true","nonmatch","img/diamond.png","好我","坏我","prac_ALT2_moral","practice_moral","","","","","","","","",""
"null","<span style='color:GreenYellow; font-size: 70px;'>正确! </span>","null","html-keyboard-response","21","197725","0.0-8.0-0.0-1.0-0.0-1.5","5","4","5","5","6","4","4","4","5","4","4","-1","-2","1","1","-1","2","1","1","5","5","4","5","5","4","4","4","5","4","6","6","5","6","4","4","7","4","5","4","2","6","5","5","3","6","2","4","3","1","5","3","6","2","3","5","4","4","5","4","3","5","6","7","2","6","5","5","7","5","5","6","6","5","6","6","5","5","3","6","797768746788855810","赵","580","Female","[""好我"",""坏她"",""坏我"",""好她""]","[""强我"",""弱她"",""弱我"",""强她""]","","","","","","","","","","","","","","","","","","","","","","","","","","","","","","feedback_test","","","","","","","","",""
"1006","","j","psychophysics","22","199742","0.0-8.0-0.0-1.0-0.0-0.6","5","4","5","5","6","4","4","4","5","4","4","-1","-2","1","1","-1","2","1","1","5","5","4","5","5","4","4","4","5","4","6","6","5","6","4","4","7","4","5","4","2","6","5","5","3","6","2","4","3","1","5","3","6","2","3","5","4","4","5","4","3","5","6","7","2","6","5","5","7","5","5","6","6","5","6","6","5","5","3","6","797768746788855810","赵","580","Female","[""好我"",""坏她"",""坏我"",""好她""]","[""强我"",""弱她"",""弱我"",""强她""]","","","","","","","","nonmatch","","","","","","","","","","key","j","16.65714285714271","680","380","j","true","nonmatch","img/circle.png","坏她","好我","prac_ALT2_moral","practice_moral","","","","","","","","",""
"null","<span style='color:GreenYellow; font-size: 70px;'>正确! </span>","null","html-keyboard-response","23","200245","0.0-8.0-0.0-1.0-0.0-1.6","5","4","5","5","6","4","4","4","5","4","4","-1","-2","1","1","-1","2","1","1","5","5","4","5","5","4","4","4","5","4","6","6","5","6","4","4","7","4","5","4","2","6","5","5","3","6","2","4","3","1","5","3","6","2","3","5","4","4","5","4","3","5","6","7","2","6","5","5","7","5","5","6","6","5","6","6","5","5","3","6","797768746788855810","赵","580","Female","[""好我"",""坏她"",""坏我"",""好她""]","[""强我"",""弱她"",""弱我"",""强她""]","","","","","","","","","","","","","","","","","","","","","","","","","","","","","","feedback_test","","","","","","","","",""
"1083","","j","psychophysics","24","202337","0.0-8.0-0.0-1.0-0.0-0.7","5","4","5","5","6","4","4","4","5","4","4","-1","-2","1","1","-1","2","1","1","5","5","4","5","5","4","4","4","5","4","6","6","5","6","4","4","7","4","5","4","2","6","5","5","3","6","2","4","3","1","5","3","6","2","3","5","4","4","5","4","3","5","6","7","2","6","5","5","7","5","5","6","6","5","6","6","5","5","3","6","797768746788855810","赵","580","Female","[""好我"",""坏她"",""坏我"",""好她""]","[""强我"",""弱她"",""弱我"",""强她""]","","","","","","","","nonmatch","","","","","","","","","","key","j","16.658758064516025","680","380","j","true","nonmatch","img/diamond.png","坏她","坏我","prac_ALT2_moral","practice_moral","","","","","","","","",""
"null","<span style='color:GreenYellow; font-size: 70px;'>正确! </span>","null","html-keyboard-response","25","202845","0.0-8.0-0.0-1.0-0.0-1.7","5","4","5","5","6","4","4","4","5","4","4","-1","-2","1","1","-1","2","1","1","5","5","4","5","5","4","4","4","5","4","6","6","5","6","4","4","7","4","5","4","2","6","5","5","3","6","2","4","3","1","5","3","6","2","3","5","4","4","5","4","3","5","6","7","2","6","5","5","7","5","5","6","6","5","6","6","5","5","3","6","797768746788855810","赵","580","Female","[""好我"",""坏她"",""坏我"",""好她""]","[""强我"",""弱她"",""弱我"",""强她""]","","","","","","","","","","","","","","","","","","","","","","","","","","","","","","feedback_test","","","","","","","","",""
"842","","j","psychophysics","26","204694","0.0-8.0-0.0-1.0-0.0-0.8","5","4","5","5","6","4","4","4","5","4","4","-1","-2","1","1","-1","2","1","1","5","5","4","5","5","4","4","4","5","4","6","6","5","6","4","4","7","4","5","4","2","6","5","5","3","6","2","4","3","1","5","3","6","2","3","5","4","4","5","4","3","5","6","7","2","6","5","5","7","5","5","6","6","5","6","6","5","5","3","6","797768746788855810","赵","580","Female","[""好我"",""坏她"",""坏我"",""好她""]","[""强我"",""弱她"",""弱我"",""强她""]","","","","","","","","nonmatch","","","","","","","","","","key","j","16.665900000000097","680","380","j","true","nonmatch","img/pentagon.png","好我","坏她","prac_ALT2_moral","practice_moral","","","","","","","","",""
"null","<span style='color:GreenYellow; font-size: 70px;'>正确! </span>","null","html-keyboard-response","27","205197","0.0-8.0-0.0-1.0-0.0-1.8","5","4","5","5","6","4","4","4","5","4","4","-1","-2","1","1","-1","2","1","1","5","5","4","5","5","4","4","4","5","4","6","6","5","6","4","4","7","4","5","4","2","6","5","5","3","6","2","4","3","1","5","3","6","2","3","5","4","4","5","4","3","5","6","7","2","6","5","5","7","5","5","6","6","5","6","6","5","5","3","6","797768746788855810","赵","580","Female","[""好我"",""坏她"",""坏我"",""好她""]","[""强我"",""弱她"",""弱我"",""强她""]","","","","","","","","","","","","","","","","","","","","","","","","","","","","","","feedback_test","","","","","","","","",""
"1054","","f","psychophysics","28","207255","0.0-8.0-0.0-1.0-0.0-0.9","5","4","5","5","6","4","4","4","5","4","4","-1","-2","1","1","-1","2","1","1","5","5","4","5","5","4","4","4","5","4","6","6","5","6","4","4","7","4","5","4","2","6","5","5","3","6","2","4","3","1","5","3","6","2","3","5","4","4","5","4","3","5","6","7","2","6","5","5","7","5","5","6","6","5","6","6","5","5","3","6","797768746788855810","赵","580","Female","[""好我"",""坏她"",""坏我"",""好她""]","[""强我"",""弱她"",""弱我"",""强她""]","","","","","","","","match","","","","","","","","","","key","f","16.66524390243912","680","380","j","false","nonmatch","img/circle.png","坏我","好我","prac_ALT2_moral","practice_moral","","","","","","","","",""
"null","<span style='color:red; font-size: 70px;'>错误! </span>","null","html-keyboard-response","29","207757","0.0-8.0-0.0-1.0-0.0-1.9","5","4","5","5","6","4","4","4","5","4","4","-1","-2","1","1","-1","2","1","1","5","5","4","5","5","4","4","4","5","4","6","6","5","6","4","4","7","4","5","4","2","6","5","5","3","6","2","4","3","1","5","3","6","2","3","5","4","4","5","4","3","5","6","7","2","6","5","5","7","5","5","6","6","5","6","6","5","5","3","6","797768746788855810","赵","580","Female","[""好我"",""坏她"",""坏我"",""好她""]","[""强我"",""弱她"",""弱我"",""强她""]","","","","","","","","","","","","","","","","","","","","","","","","","","","","","","feedback_test","","","","","","","","",""
"1065","","j","psychophysics","30","209831","0.0-8.0-0.0-1.0-0.0-0.10","5","4","5","5","6","4","4","4","5","4","4","-1","-2","1","1","-1","2","1","1","5","5","4","5","5","4","4","4","5","4","6","6","5","6","4","4","7","4","5","4","2","6","5","5","3","6","2","4","3","1","5","3","6","2","3","5","4","4","5","4","3","5","6","7","2","6","5","5","7","5","5","6","6","5","6","6","5","5","3","6","797768746788855810","赵","580","Female","[""好我"",""坏她"",""坏我"",""好她""]","[""强我"",""弱她"",""弱我"",""强她""]","","","","","","","","nonmatch","","","","","","","","","","key","j","16.665845528455325","680","380","j","true","nonmatch","img/circle.png","好她","好我","prac_ALT2_moral","practice_moral","","","","","","","","",""
"null","<span style='color:GreenYellow; font-size: 70px;'>正确! </span>","null","html-keyboard-response","31","210341","0.0-8.0-0.0-1.0-0.0-1.10","5","4","5","5","6","4","4","4","5","4","4","-1","-2","1","1","-1","2","1","1","5","5","4","5","5","4","4","4","5","4","6","6","5","6","4","4","7","4","5","4","2","6","5","5","3","6","2","4","3","1","5","3","6","2","3","5","4","4","5","4","3","5","6","7","2","6","5","5","7","5","5","6","6","5","6","6","5","5","3","6","797768746788855810","赵","580","Female","[""好我"",""坏她"",""坏我"",""好她""]","[""强我"",""弱她"",""弱我"",""强她""]","","","","","","","","","","","","","","","","","","","","","","","","","","","","","","feedback_test","","","","","","","","",""
"1226","","f","psychophysics","32","212575","0.0-8.0-0.0-1.0-0.0-0.11","5","4","5","5","6","4","4","4","5","4","4","-1","-2","1","1","-1","2","1","1","5","5","4","5","5","4","4","4","5","4","6","6","5","6","4","4","7","4","5","4","2","6","5","5","3","6","2","4","3","1","5","3","6","2","3","5","4","4","5","4","3","5","6","7","2","6","5","5","7","5","5","6","6","5","6","6","5","5","3","6","797768746788855810","赵","580","Female","[""好我"",""坏她"",""坏我"",""好她""]","[""强我"",""弱她"",""弱我"",""强她""]","","","","","","","","match","","","","","","","","","","key","f","16.6610687022899","680","380","f","true","match","img/pentagon.png","坏她","坏她","prac_ALT2_moral","practice_moral","","","","","","","","",""
"null","<span class='add_' style='color:yellow; font-size: 70px;'> 太慢! </span>","null","html-keyboard-response","33","213084","0.0-8.0-0.0-1.0-0.0-1.11","5","4","5","5","6","4","4","4","5","4","4","-1","-2","1","1","-1","2","1","1","5","5","4","5","5","4","4","4","5","4","6","6","5","6","4","4","7","4","5","4","2","6","5","5","3","6","2","4","3","1","5","3","6","2","3","5","4","4","5","4","3","5","6","7","2","6","5","5","7","5","5","6","6","5","6","6","5","5","3","6","797768746788855810","赵","580","Female","[""好我"",""坏她"",""坏我"",""好她""]","[""强我"",""弱她"",""弱我"",""强她""]","","","","","","","","","","","","","","","","","","","","","","","","","","","","","","feedback_test","","","","","","","","",""
"1108","","f","psychophysics","34","215201","0.0-8.0-0.0-1.0-0.0-0.12","5","4","5","5","6","4","4","4","5","4","4","-1","-2","1","1","-1","2","1","1","5","5","4","5","5","4","4","4","5","4","6","6","5","6","4","4","7","4","5","4","2","6","5","5","3","6","2","4","3","1","5","3","6","2","3","5","4","4","5","4","3","5","6","7","2","6","5","5","7","5","5","6","6","5","6","6","5","5","3","6","797768746788855810","赵","580","Female","[""好我"",""坏她"",""坏我"",""好她""]","[""强我"",""弱她"",""弱我"",""强她""]","","","","","","","","match","","","","","","","","","","key","f","16.673","680","380","f","true","match","img/diamond.png","坏我","坏我","prac_ALT2_moral","practice_moral","","","","","","","","",""
"null","<span style='color:GreenYellow; font-size: 70px;'>正确! </span>","null","html-keyboard-response","35","215708","0.0-8.0-0.0-1.0-0.0-1.12","5","4","5","5","6","4","4","4","5","4","4","-1","-2","1","1","-1","2","1","1","5","5","4","5","5","4","4","4","5","4","6","6","5","6","4","4","7","4","5","4","2","6","5","5","3","6","2","4","3","1","5","3","6","2","3","5","4","4","5","4","3","5","6","7","2","6","5","5","7","5","5","6","6","5","6","6","5","5","3","6","797768746788855810","赵","580","Female","[""好我"",""坏她"",""坏我"",""好她""]","[""强我"",""弱她"",""弱我"",""强她""]","","","","","","","","","","","","","","","","","","","","","","","","","","","","","","feedback_test","","","","","","","","",""
"1104","","j","psychophysics","36","217822","0.0-8.0-0.0-1.0-0.0-0.13","5","4","5","5","6","4","4","4","5","4","4","-1","-2","1","1","-1","2","1","1","5","5","4","5","5","4","4","4","5","4","6","6","5","6","4","4","7","4","5","4","2","6","5","5","3","6","2","4","3","1","5","3","6","2","3","5","4","4","5","4","3","5","6","7","2","6","5","5","7","5","5","6","6","5","6","6","5","5","3","6","797768746788855810","赵","580","Female","[""好我"",""坏她"",""坏我"",""好她""]","[""强我"",""弱她"",""弱我"",""强她""]","","","","","","","","nonmatch","","","","","","","","","","key","j","16.66260317460327","680","380","j","true","nonmatch","img/diamond.png","好她","坏我","prac_ALT2_moral","practice_moral","","","","","","","","",""
"null","<span style='color:GreenYellow; font-size: 70px;'>正确! </span>","null","html-keyboard-response","37","218324","0.0-8.0-0.0-1.0-0.0-1.13","5","4","5","5","6","4","4","4","5","4","4","-1","-2","1","1","-1","2","1","1","5","5","4","5","5","4","4","4","5","4","6","6","5","6","4","4","7","4","5","4","2","6","5","5","3","6","2","4","3","1","5","3","6","2","3","5","4","4","5","4","3","5","6","7","2","6","5","5","7","5","5","6","6","5","6","6","5","5","3","6","797768746788855810","赵","580","Female","[""好我"",""坏她"",""坏我"",""好她""]","[""强我"",""弱她"",""弱我"",""强她""]","","","","","","","","","","","","","","","","","","","","","","","","","","","","","","feedback_test","","","","","","","","",""
"1038","","f","psychophysics","38","220374","0.0-8.0-0.0-1.0-0.0-0.14","5","4","5","5","6","4","4","4","5","4","4","-1","-2","1","1","-1","2","1","1","5","5","4","5","5","4","4","4","5","4","6","6","5","6","4","4","7","4","5","4","2","6","5","5","3","6","2","4","3","1","5","3","6","2","3","5","4","4","5","4","3","5","6","7","2","6","5","5","7","5","5","6","6","5","6","6","5","5","3","6","797768746788855810","赵","580","Female","[""好我"",""坏她"",""坏我"",""好她""]","[""强我"",""弱她"",""弱我"",""强她""]","","","","","","","","match","","","","","","","","","","key","f","16.667852459016416","680","380","f","true","match","img/diamond.png","坏我","坏我","prac_ALT2_moral","practice_moral","","","","","","","","",""
"null","<span style='color:GreenYellow; font-size: 70px;'>正确! </span>","null","html-keyboard-response","39","220878","0.0-8.0-0.0-1.0-0.0-1.14","5","4","5","5","6","4","4","4","5","4","4","-1","-2","1","1","-1","2","1","1","5","5","4","5","5","4","4","4","5","4","6","6","5","6","4","4","7","4","5","4","2","6","5","5","3","6","2","4","3","1","5","3","6","2","3","5","4","4","5","4","3","5","6","7","2","6","5","5","7","5","5","6","6","5","6","6","5","5","3","6","797768746788855810","赵","580","Female","[""好我"",""坏她"",""坏我"",""好她""]","[""强我"",""弱她"",""弱我"",""强她""]","","","","","","","","","","","","","","","","","","","","","","","","","","","","","","feedback_test","","","","","","","","",""
"994","","j","psychophysics","40","222880","0.0-8.0-0.0-1.0-0.0-0.15","5","4","5","5","6","4","4","4","5","4","4","-1","-2","1","1","-1","2","1","1","5","5","4","5","5","4","4","4","5","4","6","6","5","6","4","4","7","4","5","4","2","6","5","5","3","6","2","4","3","1","5","3","6","2","3","5","4","4","5","4","3","5","6","7","2","6","5","5","7","5","5","6","6","5","6","6","5","5","3","6","797768746788855810","赵","580","Female","[""好我"",""坏她"",""坏我"",""好她""]","[""强我"",""弱她"",""弱我"",""强她""]","","","","","","","","nonmatch","","","","","","","","","","key","j","16.666769230769127","680","380","j","true","nonmatch","img/pentagon.png","坏我","坏她","prac_ALT2_moral","practice_moral","","","","","","","","",""
"null","<span style='color:GreenYellow; font-size: 70px;'>正确! </span>","null","html-keyboard-response","41","223381","0.0-8.0-0.0-1.0-0.0-1.15","5","4","5","5","6","4","4","4","5","4","4","-1","-2","1","1","-1","2","1","1","5","5","4","5","5","4","4","4","5","4","6","6","5","6","4","4","7","4","5","4","2","6","5","5","3","6","2","4","3","1","5","3","6","2","3","5","4","4","5","4","3","5","6","7","2","6","5","5","7","5","5","6","6","5","6","6","5","5","3","6","797768746788855810","赵","580","Female","[""好我"",""坏她"",""坏我"",""好她""]","[""强我"",""弱她"",""弱我"",""强她""]","","","","","","","","","","","","","","","","","","","","","","","","","","","","","","feedback_test","","","","","","","","",""
"783","","f","psychophysics","42","225169","0.0-8.0-0.0-1.0-0.0-0.16","5","4","5","5","6","4","4","4","5","4","4","-1","-2","1","1","-1","2","1","1","5","5","4","5","5","4","4","4","5","4","6","6","5","6","4","4","7","4","5","4","2","6","5","5","3","6","2","4","3","1","5","3","6","2","3","5","4","4","5","4","3","5","6","7","2","6","5","5","7","5","5","6","6","5","6","6","5","5","3","6","797768746788855810","赵","580","Female","[""好我"",""坏她"",""坏我"",""好她""]","[""强我"",""弱她"",""弱我"",""强她""]","","","","","","","","match","","","","","","","","","","key","f","16.663679245283074","680","380","f","true","match","img/trapezoid.png","好她","好她","prac_ALT2_moral","practice_moral","","","","","","","","",""
"null","<span style='color:GreenYellow; font-size: 70px;'>正确! </span>","null","html-keyboard-response","43","225678","0.0-8.0-0.0-1.0-0.0-1.16","5","4","5","5","6","4","4","4","5","4","4","-1","-2","1","1","-1","2","1","1","5","5","4","5","5","4","4","4","5","4","6","6","5","6","4","4","7","4","5","4","2","6","5","5","3","6","2","4","3","1","5","3","6","2","3","5","4","4","5","4","3","5","6","7","2","6","5","5","7","5","5","6","6","5","6","6","5","5","3","6","797768746788855810","赵","580","Female","[""好我"",""坏她"",""坏我"",""好她""]","[""强我"",""弱她"",""弱我"",""强她""]","","","","","","","","","","","","","","","","","","","","","","","","","","","","","","feedback_test","","","","","","","","",""
"797","","f","psychophysics","44","227479","0.0-8.0-0.0-1.0-0.0-0.17","5","4","5","5","6","4","4","4","5","4","4","-1","-2","1","1","-1","2","1","1","5","5","4","5","5","4","4","4","5","4","6","6","5","6","4","4","7","4","5","4","2","6","5","5","3","6","2","4","3","1","5","3","6","2","3","5","4","4","5","4","3","5","6","7","2","6","5","5","7","5","5","6","6","5","6","6","5","5","3","6","797768746788855810","赵","580","Female","[""好我"",""坏她"",""坏我"",""好她""]","[""强我"",""弱她"",""弱我"",""强她""]","","","","","","","","match","","","","","","","","","","key","f","16.65509523809527","680","380","f","true","match","img/trapezoid.png","好她","好她","prac_ALT2_moral","practice_moral","","","","","","","","",""
"null","<span style='color:GreenYellow; font-size: 70px;'>正确! </span>","null","html-keyboard-response","45","227982","0.0-8.0-0.0-1.0-0.0-1.17","5","4","5","5","6","4","4","4","5","4","4","-1","-2","1","1","-1","2","1","1","5","5","4","5","5","4","4","4","5","4","6","6","5","6","4","4","7","4","5","4","2","6","5","5","3","6","2","4","3","1","5","3","6","2","3","5","4","4","5","4","3","5","6","7","2","6","5","5","7","5","5","6","6","5","6","6","5","5","3","6","797768746788855810","赵","580","Female","[""好我"",""坏她"",""坏我"",""好她""]","[""强我"",""弱她"",""弱我"",""强她""]","","","","","","","","","","","","","","","","","","","","","","","","","","","","","","feedback_test","","","","","","","","",""
"670","","f","psychophysics","46","229655","0.0-8.0-0.0-1.0-0.0-0.18","5","4","5","5","6","4","4","4","5","4","4","-1","-2","1","1","-1","2","1","1","5","5","4","5","5","4","4","4","5","4","6","6","5","6","4","4","7","4","5","4","2","6","5","5","3","6","2","4","3","1","5","3","6","2","3","5","4","4","5","4","3","5","6","7","2","6","5","5","7","5","5","6","6","5","6","6","5","5","3","6","797768746788855810","赵","580","Female","[""好我"",""坏她"",""坏我"",""好她""]","[""强我"",""弱她"",""弱我"",""强她""]","","","","","","","","match","","","","","","","","","","key","f","16.659919191919435","680","380","f","true","match","img/trapezoid.png","好她","好她","prac_ALT2_moral","practice_moral","","","","","","","","",""
"null","<span style='color:GreenYellow; font-size: 70px;'>正确! </span>","null","html-keyboard-response","47","230158","0.0-8.0-0.0-1.0-0.0-1.18","5","4","5","5","6","4","4","4","5","4","4","-1","-2","1","1","-1","2","1","1","5","5","4","5","5","4","4","4","5","4","6","6","5","6","4","4","7","4","5","4","2","6","5","5","3","6","2","4","3","1","5","3","6","2","3","5","4","4","5","4","3","5","6","7","2","6","5","5","7","5","5","6","6","5","6","6","5","5","3","6","797768746788855810","赵","580","Female","[""好我"",""坏她"",""坏我"",""好她""]","[""强我"",""弱她"",""弱我"",""强她""]","","","","","","","","","","","","","","","","","","","","","","","","","","","","","","feedback_test","","","","","","","","",""
"null","","null","psychophysics","48","232367","0.0-8.0-0.0-1.0-0.0-0.19","5","4","5","5","6","4","4","4","5","4","4","-1","-2","1","1","-1","2","1","1","5","5","4","5","5","4","4","4","5","4","6","6","5","6","4","4","7","4","5","4","2","6","5","5","3","6","2","4","3","1","5","3","6","2","3","5","4","4","5","4","3","5","6","7","2","6","5","5","7","5","5","6","6","5","6","6","5","5","3","6","797768746788855810","赵","580","Female","[""好我"",""坏她"",""坏我"",""好她""]","[""强我"",""弱她"",""弱我"",""强她""]","","","","","","","","null","","","","","","","","","","key","null","16.659534351145076","680","380","f","false","match","img/circle.png","好我","好我","prac_ALT2_moral","practice_moral","","","","","","","","",""
"null","<span class='add_' style='color:yellow; font-size: 70px;'> 太慢! </span>","null","html-keyboard-response","49","232870","0.0-8.0-0.0-1.0-0.0-1.19","5","4","5","5","6","4","4","4","5","4","4","-1","-2","1","1","-1","2","1","1","5","5","4","5","5","4","4","4","5","4","6","6","5","6","4","4","7","4","5","4","2","6","5","5","3","6","2","4","3","1","5","3","6","2","3","5","4","4","5","4","3","5","6","7","2","6","5","5","7","5","5","6","6","5","6","6","5","5","3","6","797768746788855810","赵","580","Female","[""好我"",""坏她"",""坏我"",""好她""]","[""强我"",""弱她"",""弱我"",""强她""]","","","","","","","","","","","","","","","","","","","","","","","","","","","","","","feedback_test","","","","","","","","",""
"1170","","f","psychophysics","50","235050","0.0-8.0-0.0-1.0-0.0-0.20","5","4","5","5","6","4","4","4","5","4","4","-1","-2","1","1","-1","2","1","1","5","5","4","5","5","4","4","4","5","4","6","6","5","6","4","4","7","4","5","4","2","6","5","5","3","6","2","4","3","1","5","3","6","2","3","5","4","4","5","4","3","5","6","7","2","6","5","5","7","5","5","6","6","5","6","6","5","5","3","6","797768746788855810","赵","580","Female","[""好我"",""坏她"",""坏我"",""好她""]","[""强我"",""弱她"",""弱我"",""强她""]","","","","","","","","match","","","","","","","","","","key","f","16.660921874999985","680","380","f","true","match","img/diamond.png","坏我","坏我","prac_ALT2_moral","practice_moral","","","","","","","","",""
"null","<span style='color:GreenYellow; font-size: 70px;'>正确! </span>","null","html-keyboard-response","51","235557","0.0-8.0-0.0-1.0-0.0-1.20","5","4","5","5","6","4","4","4","5","4","4","-1","-2","1","1","-1","2","1","1","5","5","4","5","5","4","4","4","5","4","6","6","5","6","4","4","7","4","5","4","2","6","5","5","3","6","2","4","3","1","5","3","6","2","3","5","4","4","5","4","3","5","6","7","2","6","5","5","7","5","5","6","6","5","6","6","5","5","3","6","797768746788855810","赵","580","Female","[""好我"",""坏她"",""坏我"",""好她""]","[""强我"",""弱她"",""弱我"",""强她""]","","","","","","","","","","","","","","","","","","","","","","","","","","","","","","feedback_test","","","","","","","","",""
"918","","j","psychophysics","52","237487","0.0-8.0-0.0-1.0-0.0-0.21","5","4","5","5","6","4","4","4","5","4","4","-1","-2","1","1","-1","2","1","1","5","5","4","5","5","4","4","4","5","4","6","6","5","6","4","4","7","4","5","4","2","6","5","5","3","6","2","4","3","1","5","3","6","2","3","5","4","4","5","4","3","5","6","7","2","6","5","5","7","5","5","6","6","5","6","6","5","5","3","6","797768746788855810","赵","580","Female","[""好我"",""坏她"",""坏我"",""好她""]","[""强我"",""弱她"",""弱我"",""强她""]","","","","","","","","nonmatch","","","","","","","","","","key","j","16.659877192982414","680","380","j","true","nonmatch","img/trapezoid.png","坏我","好她","prac_ALT2_moral","practice_moral","","","","","","","","",""
"null","<span style='color:GreenYellow; font-size: 70px;'>正确! </span>","null","html-keyboard-response","53","237989","0.0-8.0-0.0-1.0-0.0-1.21","5","4","5","5","6","4","4","4","5","4","4","-1","-2","1","1","-1","2","1","1","5","5","4","5","5","4","4","4","5","4","6","6","5","6","4","4","7","4","5","4","2","6","5","5","3","6","2","4","3","1","5","3","6","2","3","5","4","4","5","4","3","5","6","7","2","6","5","5","7","5","5","6","6","5","6","6","5","5","3","6","797768746788855810","赵","580","Female","[""好我"",""坏她"",""坏我"",""好她""]","[""强我"",""弱她"",""弱我"",""强她""]","","","","","","","","","","","","","","","","","","","","","","","","","","","","","","feedback_test","","","","","","","","",""
"876","","f","psychophysics","54","239879","0.0-8.0-0.0-1.0-0.0-0.22","5","4","5","5","6","4","4","4","5","4","4","-1","-2","1","1","-1","2","1","1","5","5","4","5","5","4","4","4","5","4","6","6","5","6","4","4","7","4","5","4","2","6","5","5","3","6","2","4","3","1","5","3","6","2","3","5","4","4","5","4","3","5","6","7","2","6","5","5","7","5","5","6","6","5","6","6","5","5","3","6","797768746788855810","赵","580","Female","[""好我"",""坏她"",""坏我"",""好她""]","[""强我"",""弱她"",""弱我"",""强她""]","","","","","","","","match","","","","","","","","","","key","f","16.66298214285728","680","380","f","true","match","img/circle.png","好我","好我","prac_ALT2_moral","practice_moral","","","","","","","","",""
"null","<span style='color:GreenYellow; font-size: 70px;'>正确! </span>","null","html-keyboard-response","55","240389","0.0-8.0-0.0-1.0-0.0-1.22","5","4","5","5","6","4","4","4","5","4","4","-1","-2","1","1","-1","2","1","1","5","5","4","5","5","4","4","4","5","4","6","6","5","6","4","4","7","4","5","4","2","6","5","5","3","6","2","4","3","1","5","3","6","2","3","5","4","4","5","4","3","5","6","7","2","6","5","5","7","5","5","6","6","5","6","6","5","5","3","6","797768746788855810","赵","580","Female","[""好我"",""坏她"",""坏我"",""好她""]","[""强我"",""弱她"",""弱我"",""强她""]","","","","","","","","","","","","","","","","","","","","","","","","","","","","","","feedback_test","","","","","","","","",""
"892","","j","psychophysics","56","242294","0.0-8.0-0.0-1.0-0.0-0.23","5","4","5","5","6","4","4","4","5","4","4","-1","-2","1","1","-1","2","1","1","5","5","4","5","5","4","4","4","5","4","6","6","5","6","4","4","7","4","5","4","2","6","5","5","3","6","2","4","3","1","5","3","6","2","3","5","4","4","5","4","3","5","6","7","2","6","5","5","7","5","5","6","6","5","6","6","5","5","3","6","797768746788855810","赵","580","Female","[""好我"",""坏她"",""坏我"",""好她""]","[""强我"",""弱她"",""弱我"",""强她""]","","","","","","","","nonmatch","","","","","","","","","","key","j","16.661230088495422","680","380","j","true","nonmatch","img/trapezoid.png","坏她","好她","prac_ALT2_moral","practice_moral","","","","","","","","",""
"null","<span style='color:GreenYellow; font-size: 70px;'>正确! </span>","null","html-keyboard-response","57","242797","0.0-8.0-0.0-1.0-0.0-1.23","5","4","5","5","6","4","4","4","5","4","4","-1","-2","1","1","-1","2","1","1","5","5","4","5","5","4","4","4","5","4","6","6","5","6","4","4","7","4","5","4","2","6","5","5","3","6","2","4","3","1","5","3","6","2","3","5","4","4","5","4","3","5","6","7","2","6","5","5","7","5","5","6","6","5","6","6","5","5","3","6","797768746788855810","赵","580","Female","[""好我"",""坏她"",""坏我"",""好她""]","[""强我"",""弱她"",""弱我"",""强她""]","","","","","","","","","","","","","","","","","","","","","","","","","","","","","","feedback_test","","","","","","","","",""
"969","","j","psychophysics","58","244775","0.0-8.0-0.0-1.0-0.0-0.24","5","4","5","5","6","4","4","4","5","4","4","-1","-2","1","1","-1","2","1","1","5","5","4","5","5","4","4","4","5","4","6","6","5","6","4","4","7","4","5","4","2","6","5","5","3","6","2","4","3","1","5","3","6","2","3","5","4","4","5","4","3","5","6","7","2","6","5","5","7","5","5","6","6","5","6","6","5","5","3","6","797768746788855810","赵","580","Female","[""好我"",""坏她"",""坏我"",""好她""]","[""强我"",""弱她"",""弱我"",""强她""]","","","","","","","","nonmatch","","","","","","","","","","key","j","16.658775862068758","680","380","j","true","nonmatch","img/circle.png","好她","好我","prac_ALT2_moral","practice_moral","","","","","","","","",""
"null","<span style='color:GreenYellow; font-size: 70px;'>正确! </span>","null","html-keyboard-response","59","245277","0.0-8.0-0.0-1.0-0.0-1.24","5","4","5","5","6","4","4","4","5","4","4","-1","-2","1","1","-1","2","1","1","5","5","4","5","5","4","4","4","5","4","6","6","5","6","4","4","7","4","5","4","2","6","5","5","3","6","2","4","3","1","5","3","6","2","3","5","4","4","5","4","3","5","6","7","2","6","5","5","7","5","5","6","6","5","6","6","5","5","3","6","797768746788855810","赵","580","Female","[""好我"",""坏她"",""坏我"",""好她""]","[""强我"",""弱她"",""弱我"",""强她""]","","","","","","","","","","","","","","","","","","","","","","","","","","","","","","feedback_test","","","","","","","","",""
"1035","","j","psychophysics","60","247320","0.0-8.0-0.0-1.0-0.0-0.25","5","4","5","5","6","4","4","4","5","4","4","-1","-2","1","1","-1","2","1","1","5","5","4","5","5","4","4","4","5","4","6","6","5","6","4","4","7","4","5","4","2","6","5","5","3","6","2","4","3","1","5","3","6","2","3","5","4","4","5","4","3","5","6","7","2","6","5","5","7","5","5","6","6","5","6","6","5","5","3","6","797768746788855810","赵","580","Female","[""好我"",""坏她"",""坏我"",""好她""]","[""强我"",""弱她"",""弱我"",""强她""]","","","","","","","","nonmatch","","","","","","","","","","key","j","16.66502459016395","680","380","j","true","nonmatch","img/diamond.png","坏她","坏我","prac_ALT2_moral","practice_moral","","","","","","","","",""
"null","<span style='color:GreenYellow; font-size: 70px;'>正确! </span>","null","html-keyboard-response","61","247822","0.0-8.0-0.0-1.0-0.0-1.25","5","4","5","5","6","4","4","4","5","4","4","-1","-2","1","1","-1","2","1","1","5","5","4","5","5","4","4","4","5","4","6","6","5","6","4","4","7","4","5","4","2","6","5","5","3","6","2","4","3","1","5","3","6","2","3","5","4","4","5","4","3","5","6","7","2","6","5","5","7","5","5","6","6","5","6","6","5","5","3","6","797768746788855810","赵","580","Female","[""好我"",""坏她"",""坏我"",""好她""]","[""强我"",""弱她"",""弱我"",""强她""]","","","","","","","","","","","","","","","","","","","","","","","","","","","","","","feedback_test","","","","","","","","",""
"787","","f","psychophysics","62","249617","0.0-8.0-0.0-1.0-0.0-0.26","5","4","5","5","6","4","4","4","5","4","4","-1","-2","1","1","-1","2","1","1","5","5","4","5","5","4","4","4","5","4","6","6","5","6","4","4","7","4","5","4","2","6","5","5","3","6","2","4","3","1","5","3","6","2","3","5","4","4","5","4","3","5","6","7","2","6","5","5","7","5","5","6","6","5","6","6","5","5","3","6","797768746788855810","赵","580","Female","[""好我"",""坏她"",""坏我"",""好她""]","[""强我"",""弱她"",""弱我"",""强她""]","","","","","","","","match","","","","","","","","","","key","f","16.6589811320756","680","380","f","true","match","img/trapezoid.png","好她","好她","prac_ALT2_moral","practice_moral","","","","","","","","",""
"null","<span style='color:GreenYellow; font-size: 70px;'>正确! </span>","null","html-keyboard-response","63","250126","0.0-8.0-0.0-1.0-0.0-1.26","5","4","5","5","6","4","4","4","5","4","4","-1","-2","1","1","-1","2","1","1","5","5","4","5","5","4","4","4","5","4","6","6","5","6","4","4","7","4","5","4","2","6","5","5","3","6","2","4","3","1","5","3","6","2","3","5","4","4","5","4","3","5","6","7","2","6","5","5","7","5","5","6","6","5","6","6","5","5","3","6","797768746788855810","赵","580","Female","[""好我"",""坏她"",""坏我"",""好她""]","[""强我"",""弱她"",""弱我"",""强她""]","","","","","","","","","","","","","","","","","","","","","","","","","","","","","","feedback_test","","","","","","","","",""
"985","","f","psychophysics","64","252119","0.0-8.0-0.0-1.0-0.0-0.27","5","4","5","5","6","4","4","4","5","4","4","-1","-2","1","1","-1","2","1","1","5","5","4","5","5","4","4","4","5","4","6","6","5","6","4","4","7","4","5","4","2","6","5","5","3","6","2","4","3","1","5","3","6","2","3","5","4","4","5","4","3","5","6","7","2","6","5","5","7","5","5","6","6","5","6","6","5","5","3","6","797768746788855810","赵","580","Female","[""好我"",""坏她"",""坏我"",""好她""]","[""强我"",""弱她"",""弱我"",""强她""]","","","","","","","","match","","","","","","","","","","key","f","16.671743589743443","680","380","j","false","nonmatch","img/pentagon.png","好她","坏她","prac_ALT2_moral","practice_moral","","","","","","","","",""
"null","<span style='color:red; font-size: 70px;'>错误! </span>","null","html-keyboard-response","65","252622","0.0-8.0-0.0-1.0-0.0-1.27","5","4","5","5","6","4","4","4","5","4","4","-1","-2","1","1","-1","2","1","1","5","5","4","5","5","4","4","4","5","4","6","6","5","6","4","4","7","4","5","4","2","6","5","5","3","6","2","4","3","1","5","3","6","2","3","5","4","4","5","4","3","5","6","7","2","6","5","5","7","5","5","6","6","5","6","6","5","5","3","6","797768746788855810","赵","580","Female","[""好我"",""坏她"",""坏我"",""好她""]","[""强我"",""弱她"",""弱我"",""强她""]","","","","","","","","","","","","","","","","","","","","","","","","","","","","","","feedback_test","","","","","","","","",""
"1208","","j","psychophysics","66","254838","0.0-8.0-0.0-1.0-0.0-0.28","5","4","5","5","6","4","4","4","5","4","4","-1","-2","1","1","-1","2","1","1","5","5","4","5","5","4","4","4","5","4","6","6","5","6","4","4","7","4","5","4","2","6","5","5","3","6","2","4","3","1","5","3","6","2","3","5","4","4","5","4","3","5","6","7","2","6","5","5","7","5","5","6","6","5","6","6","5","5","3","6","797768746788855810","赵","580","Female","[""好我"",""坏她"",""坏我"",""好她""]","[""强我"",""弱她"",""弱我"",""强她""]","","","","","","","","nonmatch","","","","","","","","","","key","j","16.663854961832033","680","380","f","false","match","img/circle.png","好我","好我","prac_ALT2_moral","practice_moral","","","","","","","","",""
"null","<span class='add_' style='color:yellow; font-size: 70px;'> 太慢! </span>","null","html-keyboard-response","67","255342","0.0-8.0-0.0-1.0-0.0-1.28","5","4","5","5","6","4","4","4","5","4","4","-1","-2","1","1","-1","2","1","1","5","5","4","5","5","4","4","4","5","4","6","6","5","6","4","4","7","4","5","4","2","6","5","5","3","6","2","4","3","1","5","3","6","2","3","5","4","4","5","4","3","5","6","7","2","6","5","5","7","5","5","6","6","5","6","6","5","5","3","6","797768746788855810","赵","580","Female","[""好我"",""坏她"",""坏我"",""好她""]","[""强我"",""弱她"",""弱我"",""强她""]","","","","","","","","","","","","","","","","","","","","","","","","","","","","","","feedback_test","","","","","","","","",""
"831","","j","psychophysics","68","257185","0.0-8.0-0.0-1.0-0.0-0.29","5","4","5","5","6","4","4","4","5","4","4","-1","-2","1","1","-1","2","1","1","5","5","4","5","5","4","4","4","5","4","6","6","5","6","4","4","7","4","5","4","2","6","5","5","3","6","2","4","3","1","5","3","6","2","3","5","4","4","5","4","3","5","6","7","2","6","5","5","7","5","5","6","6","5","6","6","5","5","3","6","797768746788855810","赵","580","Female","[""好我"",""坏她"",""坏我"",""好她""]","[""强我"",""弱她"",""弱我"",""强她""]","","","","","","","","nonmatch","","","","","","","","","","key","j","16.66640740740749","680","380","j","true","nonmatch","img/circle.png","坏她","好我","prac_ALT2_moral","practice_moral","","","","","","","","",""
"null","<span style='color:GreenYellow; font-size: 70px;'>正确! </span>","null","html-keyboard-response","69","257694","0.0-8.0-0.0-1.0-0.0-1.29","5","4","5","5","6","4","4","4","5","4","4","-1","-2","1","1","-1","2","1","1","5","5","4","5","5","4","4","4","5","4","6","6","5","6","4","4","7","4","5","4","2","6","5","5","3","6","2","4","3","1","5","3","6","2","3","5","4","4","5","4","3","5","6","7","2","6","5","5","7","5","5","6","6","5","6","6","5","5","3","6","797768746788855810","赵","580","Female","[""好我"",""坏她"",""坏我"",""好她""]","[""强我"",""弱她"",""弱我"",""强她""]","","","","","","","","","","","","","","","","","","","","","","","","","","","","","","feedback_test","","","","","","","","",""
"851","","f","psychophysics","70","259551","0.0-8.0-0.0-1.0-0.0-0.30","5","4","5","5","6","4","4","4","5","4","4","-1","-2","1","1","-1","2","1","1","5","5","4","5","5","4","4","4","5","4","6","6","5","6","4","4","7","4","5","4","2","6","5","5","3","6","2","4","3","1","5","3","6","2","3","5","4","4","5","4","3","5","6","7","2","6","5","5","7","5","5","6","6","5","6","6","5","5","3","6","797768746788855810","赵","580","Female","[""好我"",""坏她"",""坏我"",""好她""]","[""强我"",""弱她"",""弱我"",""强她""]","","","","","","","","match","","","","","","","","","","key","f","16.65888288288287","680","380","f","true","match","img/circle.png","好我","好我","prac_ALT2_moral","practice_moral","","","","","","","","",""
"null","<span style='color:GreenYellow; font-size: 70px;'>正确! </span>","null","html-keyboard-response","71","260053","0.0-8.0-0.0-1.0-0.0-1.30","5","4","5","5","6","4","4","4","5","4","4","-1","-2","1","1","-1","2","1","1","5","5","4","5","5","4","4","4","5","4","6","6","5","6","4","4","7","4","5","4","2","6","5","5","3","6","2","4","3","1","5","3","6","2","3","5","4","4","5","4","3","5","6","7","2","6","5","5","7","5","5","6","6","5","6","6","5","5","3","6","797768746788855810","赵","580","Female","[""好我"",""坏她"",""坏我"",""好她""]","[""强我"",""弱她"",""弱我"",""强她""]","","","","","","","","","","","","","","","","","","","","","","","","","","","","","","feedback_test","","","","","","","","",""
"1140","","f","psychophysics","72","262233","0.0-8.0-0.0-1.0-0.0-0.31","5","4","5","5","6","4","4","4","5","4","4","-1","-2","1","1","-1","2","1","1","5","5","4","5","5","4","4","4","5","4","6","6","5","6","4","4","7","4","5","4","2","6","5","5","3","6","2","4","3","1","5","3","6","2","3","5","4","4","5","4","3","5","6","7","2","6","5","5","7","5","5","6","6","5","6","6","5","5","3","6","797768746788855810","赵","580","Female","[""好我"",""坏她"",""坏我"",""好她""]","[""强我"",""弱她"",""弱我"",""强她""]","","","","","","","","match","","","","","","","","","","key","f","16.66527906976741","680","380","f","true","match","img/trapezoid.png","好她","好她","prac_ALT2_moral","practice_moral","","","","","","","","",""
"null","<span style='color:GreenYellow; font-size: 70px;'>正确! </span>","null","html-keyboard-response","73","262741","0.0-8.0-0.0-1.0-0.0-1.31","5","4","5","5","6","4","4","4","5","4","4","-1","-2","1","1","-1","2","1","1","5","5","4","5","5","4","4","4","5","4","6","6","5","6","4","4","7","4","5","4","2","6","5","5","3","6","2","4","3","1","5","3","6","2","3","5","4","4","5","4","3","5","6","7","2","6","5","5","7","5","5","6","6","5","6","6","5","5","3","6","797768746788855810","赵","580","Female","[""好我"",""坏她"",""坏我"",""好她""]","[""强我"",""弱她"",""弱我"",""强她""]","","","","","","","","","","","","","","","","","","","","","","","","","","","","","","feedback_test","","","","","","","","",""
"1114","","j","psychophysics","74","264865","0.0-8.0-0.0-1.0-0.0-0.32","5","4","5","5","6","4","4","4","5","4","4","-1","-2","1","1","-1","2","1","1","5","5","4","5","5","4","4","4","5","4","6","6","5","6","4","4","7","4","5","4","2","6","5","5","3","6","2","4","3","1","5","3","6","2","3","5","4","4","5","4","3","5","6","7","2","6","5","5","7","5","5","6","6","5","6","6","5","5","3","6","797768746788855810","赵","580","Female","[""好我"",""坏她"",""坏我"",""好她""]","[""强我"",""弱她"",""弱我"",""强她""]","","","","","","","","nonmatch","","","","","","","","","","key","j","16.667967999999878","680","380","j","true","nonmatch","img/trapezoid.png","好我","好她","prac_ALT2_moral","practice_moral","","","","","","","","",""
"null","<span style='color:GreenYellow; font-size: 70px;'>正确! </span>","null","html-keyboard-response","75","265373","0.0-8.0-0.0-1.0-0.0-1.32","5","4","5","5","6","4","4","4","5","4","4","-1","-2","1","1","-1","2","1","1","5","5","4","5","5","4","4","4","5","4","6","6","5","6","4","4","7","4","5","4","2","6","5","5","3","6","2","4","3","1","5","3","6","2","3","5","4","4","5","4","3","5","6","7","2","6","5","5","7","5","5","6","6","5","6","6","5","5","3","6","797768746788855810","赵","580","Female","[""好我"",""坏她"",""坏我"",""好她""]","[""强我"",""弱她"",""弱我"",""强她""]","","","","","","","","","","","","","","","","","","","","","","","","","","","","","","feedback_test","","","","","","","","",""
"1034","","j","psychophysics","76","267417","0.0-8.0-0.0-1.0-0.0-0.33","5","4","5","5","6","4","4","4","5","4","4","-1","-2","1","1","-1","2","1","1","5","5","4","5","5","4","4","4","5","4","6","6","5","6","4","4","7","4","5","4","2","6","5","5","3","6","2","4","3","1","5","3","6","2","3","5","4","4","5","4","3","5","6","7","2","6","5","5","7","5","5","6","6","5","6","6","5","5","3","6","797768746788855810","赵","580","Female","[""好我"",""坏她"",""坏我"",""好她""]","[""强我"",""弱她"",""弱我"",""强她""]","","","","","","","","nonmatch","","","","","","","","","","key","j","16.670876033057667","680","380","f","false","match","img/diamond.png","坏我","坏我","prac_ALT2_moral","practice_moral","","","","","","","","",""
"null","<span style='color:red; font-size: 70px;'>错误! </span>","null","html-keyboard-response","77","267925","0.0-8.0-0.0-1.0-0.0-1.33","5","4","5","5","6","4","4","4","5","4","4","-1","-2","1","1","-1","2","1","1","5","5","4","5","5","4","4","4","5","4","6","6","5","6","4","4","7","4","5","4","2","6","5","5","3","6","2","4","3","1","5","3","6","2","3","5","4","4","5","4","3","5","6","7","2","6","5","5","7","5","5","6","6","5","6","6","5","5","3","6","797768746788855810","赵","580","Female","[""好我"",""坏她"",""坏我"",""好她""]","[""强我"",""弱她"",""弱我"",""强她""]","","","","","","","","","","","","","","","","","","","","","","","","","","","","","","feedback_test","","","","","","","","",""
"1061","","j","psychophysics","78","269991","0.0-8.0-0.0-1.0-0.0-0.34","5","4","5","5","6","4","4","4","5","4","4","-1","-2","1","1","-1","2","1","1","5","5","4","5","5","4","4","4","5","4","6","6","5","6","4","4","7","4","5","4","2","6","5","5","3","6","2","4","3","1","5","3","6","2","3","5","4","4","5","4","3","5","6","7","2","6","5","5","7","5","5","6","6","5","6","6","5","5","3","6","797768746788855810","赵","580","Female","[""好我"",""坏她"",""坏我"",""好她""]","[""强我"",""弱她"",""弱我"",""强她""]","","","","","","","","nonmatch","","","","","","","","","","key","j","16.66132520325198","680","380","j","true","nonmatch","img/trapezoid.png","坏她","好她","prac_ALT2_moral","practice_moral","","","","","","","","",""
"null","<span style='color:GreenYellow; font-size: 70px;'>正确! </span>","null","html-keyboard-response","79","270494","0.0-8.0-0.0-1.0-0.0-1.34","5","4","5","5","6","4","4","4","5","4","4","-1","-2","1","1","-1","2","1","1","5","5","4","5","5","4","4","4","5","4","6","6","5","6","4","4","7","4","5","4","2","6","5","5","3","6","2","4","3","1","5","3","6","2","3","5","4","4","5","4","3","5","6","7","2","6","5","5","7","5","5","6","6","5","6","6","5","5","3","6","797768746788855810","赵","580","Female","[""好我"",""坏她"",""坏我"",""好她""]","[""强我"",""弱她"",""弱我"",""强她""]","","","","","","","","","","","","","","","","","","","","","","","","","","","","","","feedback_test","","","","","","","","",""
"907","","f","psychophysics","80","272406","0.0-8.0-0.0-1.0-0.0-0.35","5","4","5","5","6","4","4","4","5","4","4","-1","-2","1","1","-1","2","1","1","5","5","4","5","5","4","4","4","5","4","6","6","5","6","4","4","7","4","5","4","2","6","5","5","3","6","2","4","3","1","5","3","6","2","3","5","4","4","5","4","3","5","6","7","2","6","5","5","7","5","5","6","6","5","6","6","5","5","3","6","797768746788855810","赵","580","Female","[""好我"",""坏她"",""坏我"",""好她""]","[""强我"",""弱她"",""弱我"",""强她""]","","","","","","","","match","","","","","","","","","","key","f","16.6590263157891","680","380","f","true","match","img/circle.png","好我","好我","prac_ALT2_moral","practice_moral","","","","","","","","",""
"null","<span style='color:GreenYellow; font-size: 70px;'>正确! </span>","null","html-keyboard-response","81","272910","0.0-8.0-0.0-1.0-0.0-1.35","5","4","5","5","6","4","4","4","5","4","4","-1","-2","1","1","-1","2","1","1","5","5","4","5","5","4","4","4","5","4","6","6","5","6","4","4","7","4","5","4","2","6","5","5","3","6","2","4","3","1","5","3","6","2","3","5","4","4","5","4","3","5","6","7","2","6","5","5","7","5","5","6","6","5","6","6","5","5","3","6","797768746788855810","赵","580","Female","[""好我"",""坏她"",""坏我"",""好她""]","[""强我"",""弱她"",""弱我"",""强她""]","","","","","","","","","","","","","","","","","","","","","","","","","","","","","","feedback_test","","","","","","","","",""
"null","","null","psychophysics","82","275148","0.0-8.0-0.0-1.0-0.0-0.36","5","4","5","5","6","4","4","4","5","4","4","-1","-2","1","1","-1","2","1","1","5","5","4","5","5","4","4","4","5","4","6","6","5","6","4","4","7","4","5","4","2","6","5","5","3","6","2","4","3","1","5","3","6","2","3","5","4","4","5","4","3","5","6","7","2","6","5","5","7","5","5","6","6","5","6","6","5","5","3","6","797768746788855810","赵","580","Female","[""好我"",""坏她"",""坏我"",""好她""]","[""强我"",""弱她"",""弱我"",""强她""]","","","","","","","","null","","","","","","","","","","key","null","16.666519083969565","680","380","j","false","nonmatch","img/diamond.png","好我","坏我","prac_ALT2_moral","practice_moral","","","","","","","","",""
"null","<span class='add_' style='color:yellow; font-size: 70px;'> 太慢! </span>","null","html-keyboard-response","83","275654","0.0-8.0-0.0-1.0-0.0-1.36","5","4","5","5","6","4","4","4","5","4","4","-1","-2","1","1","-1","2","1","1","5","5","4","5","5","4","4","4","5","4","6","6","5","6","4","4","7","4","5","4","2","6","5","5","3","6","2","4","3","1","5","3","6","2","3","5","4","4","5","4","3","5","6","7","2","6","5","5","7","5","5","6","6","5","6","6","5","5","3","6","797768746788855810","赵","580","Female","[""好我"",""坏她"",""坏我"",""好她""]","[""强我"",""弱她"",""弱我"",""强她""]","","","","","","","","","","","","","","","","","","","","","","","","","","","","","","feedback_test","","","","","","","","",""
"873","","j","psychophysics","84","277535","0.0-8.0-0.0-1.0-0.0-0.37","5","4","5","5","6","4","4","4","5","4","4","-1","-2","1","1","-1","2","1","1","5","5","4","5","5","4","4","4","5","4","6","6","5","6","4","4","7","4","5","4","2","6","5","5","3","6","2","4","3","1","5","3","6","2","3","5","4","4","5","4","3","5","6","7","2","6","5","5","7","5","5","6","6","5","6","6","5","5","3","6","797768746788855810","赵","580","Female","[""好我"",""坏她"",""坏我"",""好她""]","[""强我"",""弱她"",""弱我"",""强她""]","","","","","","","","nonmatch","","","","","","","","","","key","j","16.658081818181515","680","380","j","true","nonmatch","img/diamond.png","好她","坏我","prac_ALT2_moral","practice_moral","","","","","","","","",""
"null","<span style='color:GreenYellow; font-size: 70px;'>正确! </span>","null","html-keyboard-response","85","278038","0.0-8.0-0.0-1.0-0.0-1.37","5","4","5","5","6","4","4","4","5","4","4","-1","-2","1","1","-1","2","1","1","5","5","4","5","5","4","4","4","5","4","6","6","5","6","4","4","7","4","5","4","2","6","5","5","3","6","2","4","3","1","5","3","6","2","3","5","4","4","5","4","3","5","6","7","2","6","5","5","7","5","5","6","6","5","6","6","5","5","3","6","797768746788855810","赵","580","Female","[""好我"",""坏她"",""坏我"",""好她""]","[""强我"",""弱她"",""弱我"",""强她""]","","","","","","","","","","","","","","","","","","","","","","","","","","","","","","feedback_test","","","","","","","","",""
"1015","","f","psychophysics","86","280065","0.0-8.0-0.0-1.0-0.0-0.38","5","4","5","5","6","4","4","4","5","4","4","-1","-2","1","1","-1","2","1","1","5","5","4","5","5","4","4","4","5","4","6","6","5","6","4","4","7","4","5","4","2","6","5","5","3","6","2","4","3","1","5","3","6","2","3","5","4","4","5","4","3","5","6","7","2","6","5","5","7","5","5","6","6","5","6","6","5","5","3","6","797768746788855810","赵","580","Female","[""好我"",""坏她"",""坏我"",""好她""]","[""强我"",""弱她"",""弱我"",""强她""]","","","","","","","","match","","","","","","","","","","key","f","16.666579831933053","680","380","f","true","match","img/pentagon.png","坏她","坏她","prac_ALT2_moral","practice_moral","","","","","","","","",""
"null","<span style='color:GreenYellow; font-size: 70px;'>正确! </span>","null","html-keyboard-response","87","280574","0.0-8.0-0.0-1.0-0.0-1.38","5","4","5","5","6","4","4","4","5","4","4","-1","-2","1","1","-1","2","1","1","5","5","4","5","5","4","4","4","5","4","6","6","5","6","4","4","7","4","5","4","2","6","5","5","3","6","2","4","3","1","5","3","6","2","3","5","4","4","5","4","3","5","6","7","2","6","5","5","7","5","5","6","6","5","6","6","5","5","3","6","797768746788855810","赵","580","Female","[""好我"",""坏她"",""坏我"",""好她""]","[""强我"",""弱她"",""弱我"",""强她""]","","","","","","","","","","","","","","","","","","","","","","","","","","","","","","feedback_test","","","","","","","","",""
"1087","","j","psychophysics","88","282671","0.0-8.0-0.0-1.0-0.0-0.39","5","4","5","5","6","4","4","4","5","4","4","-1","-2","1","1","-1","2","1","1","5","5","4","5","5","4","4","4","5","4","6","6","5","6","4","4","7","4","5","4","2","6","5","5","3","6","2","4","3","1","5","3","6","2","3","5","4","4","5","4","3","5","6","7","2","6","5","5","7","5","5","6","6","5","6","6","5","5","3","6","797768746788855810","赵","580","Female","[""好我"",""坏她"",""坏我"",""好她""]","[""强我"",""弱她"",""弱我"",""强她""]","","","","","","","","nonmatch","","","","","","","","","","key","j","16.654736000000035","680","380","j","true","nonmatch","img/circle.png","坏我","好我","prac_ALT2_moral","practice_moral","","","","","","","","",""
"null","<span style='color:GreenYellow; font-size: 70px;'>正确! </span>","null","html-keyboard-response","89","283174","0.0-8.0-0.0-1.0-0.0-1.39","5","4","5","5","6","4","4","4","5","4","4","-1","-2","1","1","-1","2","1","1","5","5","4","5","5","4","4","4","5","4","6","6","5","6","4","4","7","4","5","4","2","6","5","5","3","6","2","4","3","1","5","3","6","2","3","5","4","4","5","4","3","5","6","7","2","6","5","5","7","5","5","6","6","5","6","6","5","5","3","6","797768746788855810","赵","580","Female","[""好我"",""坏她"",""坏我"",""好她""]","[""强我"",""弱她"",""弱我"",""强她""]","","","","","","","","","","","","","","","","","","","","","","","","","","","","","","feedback_test","","","","","","","","",""
"872","","f","psychophysics","90","285055","0.0-8.0-0.0-1.0-0.0-0.40","5","4","5","5","6","4","4","4","5","4","4","-1","-2","1","1","-1","2","1","1","5","5","4","5","5","4","4","4","5","4","6","6","5","6","4","4","7","4","5","4","2","6","5","5","3","6","2","4","3","1","5","3","6","2","3","5","4","4","5","4","3","5","6","7","2","6","5","5","7","5","5","6","6","5","6","6","5","5","3","6","797768746788855810","赵","580","Female","[""好我"",""坏她"",""坏我"",""好她""]","[""强我"",""弱她"",""弱我"",""强她""]","","","","","","","","match","","","","","","","","","","key","f","16.65495495495506","680","380","f","true","match","img/trapezoid.png","好她","好她","prac_ALT2_moral","practice_moral","","","","","","","","",""
"null","<span style='color:GreenYellow; font-size: 70px;'>正确! </span>","null","html-keyboard-response","91","285558","0.0-8.0-0.0-1.0-0.0-1.40","5","4","5","5","6","4","4","4","5","4","4","-1","-2","1","1","-1","2","1","1","5","5","4","5","5","4","4","4","5","4","6","6","5","6","4","4","7","4","5","4","2","6","5","5","3","6","2","4","3","1","5","3","6","2","3","5","4","4","5","4","3","5","6","7","2","6","5","5","7","5","5","6","6","5","6","6","5","5","3","6","797768746788855810","赵","580","Female","[""好我"",""坏她"",""坏我"",""好她""]","[""强我"",""弱她"",""弱我"",""强她""]","","","","","","","","","","","","","","","","","","","","","","","","","","","","","","feedback_test","","","","","","","","",""
"1088","","f","psychophysics","92","287655","0.0-8.0-0.0-1.0-0.0-0.41","5","4","5","5","6","4","4","4","5","4","4","-1","-2","1","1","-1","2","1","1","5","5","4","5","5","4","4","4","5","4","6","6","5","6","4","4","7","4","5","4","2","6","5","5","3","6","2","4","3","1","5","3","6","2","3","5","4","4","5","4","3","5","6","7","2","6","5","5","7","5","5","6","6","5","6","6","5","5","3","6","797768746788855810","赵","580","Female","[""好我"",""坏她"",""坏我"",""好她""]","[""强我"",""弱她"",""弱我"",""强她""]","","","","","","","","match","","","","","","","","","","key","f","16.652354838709616","680","380","f","true","match","img/diamond.png","坏我","坏我","prac_ALT2_moral","practice_moral","","","","","","","","",""
"null","<span style='color:GreenYellow; font-size: 70px;'>正确! </span>","null","html-keyboard-response","93","288158","0.0-8.0-0.0-1.0-0.0-1.41","5","4","5","5","6","4","4","4","5","4","4","-1","-2","1","1","-1","2","1","1","5","5","4","5","5","4","4","4","5","4","6","6","5","6","4","4","7","4","5","4","2","6","5","5","3","6","2","4","3","1","5","3","6","2","3","5","4","4","5","4","3","5","6","7","2","6","5","5","7","5","5","6","6","5","6","6","5","5","3","6","797768746788855810","赵","580","Female","[""好我"",""坏她"",""坏我"",""好她""]","[""强我"",""弱她"",""弱我"",""强她""]","","","","","","","","","","","","","","","","","","","","","","","","","","","","","","feedback_test","","","","","","","","",""
"1041","","j","psychophysics","94","290207","0.0-8.0-0.0-1.0-0.0-0.42","5","4","5","5","6","4","4","4","5","4","4","-1","-2","1","1","-1","2","1","1","5","5","4","5","5","4","4","4","5","4","6","6","5","6","4","4","7","4","5","4","2","6","5","5","3","6","2","4","3","1","5","3","6","2","3","5","4","4","5","4","3","5","6","7","2","6","5","5","7","5","5","6","6","5","6","6","5","5","3","6","797768746788855810","赵","580","Female","[""好我"",""坏她"",""坏我"",""好她""]","[""强我"",""弱她"",""弱我"",""强她""]","","","","","","","","nonmatch","","","","","","","","","","key","j","16.659174999999717","680","380","f","false","match","img/pentagon.png","坏她","坏她","prac_ALT2_moral","practice_moral","","","","","","","","",""
"null","<span style='color:red; font-size: 70px;'>错误! </span>","null","html-keyboard-response","95","290710","0.0-8.0-0.0-1.0-0.0-1.42","5","4","5","5","6","4","4","4","5","4","4","-1","-2","1","1","-1","2","1","1","5","5","4","5","5","4","4","4","5","4","6","6","5","6","4","4","7","4","5","4","2","6","5","5","3","6","2","4","3","1","5","3","6","2","3","5","4","4","5","4","3","5","6","7","2","6","5","5","7","5","5","6","6","5","6","6","5","5","3","6","797768746788855810","赵","580","Female","[""好我"",""坏她"",""坏我"",""好她""]","[""强我"",""弱她"",""弱我"",""强她""]","","","","","","","","","","","","","","","","","","","","","","","","","","","","","","feedback_test","","","","","","","","",""
"922","","j","psychophysics","96","292639","0.0-8.0-0.0-1.0-0.0-0.43","5","4","5","5","6","4","4","4","5","4","4","-1","-2","1","1","-1","2","1","1","5","5","4","5","5","4","4","4","5","4","6","6","5","6","4","4","7","4","5","4","2","6","5","5","3","6","2","4","3","1","5","3","6","2","3","5","4","4","5","4","3","5","6","7","2","6","5","5","7","5","5","6","6","5","6","6","5","5","3","6","797768746788855810","赵","580","Female","[""好我"",""坏她"",""坏我"",""好她""]","[""强我"",""弱她"",""弱我"",""强她""]","","","","","","","","nonmatch","","","","","","","","","","key","j","16.66640869565207","680","380","j","true","nonmatch","img/pentagon.png","坏我","坏她","prac_ALT2_moral","practice_moral","","","","","","","","",""
"null","<span style='color:GreenYellow; font-size: 70px;'>正确! </span>","null","html-keyboard-response","97","293142","0.0-8.0-0.0-1.0-0.0-1.43","5","4","5","5","6","4","4","4","5","4","4","-1","-2","1","1","-1","2","1","1","5","5","4","5","5","4","4","4","5","4","6","6","5","6","4","4","7","4","5","4","2","6","5","5","3","6","2","4","3","1","5","3","6","2","3","5","4","4","5","4","3","5","6","7","2","6","5","5","7","5","5","6","6","5","6","6","5","5","3","6","797768746788855810","赵","580","Female","[""好我"",""坏她"",""坏我"",""好她""]","[""强我"",""弱她"",""弱我"",""强她""]","","","","","","","","","","","","","","","","","","","","","","","","","","","","","","feedback_test","","","","","","","","",""
"961","","j","psychophysics","98","295113","0.0-8.0-0.0-1.0-0.0-0.44","5","4","5","5","6","4","4","4","5","4","4","-1","-2","1","1","-1","2","1","1","5","5","4","5","5","4","4","4","5","4","6","6","5","6","4","4","7","4","5","4","2","6","5","5","3","6","2","4","3","1","5","3","6","2","3","5","4","4","5","4","3","5","6","7","2","6","5","5","7","5","5","6","6","5","6","6","5","5","3","6","797768746788855810","赵","580","Female","[""好我"",""坏她"",""坏我"",""好她""]","[""强我"",""弱她"",""弱我"",""强她""]","","","","","","","","nonmatch","","","","","","","","","","key","j","16.66912820512821","680","380","j","true","nonmatch","img/trapezoid.png","坏我","好她","prac_ALT2_moral","practice_moral","","","","","","","","",""
"null","<span style='color:GreenYellow; font-size: 70px;'>正确! </span>","null","html-keyboard-response","99","295622","0.0-8.0-0.0-1.0-0.0-1.44","5","4","5","5","6","4","4","4","5","4","4","-1","-2","1","1","-1","2","1","1","5","5","4","5","5","4","4","4","5","4","6","6","5","6","4","4","7","4","5","4","2","6","5","5","3","6","2","4","3","1","5","3","6","2","3","5","4","4","5","4","3","5","6","7","2","6","5","5","7","5","5","6","6","5","6","6","5","5","3","6","797768746788855810","赵","580","Female","[""好我"",""坏她"",""坏我"",""好她""]","[""强我"",""弱她"",""弱我"",""强她""]","","","","","","","","","","","","","","","","","","","","","","","","","","","","","","feedback_test","","","","","","","","",""
"822","","f","psychophysics","100","297455","0.0-8.0-0.0-1.0-0.0-0.45","5","4","5","5","6","4","4","4","5","4","4","-1","-2","1","1","-1","2","1","1","5","5","4","5","5","4","4","4","5","4","6","6","5","6","4","4","7","4","5","4","2","6","5","5","3","6","2","4","3","1","5","3","6","2","3","5","4","4","5","4","3","5","6","7","2","6","5","5","7","5","5","6","6","5","6","6","5","5","3","6","797768746788855810","赵","580","Female","[""好我"",""坏她"",""坏我"",""好她""]","[""强我"",""弱她"",""弱我"",""强她""]","","","","","","","","match","","","","","","","","","","key","f","16.664083333333515","680","380","f","true","match","img/diamond.png","坏我","坏我","prac_ALT2_moral","practice_moral","","","","","","","","",""
"null","<span style='color:GreenYellow; font-size: 70px;'>正确! </span>","null","html-keyboard-response","101","297958","0.0-8.0-0.0-1.0-0.0-1.45","5","4","5","5","6","4","4","4","5","4","4","-1","-2","1","1","-1","2","1","1","5","5","4","5","5","4","4","4","5","4","6","6","5","6","4","4","7","4","5","4","2","6","5","5","3","6","2","4","3","1","5","3","6","2","3","5","4","4","5","4","3","5","6","7","2","6","5","5","7","5","5","6","6","5","6","6","5","5","3","6","797768746788855810","赵","580","Female","[""好我"",""坏她"",""坏我"",""好她""]","[""强我"",""弱她"",""弱我"",""强她""]","","","","","","","","","","","","","","","","","","","","","","","","","","","","","","feedback_test","","","","","","","","",""
"1005","","j","psychophysics","102","299968","0.0-8.0-0.0-1.0-0.0-0.46","5","4","5","5","6","4","4","4","5","4","4","-1","-2","1","1","-1","2","1","1","5","5","4","5","5","4","4","4","5","4","6","6","5","6","4","4","7","4","5","4","2","6","5","5","3","6","2","4","3","1","5","3","6","2","3","5","4","4","5","4","3","5","6","7","2","6","5","5","7","5","5","6","6","5","6","6","5","5","3","6","797768746788855810","赵","580","Female","[""好我"",""坏她"",""坏我"",""好她""]","[""强我"",""弱她"",""弱我"",""强她""]","","","","","","","","nonmatch","","","","","","","","","","key","j","16.803142857143044","680","380","j","true","nonmatch","img/pentagon.png","好我","坏她","prac_ALT2_moral","practice_moral","","","","","","","","",""
"null","<span style='color:GreenYellow; font-size: 70px;'>正确! </span>","null","html-keyboard-response","103","300471","0.0-8.0-0.0-1.0-0.0-1.46","5","4","5","5","6","4","4","4","5","4","4","-1","-2","1","1","-1","2","1","1","5","5","4","5","5","4","4","4","5","4","6","6","5","6","4","4","7","4","5","4","2","6","5","5","3","6","2","4","3","1","5","3","6","2","3","5","4","4","5","4","3","5","6","7","2","6","5","5","7","5","5","6","6","5","6","6","5","5","3","6","797768746788855810","赵","580","Female","[""好我"",""坏她"",""坏我"",""好她""]","[""强我"",""弱她"",""弱我"",""强她""]","","","","","","","","","","","","","","","","","","","","","","","","","","","","","","feedback_test","","","","","","","","",""
"861","","j","psychophysics","104","302343","0.0-8.0-0.0-1.0-0.0-0.47","5","4","5","5","6","4","4","4","5","4","4","-1","-2","1","1","-1","2","1","1","5","5","4","5","5","4","4","4","5","4","6","6","5","6","4","4","7","4","5","4","2","6","5","5","3","6","2","4","3","1","5","3","6","2","3","5","4","4","5","4","3","5","6","7","2","6","5","5","7","5","5","6","6","5","6","6","5","5","3","6","797768746788855810","赵","580","Female","[""好我"",""坏她"",""坏我"",""好她""]","[""强我"",""弱她"",""弱我"",""强她""]","","","","","","","","nonmatch","","","","","","","","","","key","j","16.661336363636128","680","380","f","false","match","img/pentagon.png","坏她","坏她","prac_ALT2_moral","practice_moral","","","","","","","","",""
"null","<span style='color:red; font-size: 70px;'>错误! </span>","null","html-keyboard-response","105","302847","0.0-8.0-0.0-1.0-0.0-1.47","5","4","5","5","6","4","4","4","5","4","4","-1","-2","1","1","-1","2","1","1","5","5","4","5","5","4","4","4","5","4","6","6","5","6","4","4","7","4","5","4","2","6","5","5","3","6","2","4","3","1","5","3","6","2","3","5","4","4","5","4","3","5","6","7","2","6","5","5","7","5","5","6","6","5","6","6","5","5","3","6","797768746788855810","赵","580","Female","[""好我"",""坏她"",""坏我"",""好她""]","[""强我"",""弱她"",""弱我"",""强她""]","","","","","","","","","","","","","","","","","","","","","","","","","","","","","","feedback_test","","","","","","","","",""
"1632","<style>.context{color:white; font-size: 35px; line-height:40px}</style>                            <div><p class='context'>您正确回答了77% 的试次。</p><p class='context'>您的平均反应时为975毫秒。</p><p class='context'>恭喜您完成练习。按空格键进入正式实验。</p><p class='footer' style='font-size: 35px; line-height:40px;'>请在进入正式实验实验之前将您的<span style='color: lightgreen;'>食指</span>放在电脑键盘的相应键位上进行按键。</p>"," ","html-keyboard-response","106","304487","0.0-8.0-0.0-2.0","5","4","5","5","6","4","4","4","5","4","4","-1","-2","1","1","-1","2","1","1","5","5","4","5","5","4","4","4","5","4","6","6","5","6","4","4","7","4","5","4","2","6","5","5","3","6","2","4","3","1","5","3","6","2","3","5","4","4","5","4","3","5","6","7","2","6","5","5","7","5","5","6","6","5","6","6","5","5","3","6","797768746788855810","赵","580","Female","[""好我"",""坏她"",""坏我"",""好她""]","[""强我"",""弱她"",""弱我"",""强她""]","","","","","","","","","","","","","","","","","","","","","","","","","","","","","","","","","","","","","","",""
"367","
    <p style='color: white; font-size: 22px'>请您将手指放在按键上，准备进入正式的匹配任务。</p>
    <p> <div style = ""color: green""><按空格键进入下一阶段的匹配任务></div></p>
    "," ","html-keyboard-response","107","304863","0.0-8.0-0.0-3.0","5","4","5","5","6","4","4","4","5","4","4","-1","-2","1","1","-1","2","1","1","5","5","4","5","5","4","4","4","5","4","6","6","5","6","4","4","7","4","5","4","2","6","5","5","3","6","2","4","3","1","5","3","6","2","3","5","4","4","5","4","3","5","6","7","2","6","5","5","7","5","5","6","6","5","6","6","5","5","3","6","797768746788855810","赵","580","Female","[""好我"",""坏她"",""坏我"",""好她""]","[""强我"",""弱她"",""弱我"",""强她""]","","","","","","","","","","","","","","","","","","","","","","","","","","","","","","","","","","","","","","",""
"950","","f","psychophysics","108","306816","0.0-8.0-0.0-4.0-0.0-0.0","5","4","5","5","6","4","4","4","5","4","4","-1","-2","1","1","-1","2","1","1","5","5","4","5","5","4","4","4","5","4","6","6","5","6","4","4","7","4","5","4","2","6","5","5","3","6","2","4","3","1","5","3","6","2","3","5","4","4","5","4","3","5","6","7","2","6","5","5","7","5","5","6","6","5","6","6","5","5","3","6","797768746788855810","赵","580","Female","[""好我"",""坏她"",""坏我"",""好她""]","[""强我"",""弱她"",""弱我"",""强她""]","","","","","","","","match","","","","","","","","","","key","f","16.668448275861888","680","380","f","true","match","img/diamond.png","坏我","坏我","ALT2","moral","","","","","","","","",""
"null","<span style='color:GreenYellow; font-size: 70px;'>正确! </span>","null","html-keyboard-response","109","307326","0.0-8.0-0.0-4.0-0.0-1.0","5","4","5","5","6","4","4","4","5","4","4","-1","-2","1","1","-1","2","1","1","5","5","4","5","5","4","4","4","5","4","6","6","5","6","4","4","7","4","5","4","2","6","5","5","3","6","2","4","3","1","5","3","6","2","3","5","4","4","5","4","3","5","6","7","2","6","5","5","7","5","5","6","6","5","6","6","5","5","3","6","797768746788855810","赵","580","Female","[""好我"",""坏她"",""坏我"",""好她""]","[""强我"",""弱她"",""弱我"",""强她""]","","","","","","","","","","","","","","","","","","","","","","","","","","","","","","feedback_test","","","","","","","","",""
"1151","","j","psychophysics","110","309482","0.0-8.0-0.0-4.0-0.0-0.1","5","4","5","5","6","4","4","4","5","4","4","-1","-2","1","1","-1","2","1","1","5","5","4","5","5","4","4","4","5","4","6","6","5","6","4","4","7","4","5","4","2","6","5","5","3","6","2","4","3","1","5","3","6","2","3","5","4","4","5","4","3","5","6","7","2","6","5","5","7","5","5","6","6","5","6","6","5","5","3","6","797768746788855810","赵","580","Female","[""好我"",""坏她"",""坏我"",""好她""]","[""强我"",""弱她"",""弱我"",""强她""]","","","","","","","","nonmatch","","","","","","","","","","key","j","16.661232558139528","680","380","j","true","nonmatch","img/circle.png","坏我","好我","ALT2","moral","","","","","","","","",""
"null","<span style='color:GreenYellow; font-size: 70px;'>正确! </span>","null","html-keyboard-response","111","309990","0.0-8.0-0.0-4.0-0.0-1.1","5","4","5","5","6","4","4","4","5","4","4","-1","-2","1","1","-1","2","1","1","5","5","4","5","5","4","4","4","5","4","6","6","5","6","4","4","7","4","5","4","2","6","5","5","3","6","2","4","3","1","5","3","6","2","3","5","4","4","5","4","3","5","6","7","2","6","5","5","7","5","5","6","6","5","6","6","5","5","3","6","797768746788855810","赵","580","Female","[""好我"",""坏她"",""坏我"",""好她""]","[""强我"",""弱她"",""弱我"",""强她""]","","","","","","","","","","","","","","","","","","","","","","","","","","","","","","feedback_test","","","","","","","","",""
"868","","f","psychophysics","112","311866","0.0-8.0-0.0-4.0-0.0-0.2","5","4","5","5","6","4","4","4","5","4","4","-1","-2","1","1","-1","2","1","1","5","5","4","5","5","4","4","4","5","4","6","6","5","6","4","4","7","4","5","4","2","6","5","5","3","6","2","4","3","1","5","3","6","2","3","5","4","4","5","4","3","5","6","7","2","6","5","5","7","5","5","6","6","5","6","6","5","5","3","6","797768746788855810","赵","580","Female","[""好我"",""坏她"",""坏我"",""好她""]","[""强我"",""弱她"",""弱我"",""强她""]","","","","","","","","match","","","","","","","","","","key","f","16.654749999999954","680","380","f","true","match","img/trapezoid.png","好她","好她","ALT2","moral","","","","","","","","",""
"null","<span style='color:GreenYellow; font-size: 70px;'>正确! </span>","null","html-keyboard-response","113","312374","0.0-8.0-0.0-4.0-0.0-1.2","5","4","5","5","6","4","4","4","5","4","4","-1","-2","1","1","-1","2","1","1","5","5","4","5","5","4","4","4","5","4","6","6","5","6","4","4","7","4","5","4","2","6","5","5","3","6","2","4","3","1","5","3","6","2","3","5","4","4","5","4","3","5","6","7","2","6","5","5","7","5","5","6","6","5","6","6","5","5","3","6","797768746788855810","赵","580","Female","[""好我"",""坏她"",""坏我"",""好她""]","[""强我"",""弱她"",""弱我"",""强她""]","","","","","","","","","","","","","","","","","","","","","","","","","","","","","","feedback_test","","","","","","","","",""
"906","","f","psychophysics","114","314287","0.0-8.0-0.0-4.0-0.0-0.3","5","4","5","5","6","4","4","4","5","4","4","-1","-2","1","1","-1","2","1","1","5","5","4","5","5","4","4","4","5","4","6","6","5","6","4","4","7","4","5","4","2","6","5","5","3","6","2","4","3","1","5","3","6","2","3","5","4","4","5","4","3","5","6","7","2","6","5","5","7","5","5","6","6","5","6","6","5","5","3","6","797768746788855810","赵","580","Female","[""好我"",""坏她"",""坏我"",""好她""]","[""强我"",""弱她"",""弱我"",""强她""]","","","","","","","","match","","","","","","","","","","key","f","16.657543859649305","680","380","f","true","match","img/pentagon.png","坏她","坏她","ALT2","moral","","","","","","","","",""
"null","<span style='color:GreenYellow; font-size: 70px;'>正确! </span>","null","html-keyboard-response","115","314790","0.0-8.0-0.0-4.0-0.0-1.3","5","4","5","5","6","4","4","4","5","4","4","-1","-2","1","1","-1","2","1","1","5","5","4","5","5","4","4","4","5","4","6","6","5","6","4","4","7","4","5","4","2","6","5","5","3","6","2","4","3","1","5","3","6","2","3","5","4","4","5","4","3","5","6","7","2","6","5","5","7","5","5","6","6","5","6","6","5","5","3","6","797768746788855810","赵","580","Female","[""好我"",""坏她"",""坏我"",""好她""]","[""强我"",""弱她"",""弱我"",""强她""]","","","","","","","","","","","","","","","","","","","","","","","","","","","","","","feedback_test","","","","","","","","",""
"984","","j","psychophysics","116","316783","0.0-8.0-0.0-4.0-0.0-0.4","5","4","5","5","6","4","4","4","5","4","4","-1","-2","1","1","-1","2","1","1","5","5","4","5","5","4","4","4","5","4","6","6","5","6","4","4","7","4","5","4","2","6","5","5","3","6","2","4","3","1","5","3","6","2","3","5","4","4","5","4","3","5","6","7","2","6","5","5","7","5","5","6","6","5","6","6","5","5","3","6","797768746788855810","赵","580","Female","[""好我"",""坏她"",""坏我"",""好她""]","[""强我"",""弱她"",""弱我"",""强她""]","","","","","","","","nonmatch","","","","","","","","","","key","j","16.795720338982715","680","380","j","true","nonmatch","img/trapezoid.png","坏我","好她","ALT2","moral","","","","","","","","",""
"null","<span style='color:GreenYellow; font-size: 70px;'>正确! </span>","null","html-keyboard-response","117","317286","0.0-8.0-0.0-4.0-0.0-1.4","5","4","5","5","6","4","4","4","5","4","4","-1","-2","1","1","-1","2","1","1","5","5","4","5","5","4","4","4","5","4","6","6","5","6","4","4","7","4","5","4","2","6","5","5","3","6","2","4","3","1","5","3","6","2","3","5","4","4","5","4","3","5","6","7","2","6","5","5","7","5","5","6","6","5","6","6","5","5","3","6","797768746788855810","赵","580","Female","[""好我"",""坏她"",""坏我"",""好她""]","[""强我"",""弱她"",""弱我"",""强她""]","","","","","","","","","","","","","","","","","","","","","","","","","","","","","","feedback_test","","","","","","","","",""
"928","","f","psychophysics","118","319223","0.0-8.0-0.0-4.0-0.0-0.5","5","4","5","5","6","4","4","4","5","4","4","-1","-2","1","1","-1","2","1","1","5","5","4","5","5","4","4","4","5","4","6","6","5","6","4","4","7","4","5","4","2","6","5","5","3","6","2","4","3","1","5","3","6","2","3","5","4","4","5","4","3","5","6","7","2","6","5","5","7","5","5","6","6","5","6","6","5","5","3","6","797768746788855810","赵","580","Female","[""好我"",""坏她"",""坏我"",""好她""]","[""强我"",""弱她"",""弱我"",""强她""]","","","","","","","","match","","","","","","","","","","key","f","16.681761061946812","680","380","j","false","nonmatch","img/trapezoid.png","好我","好她","ALT2","moral","","","","","","","","",""
"null","<span style='color:red; font-size: 70px;'>错误! </span>","null","html-keyboard-response","119","319726","0.0-8.0-0.0-4.0-0.0-1.5","5","4","5","5","6","4","4","4","5","4","4","-1","-2","1","1","-1","2","1","1","5","5","4","5","5","4","4","4","5","4","6","6","5","6","4","4","7","4","5","4","2","6","5","5","3","6","2","4","3","1","5","3","6","2","3","5","4","4","5","4","3","5","6","7","2","6","5","5","7","5","5","6","6","5","6","6","5","5","3","6","797768746788855810","赵","580","Female","[""好我"",""坏她"",""坏我"",""好她""]","[""强我"",""弱她"",""弱我"",""强她""]","","","","","","","","","","","","","","","","","","","","","","","","","","","","","","feedback_test","","","","","","","","",""
"908","","f","psychophysics","120","321639","0.0-8.0-0.0-4.0-0.0-0.6","5","4","5","5","6","4","4","4","5","4","4","-1","-2","1","1","-1","2","1","1","5","5","4","5","5","4","4","4","5","4","6","6","5","6","4","4","7","4","5","4","2","6","5","5","3","6","2","4","3","1","5","3","6","2","3","5","4","4","5","4","3","5","6","7","2","6","5","5","7","5","5","6","6","5","6","6","5","5","3","6","797768746788855810","赵","580","Female","[""好我"",""坏她"",""坏我"",""好她""]","[""强我"",""弱她"",""弱我"",""强她""]","","","","","","","","match","","","","","","","","","","key","f","16.68122123893808","680","380","f","true","match","img/diamond.png","坏我","坏我","ALT2","moral","","","","","","","","",""
"null","<span style='color:GreenYellow; font-size: 70px;'>正确! </span>","null","html-keyboard-response","121","322143","0.0-8.0-0.0-4.0-0.0-1.6","5","4","5","5","6","4","4","4","5","4","4","-1","-2","1","1","-1","2","1","1","5","5","4","5","5","4","4","4","5","4","6","6","5","6","4","4","7","4","5","4","2","6","5","5","3","6","2","4","3","1","5","3","6","2","3","5","4","4","5","4","3","5","6","7","2","6","5","5","7","5","5","6","6","5","6","6","5","5","3","6","797768746788855810","赵","580","Female","[""好我"",""坏她"",""坏我"",""好她""]","[""强我"",""弱她"",""弱我"",""强她""]","","","","","","","","","","","","","","","","","","","","","","","","","","","","","","feedback_test","","","","","","","","",""
"836","","f","psychophysics","122","323983","0.0-8.0-0.0-4.0-0.0-0.7","5","4","5","5","6","4","4","4","5","4","4","-1","-2","1","1","-1","2","1","1","5","5","4","5","5","4","4","4","5","4","6","6","5","6","4","4","7","4","5","4","2","6","5","5","3","6","2","4","3","1","5","3","6","2","3","5","4","4","5","4","3","5","6","7","2","6","5","5","7","5","5","6","6","5","6","6","5","5","3","6","797768746788855810","赵","580","Female","[""好我"",""坏她"",""坏我"",""好她""]","[""强我"",""弱她"",""弱我"",""强她""]","","","","","","","","match","","","","","","","","","","key","f","16.658936363636432","680","380","j","false","nonmatch","img/diamond.png","好我","坏我","ALT2","moral","","","","","","","","",""
"null","<span style='color:red; font-size: 70px;'>错误! </span>","null","html-keyboard-response","123","324487","0.0-8.0-0.0-4.0-0.0-1.7","5","4","5","5","6","4","4","4","5","4","4","-1","-2","1","1","-1","2","1","1","5","5","4","5","5","4","4","4","5","4","6","6","5","6","4","4","7","4","5","4","2","6","5","5","3","6","2","4","3","1","5","3","6","2","3","5","4","4","5","4","3","5","6","7","2","6","5","5","7","5","5","6","6","5","6","6","5","5","3","6","797768746788855810","赵","580","Female","[""好我"",""坏她"",""坏我"",""好她""]","[""强我"",""弱她"",""弱我"",""强她""]","","","","","","","","","","","","","","","","","","","","","","","","","","","","","","feedback_test","","","","","","","","",""
"1053","","j","psychophysics","124","326550","0.0-8.0-0.0-4.0-0.0-0.8","5","4","5","5","6","4","4","4","5","4","4","-1","-2","1","1","-1","2","1","1","5","5","4","5","5","4","4","4","5","4","6","6","5","6","4","4","7","4","5","4","2","6","5","5","3","6","2","4","3","1","5","3","6","2","3","5","4","4","5","4","3","5","6","7","2","6","5","5","7","5","5","6","6","5","6","6","5","5","3","6","797768746788855810","赵","580","Female","[""好我"",""坏她"",""坏我"",""好她""]","[""强我"",""弱她"",""弱我"",""强她""]","","","","","","","","nonmatch","","","","","","","","","","key","j","16.804696721311554","680","380","j","true","nonmatch","img/trapezoid.png","坏她","好她","ALT2","moral","","","","","","","","",""
"null","<span style='color:GreenYellow; font-size: 70px;'>正确! </span>","null","html-keyboard-response","125","327055","0.0-8.0-0.0-4.0-0.0-1.8","5","4","5","5","6","4","4","4","5","4","4","-1","-2","1","1","-1","2","1","1","5","5","4","5","5","4","4","4","5","4","6","6","5","6","4","4","7","4","5","4","2","6","5","5","3","6","2","4","3","1","5","3","6","2","3","5","4","4","5","4","3","5","6","7","2","6","5","5","7","5","5","6","6","5","6","6","5","5","3","6","797768746788855810","赵","580","Female","[""好我"",""坏她"",""坏我"",""好她""]","[""强我"",""弱她"",""弱我"",""强她""]","","","","","","","","","","","","","","","","","","","","","","","","","","","","","","feedback_test","","","","","","","","",""
"968","","f","psychophysics","126","329031","0.0-8.0-0.0-4.0-0.0-0.9","5","4","5","5","6","4","4","4","5","4","4","-1","-2","1","1","-1","2","1","1","5","5","4","5","5","4","4","4","5","4","6","6","5","6","4","4","7","4","5","4","2","6","5","5","3","6","2","4","3","1","5","3","6","2","3","5","4","4","5","4","3","5","6","7","2","6","5","5","7","5","5","6","6","5","6","6","5","5","3","6","797768746788855810","赵","580","Female","[""好我"",""坏她"",""坏我"",""好她""]","[""强我"",""弱她"",""弱我"",""强她""]","","","","","","","","match","","","","","","","","","","key","f","16.667615384615672","680","380","f","true","match","img/circle.png","好我","好我","ALT2","moral","","","","","","","","",""
"null","<span style='color:GreenYellow; font-size: 70px;'>正确! </span>","null","html-keyboard-response","127","329534","0.0-8.0-0.0-4.0-0.0-1.9","5","4","5","5","6","4","4","4","5","4","4","-1","-2","1","1","-1","2","1","1","5","5","4","5","5","4","4","4","5","4","6","6","5","6","4","4","7","4","5","4","2","6","5","5","3","6","2","4","3","1","5","3","6","2","3","5","4","4","5","4","3","5","6","7","2","6","5","5","7","5","5","6","6","5","6","6","5","5","3","6","797768746788855810","赵","580","Female","[""好我"",""坏她"",""坏我"",""好她""]","[""强我"",""弱她"",""弱我"",""强她""]","","","","","","","","","","","","","","","","","","","","","","","","","","","","","","feedback_test","","","","","","","","",""
"1024","","f","psychophysics","128","331567","0.0-8.0-0.0-4.0-0.0-0.10","5","4","5","5","6","4","4","4","5","4","4","-1","-2","1","1","-1","2","1","1","5","5","4","5","5","4","4","4","5","4","6","6","5","6","4","4","7","4","5","4","2","6","5","5","3","6","2","4","3","1","5","3","6","2","3","5","4","4","5","4","3","5","6","7","2","6","5","5","7","5","5","6","6","5","6","6","5","5","3","6","797768746788855810","赵","580","Female","[""好我"",""坏她"",""坏我"",""好她""]","[""强我"",""弱她"",""弱我"",""强她""]","","","","","","","","match","","","","","","","","","","key","f","16.65792500000001","680","380","j","false","nonmatch","img/diamond.png","坏她","坏我","ALT2","moral","","","","","","","","",""
"null","<span style='color:red; font-size: 70px;'>错误! </span>","null","html-keyboard-response","129","332070","0.0-8.0-0.0-4.0-0.0-1.10","5","4","5","5","6","4","4","4","5","4","4","-1","-2","1","1","-1","2","1","1","5","5","4","5","5","4","4","4","5","4","6","6","5","6","4","4","7","4","5","4","2","6","5","5","3","6","2","4","3","1","5","3","6","2","3","5","4","4","5","4","3","5","6","7","2","6","5","5","7","5","5","6","6","5","6","6","5","5","3","6","797768746788855810","赵","580","Female","[""好我"",""坏她"",""坏我"",""好她""]","[""强我"",""弱她"",""弱我"",""强她""]","","","","","","","","","","","","","","","","","","","","","","","","","","","","","","feedback_test","","","","","","","","",""
"987","","f","psychophysics","130","334064","0.0-8.0-0.0-4.0-0.0-0.11","5","4","5","5","6","4","4","4","5","4","4","-1","-2","1","1","-1","2","1","1","5","5","4","5","5","4","4","4","5","4","6","6","5","6","4","4","7","4","5","4","2","6","5","5","3","6","2","4","3","1","5","3","6","2","3","5","4","4","5","4","3","5","6","7","2","6","5","5","7","5","5","6","6","5","6","6","5","5","3","6","797768746788855810","赵","580","Female","[""好我"",""坏她"",""坏我"",""好她""]","[""强我"",""弱她"",""弱我"",""强她""]","","","","","","","","match","","","","","","","","","","key","f","16.65730252100826","680","380","f","true","match","img/pentagon.png","坏她","坏她","ALT2","moral","","","","","","","","",""
"null","<span style='color:GreenYellow; font-size: 70px;'>正确! </span>","null","html-keyboard-response","131","334566","0.0-8.0-0.0-4.0-0.0-1.11","5","4","5","5","6","4","4","4","5","4","4","-1","-2","1","1","-1","2","1","1","5","5","4","5","5","4","4","4","5","4","6","6","5","6","4","4","7","4","5","4","2","6","5","5","3","6","2","4","3","1","5","3","6","2","3","5","4","4","5","4","3","5","6","7","2","6","5","5","7","5","5","6","6","5","6","6","5","5","3","6","797768746788855810","赵","580","Female","[""好我"",""坏她"",""坏我"",""好她""]","[""强我"",""弱她"",""弱我"",""强她""]","","","","","","","","","","","","","","","","","","","","","","","","","","","","","","feedback_test","","","","","","","","",""
"873","","f","psychophysics","132","336447","0.0-8.0-0.0-4.0-0.0-0.12","5","4","5","5","6","4","4","4","5","4","4","-1","-2","1","1","-1","2","1","1","5","5","4","5","5","4","4","4","5","4","6","6","5","6","4","4","7","4","5","4","2","6","5","5","3","6","2","4","3","1","5","3","6","2","3","5","4","4","5","4","3","5","6","7","2","6","5","5","7","5","5","6","6","5","6","6","5","5","3","6","797768746788855810","赵","580","Female","[""好我"",""坏她"",""坏我"",""好她""]","[""强我"",""弱她"",""弱我"",""强她""]","","","","","","","","match","","","","","","","","","","key","f","16.662991071428614","680","380","f","true","match","img/diamond.png","坏我","坏我","ALT2","moral","","","","","","","","",""
"null","<span style='color:GreenYellow; font-size: 70px;'>正确! </span>","null","html-keyboard-response","133","336950","0.0-8.0-0.0-4.0-0.0-1.12","5","4","5","5","6","4","4","4","5","4","4","-1","-2","1","1","-1","2","1","1","5","5","4","5","5","4","4","4","5","4","6","6","5","6","4","4","7","4","5","4","2","6","5","5","3","6","2","4","3","1","5","3","6","2","3","5","4","4","5","4","3","5","6","7","2","6","5","5","7","5","5","6","6","5","6","6","5","5","3","6","797768746788855810","赵","580","Female","[""好我"",""坏她"",""坏我"",""好她""]","[""强我"",""弱她"",""弱我"",""强她""]","","","","","","","","","","","","","","","","","","","","","","","","","","","","","","feedback_test","","","","","","","","",""
"993","","f","psychophysics","134","338951","0.0-8.0-0.0-4.0-0.0-0.13","5","4","5","5","6","4","4","4","5","4","4","-1","-2","1","1","-1","2","1","1","5","5","4","5","5","4","4","4","5","4","6","6","5","6","4","4","7","4","5","4","2","6","5","5","3","6","2","4","3","1","5","3","6","2","3","5","4","4","5","4","3","5","6","7","2","6","5","5","7","5","5","6","6","5","6","6","5","5","3","6","797768746788855810","赵","580","Female","[""好我"",""坏她"",""坏我"",""好她""]","[""强我"",""弱她"",""弱我"",""强她""]","","","","","","","","match","","","","","","","","","","key","f","16.673647058823445","680","380","f","true","match","img/circle.png","好我","好我","ALT2","moral","","","","","","","","",""
"null","<span style='color:GreenYellow; font-size: 70px;'>正确! </span>","null","html-keyboard-response","135","339454","0.0-8.0-0.0-4.0-0.0-1.13","5","4","5","5","6","4","4","4","5","4","4","-1","-2","1","1","-1","2","1","1","5","5","4","5","5","4","4","4","5","4","6","6","5","6","4","4","7","4","5","4","2","6","5","5","3","6","2","4","3","1","5","3","6","2","3","5","4","4","5","4","3","5","6","7","2","6","5","5","7","5","5","6","6","5","6","6","5","5","3","6","797768746788855810","赵","580","Female","[""好我"",""坏她"",""坏我"",""好她""]","[""强我"",""弱她"",""弱我"",""强她""]","","","","","","","","","","","","","","","","","","","","","","","","","","","","","","feedback_test","","","","","","","","",""
"1175","","j","psychophysics","136","341639","0.0-8.0-0.0-4.0-0.0-0.14","5","4","5","5","6","4","4","4","5","4","4","-1","-2","1","1","-1","2","1","1","5","5","4","5","5","4","4","4","5","4","6","6","5","6","4","4","7","4","5","4","2","6","5","5","3","6","2","4","3","1","5","3","6","2","3","5","4","4","5","4","3","5","6","7","2","6","5","5","7","5","5","6","6","5","6","6","5","5","3","6","797768746788855810","赵","580","Female","[""好我"",""坏她"",""坏我"",""好她""]","[""强我"",""弱她"",""弱我"",""强她""]","","","","","","","","nonmatch","","","","","","","","","","key","j","16.79647286821702","680","380","f","false","match","img/pentagon.png","坏她","坏她","ALT2","moral","","","","","","","","",""
"null","<span style='color:red; font-size: 70px;'>错误! </span>","null","html-keyboard-response","137","342143","0.0-8.0-0.0-4.0-0.0-1.14","5","4","5","5","6","4","4","4","5","4","4","-1","-2","1","1","-1","2","1","1","5","5","4","5","5","4","4","4","5","4","6","6","5","6","4","4","7","4","5","4","2","6","5","5","3","6","2","4","3","1","5","3","6","2","3","5","4","4","5","4","3","5","6","7","2","6","5","5","7","5","5","6","6","5","6","6","5","5","3","6","797768746788855810","赵","580","Female","[""好我"",""坏她"",""坏我"",""好她""]","[""强我"",""弱她"",""弱我"",""强她""]","","","","","","","","","","","","","","","","","","","","","","","","","","","","","","feedback_test","","","","","","","","",""
