"rt","stimulus","response","trial_type","trial_index","time_elapsed","internal_node_id","swb_1","swb_2","swb_3","swb_4","swb_5","LOT_1","LOT_2","LOT_3","LOT_4","LOT_5","LOT_6","IPC_1","IPC_2","IPC_3","IPC_4","IPC_5","IPC_6","IPC_7","IPC_8","MorIden_1","MorIden_2","MorIden_3","MorIden_4","MorIden_5","MorIden_6","MorIden_7","MorIden_8","MorIden_9","MorIden_10","moralSeImag_1","moralSeImag_2","moralSeImag_3","moralSeImag_4","moralSeImag_5","moralSeImag_6","moralSeImag_7","moralSeImag_8","moralSeImag_9","sde_1","sde_2","sde_3","sde_4","sde_5","sde_6","sde_7","sde_8","sde_9","sde_10","trap2","sde_11","sde_12","sde_13","sde_14","sde_15","sde_16","sde_17","sde_18","sde_19","sde_20","IM_1","IM_2","IM_3","IM_4","IM_5","IM_6","IM_7","IM_8","IM_9","IM_10","IM_11","IM_12","IM_13","IM_14","IM_15","IM_16","IM_17","IM_18","IM_19","IM_20","subj_idx","friend_name","ParticipantID","Sex","Word","Word2","value","success","timeout","failed_images","failed_audio","failed_video","user_agent","responses","item_order","radio_event_ids","radio_event_times","key_event_times","mouse_event_times","straightlining","zigzagging","honeypot","task_id","screen_id","time_stamp","response_type","key_press","avg_frame_time","center_x","center_y","person","word","valence","domain","math","correct_response","correct","status","view_history","identity","duration","Image","condition","question_order","trap2_item"
"1415","
   <p><div style='color:white; font-size: 25px'>您好，欢迎参加本次实验。</div></p>
   <p><div style='color:white; font-size: 25px'>为充分保障您的权利，请确保您已经知晓并同意《参与实验同意书》以及《数据公开知情同意书》。</div></p>
   <p><div style='color:white; font-size: 25px'>如果您未见过上述内容，请咨询实验员。</div></p>
   <p style='color:white; font-size: 25px'>如果您选择继续实验，则表示您已经清楚两份知情同意书的内容并同意。</p>
   <p><div style = ""color: pink;font-size:30px;"">请确保您记得day0的实验编号，您将在本次实验输入该编号，若您忘记，请咨询实验员后作答。</div></p>
   <p><div style = ""color:lightblue;font-size:25px;"">请您尽可能认真地作答，我们将依据您在各问卷和按键任务中的作答质量发放报酬。</div></p>
   <p> <div style = ""color: green""><按空格键至下页></div> </p>
   "," ","html-keyboard-response","0","1418","0.0-0.0","6","5","6","5","4","5","4","4","5","5","5","1","-1","-2","2","-1","1","1","0","5","4","5","5","5","4","3","3","4","4","5","6","4","4","2","3","3","6","4","5","1","3","3","6","1","2","2","4","3","1","2","1","5","2","2","5","2","4","5","5","1","3","2","1","1","3","2","7","3","7","2","2","3","1","2","2","4","3","1","2","798933752469397506","马","325","Female","[""好她"",""好我"",""坏她"",""坏我""]","[""强她"",""强我"",""弱她"",""弱我""]","","","","","","","","","","","","","","","","","","","","","","","","","","","","","","","","","","","","","","",""
"","","","call-function","1","1418","0.0-1.0-0.0","6","5","6","5","4","5","4","4","5","5","5","1","-1","-2","2","-1","1","1","0","5","4","5","5","5","4","3","3","4","4","5","6","4","4","2","3","3","6","4","5","1","3","3","6","1","2","2","4","3","1","2","1","5","2","2","5","2","4","5","5","1","3","2","1","1","3","2","7","3","7","2","2","3","1","2","2","4","3","1","2","798933752469397506","马","325","Female","[""好她"",""好我"",""坏她"",""坏我""]","[""强她"",""强我"",""弱她"",""弱我""]","","","","","","","","","","","","","","","","","","","","","","","","","","","","","","","","","","","","","","",""
"45058","","[{""name"":""Sex"",""value"":""1""},{""name"":""friend_name"",""value"":""马""},{""name"":""ParticipantID"",""value"":""325""}]","survey-html-form","2","46477","0.0-1.0-1.0","6","5","6","5","4","5","4","4","5","5","5","1","-1","-2","2","-1","1","1","0","5","4","5","5","5","4","3","3","4","4","5","6","4","4","2","3","3","6","4","5","1","3","3","6","1","2","2","4","3","1","2","1","5","2","2","5","2","4","5","5","1","3","2","1","1","3","2","7","3","7","2","2","3","1","2","2","4","3","1","2","798933752469397506","马","325","Female","[""好她"",""好我"",""坏她"",""坏我""]","[""强她"",""强我"",""弱她"",""弱我""]","","","","","","","","","","","","","","","","","","","","","","","","","","","","","","","","","","","","","","",""
"","","","preload","3","46847","0.0-2.0","6","5","6","5","4","5","4","4","5","5","5","1","-1","-2","2","-1","1","1","0","5","4","5","5","5","4","3","3","4","4","5","6","4","4","2","3","3","6","4","5","1","3","3","6","1","2","2","4","3","1","2","1","5","2","2","5","2","4","5","5","1","3","2","1","1","3","2","7","3","7","2","2","3","1","2","2","4","3","1","2","798933752469397506","马","325","Female","[""好她"",""好我"",""坏她"",""坏我""]","[""强她"",""强我"",""弱她"",""弱我""]","","true","false","[]","[]","[]","","","","","","","","","","","","","","","","","","","","","","","","","","","","","","","","",""
"","","","fullscreen","4","47847","0.0-3.0","6","5","6","5","4","5","4","4","5","5","5","1","-1","-2","2","-1","1","1","0","5","4","5","5","5","4","3","3","4","4","5","6","4","4","2","3","3","6","4","5","1","3","3","6","1","2","2","4","3","1","2","1","5","2","2","5","2","4","5","5","1","3","2","1","1","3","2","7","3","7","2","2","3","1","2","2","4","3","1","2","798933752469397506","马","325","Female","[""好她"",""好我"",""坏她"",""坏我""]","[""强她"",""强我"",""弱她"",""弱我""]","","true","","","","","","","","","","","","","","","","","","","","","","","","","","","","","","","","","","","","",""
"12239","","{""Q01"":""6"",""Q02"":""5"",""Q03"":""6"",""Q04"":""5"",""Q05"":""4""}","survey-template","5","60089","0.0-4.0","6","5","6","5","4","5","4","4","5","5","5","1","-1","-2","2","-1","1","1","0","5","4","5","5","5","4","3","3","4","4","5","6","4","4","2","3","3","6","4","5","1","3","3","6","1","2","2","4","3","1","2","1","5","2","2","5","2","4","5","5","1","3","2","1","1","3","2","7","3","7","2","2","3","1","2","2","4","3","1","2","798933752469397506","马","325","Female","[""好她"",""好我"",""坏她"",""坏我""]","[""强她"",""强我"",""弱她"",""弱我""]","","","","","","","","{""Q01"":""6"",""Q02"":""5"",""Q03"":""6"",""Q04"":""5"",""Q05"":""4""}","[0,1,2,3,4]","[""Q01"",""Q02"",""Q03"",""Q04"",""Q05""]","[4749,5777,7972,9786,11322]","[]","[4749,5777,6851,7972,9014,9786,10834,11322,12239]","0.4","1","0","","","","","","","","","","","","","","","","","","","","","","",""
"11201","","{""Q01"":""5"",""Q02"":""4"",""Q03"":""4"",""Q04"":""5"",""Q05"":""5"",""Q06"":""5""}","survey-template","6","71291","0.0-5.0","6","5","6","5","4","5","4","4","5","5","5","1","-1","-2","2","-1","1","1","0","5","4","5","5","5","4","3","3","4","4","5","6","4","4","2","3","3","6","4","5","1","3","3","6","1","2","2","4","3","1","2","1","5","2","2","5","2","4","5","5","1","3","2","1","1","3","2","7","3","7","2","2","3","1","2","2","4","3","1","2","798933752469397506","马","325","Female","[""好她"",""好我"",""坏她"",""坏我""]","[""强她"",""强我"",""弱她"",""弱我""]","","","","","","","","{""Q01"":""5"",""Q02"":""4"",""Q03"":""4"",""Q04"":""5"",""Q05"":""5"",""Q06"":""5""}","[0,1,2,3,4,5]","[""Q01"",""Q02"",""Q03"",""Q04"",""Q05"",""Q06""]","[1942,4923,5904,7503,8363,10425]","[]","[1942,3938,4923,5904,7503,8363,9887,10425,11201]","0.3333333333333333","0.2","0","","","","","","","","","","","","","","","","","","","","","","",""
"20352","","{""Q01"":""1"",""Q02"":""-1"",""Q03"":""-2"",""Q04"":""2"",""Q05"":""-1"",""Q06"":""1"",""Q07"":""1"",""Q08"":""0""}","survey-template","7","91644","0.0-6.0","6","5","6","5","4","5","4","4","5","5","5","1","-1","-2","2","-1","1","1","0","5","4","5","5","5","4","3","3","4","4","5","6","4","4","2","3","3","6","4","5","1","3","3","6","1","2","2","4","3","1","2","1","5","2","2","5","2","4","5","5","1","3","2","1","1","3","2","7","3","7","2","2","3","1","2","2","4","3","1","2","798933752469397506","马","325","Female","[""好她"",""好我"",""坏她"",""坏我""]","[""强她"",""强我"",""弱她"",""弱我""]","","","","","","","","{""Q01"":""1"",""Q02"":""-1"",""Q03"":""-2"",""Q04"":""2"",""Q05"":""-1"",""Q06"":""1"",""Q07"":""1"",""Q08"":""0""}","[0,1,2,3,4,5,6,7]","[""Q01"",""Q02"",""Q03"",""Q04"",""Q05"",""Q06"",""Q07"",""Q07"",""Q08""]","[4380,5592,8809,10457,12945,14804,16464,18738,19499]","[]","[2775,3643,4380,5592,8377,8809,10457,12410,12945,14804,16464,18175,18738,19499,20352]","0.375","0.2857142857142857","0","","","","","","","","","","","","","","","","","","","","","","",""
"169177","
    <p><div style='color:white;font-size:35px; line-height:20px;'>词汇评估任务</div></p><br>
    <p><div style='color:white;font-size:25px; line-height:20px;'>请再次回忆该亲密的朋友，你们至少2年前就认识了，并且最近2年经常见面。</div></p>
    <p><div style='color:white;font-size:25px; line-height:20px;'>在本实验中，您将会看到一些形容词。</div></p>
    <p><div style='color:yellow;font-size:25px; line-height:20px;'>您的任务是判断这些形容词是否符合对您自己或您的朋友的描述。</div></p><p style='font-size:35px'>符合按<span style=""color:lightgreen""> j 键</span>，不符合按<span style=""color:red""> f 键</span></p>","0","html-button-response","8","260822","0.0-7.0-0.0","6","5","6","5","4","5","4","4","5","5","5","1","-1","-2","2","-1","1","1","0","5","4","5","5","5","4","3","3","4","4","5","6","4","4","2","3","3","6","4","5","1","3","3","6","1","2","2","4","3","1","2","1","5","2","2","5","2","4","5","5","1","3","2","1","1","3","2","7","3","7","2","2","3","1","2","2","4","3","1","2","798933752469397506","马","325","Female","[""好她"",""好我"",""坏她"",""坏我""]","[""强她"",""强我"",""弱她"",""弱我""]","","","","","","","","","","","","","","","","","SRET_EW","EW_instructions","Sun Jan 21 2024 15:10:53 GMT+0800 (中国标准时间)","","","","","","","","","","","","","","","","","","","",""
"442","","f","psychophysics","9","262281","0.0-7.0-1.0-0.0","6","5","6","5","4","5","4","4","5","5","5","1","-1","-2","2","-1","1","1","0","5","4","5","5","5","4","3","3","4","4","5","6","4","4","2","3","3","6","4","5","1","3","3","6","1","2","2","4","3","1","2","1","5","2","2","5","2","4","5","5","1","3","2","1","1","3","2","7","3","7","2","2","3","1","2","2","4","3","1","2","798933752469397506","马","325","Female","[""好她"",""好我"",""坏她"",""坏我""]","[""强她"",""强我"",""弱她"",""弱我""]","","","","","","","","no","","","","","","","","","SRET_EW","EW_practice","","key","f","16.567954545454334","848","472.58333333333337","朋友","徇私","Negative","morality","","","","","","","","","","",""
"null","","null","psychophysics","10","265382","0.0-7.0-1.0-0.1","6","5","6","5","4","5","4","4","5","5","5","1","-1","-2","2","-1","1","1","0","5","4","5","5","5","4","3","3","4","4","5","6","4","4","2","3","3","6","4","5","1","3","3","6","1","2","2","4","3","1","2","1","5","2","2","5","2","4","5","5","1","3","2","1","1","3","2","7","3","7","2","2","3","1","2","2","4","3","1","2","798933752469397506","马","325","Female","[""好她"",""好我"",""坏她"",""坏我""]","[""强她"",""强我"",""弱她"",""弱我""]","","","","","","","","","","","","","","","","","SRET_EW","EW_practice","","key","null","16.6658378378378","848","472.58333333333337","朋友","忠实","Positive","morality","","","","","","","","","","",""
"676","","j","psychophysics","11","267065","0.0-7.0-1.0-0.2","6","5","6","5","4","5","4","4","5","5","5","1","-1","-2","2","-1","1","1","0","5","4","5","5","5","4","3","3","4","4","5","6","4","4","2","3","3","6","4","5","1","3","3","6","1","2","2","4","3","1","2","1","5","2","2","5","2","4","5","5","1","3","2","1","1","3","2","7","3","7","2","2","3","1","2","2","4","3","1","2","798933752469397506","马","325","Female","[""好她"",""好我"",""坏她"",""坏我""]","[""强她"",""强我"",""弱她"",""弱我""]","","","","","","","","yes","","","","","","","","","SRET_EW","EW_practice","","key","j","16.66600000000035","848","472.58333333333337","自己","严谨","Positive","ability","","","","","","","","","","",""
"325","","j","psychophysics","12","268401","0.0-7.0-1.0-0.3","6","5","6","5","4","5","4","4","5","5","5","1","-1","-2","2","-1","1","1","0","5","4","5","5","5","4","3","3","4","4","5","6","4","4","2","3","3","6","4","5","1","3","3","6","1","2","2","4","3","1","2","1","5","2","2","5","2","4","5","5","1","3","2","1","1","3","2","7","3","7","2","2","3","1","2","2","4","3","1","2","798933752469397506","马","325","Female","[""好她"",""好我"",""坏她"",""坏我""]","[""强她"",""强我"",""弱她"",""弱我""]","","","","","","","","yes","","","","","","","","","SRET_EW","EW_practice","","key","j","16.66582278481057","848","472.58333333333337","自己","刻板","Negative","ability","","","","","","","","","","",""
"5635","
    <p><div style='color:white;font-size:35px; line-height:20px;'>请您再次阅读实验要求</div></p><br>
    <p><div style='color:white;font-size:25px; line-height:20px;'>请回忆某一个亲密的朋友，你们至少2年前就认识了，并且最近2年经常见面。</div></p>
    <p><div style='color:white;font-size:25px; line-height:20px;'>在本实验中，您将会看到一些形容词。</div></p>
    <p><div style='color:yellow;font-size:25px; line-height:20px;'>您的任务是判断这些形容词是否符合对您自己或您的朋友的描述。</div></p>
    <p><div class='footer' style='font-size:25px; line-height:20px;'>如果对本实验还有不清楚之处，请立即向实验员咨询。</p><p style='font-size:25px; line-height:20px;'>如果您明白了规则：</p><p style='font-size:22px; line-height:20px;'>请按 继续 进入正式实验</p>
    </div>
    <p style='font-size:35px'>符合按<span style=""color:lightgreen""> j 键</span>，不符合按<span style=""color:red""> f 键</span></p>","0","html-button-response","13","274036","0.0-7.0-2.0","6","5","6","5","4","5","4","4","5","5","5","1","-1","-2","2","-1","1","1","0","5","4","5","5","5","4","3","3","4","4","5","6","4","4","2","3","3","6","4","5","1","3","3","6","1","2","2","4","3","1","2","1","5","2","2","5","2","4","5","5","1","3","2","1","1","3","2","7","3","7","2","2","3","1","2","2","4","3","1","2","798933752469397506","马","325","Female","[""好她"",""好我"",""坏她"",""坏我""]","[""强她"",""强我"",""弱她"",""弱我""]","","","","","","","","","","","","","","","","","SRET_EW","prac_instructions","Sun Jan 21 2024 15:10:53 GMT+0800 (中国标准时间)","","","","","","","","","","","","","","","","","","","",""
"574","","j","psychophysics","14","275625","0.0-7.0-3.0-0.0","6","5","6","5","4","5","4","4","5","5","5","1","-1","-2","2","-1","1","1","0","5","4","5","5","5","4","3","3","4","4","5","6","4","4","2","3","3","6","4","5","1","3","3","6","1","2","2","4","3","1","2","1","5","2","2","5","2","4","5","5","1","3","2","1","1","3","2","7","3","7","2","2","3","1","2","2","4","3","1","2","798933752469397506","马","325","Female","[""好她"",""好我"",""坏她"",""坏我""]","[""强她"",""强我"",""弱她"",""弱我""]","","","","","","","","yes","","","","","","","","","SRET","EW_formal","","key","j","16.592421052631874","848","472.58333333333337","朋友","迷糊","Negative","ability","","","","","","","","","","",""
"467","","j","psychophysics","15","277097","0.0-7.0-3.0-0.1","6","5","6","5","4","5","4","4","5","5","5","1","-1","-2","2","-1","1","1","0","5","4","5","5","5","4","3","3","4","4","5","6","4","4","2","3","3","6","4","5","1","3","3","6","1","2","2","4","3","1","2","1","5","2","2","5","2","4","5","5","1","3","2","1","1","3","2","7","3","7","2","2","3","1","2","2","4","3","1","2","798933752469397506","马","325","Female","[""好她"",""好我"",""坏她"",""坏我""]","[""强她"",""强我"",""弱她"",""弱我""]","","","","","","","","yes","","","","","","","","","SRET","EW_formal","","key","j","16.66568181818134","848","472.58333333333337","朋友","务实","Positive","ability","","","","","","","","","","",""
"648","","f","psychophysics","16","278748","0.0-7.0-3.0-0.2","6","5","6","5","4","5","4","4","5","5","5","1","-1","-2","2","-1","1","1","0","5","4","5","5","5","4","3","3","4","4","5","6","4","4","2","3","3","6","4","5","1","3","3","6","1","2","2","4","3","1","2","1","5","2","2","5","2","4","5","5","1","3","2","1","1","3","2","7","3","7","2","2","3","1","2","2","4","3","1","2","798933752469397506","马","325","Female","[""好她"",""好我"",""坏她"",""坏我""]","[""强她"",""强我"",""弱她"",""弱我""]","","","","","","","","no","","","","","","","","","SRET","EW_formal","","key","f","16.665714285714785","848","472.58333333333337","自己","说谎","Negative","morality","","","","","","","","","","",""
"535","","j","psychophysics","17","280289","0.0-7.0-3.0-0.3","6","5","6","5","4","5","4","4","5","5","5","1","-1","-2","2","-1","1","1","0","5","4","5","5","5","4","3","3","4","4","5","6","4","4","2","3","3","6","4","5","1","3","3","6","1","2","2","4","3","1","2","1","5","2","2","5","2","4","5","5","1","3","2","1","1","3","2","7","3","7","2","2","3","1","2","2","4","3","1","2","798933752469397506","马","325","Female","[""好她"",""好我"",""坏她"",""坏我""]","[""强她"",""强我"",""弱她"",""弱我""]","","","","","","","","yes","","","","","","","","","SRET","EW_formal","","key","j","16.665714285713825","848","472.58333333333337","自己","坚贞","Positive","morality","","","","","","","","","","",""
"739","","f","psychophysics","18","282041","0.0-7.0-3.0-0.4","6","5","6","5","4","5","4","4","5","5","5","1","-1","-2","2","-1","1","1","0","5","4","5","5","5","4","3","3","4","4","5","6","4","4","2","3","3","6","4","5","1","3","3","6","1","2","2","4","3","1","2","1","5","2","2","5","2","4","5","5","1","3","2","1","1","3","2","7","3","7","2","2","3","1","2","2","4","3","1","2","798933752469397506","马","325","Female","[""好她"",""好我"",""坏她"",""坏我""]","[""强她"",""强我"",""弱她"",""弱我""]","","","","","","","","no","","","","","","","","","SRET","EW_formal","","key","f","16.665961538461627","848","472.58333333333337","朋友","腐败","Negative","morality","","","","","","","","","","",""
"865","","j","psychophysics","19","284009","0.0-7.0-3.0-0.5","6","5","6","5","4","5","4","4","5","5","5","1","-1","-2","2","-1","1","1","0","5","4","5","5","5","4","3","3","4","4","5","6","4","4","2","3","3","6","4","5","1","3","3","6","1","2","2","4","3","1","2","1","5","2","2","5","2","4","5","5","1","3","2","1","1","3","2","7","3","7","2","2","3","1","2","2","4","3","1","2","798933752469397506","马","325","Female","[""好她"",""好我"",""坏她"",""坏我""]","[""强她"",""强我"",""弱她"",""弱我""]","","","","","","","","yes","","","","","","","","","SRET","EW_formal","","key","j","16.665811965812164","848","472.58333333333337","自己","伪善","Negative","morality","","","","","","","","","","",""
"682","","j","psychophysics","20","285693","0.0-7.0-3.0-0.6","6","5","6","5","4","5","4","4","5","5","5","1","-1","-2","2","-1","1","1","0","5","4","5","5","5","4","3","3","4","4","5","6","4","4","2","3","3","6","4","5","1","3","3","6","1","2","2","4","3","1","2","1","5","2","2","5","2","4","5","5","1","3","2","1","1","3","2","7","3","7","2","2","3","1","2","2","4","3","1","2","798933752469397506","马","325","Female","[""好她"",""好我"",""坏她"",""坏我""]","[""强她"",""强我"",""弱她"",""弱我""]","","","","","","","","yes","","","","","","","","","SRET","EW_formal","","key","j","16.66600000000035","848","472.58333333333337","自己","努力","Positive","ability","","","","","","","","","","",""
"534","","j","psychophysics","21","287229","0.0-7.0-3.0-0.7","6","5","6","5","4","5","4","4","5","5","5","1","-1","-2","2","-1","1","1","0","5","4","5","5","5","4","3","3","4","4","5","6","4","4","2","3","3","6","4","5","1","3","3","6","1","2","2","4","3","1","2","1","5","2","2","5","2","4","5","5","1","3","2","1","1","3","2","7","3","7","2","2","3","1","2","2","4","3","1","2","798933752469397506","马","325","Female","[""好她"",""好我"",""坏她"",""坏我""]","[""强她"",""强我"",""弱她"",""弱我""]","","","","","","","","yes","","","","","","","","","SRET","EW_formal","","key","j","16.66586956521749","848","472.58333333333337","朋友","无赖","Negative","morality","","","","","","","","","","",""
"1192","","j","psychophysics","22","289437","0.0-7.0-3.0-0.8","6","5","6","5","4","5","4","4","5","5","5","1","-1","-2","2","-1","1","1","0","5","4","5","5","5","4","3","3","4","4","5","6","4","4","2","3","3","6","4","5","1","3","3","6","1","2","2","4","3","1","2","1","5","2","2","5","2","4","5","5","1","3","2","1","1","3","2","7","3","7","2","2","3","1","2","2","4","3","1","2","798933752469397506","马","325","Female","[""好她"",""好我"",""坏她"",""坏我""]","[""强她"",""强我"",""弱她"",""弱我""]","","","","","","","","yes","","","","","","","","","SRET","EW_formal","","key","j","16.66580152671779","848","472.58333333333337","自己","诚信","Positive","morality","","","","","","","","","","",""
"446","","j","psychophysics","23","290985","0.0-7.0-3.0-0.9","6","5","6","5","4","5","4","4","5","5","5","1","-1","-2","2","-1","1","1","0","5","4","5","5","5","4","3","3","4","4","5","6","4","4","2","3","3","6","4","5","1","3","3","6","1","2","2","4","3","1","2","1","5","2","2","5","2","4","5","5","1","3","2","1","1","3","2","7","3","7","2","2","3","1","2","2","4","3","1","2","798933752469397506","马","325","Female","[""好她"",""好我"",""坏她"",""坏我""]","[""强她"",""强我"",""弱她"",""弱我""]","","","","","","","","yes","","","","","","","","","SRET","EW_formal","","key","j","16.665652173912942","848","472.58333333333337","自己","骁勇","Positive","ability","","","","","","","","","","",""
"793","","j","psychophysics","24","292785","0.0-7.0-3.0-0.10","6","5","6","5","4","5","4","4","5","5","5","1","-1","-2","2","-1","1","1","0","5","4","5","5","5","4","3","3","4","4","5","6","4","4","2","3","3","6","4","5","1","3","3","6","1","2","2","4","3","1","2","1","5","2","2","5","2","4","5","5","1","3","2","1","1","3","2","7","3","7","2","2","3","1","2","2","4","3","1","2","798933752469397506","马","325","Female","[""好她"",""好我"",""坏她"",""坏我""]","[""强她"",""强我"",""弱她"",""弱我""]","","","","","","","","yes","","","","","","","","","SRET","EW_formal","","key","j","16.665794392523278","848","472.58333333333337","自己","善良","Positive","morality","","","","","","","","","","",""
"714","","j","psychophysics","25","294501","0.0-7.0-3.0-0.11","6","5","6","5","4","5","4","4","5","5","5","1","-1","-2","2","-1","1","1","0","5","4","5","5","5","4","3","3","4","4","5","6","4","4","2","3","3","6","4","5","1","3","3","6","1","2","2","4","3","1","2","1","5","2","2","5","2","4","5","5","1","3","2","1","1","3","2","7","3","7","2","2","3","1","2","2","4","3","1","2","798933752469397506","马","325","Female","[""好她"",""好我"",""坏她"",""坏我""]","[""强她"",""强我"",""弱她"",""弱我""]","","","","","","","","yes","","","","","","","","","SRET","EW_formal","","key","j","16.665882352941015","848","472.58333333333337","朋友","廉正","Positive","morality","","","","","","","","","","",""
"665","","f","psychophysics","26","296237","0.0-7.0-3.0-0.12","6","5","6","5","4","5","4","4","5","5","5","1","-1","-2","2","-1","1","1","0","5","4","5","5","5","4","3","3","4","4","5","6","4","4","2","3","3","6","4","5","1","3","3","6","1","2","2","4","3","1","2","1","5","2","2","5","2","4","5","5","1","3","2","1","1","3","2","7","3","7","2","2","3","1","2","2","4","3","1","2","798933752469397506","马","325","Female","[""好她"",""好我"",""坏她"",""坏我""]","[""强她"",""强我"",""弱她"",""弱我""]","","","","","","","","no","","","","","","","","","SRET","EW_formal","","key","f","16.66582524271804","848","472.58333333333337","自己","弱智","Negative","ability","","","","","","","","","","",""
"523","","j","psychophysics","27","297768","0.0-7.0-3.0-0.13","6","5","6","5","4","5","4","4","5","5","5","1","-1","-2","2","-1","1","1","0","5","4","5","5","5","4","3","3","4","4","5","6","4","4","2","3","3","6","4","5","1","3","3","6","1","2","2","4","3","1","2","1","5","2","2","5","2","4","5","5","1","3","2","1","1","3","2","7","3","7","2","2","3","1","2","2","4","3","1","2","798933752469397506","马","325","Female","[""好她"",""好我"",""坏她"",""坏我""]","[""强她"",""强我"",""弱她"",""弱我""]","","","","","","","","yes","","","","","","","","","SRET","EW_formal","","key","j","16.665714285714465","848","472.58333333333337","朋友","忠良","Positive","morality","","","","","","","","","","",""
"506","","j","psychophysics","28","299284","0.0-7.0-3.0-0.14","6","5","6","5","4","5","4","4","5","5","5","1","-1","-2","2","-1","1","1","0","5","4","5","5","5","4","3","3","4","4","5","6","4","4","2","3","3","6","4","5","1","3","3","6","1","2","2","4","3","1","2","1","5","2","2","5","2","4","5","5","1","3","2","1","1","3","2","7","3","7","2","2","3","1","2","2","4","3","1","2","798933752469397506","马","325","Female","[""好她"",""好我"",""坏她"",""坏我""]","[""强她"",""强我"",""弱她"",""弱我""]","","","","","","","","yes","","","","","","","","","SRET","EW_formal","","key","j","16.666000000000025","848","472.58333333333337","朋友","君子","Positive","morality","","","","","","","","","","",""
"442","","j","psychophysics","29","300785","0.0-7.0-3.0-0.15","6","5","6","5","4","5","4","4","5","5","5","1","-1","-2","2","-1","1","1","0","5","4","5","5","5","4","3","3","4","4","5","6","4","4","2","3","3","6","4","5","1","3","3","6","1","2","2","4","3","1","2","1","5","2","2","5","2","4","5","5","1","3","2","1","1","3","2","7","3","7","2","2","3","1","2","2","4","3","1","2","798933752469397506","马","325","Female","[""好她"",""好我"",""坏她"",""坏我""]","[""强她"",""强我"",""弱她"",""弱我""]","","","","","","","","yes","","","","","","","","","SRET","EW_formal","","key","j","16.66584269662932","848","472.58333333333337","自己","奸诈","Negative","morality","","","","","","","","","","",""
"822","","f","psychophysics","30","302620","0.0-7.0-3.0-0.16","6","5","6","5","4","5","4","4","5","5","5","1","-1","-2","2","-1","1","1","0","5","4","5","5","5","4","3","3","4","4","5","6","4","4","2","3","3","6","4","5","1","3","3","6","1","2","2","4","3","1","2","1","5","2","2","5","2","4","5","5","1","3","2","1","1","3","2","7","3","7","2","2","3","1","2","2","4","3","1","2","798933752469397506","马","325","Female","[""好她"",""好我"",""坏她"",""坏我""]","[""强她"",""强我"",""弱她"",""弱我""]","","","","","","","","no","","","","","","","","","SRET","EW_formal","","key","f","16.665871559633178","848","472.58333333333337","朋友","马虎","Negative","ability","","","","","","","","","","",""
"845","","f","psychophysics","31","304468","0.0-7.0-3.0-0.17","6","5","6","5","4","5","4","4","5","5","5","1","-1","-2","2","-1","1","1","0","5","4","5","5","5","4","3","3","4","4","5","6","4","4","2","3","3","6","4","5","1","3","3","6","1","2","2","4","3","1","2","1","5","2","2","5","2","4","5","5","1","3","2","1","1","3","2","7","3","7","2","2","3","1","2","2","4","3","1","2","798933752469397506","马","325","Female","[""好她"",""好我"",""坏她"",""坏我""]","[""强她"",""强我"",""弱她"",""弱我""]","","","","","","","","no","","","","","","","","","SRET","EW_formal","","key","f","16.665818181818626","848","472.58333333333337","朋友","无耻","Negative","morality","","","","","","","","","","",""
"530","","j","psychophysics","32","306001","0.0-7.0-3.0-0.18","6","5","6","5","4","5","4","4","5","5","5","1","-1","-2","2","-1","1","1","0","5","4","5","5","5","4","3","3","4","4","5","6","4","4","2","3","3","6","4","5","1","3","3","6","1","2","2","4","3","1","2","1","5","2","2","5","2","4","5","5","1","3","2","1","1","3","2","7","3","7","2","2","3","1","2","2","4","3","1","2","798933752469397506","马","325","Female","[""好她"",""好我"",""坏她"",""坏我""]","[""强她"",""强我"",""弱她"",""弱我""]","","","","","","","","yes","","","","","","","","","SRET","EW_formal","","key","j","16.665714285713825","848","472.58333333333337","自己","毅力","Positive","ability","","","","","","","","","","",""
"827","","f","psychophysics","33","307829","0.0-7.0-3.0-0.19","6","5","6","5","4","5","4","4","5","5","5","1","-1","-2","2","-1","1","1","0","5","4","5","5","5","4","3","3","4","4","5","6","4","4","2","3","3","6","4","5","1","3","3","6","1","2","2","4","3","1","2","1","5","2","2","5","2","4","5","5","1","3","2","1","1","3","2","7","3","7","2","2","3","1","2","2","4","3","1","2","798933752469397506","马","325","Female","[""好她"",""好我"",""坏她"",""坏我""]","[""强她"",""强我"",""弱她"",""弱我""]","","","","","","","","no","","","","","","","","","SRET","EW_formal","","key","f","16.665871559633178","848","472.58333333333337","朋友","驽钝","Negative","ability","","","","","","","","","","",""
"650","","f","psychophysics","34","309480","0.0-7.0-3.0-0.20","6","5","6","5","4","5","4","4","5","5","5","1","-1","-2","2","-1","1","1","0","5","4","5","5","5","4","3","3","4","4","5","6","4","4","2","3","3","6","4","5","1","3","3","6","1","2","2","4","3","1","2","1","5","2","2","5","2","4","5","5","1","3","2","1","1","3","2","7","3","7","2","2","3","1","2","2","4","3","1","2","798933752469397506","马","325","Female","[""好她"",""好我"",""坏她"",""坏我""]","[""强她"",""强我"",""弱她"",""弱我""]","","","","","","","","no","","","","","","","","","SRET","EW_formal","","key","f","16.665918367347032","848","472.58333333333337","朋友","黑心","Negative","morality","","","","","","","","","","",""
"818","","j","psychophysics","35","311320","0.0-7.0-3.0-0.21","6","5","6","5","4","5","4","4","5","5","5","1","-1","-2","2","-1","1","1","0","5","4","5","5","5","4","3","3","4","4","5","6","4","4","2","3","3","6","4","5","1","3","3","6","1","2","2","4","3","1","2","1","5","2","2","5","2","4","5","5","1","3","2","1","1","3","2","7","3","7","2","2","3","1","2","2","4","3","1","2","798933752469397506","马","325","Female","[""好她"",""好我"",""坏她"",""坏我""]","[""强她"",""强我"",""弱她"",""弱我""]","","","","","","","","yes","","","","","","","","","SRET","EW_formal","","key","j","16.665871559633178","848","472.58333333333337","自己","愚蠢","Negative","ability","","","","","","","","","","",""
"747","","f","psychophysics","36","313073","0.0-7.0-3.0-0.22","6","5","6","5","4","5","4","4","5","5","5","1","-1","-2","2","-1","1","1","0","5","4","5","5","5","4","3","3","4","4","5","6","4","4","2","3","3","6","4","5","1","3","3","6","1","2","2","4","3","1","2","1","5","2","2","5","2","4","5","5","1","3","2","1","1","3","2","7","3","7","2","2","3","1","2","2","4","3","1","2","798933752469397506","马","325","Female","[""好她"",""好我"",""坏她"",""坏我""]","[""强她"",""强我"",""弱她"",""弱我""]","","","","","","","","no","","","","","","","","","SRET","EW_formal","","key","f","16.665961538461627","848","472.58333333333337","朋友","歹毒","Negative","morality","","","","","","","","","","",""
"524","","j","psychophysics","37","314600","0.0-7.0-3.0-0.23","6","5","6","5","4","5","4","4","5","5","5","1","-1","-2","2","-1","1","1","0","5","4","5","5","5","4","3","3","4","4","5","6","4","4","2","3","3","6","4","5","1","3","3","6","1","2","2","4","3","1","2","1","5","2","2","5","2","4","5","5","1","3","2","1","1","3","2","7","3","7","2","2","3","1","2","2","4","3","1","2","798933752469397506","马","325","Female","[""好她"",""好我"",""坏她"",""坏我""]","[""强她"",""强我"",""弱她"",""弱我""]","","","","","","","","yes","","","","","","","","","SRET","EW_formal","","key","j","16.66593406593381","848","472.58333333333337","自己","勤奋","Positive","ability","","","","","","","","","","",""
"722","","f","psychophysics","38","316333","0.0-7.0-3.0-0.24","6","5","6","5","4","5","4","4","5","5","5","1","-1","-2","2","-1","1","1","0","5","4","5","5","5","4","3","3","4","4","5","6","4","4","2","3","3","6","4","5","1","3","3","6","1","2","2","4","3","1","2","1","5","2","2","5","2","4","5","5","1","3","2","1","1","3","2","7","3","7","2","2","3","1","2","2","4","3","1","2","798933752469397506","马","325","Female","[""好她"",""好我"",""坏她"",""坏我""]","[""强她"",""强我"",""弱她"",""弱我""]","","","","","","","","no","","","","","","","","","SRET","EW_formal","","key","f","16.66582524271804","848","472.58333333333337","朋友","贪腐","Negative","morality","","","","","","","","","","",""
"619","","f","psychophysics","39","317957","0.0-7.0-3.0-0.25","6","5","6","5","4","5","4","4","5","5","5","1","-1","-2","2","-1","1","1","0","5","4","5","5","5","4","3","3","4","4","5","6","4","4","2","3","3","6","4","5","1","3","3","6","1","2","2","4","3","1","2","1","5","2","2","5","2","4","5","5","1","3","2","1","1","3","2","7","3","7","2","2","3","1","2","2","4","3","1","2","798933752469397506","马","325","Female","[""好她"",""好我"",""坏她"",""坏我""]","[""强她"",""强我"",""弱她"",""弱我""]","","","","","","","","no","","","","","","","","","SRET","EW_formal","","key","f","16.665833333333165","848","472.58333333333337","朋友","贪污","Negative","morality","","","","","","","","","","",""
"629","","j","psychophysics","40","319596","0.0-7.0-3.0-0.26","6","5","6","5","4","5","4","4","5","5","5","1","-1","-2","2","-1","1","1","0","5","4","5","5","5","4","3","3","4","4","5","6","4","4","2","3","3","6","4","5","1","3","3","6","1","2","2","4","3","1","2","1","5","2","2","5","2","4","5","5","1","3","2","1","1","3","2","7","3","7","2","2","3","1","2","2","4","3","1","2","798933752469397506","马","325","Female","[""好她"",""好我"",""坏她"",""坏我""]","[""强她"",""强我"",""弱她"",""弱我""]","","","","","","","","yes","","","","","","","","","SRET","EW_formal","","key","j","16.66571428571419","848","472.58333333333337","朋友","独立","Positive","ability","","","","","","","","","","",""
"349","","j","psychophysics","41","321065","0.0-7.0-3.0-0.27","6","5","6","5","4","5","4","4","5","5","5","1","-1","-2","2","-1","1","1","0","5","4","5","5","5","4","3","3","4","4","5","6","4","4","2","3","3","6","4","5","1","3","3","6","1","2","2","4","3","1","2","1","5","2","2","5","2","4","5","5","1","3","2","1","1","3","2","7","3","7","2","2","3","1","2","2","4","3","1","2","798933752469397506","马","325","Female","[""好她"",""好我"",""坏她"",""坏我""]","[""强她"",""强我"",""弱她"",""弱我""]","","","","","","","","yes","","","","","","","","","SRET","EW_formal","","key","j","16.66597701149428","848","472.58333333333337","自己","厚道","Positive","morality","","","","","","","","","","",""
"1263","","j","psychophysics","42","323342","0.0-7.0-3.0-0.28","6","5","6","5","4","5","4","4","5","5","5","1","-1","-2","2","-1","1","1","0","5","4","5","5","5","4","3","3","4","4","5","6","4","4","2","3","3","6","4","5","1","3","3","6","1","2","2","4","3","1","2","1","5","2","2","5","2","4","5","5","1","3","2","1","1","3","2","7","3","7","2","2","3","1","2","2","4","3","1","2","798933752469397506","马","325","Female","[""好她"",""好我"",""坏她"",""坏我""]","[""强她"",""强我"",""弱她"",""弱我""]","","","","","","","","yes","","","","","","","","","SRET","EW_formal","","key","j","16.665777777777812","848","472.58333333333337","朋友","忠勇","Positive","morality","","","","","","","","","","",""
"1209","","j","psychophysics","43","325558","0.0-7.0-3.0-0.29","6","5","6","5","4","5","4","4","5","5","5","1","-1","-2","2","-1","1","1","0","5","4","5","5","5","4","3","3","4","4","5","6","4","4","2","3","3","6","4","5","1","3","3","6","1","2","2","4","3","1","2","1","5","2","2","5","2","4","5","5","1","3","2","1","1","3","2","7","3","7","2","2","3","1","2","2","4","3","1","2","798933752469397506","马","325","Female","[""好她"",""好我"",""坏她"",""坏我""]","[""强她"",""强我"",""弱她"",""弱我""]","","","","","","","","yes","","","","","","","","","SRET","EW_formal","","key","j","16.66575757575761","848","472.58333333333337","自己","懂行","Positive","ability","","","","","","","","","","",""
"515","","j","psychophysics","44","327080","0.0-7.0-3.0-0.30","6","5","6","5","4","5","4","4","5","5","5","1","-1","-2","2","-1","1","1","0","5","4","5","5","5","4","3","3","4","4","5","6","4","4","2","3","3","6","4","5","1","3","3","6","1","2","2","4","3","1","2","1","5","2","2","5","2","4","5","5","1","3","2","1","1","3","2","7","3","7","2","2","3","1","2","2","4","3","1","2","798933752469397506","马","325","Female","[""好她"",""好我"",""坏她"",""坏我""]","[""强她"",""强我"",""弱她"",""弱我""]","","","","","","","","yes","","","","","","","","","SRET","EW_formal","","key","j","16.66593406593381","848","472.58333333333337","朋友","礼貌","Positive","morality","","","","","","","","","","",""
"470","","j","psychophysics","45","328585","0.0-7.0-3.0-0.31","6","5","6","5","4","5","4","4","5","5","5","1","-1","-2","2","-1","1","1","0","5","4","5","5","5","4","3","3","4","4","5","6","4","4","2","3","3","6","4","5","1","3","3","6","1","2","2","4","3","1","2","1","5","2","2","5","2","4","5","5","1","3","2","1","1","3","2","7","3","7","2","2","3","1","2","2","4","3","1","2","798933752469397506","马","325","Female","[""好她"",""好我"",""坏她"",""坏我""]","[""强她"",""强我"",""弱她"",""弱我""]","","","","","","","","yes","","","","","","","","","SRET","EW_formal","","key","j","16.66584269662932","848","472.58333333333337","朋友","智慧","Positive","ability","","","","","","","","","","",""
"641","","j","psychophysics","46","330240","0.0-7.0-3.0-0.32","6","5","6","5","4","5","4","4","5","5","5","1","-1","-2","2","-1","1","1","0","5","4","5","5","5","4","3","3","4","4","5","6","4","4","2","3","3","6","4","5","1","3","3","6","1","2","2","4","3","1","2","1","5","2","2","5","2","4","5","5","1","3","2","1","1","3","2","7","3","7","2","2","3","1","2","2","4","3","1","2","798933752469397506","马","325","Female","[""好她"",""好我"",""坏她"",""坏我""]","[""强她"",""强我"",""弱她"",""弱我""]","","","","","","","","yes","","","","","","","","","SRET","EW_formal","","key","j","16.66571428571419","848","472.58333333333337","自己","高洁","Positive","morality","","","","","","","","","","",""
"551","","f","psychophysics","47","331807","0.0-7.0-3.0-0.33","6","5","6","5","4","5","4","4","5","5","5","1","-1","-2","2","-1","1","1","0","5","4","5","5","5","4","3","3","4","4","5","6","4","4","2","3","3","6","4","5","1","3","3","6","1","2","2","4","3","1","2","1","5","2","2","5","2","4","5","5","1","3","2","1","1","3","2","7","3","7","2","2","3","1","2","2","4","3","1","2","798933752469397506","马","325","Female","[""好她"",""好我"",""坏她"",""坏我""]","[""强她"",""强我"",""弱她"",""弱我""]","","","","","","","","no","","","","","","","","","SRET","EW_formal","","key","f","16.66602150537637","848","472.58333333333337","朋友","差生","Negative","ability","","","","","","","","","","",""
"656","","f","psychophysics","48","333472","0.0-7.0-3.0-0.34","6","5","6","5","4","5","4","4","5","5","5","1","-1","-2","2","-1","1","1","0","5","4","5","5","5","4","3","3","4","4","5","6","4","4","2","3","3","6","4","5","1","3","3","6","1","2","2","4","3","1","2","1","5","2","2","5","2","4","5","5","1","3","2","1","1","3","2","7","3","7","2","2","3","1","2","2","4","3","1","2","798933752469397506","马","325","Female","[""好她"",""好我"",""坏她"",""坏我""]","[""强她"",""强我"",""弱她"",""弱我""]","","","","","","","","no","","","","","","","","","SRET","EW_formal","","key","f","16.66585858585901","848","472.58333333333337","自己","不端","Negative","morality","","","","","","","","","","",""
"605","","f","psychophysics","49","335088","0.0-7.0-3.0-0.35","6","5","6","5","4","5","4","4","5","5","5","1","-1","-2","2","-1","1","1","0","5","4","5","5","5","4","3","3","4","4","5","6","4","4","2","3","3","6","4","5","1","3","3","6","1","2","2","4","3","1","2","1","5","2","2","5","2","4","5","5","1","3","2","1","1","3","2","7","3","7","2","2","3","1","2","2","4","3","1","2","798933752469397506","马","325","Female","[""好她"",""好我"",""坏她"",""坏我""]","[""强她"",""强我"",""弱她"",""弱我""]","","","","","","","","no","","","","","","","","","SRET","EW_formal","","key","f","16.665833333333165","848","472.58333333333337","朋友","怠惰","Negative","ability","","","","","","","","","","",""
"519","","j","psychophysics","50","336614","0.0-7.0-3.0-0.36","6","5","6","5","4","5","4","4","5","5","5","1","-1","-2","2","-1","1","1","0","5","4","5","5","5","4","3","3","4","4","5","6","4","4","2","3","3","6","4","5","1","3","3","6","1","2","2","4","3","1","2","1","5","2","2","5","2","4","5","5","1","3","2","1","1","3","2","7","3","7","2","2","3","1","2","2","4","3","1","2","798933752469397506","马","325","Female","[""好她"",""好我"",""坏她"",""坏我""]","[""强她"",""强我"",""弱她"",""弱我""]","","","","","","","","yes","","","","","","","","","SRET","EW_formal","","key","j","16.66593406593381","848","472.58333333333337","朋友","侠义","Positive","morality","","","","","","","","","","",""
"868","","f","psychophysics","51","338496","0.0-7.0-3.0-0.37","6","5","6","5","4","5","4","4","5","5","5","1","-1","-2","2","-1","1","1","0","5","4","5","5","5","4","3","3","4","4","5","6","4","4","2","3","3","6","4","5","1","3","3","6","1","2","2","4","3","1","2","1","5","2","2","5","2","4","5","5","1","3","2","1","1","3","2","7","3","7","2","2","3","1","2","2","4","3","1","2","798933752469397506","马","325","Female","[""好她"",""好我"",""坏她"",""坏我""]","[""强她"",""强我"",""弱她"",""弱我""]","","","","","","","","no","","","","","","","","","SRET","EW_formal","","key","f","16.665892857142484","848","472.58333333333337","自己","拜金","Negative","morality","","","","","","","","","","",""
"558","","j","psychophysics","52","340056","0.0-7.0-3.0-0.38","6","5","6","5","4","5","4","4","5","5","5","1","-1","-2","2","-1","1","1","0","5","4","5","5","5","4","3","3","4","4","5","6","4","4","2","3","3","6","4","5","1","3","3","6","1","2","2","4","3","1","2","1","5","2","2","5","2","4","5","5","1","3","2","1","1","3","2","7","3","7","2","2","3","1","2","2","4","3","1","2","798933752469397506","马","325","Female","[""好她"",""好我"",""坏她"",""坏我""]","[""强她"",""强我"",""弱她"",""弱我""]","","","","","","","","yes","","","","","","","","","SRET","EW_formal","","key","j","16.66586956521749","848","472.58333333333337","朋友","细心","Positive","ability","","","","","","","","","","",""
"779","","j","psychophysics","53","341836","0.0-7.0-3.0-0.39","6","5","6","5","4","5","4","4","5","5","5","1","-1","-2","2","-1","1","1","0","5","4","5","5","5","4","3","3","4","4","5","6","4","4","2","3","3","6","4","5","1","3","3","6","1","2","2","4","3","1","2","1","5","2","2","5","2","4","5","5","1","3","2","1","1","3","2","7","3","7","2","2","3","1","2","2","4","3","1","2","798933752469397506","马","325","Female","[""好她"",""好我"",""坏她"",""坏我""]","[""强她"",""强我"",""弱她"",""弱我""]","","","","","","","","yes","","","","","","","","","SRET","EW_formal","","key","j","16.66584905660393","848","472.58333333333337","自己","远见","Positive","ability","","","","","","","","","","",""
"680","","j","psychophysics","54","343562","0.0-7.0-3.0-0.40","6","5","6","5","4","5","4","4","5","5","5","1","-1","-2","2","-1","1","1","0","5","4","5","5","5","4","3","3","4","4","5","6","4","4","2","3","3","6","4","5","1","3","3","6","1","2","2","4","3","1","2","1","5","2","2","5","2","4","5","5","1","3","2","1","1","3","2","7","3","7","2","2","3","1","2","2","4","3","1","2","798933752469397506","马","325","Female","[""好她"",""好我"",""坏她"",""坏我""]","[""强她"",""强我"",""弱她"",""弱我""]","","","","","","","","yes","","","","","","","","","SRET","EW_formal","","key","j","16.665825242718604","848","472.58333333333337","自己","坦荡","Positive","morality","","","","","","","","","","",""
"597","","j","psychophysics","55","345169","0.0-7.0-3.0-0.41","6","5","6","5","4","5","4","4","5","5","5","1","-1","-2","2","-1","1","1","0","5","4","5","5","5","4","3","3","4","4","5","6","4","4","2","3","3","6","4","5","1","3","3","6","1","2","2","4","3","1","2","1","5","2","2","5","2","4","5","5","1","3","2","1","1","3","2","7","3","7","2","2","3","1","2","2","4","3","1","2","798933752469397506","马","325","Female","[""好她"",""好我"",""坏她"",""坏我""]","[""强她"",""强我"",""弱她"",""弱我""]","","","","","","","","yes","","","","","","","","","SRET","EW_formal","","key","j","16.671368421052925","848","472.58333333333337","自己","沉着","Positive","ability","","","","","","","","","","",""
"559","","j","psychophysics","56","346736","0.0-7.0-3.0-0.42","6","5","6","5","4","5","4","4","5","5","5","1","-1","-2","2","-1","1","1","0","5","4","5","5","5","4","3","3","4","4","5","6","4","4","2","3","3","6","4","5","1","3","3","6","1","2","2","4","3","1","2","1","5","2","2","5","2","4","5","5","1","3","2","1","1","3","2","7","3","7","2","2","3","1","2","2","4","3","1","2","798933752469397506","马","325","Female","[""好她"",""好我"",""坏她"",""坏我""]","[""强她"",""强我"",""弱她"",""弱我""]","","","","","","","","yes","","","","","","","","","SRET","EW_formal","","key","j","16.66602150537637","848","472.58333333333337","自己","独断","Negative","ability","","","","","","","","","","",""
"546","","j","psychophysics","57","348296","0.0-7.0-3.0-0.43","6","5","6","5","4","5","4","4","5","5","5","1","-1","-2","2","-1","1","1","0","5","4","5","5","5","4","3","3","4","4","5","6","4","4","2","3","3","6","4","5","1","3","3","6","1","2","2","4","3","1","2","1","5","2","2","5","2","4","5","5","1","3","2","1","1","3","2","7","3","7","2","2","3","1","2","2","4","3","1","2","798933752469397506","马","325","Female","[""好她"",""好我"",""坏她"",""坏我""]","[""强她"",""强我"",""弱她"",""弱我""]","","","","","","","","yes","","","","","","","","","SRET","EW_formal","","key","j","16.665806451613353","848","472.58333333333337","自己","无知","Negative","ability","","","","","","","","","","",""
"755","","j","psychophysics","58","350114","0.0-7.0-3.0-0.44","6","5","6","5","4","5","4","4","5","5","5","1","-1","-2","2","-1","1","1","0","5","4","5","5","5","4","3","3","4","4","5","6","4","4","2","3","3","6","4","5","1","3","3","6","1","2","2","4","3","1","2","1","5","2","2","5","2","4","5","5","1","3","2","1","1","3","2","7","3","7","2","2","3","1","2","2","4","3","1","2","798933752469397506","马","325","Female","[""好她"",""好我"",""坏她"",""坏我""]","[""强她"",""强我"",""弱她"",""弱我""]","","","","","","","","yes","","","","","","","","","SRET","EW_formal","","key","j","16.665925925925777","848","472.58333333333337","朋友","失信","Negative","morality","","","","","","","","","","",""
"612","","j","psychophysics","59","351733","0.0-7.0-3.0-0.45","6","5","6","5","4","5","4","4","5","5","5","1","-1","-2","2","-1","1","1","0","5","4","5","5","5","4","3","3","4","4","5","6","4","4","2","3","3","6","4","5","1","3","3","6","1","2","2","4","3","1","2","1","5","2","2","5","2","4","5","5","1","3","2","1","1","3","2","7","3","7","2","2","3","1","2","2","4","3","1","2","798933752469397506","马","325","Female","[""好她"",""好我"",""坏她"",""坏我""]","[""强她"",""强我"",""弱她"",""弱我""]","","","","","","","","yes","","","","","","","","","SRET","EW_formal","","key","j","16.665833333333165","848","472.58333333333337","自己","拖拉","Negative","ability","","","","","","","","","","",""
"759","","j","psychophysics","60","353505","0.0-7.0-3.0-0.46","6","5","6","5","4","5","4","4","5","5","5","1","-1","-2","2","-1","1","1","0","5","4","5","5","5","4","3","3","4","4","5","6","4","4","2","3","3","6","4","5","1","3","3","6","1","2","2","4","3","1","2","1","5","2","2","5","2","4","5","5","1","3","2","1","1","3","2","7","3","7","2","2","3","1","2","2","4","3","1","2","798933752469397506","马","325","Female","[""好她"",""好我"",""坏她"",""坏我""]","[""强她"",""强我"",""弱她"",""弱我""]","","","","","","","","yes","","","","","","","","","SRET","EW_formal","","key","j","16.665904761904606","848","472.58333333333337","朋友","变通","Positive","ability","","","","","","","","","","",""
"676","","j","psychophysics","61","355185","0.0-7.0-3.0-0.47","6","5","6","5","4","5","4","4","5","5","5","1","-1","-2","2","-1","1","1","0","5","4","5","5","5","4","3","3","4","4","5","6","4","4","2","3","3","6","4","5","1","3","3","6","1","2","2","4","3","1","2","1","5","2","2","5","2","4","5","5","1","3","2","1","1","3","2","7","3","7","2","2","3","1","2","2","4","3","1","2","798933752469397506","马","325","Female","[""好她"",""好我"",""坏她"",""坏我""]","[""强她"",""强我"",""弱她"",""弱我""]","","","","","","","","yes","","","","","","","","","SRET","EW_formal","","key","j","16.665800000000164","848","472.58333333333337","自己","短浅","Negative","ability","","","","","","","","","","",""
"799","","j","psychophysics","62","356988","0.0-7.0-3.0-0.48","6","5","6","5","4","5","4","4","5","5","5","1","-1","-2","2","-1","1","1","0","5","4","5","5","5","4","3","3","4","4","5","6","4","4","2","3","3","6","4","5","1","3","3","6","1","2","2","4","3","1","2","1","5","2","2","5","2","4","5","5","1","3","2","1","1","3","2","7","3","7","2","2","3","1","2","2","4","3","1","2","798933752469397506","马","325","Female","[""好她"",""好我"",""坏她"",""坏我""]","[""强她"",""强我"",""弱她"",""弱我""]","","","","","","","","yes","","","","","","","","","SRET","EW_formal","","key","j","16.665794392523278","848","472.58333333333337","自己","虚假","Negative","morality","","","","","","","","","","",""
"819","","f","psychophysics","63","358813","0.0-7.0-3.0-0.49","6","5","6","5","4","5","4","4","5","5","5","1","-1","-2","2","-1","1","1","0","5","4","5","5","5","4","3","3","4","4","5","6","4","4","2","3","3","6","4","5","1","3","3","6","1","2","2","4","3","1","2","1","5","2","2","5","2","4","5","5","1","3","2","1","1","3","2","7","3","7","2","2","3","1","2","2","4","3","1","2","798933752469397506","马","325","Female","[""好她"",""好我"",""坏她"",""坏我""]","[""强她"",""强我"",""弱她"",""弱我""]","","","","","","","","no","","","","","","","","","SRET","EW_formal","","key","f","16.66587155963264","848","472.58333333333337","自己","淫乱","Negative","morality","","","","","","","","","","",""
"530","","j","psychophysics","64","360350","0.0-7.0-3.0-0.50","6","5","6","5","4","5","4","4","5","5","5","1","-1","-2","2","-1","1","1","0","5","4","5","5","5","4","3","3","4","4","5","6","4","4","2","3","3","6","4","5","1","3","3","6","1","2","2","4","3","1","2","1","5","2","2","5","2","4","5","5","1","3","2","1","1","3","2","7","3","7","2","2","3","1","2","2","4","3","1","2","798933752469397506","马","325","Female","[""好她"",""好我"",""坏她"",""坏我""]","[""强她"",""强我"",""弱她"",""弱我""]","","","","","","","","yes","","","","","","","","","SRET","EW_formal","","key","j","16.66593406593381","848","472.58333333333337","朋友","新手","Negative","ability","","","","","","","","","","",""
"756","","j","psychophysics","65","362121","0.0-7.0-3.0-0.51","6","5","6","5","4","5","4","4","5","5","5","1","-1","-2","2","-1","1","1","0","5","4","5","5","5","4","3","3","4","4","5","6","4","4","2","3","3","6","4","5","1","3","3","6","1","2","2","4","3","1","2","1","5","2","2","5","2","4","5","5","1","3","2","1","1","3","2","7","3","7","2","2","3","1","2","2","4","3","1","2","798933752469397506","马","325","Female","[""好她"",""好我"",""坏她"",""坏我""]","[""强她"",""强我"",""弱她"",""弱我""]","","","","","","","","yes","","","","","","","","","SRET","EW_formal","","key","j","16.665904761904606","848","472.58333333333337","自己","短视","Negative","ability","","","","","","","","","","",""
"894","","j","psychophysics","66","364021","0.0-7.0-3.0-0.52","6","5","6","5","4","5","4","4","5","5","5","1","-1","-2","2","-1","1","1","0","5","4","5","5","5","4","3","3","4","4","5","6","4","4","2","3","3","6","4","5","1","3","3","6","1","2","2","4","3","1","2","1","5","2","2","5","2","4","5","5","1","3","2","1","1","3","2","7","3","7","2","2","3","1","2","2","4","3","1","2","798933752469397506","马","325","Female","[""好她"",""好我"",""坏她"",""坏我""]","[""强她"",""强我"",""弱她"",""弱我""]","","","","","","","","yes","","","","","","","","","SRET","EW_formal","","key","j","16.665840707965035","848","472.58333333333337","朋友","诡诈","Negative","morality","","","","","","","","","","",""
"842","","f","psychophysics","67","365981","0.0-7.0-3.0-0.53","6","5","6","5","4","5","4","4","5","5","5","1","-1","-2","2","-1","1","1","0","5","4","5","5","5","4","3","3","4","4","5","6","4","4","2","3","3","6","4","5","1","3","3","6","1","2","2","4","3","1","2","1","5","2","2","5","2","4","5","5","1","3","2","1","1","3","2","7","3","7","2","2","3","1","2","2","4","3","1","2","798933752469397506","马","325","Female","[""好她"",""好我"",""坏她"",""坏我""]","[""强她"",""强我"",""弱她"",""弱我""]","","","","","","","","no","","","","","","","","","SRET","EW_formal","","key","f","16.665811965812164","848","472.58333333333337","自己","不良","Negative","morality","","","","","","","","","","",""
"763","","j","psychophysics","68","367756","0.0-7.0-3.0-0.54","6","5","6","5","4","5","4","4","5","5","5","1","-1","-2","2","-1","1","1","0","5","4","5","5","5","4","3","3","4","4","5","6","4","4","2","3","3","6","4","5","1","3","3","6","1","2","2","4","3","1","2","1","5","2","2","5","2","4","5","5","1","3","2","1","1","3","2","7","3","7","2","2","3","1","2","2","4","3","1","2","798933752469397506","马","325","Female","[""好她"",""好我"",""坏她"",""坏我""]","[""强她"",""强我"",""弱她"",""弱我""]","","","","","","","","yes","","","","","","","","","SRET","EW_formal","","key","j","16.665714285713953","848","472.58333333333337","自己","毛糙","Negative","ability","","","","","","","","","","",""
"601","","j","psychophysics","69","369373","0.0-7.0-3.0-0.55","6","5","6","5","4","5","4","4","5","5","5","1","-1","-2","2","-1","1","1","0","5","4","5","5","5","4","3","3","4","4","5","6","4","4","2","3","3","6","4","5","1","3","3","6","1","2","2","4","3","1","2","1","5","2","2","5","2","4","5","5","1","3","2","1","1","3","2","7","3","7","2","2","3","1","2","2","4","3","1","2","798933752469397506","马","325","Female","[""好她"",""好我"",""坏她"",""坏我""]","[""强她"",""强我"",""弱她"",""弱我""]","","","","","","","","yes","","","","","","","","","SRET","EW_formal","","key","j","16.66583333333377","848","472.58333333333337","朋友","正气","Positive","morality","","","","","","","","","","",""
"507","","j","psychophysics","70","370888","0.0-7.0-3.0-0.56","6","5","6","5","4","5","4","4","5","5","5","1","-1","-2","2","-1","1","1","0","5","4","5","5","5","4","3","3","4","4","5","6","4","4","2","3","3","6","4","5","1","3","3","6","1","2","2","4","3","1","2","1","5","2","2","5","2","4","5","5","1","3","2","1","1","3","2","7","3","7","2","2","3","1","2","2","4","3","1","2","798933752469397506","马","325","Female","[""好她"",""好我"",""坏她"",""坏我""]","[""强她"",""强我"",""弱她"",""弱我""]","","","","","","","","yes","","","","","","","","","SRET","EW_formal","","key","j","16.665777777777596","848","472.58333333333337","自己","刚正","Positive","morality","","","","","","","","","","",""
"776","","f","psychophysics","71","372669","0.0-7.0-3.0-0.57","6","5","6","5","4","5","4","4","5","5","5","1","-1","-2","2","-1","1","1","0","5","4","5","5","5","4","3","3","4","4","5","6","4","4","2","3","3","6","4","5","1","3","3","6","1","2","2","4","3","1","2","1","5","2","2","5","2","4","5","5","1","3","2","1","1","3","2","7","3","7","2","2","3","1","2","2","4","3","1","2","798933752469397506","马","325","Female","[""好她"",""好我"",""坏她"",""坏我""]","[""强她"",""强我"",""弱她"",""弱我""]","","","","","","","","no","","","","","","","","","SRET","EW_formal","","key","f","16.66584905660393","848","472.58333333333337","朋友","偏私","Negative","morality","","","","","","","","","","",""
"505","","j","psychophysics","72","374176","0.0-7.0-3.0-0.58","6","5","6","5","4","5","4","4","5","5","5","1","-1","-2","2","-1","1","1","0","5","4","5","5","5","4","3","3","4","4","5","6","4","4","2","3","3","6","4","5","1","3","3","6","1","2","2","4","3","1","2","1","5","2","2","5","2","4","5","5","1","3","2","1","1","3","2","7","3","7","2","2","3","1","2","2","4","3","1","2","798933752469397506","马","325","Female","[""好她"",""好我"",""坏她"",""坏我""]","[""强她"",""强我"",""弱她"",""弱我""]","","","","","","","","yes","","","","","","","","","SRET","EW_formal","","key","j","16.665777777777596","848","472.58333333333337","自己","淡泊","Positive","morality","","","","","","","","","","",""
"475","","j","psychophysics","73","375692","0.0-7.0-3.0-0.59","6","5","6","5","4","5","4","4","5","5","5","1","-1","-2","2","-1","1","1","0","5","4","5","5","5","4","3","3","4","4","5","6","4","4","2","3","3","6","4","5","1","3","3","6","1","2","2","4","3","1","2","1","5","2","2","5","2","4","5","5","1","3","2","1","1","3","2","7","3","7","2","2","3","1","2","2","4","3","1","2","798933752469397506","马","325","Female","[""好她"",""好我"",""坏她"",""坏我""]","[""强她"",""强我"",""弱她"",""弱我""]","","","","","","","","yes","","","","","","","","","SRET","EW_formal","","key","j","16.665777777778242","848","472.58333333333337","自己","果决","Positive","ability","","","","","","","","","","",""
"652","","j","psychophysics","74","377353","0.0-7.0-3.0-0.60","6","5","6","5","4","5","4","4","5","5","5","1","-1","-2","2","-1","1","1","0","5","4","5","5","5","4","3","3","4","4","5","6","4","4","2","3","3","6","4","5","1","3","3","6","1","2","2","4","3","1","2","1","5","2","2","5","2","4","5","5","1","3","2","1","1","3","2","7","3","7","2","2","3","1","2","2","4","3","1","2","798933752469397506","马","325","Female","[""好她"",""好我"",""坏她"",""坏我""]","[""强她"",""强我"",""弱她"",""弱我""]","","","","","","","","yes","","","","","","","","","SRET","EW_formal","","key","j","16.66571428571419","848","472.58333333333337","朋友","精干","Positive","ability","","","","","","","","","","",""
"372","","j","psychophysics","75","378728","0.0-7.0-3.0-0.61","6","5","6","5","4","5","4","4","5","5","5","1","-1","-2","2","-1","1","1","0","5","4","5","5","5","4","3","3","4","4","5","6","4","4","2","3","3","6","4","5","1","3","3","6","1","2","2","4","3","1","2","1","5","2","2","5","2","4","5","5","1","3","2","1","1","3","2","7","3","7","2","2","3","1","2","2","4","3","1","2","798933752469397506","马","325","Female","[""好她"",""好我"",""坏她"",""坏我""]","[""强她"",""强我"",""弱她"",""弱我""]","","","","","","","","yes","","","","","","","","","SRET","EW_formal","","key","j","16.66560975609776","848","472.58333333333337","自己","博识","Positive","ability","","","","","","","","","","",""
"619","","j","psychophysics","76","380349","0.0-7.0-3.0-0.62","6","5","6","5","4","5","4","4","5","5","5","1","-1","-2","2","-1","1","1","0","5","4","5","5","5","4","3","3","4","4","5","6","4","4","2","3","3","6","4","5","1","3","3","6","1","2","2","4","3","1","2","1","5","2","2","5","2","4","5","5","1","3","2","1","1","3","2","7","3","7","2","2","3","1","2","2","4","3","1","2","798933752469397506","马","325","Female","[""好她"",""好我"",""坏她"",""坏我""]","[""强她"",""强我"",""弱她"",""弱我""]","","","","","","","","yes","","","","","","","","","SRET","EW_formal","","key","j","16.665833333333165","848","472.58333333333337","朋友","能干","Positive","ability","","","","","","","","","","",""
"568","","j","psychophysics","77","381920","0.0-7.0-3.0-0.63","6","5","6","5","4","5","4","4","5","5","5","1","-1","-2","2","-1","1","1","0","5","4","5","5","5","4","3","3","4","4","5","6","4","4","2","3","3","6","4","5","1","3","3","6","1","2","2","4","3","1","2","1","5","2","2","5","2","4","5","5","1","3","2","1","1","3","2","7","3","7","2","2","3","1","2","2","4","3","1","2","798933752469397506","马","325","Female","[""好她"",""好我"",""坏她"",""坏我""]","[""强她"",""强我"",""弱她"",""弱我""]","","","","","","","","yes","","","","","","","","","SRET","EW_formal","","key","j","16.665806451612728","848","472.58333333333337","朋友","敏捷","Positive","ability","","","","","","","","","","",""
"617","","j","psychophysics","78","383545","0.0-7.0-3.0-0.64","6","5","6","5","4","5","4","4","5","5","5","1","-1","-2","2","-1","1","1","0","5","4","5","5","5","4","3","3","4","4","5","6","4","4","2","3","3","6","4","5","1","3","3","6","1","2","2","4","3","1","2","1","5","2","2","5","2","4","5","5","1","3","2","1","1","3","2","7","3","7","2","2","3","1","2","2","4","3","1","2","798933752469397506","马","325","Female","[""好她"",""好我"",""坏她"",""坏我""]","[""强她"",""强我"",""弱她"",""弱我""]","","","","","","","","yes","","","","","","","","","SRET","EW_formal","","key","j","16.66597938144366","848","472.58333333333337","朋友","敬业","Positive","morality","","","","","","","","","","",""
"762","","f","psychophysics","79","385314","0.0-7.0-3.0-0.65","6","5","6","5","4","5","4","4","5","5","5","1","-1","-2","2","-1","1","1","0","5","4","5","5","5","4","3","3","4","4","5","6","4","4","2","3","3","6","4","5","1","3","3","6","1","2","2","4","3","1","2","1","5","2","2","5","2","4","5","5","1","3","2","1","1","3","2","7","3","7","2","2","3","1","2","2","4","3","1","2","798933752469397506","马","325","Female","[""好她"",""好我"",""坏她"",""坏我""]","[""强她"",""强我"",""弱她"",""弱我""]","","","","","","","","no","","","","","","","","","SRET","EW_formal","","key","f","16.66590476190516","848","472.58333333333337","朋友","无能","Negative","ability","","","","","","","","","","",""
"458","","j","psychophysics","80","386845","0.0-7.0-3.0-0.66","6","5","6","5","4","5","4","4","5","5","5","1","-1","-2","2","-1","1","1","0","5","4","5","5","5","4","3","3","4","4","5","6","4","4","2","3","3","6","4","5","1","3","3","6","1","2","2","4","3","1","2","1","5","2","2","5","2","4","5","5","1","3","2","1","1","3","2","7","3","7","2","2","3","1","2","2","4","3","1","2","798933752469397506","马","325","Female","[""好她"",""好我"",""坏她"",""坏我""]","[""强她"",""强我"",""弱她"",""弱我""]","","","","","","","","yes","","","","","","","","","SRET","EW_formal","","key","j","16.66593406593381","848","472.58333333333337","朋友","有力","Positive","ability","","","","","","","","","","",""
"606","","j","psychophysics","81","388466","0.0-7.0-3.0-0.67","6","5","6","5","4","5","4","4","5","5","5","1","-1","-2","2","-1","1","1","0","5","4","5","5","5","4","3","3","4","4","5","6","4","4","2","3","3","6","4","5","1","3","3","6","1","2","2","4","3","1","2","1","5","2","2","5","2","4","5","5","1","3","2","1","1","3","2","7","3","7","2","2","3","1","2","2","4","3","1","2","798933752469397506","马","325","Female","[""好她"",""好我"",""坏她"",""坏我""]","[""强她"",""强我"",""弱她"",""弱我""]","","","","","","","","yes","","","","","","","","","SRET","EW_formal","","key","j","16.665833333333165","848","472.58333333333337","朋友","迟钝","Negative","ability","","","","","","","","","","",""
"536","","j","psychophysics","82","390005","0.0-7.0-3.0-0.68","6","5","6","5","4","5","4","4","5","5","5","1","-1","-2","2","-1","1","1","0","5","4","5","5","5","4","3","3","4","4","5","6","4","4","2","3","3","6","4","5","1","3","3","6","1","2","2","4","3","1","2","1","5","2","2","5","2","4","5","5","1","3","2","1","1","3","2","7","3","7","2","2","3","1","2","2","4","3","1","2","798933752469397506","马","325","Female","[""好她"",""好我"",""坏她"",""坏我""]","[""强她"",""强我"",""弱她"",""弱我""]","","","","","","","","yes","","","","","","","","","SRET","EW_formal","","key","j","16.66593406593381","848","472.58333333333337","自己","利己","Negative","morality","","","","","","","","","","",""
"585","","j","psychophysics","83","391598","0.0-7.0-3.0-0.69","6","5","6","5","4","5","4","4","5","5","5","1","-1","-2","2","-1","1","1","0","5","4","5","5","5","4","3","3","4","4","5","6","4","4","2","3","3","6","4","5","1","3","3","6","1","2","2","4","3","1","2","1","5","2","2","5","2","4","5","5","1","3","2","1","1","3","2","7","3","7","2","2","3","1","2","2","4","3","1","2","798933752469397506","马","325","Female","[""好她"",""好我"",""坏她"",""坏我""]","[""强她"",""强我"",""弱她"",""弱我""]","","","","","","","","yes","","","","","","","","","SRET","EW_formal","","key","j","16.665894736842205","848","472.58333333333337","朋友","奉献","Positive","morality","","","","","","","","","","",""
"491","","j","psychophysics","84","393097","0.0-7.0-3.0-0.70","6","5","6","5","4","5","4","4","5","5","5","1","-1","-2","2","-1","1","1","0","5","4","5","5","5","4","3","3","4","4","5","6","4","4","2","3","3","6","4","5","1","3","3","6","1","2","2","4","3","1","2","1","5","2","2","5","2","4","5","5","1","3","2","1","1","3","2","7","3","7","2","2","3","1","2","2","4","3","1","2","798933752469397506","马","325","Female","[""好她"",""好我"",""坏她"",""坏我""]","[""强她"",""强我"",""弱她"",""弱我""]","","","","","","","","yes","","","","","","","","","SRET","EW_formal","","key","j","16.66584269662932","848","472.58333333333337","自己","忠诚","Positive","morality","","","","","","","","","","",""
"804","","f","psychophysics","85","394912","0.0-7.0-3.0-0.71","6","5","6","5","4","5","4","4","5","5","5","1","-1","-2","2","-1","1","1","0","5","4","5","5","5","4","3","3","4","4","5","6","4","4","2","3","3","6","4","5","1","3","3","6","1","2","2","4","3","1","2","1","5","2","2","5","2","4","5","5","1","3","2","1","1","3","2","7","3","7","2","2","3","1","2","2","4","3","1","2","798933752469397506","马","325","Female","[""好她"",""好我"",""坏她"",""坏我""]","[""强她"",""强我"",""弱她"",""弱我""]","","","","","","","","no","","","","","","","","","SRET","EW_formal","","key","f","16.665925925925777","848","472.58333333333337","自己","龌龊","Negative","morality","","","","","","","","","","",""
"544","","j","psychophysics","86","396464","0.0-7.0-3.0-0.72","6","5","6","5","4","5","4","4","5","5","5","1","-1","-2","2","-1","1","1","0","5","4","5","5","5","4","3","3","4","4","5","6","4","4","2","3","3","6","4","5","1","3","3","6","1","2","2","4","3","1","2","1","5","2","2","5","2","4","5","5","1","3","2","1","1","3","2","7","3","7","2","2","3","1","2","2","4","3","1","2","798933752469397506","马","325","Female","[""好她"",""好我"",""坏她"",""坏我""]","[""强她"",""强我"",""弱她"",""弱我""]","","","","","","","","yes","","","","","","","","","SRET","EW_formal","","key","j","16.66586956521749","848","472.58333333333337","自己","慈悲","Positive","morality","","","","","","","","","","",""
"515","","j","psychophysics","87","397992","0.0-7.0-3.0-0.73","6","5","6","5","4","5","4","4","5","5","5","1","-1","-2","2","-1","1","1","0","5","4","5","5","5","4","3","3","4","4","5","6","4","4","2","3","3","6","4","5","1","3","3","6","1","2","2","4","3","1","2","1","5","2","2","5","2","4","5","5","1","3","2","1","1","3","2","7","3","7","2","2","3","1","2","2","4","3","1","2","798933752469397506","马","325","Female","[""好她"",""好我"",""坏她"",""坏我""]","[""强她"",""强我"",""弱她"",""弱我""]","","","","","","","","yes","","","","","","","","","SRET","EW_formal","","key","j","16.66593406593381","848","472.58333333333337","自己","粗心","Negative","ability","","","","","","","","","","",""
"671","","f","psychophysics","88","399665","0.0-7.0-3.0-0.74","6","5","6","5","4","5","4","4","5","5","5","1","-1","-2","2","-1","1","1","0","5","4","5","5","5","4","3","3","4","4","5","6","4","4","2","3","3","6","4","5","1","3","3","6","1","2","2","4","3","1","2","1","5","2","2","5","2","4","5","5","1","3","2","1","1","3","2","7","3","7","2","2","3","1","2","2","4","3","1","2","798933752469397506","马","325","Female","[""好她"",""好我"",""坏她"",""坏我""]","[""强她"",""强我"",""弱她"",""弱我""]","","","","","","","","no","","","","","","","","","SRET","EW_formal","","key","f","16.66585858585842","848","472.58333333333337","朋友","愚钝","Negative","ability","","","","","","","","","","",""
"496","","j","psychophysics","89","401174","0.0-7.0-3.0-0.75","6","5","6","5","4","5","4","4","5","5","5","1","-1","-2","2","-1","1","1","0","5","4","5","5","5","4","3","3","4","4","5","6","4","4","2","3","3","6","4","5","1","3","3","6","1","2","2","4","3","1","2","1","5","2","2","5","2","4","5","5","1","3","2","1","1","3","2","7","3","7","2","2","3","1","2","2","4","3","1","2","798933752469397506","马","325","Female","[""好她"",""好我"",""坏她"",""坏我""]","[""强她"",""强我"",""弱她"",""弱我""]","","","","","","","","yes","","","","","","","","","SRET","EW_formal","","key","j","16.665777777777596","848","472.58333333333337","朋友","博学","Positive","ability","","","","","","","","","","",""
"657","","j","psychophysics","90","402837","0.0-7.0-3.0-0.76","6","5","6","5","4","5","4","4","5","5","5","1","-1","-2","2","-1","1","1","0","5","4","5","5","5","4","3","3","4","4","5","6","4","4","2","3","3","6","4","5","1","3","3","6","1","2","2","4","3","1","2","1","5","2","2","5","2","4","5","5","1","3","2","1","1","3","2","7","3","7","2","2","3","1","2","2","4","3","1","2","798933752469397506","马","325","Female","[""好她"",""好我"",""坏她"",""坏我""]","[""强她"",""强我"",""弱她"",""弱我""]","","","","","","","","yes","","","","","","","","","SRET","EW_formal","","key","j","16.66571428571419","848","472.58333333333337","自己","肯干","Positive","ability","","","","","","","","","","",""
"653","","j","psychophysics","91","404496","0.0-7.0-3.0-0.77","6","5","6","5","4","5","4","4","5","5","5","1","-1","-2","2","-1","1","1","0","5","4","5","5","5","4","3","3","4","4","5","6","4","4","2","3","3","6","4","5","1","3","3","6","1","2","2","4","3","1","2","1","5","2","2","5","2","4","5","5","1","3","2","1","1","3","2","7","3","7","2","2","3","1","2","2","4","3","1","2","798933752469397506","马","325","Female","[""好她"",""好我"",""坏她"",""坏我""]","[""强她"",""强我"",""弱她"",""弱我""]","","","","","","","","yes","","","","","","","","","SRET","EW_formal","","key","j","16.66585858585842","848","472.58333333333337","自己","迂拙","Negative","ability","","","","","","","","","","",""
"637","","f","psychophysics","92","406138","0.0-7.0-3.0-0.78","6","5","6","5","4","5","4","4","5","5","5","1","-1","-2","2","-1","1","1","0","5","4","5","5","5","4","3","3","4","4","5","6","4","4","2","3","3","6","4","5","1","3","3","6","1","2","2","4","3","1","2","1","5","2","2","5","2","4","5","5","1","3","2","1","1","3","2","7","3","7","2","2","3","1","2","2","4","3","1","2","798933752469397506","马","325","Female","[""好她"",""好我"",""坏她"",""坏我""]","[""强她"",""强我"",""弱她"",""弱我""]","","","","","","","","no","","","","","","","","","SRET","EW_formal","","key","f","16.665773195876458","848","472.58333333333337","朋友","无助","Negative","ability","","","","","","","","","","",""
"468","","j","psychophysics","93","407632","0.0-7.0-3.0-0.79","6","5","6","5","4","5","4","4","5","5","5","1","-1","-2","2","-1","1","1","0","5","4","5","5","5","4","3","3","4","4","5","6","4","4","2","3","3","6","4","5","1","3","3","6","1","2","2","4","3","1","2","1","5","2","2","5","2","4","5","5","1","3","2","1","1","3","2","7","3","7","2","2","3","1","2","2","4","3","1","2","798933752469397506","马","325","Female","[""好她"",""好我"",""坏她"",""坏我""]","[""强她"",""强我"",""弱她"",""弱我""]","","","","","","","","yes","","","","","","","","","SRET","EW_formal","","key","j","16.66584269662932","848","472.58333333333337","自己","势利","Negative","morality","","","","","","","","","","",""
"336","","f","psychophysics","94","409078","0.0-7.0-3.0-0.80","6","5","6","5","4","5","4","4","5","5","5","1","-1","-2","2","-1","1","1","0","5","4","5","5","5","4","3","3","4","4","5","6","4","4","2","3","3","6","4","5","1","3","3","6","1","2","2","4","3","1","2","1","5","2","2","5","2","4","5","5","1","3","2","1","1","3","2","7","3","7","2","2","3","1","2","2","4","3","1","2","798933752469397506","马","325","Female","[""好她"",""好我"",""坏她"",""坏我""]","[""强她"",""强我"",""弱她"",""弱我""]","","","","","","","","no","","","","","","","","","SRET","EW_formal","","key","f","16.66604651162823","848","472.58333333333337","朋友","善心","Positive","morality","","","","","","","","","","",""
"274","","j","psychophysics","95","410457","0.0-7.0-3.0-0.81","6","5","6","5","4","5","4","4","5","5","5","1","-1","-2","2","-1","1","1","0","5","4","5","5","5","4","3","3","4","4","5","6","4","4","2","3","3","6","4","5","1","3","3","6","1","2","2","4","3","1","2","1","5","2","2","5","2","4","5","5","1","3","2","1","1","3","2","7","3","7","2","2","3","1","2","2","4","3","1","2","798933752469397506","马","325","Female","[""好她"",""好我"",""坏她"",""坏我""]","[""强她"",""强我"",""弱她"",""弱我""]","","","","","","","","yes","","","","","","","","","SRET","EW_formal","","key","j","16.66585365853701","848","472.58333333333337","朋友","拖延","Negative","ability","","","","","","","","","","",""
"514","","j","psychophysics","96","411978","0.0-7.0-3.0-0.82","6","5","6","5","4","5","4","4","5","5","5","1","-1","-2","2","-1","1","1","0","5","4","5","5","5","4","3","3","4","4","5","6","4","4","2","3","3","6","4","5","1","3","3","6","1","2","2","4","3","1","2","1","5","2","2","5","2","4","5","5","1","3","2","1","1","3","2","7","3","7","2","2","3","1","2","2","4","3","1","2","798933752469397506","马","325","Female","[""好她"",""好我"",""坏她"",""坏我""]","[""强她"",""强我"",""弱她"",""弱我""]","","","","","","","","yes","","","","","","","","","SRET","EW_formal","","key","j","16.665777777777596","848","472.58333333333337","朋友","无敌","Positive","ability","","","","","","","","","","",""
"400","","f","psychophysics","97","413393","0.0-7.0-3.0-0.83","6","5","6","5","4","5","4","4","5","5","5","1","-1","-2","2","-1","1","1","0","5","4","5","5","5","4","3","3","4","4","5","6","4","4","2","3","3","6","4","5","1","3","3","6","1","2","2","4","3","1","2","1","5","2","2","5","2","4","5","5","1","3","2","1","1","3","2","7","3","7","2","2","3","1","2","2","4","3","1","2","798933752469397506","马","325","Female","[""好她"",""好我"",""坏她"",""坏我""]","[""强她"",""强我"",""弱她"",""弱我""]","","","","","","","","no","","","","","","","","","SRET","EW_formal","","key","f","16.665714285714092","848","472.58333333333337","自己","守时","Positive","morality","","","","","","","","","","",""
"874","","j","psychophysics","98","415273","0.0-7.0-3.0-0.84","6","5","6","5","4","5","4","4","5","5","5","1","-1","-2","2","-1","1","1","0","5","4","5","5","5","4","3","3","4","4","5","6","4","4","2","3","3","6","4","5","1","3","3","6","1","2","2","4","3","1","2","1","5","2","2","5","2","4","5","5","1","3","2","1","1","3","2","7","3","7","2","2","3","1","2","2","4","3","1","2","798933752469397506","马","325","Female","[""好她"",""好我"",""坏她"",""坏我""]","[""强她"",""强我"",""弱她"",""弱我""]","","","","","","","","yes","","","","","","","","","SRET","EW_formal","","key","j","16.665892857143003","848","472.58333333333337","朋友","低俗","Negative","morality","","","","","","","","","","",""
"550","","j","psychophysics","99","416837","0.0-7.0-3.0-0.85","6","5","6","5","4","5","4","4","5","5","5","1","-1","-2","2","-1","1","1","0","5","4","5","5","5","4","3","3","4","4","5","6","4","4","2","3","3","6","4","5","1","3","3","6","1","2","2","4","3","1","2","1","5","2","2","5","2","4","5","5","1","3","2","1","1","3","2","7","3","7","2","2","3","1","2","2","4","3","1","2","798933752469397506","马","325","Female","[""好她"",""好我"",""坏她"",""坏我""]","[""强她"",""强我"",""弱她"",""弱我""]","","","","","","","","yes","","","","","","","","","SRET","EW_formal","","key","j","16.66586956521749","848","472.58333333333337","自己","主见","Positive","ability","","","","","","","","","","",""
"456","","j","psychophysics","100","418305","0.0-7.0-3.0-0.86","6","5","6","5","4","5","4","4","5","5","5","1","-1","-2","2","-1","1","1","0","5","4","5","5","5","4","3","3","4","4","5","6","4","4","2","3","3","6","4","5","1","3","3","6","1","2","2","4","3","1","2","1","5","2","2","5","2","4","5","5","1","3","2","1","1","3","2","7","3","7","2","2","3","1","2","2","4","3","1","2","798933752469397506","马","325","Female","[""好她"",""好我"",""坏她"",""坏我""]","[""强她"",""强我"",""弱她"",""弱我""]","","","","","","","","yes","","","","","","","","","SRET","EW_formal","","key","j","16.66597701149428","848","472.58333333333337","自己","缓慢","Negative","ability","","","","","","","","","","",""
"38","","j","psychophysics","101","419345","0.0-7.0-3.0-0.87","6","5","6","5","4","5","4","4","5","5","5","1","-1","-2","2","-1","1","1","0","5","4","5","5","5","4","3","3","4","4","5","6","4","4","2","3","3","6","4","5","1","3","3","6","1","2","2","4","3","1","2","1","5","2","2","5","2","4","5","5","1","3","2","1","1","3","2","7","3","7","2","2","3","1","2","2","4","3","1","2","798933752469397506","马","325","Female","[""好她"",""好我"",""坏她"",""坏我""]","[""强她"",""强我"",""弱她"",""弱我""]","","","","","","","","yes","","","","","","","","","SRET","EW_formal","","key","j","16.665806451613353","848","472.58333333333337","朋友","素养","Positive","morality","","","","","","","","","","",""
"3898","
    <p><div style='color:white;font-size:35px; line-height:20px;'>计算任务</div></p><br>
    <p><div style='color:red;font-size:25px; line-height:20px;'>接下来，您将看到一些四则运算题，<b>请从键盘选择 0-9 进行反应。</b></div></p>
    <p><div style='color:red;font-size:25px; line-height:20px;'>请尽可能快地进行计算，计算的速度和正确率将影响报酬的发放。</div></p>
    <p><div class='footer' style='color:white;font-size:25px; line-height:20px;'>如果对本实验还有不清楚之处，请立即向实验员咨询。</p><p style='color:white;font-size:25px; line-height:20px;'>如果您明白了规则：</p><p style='color:white;font-size:22px; line-height:20px;'>请按 继续 进入练习</p>
    </div>
    ","0","html-button-response","102","423242","0.0-7.0-4.0","6","5","6","5","4","5","4","4","5","5","5","1","-1","-2","2","-1","1","1","0","5","4","5","5","5","4","3","3","4","4","5","6","4","4","2","3","3","6","4","5","1","3","3","6","1","2","2","4","3","1","2","1","5","2","2","5","2","4","5","5","1","3","2","1","1","3","2","7","3","7","2","2","3","1","2","2","4","3","1","2","798933752469397506","马","325","Female","[""好她"",""好我"",""坏她"",""坏我""]","[""强她"",""强我"",""弱她"",""弱我""]","","","","","","","","","","","","","","","","","SRET_math","math_instructions","Sun Jan 21 2024 15:10:53 GMT+0800 (中国标准时间)","","","","","","","","","","","","","","","","","","","",""
"2191","","7","psychophysics","103","425437","0.0-7.0-5.0-0.0","6","5","6","5","4","5","4","4","5","5","5","1","-1","-2","2","-1","1","1","0","5","4","5","5","5","4","3","3","4","4","5","6","4","4","2","3","3","6","4","5","1","3","3","6","1","2","2","4","3","1","2","1","5","2","2","5","2","4","5","5","1","3","2","1","1","3","2","7","3","7","2","2","3","1","2","2","4","3","1","2","798933752469397506","马","325","Female","[""好她"",""好我"",""坏她"",""坏我""]","[""强她"",""强我"",""弱她"",""弱我""]","","","","","","","","7","","","","","","","","","SRET","SRET_math_calculate","","key","7","16.643969465649192","848","472.58333333333337","","","","","9-2= ?","7","1","","","","","","","",""
"1993","","6","psychophysics","104","427430","0.0-7.0-5.0-0.1","6","5","6","5","4","5","4","4","5","5","5","1","-1","-2","2","-1","1","1","0","5","4","5","5","5","4","3","3","4","4","5","6","4","4","2","3","3","6","4","5","1","3","3","6","1","2","2","4","3","1","2","1","5","2","2","5","2","4","5","5","1","3","2","1","1","3","2","7","3","7","2","2","3","1","2","2","4","3","1","2","798933752469397506","马","325","Female","[""好她"",""好我"",""坏她"",""坏我""]","[""强她"",""强我"",""弱她"",""弱我""]","","","","","","","","6","","","","","","","","","SRET","SRET_math_calculate","","key","6","16.665546218487492","848","472.58333333333337","","","","","9-3= ?","6","1","","","","","","","",""
"1814","","7","psychophysics","105","429245","0.0-7.0-5.0-0.2","6","5","6","5","4","5","4","4","5","5","5","1","-1","-2","2","-1","1","1","0","5","4","5","5","5","4","3","3","4","4","5","6","4","4","2","3","3","6","4","5","1","3","3","6","1","2","2","4","3","1","2","1","5","2","2","5","2","4","5","5","1","3","2","1","1","3","2","7","3","7","2","2","3","1","2","2","4","3","1","2","798933752469397506","马","325","Female","[""好她"",""好我"",""坏她"",""坏我""]","[""强她"",""强我"",""弱她"",""弱我""]","","","","","","","","7","","","","","","","","","SRET","SRET_math_calculate","","key","7","16.665740740740418","848","472.58333333333337","","","","","2+5= ?","7","1","","","","","","","",""
"1940","","6","psychophysics","106","431185","0.0-7.0-5.0-0.3","6","5","6","5","4","5","4","4","5","5","5","1","-1","-2","2","-1","1","1","0","5","4","5","5","5","4","3","3","4","4","5","6","4","4","2","3","3","6","4","5","1","3","3","6","1","2","2","4","3","1","2","1","5","2","2","5","2","4","5","5","1","3","2","1","1","3","2","7","3","7","2","2","3","1","2","2","4","3","1","2","798933752469397506","马","325","Female","[""好她"",""好我"",""坏她"",""坏我""]","[""强她"",""强我"",""弱她"",""弱我""]","","","","","","","","6","","","","","","","","","SRET","SRET_math_calculate","","key","6","16.6659130434784","848","472.58333333333337","","","","","2+4= ?","6","1","","","","","","","",""
"2015","","8","psychophysics","107","433200","0.0-7.0-5.0-0.4","6","5","6","5","4","5","4","4","5","5","5","1","-1","-2","2","-1","1","1","0","5","4","5","5","5","4","3","3","4","4","5","6","4","4","2","3","3","6","4","5","1","3","3","6","1","2","2","4","3","1","2","1","5","2","2","5","2","4","5","5","1","3","2","1","1","3","2","7","3","7","2","2","3","1","2","2","4","3","1","2","798933752469397506","马","325","Female","[""好她"",""好我"",""坏她"",""坏我""]","[""强她"",""强我"",""弱她"",""弱我""]","","","","","","","","8","","","","","","","","","SRET","SRET_math_calculate","","key","8","16.665833333333527","848","472.58333333333337","","","","","1*8= ?","8","1","","","","","","","",""
"2207","","3","psychophysics","108","435409","0.0-7.0-5.0-0.5","6","5","6","5","4","5","4","4","5","5","5","1","-1","-2","2","-1","1","1","0","5","4","5","5","5","4","3","3","4","4","5","6","4","4","2","3","3","6","4","5","1","3","3","6","1","2","2","4","3","1","2","1","5","2","2","5","2","4","5","5","1","3","2","1","1","3","2","7","3","7","2","2","3","1","2","2","4","3","1","2","798933752469397506","马","325","Female","[""好她"",""好我"",""坏她"",""坏我""]","[""强她"",""强我"",""弱她"",""弱我""]","","","","","","","","3","","","","","","","","","SRET","SRET_math_calculate","","key","3","16.66575757575761","848","472.58333333333337","","","","","21/7=  ?","3","1","","","","","","","",""
"2824","","4","psychophysics","109","438233","0.0-7.0-5.0-0.6","6","5","6","5","4","5","4","4","5","5","5","1","-1","-2","2","-1","1","1","0","5","4","5","5","5","4","3","3","4","4","5","6","4","4","2","3","3","6","4","5","1","3","3","6","1","2","2","4","3","1","2","1","5","2","2","5","2","4","5","5","1","3","2","1","1","3","2","7","3","7","2","2","3","1","2","2","4","3","1","2","798933752469397506","马","325","Female","[""好她"",""好我"",""坏她"",""坏我""]","[""强她"",""强我"",""弱她"",""弱我""]","","","","","","","","4","","","","","","","","","SRET","SRET_math_calculate","","key","4","16.66583333333325","848","472.58333333333337","","","","","13-9= ?","4","1","","","","","","","",""
"2463","","3","psychophysics","110","440697","0.0-7.0-5.0-0.7","6","5","6","5","4","5","4","4","5","5","5","1","-1","-2","2","-1","1","1","0","5","4","5","5","5","4","3","3","4","4","5","6","4","4","2","3","3","6","4","5","1","3","3","6","1","2","2","4","3","1","2","1","5","2","2","5","2","4","5","5","1","3","2","1","1","3","2","7","3","7","2","2","3","1","2","2","4","3","1","2","798933752469397506","马","325","Female","[""好她"",""好我"",""坏她"",""坏我""]","[""强她"",""强我"",""弱她"",""弱我""]","","","","","","","","3","","","","","","","","","SRET","SRET_math_calculate","","key","3","16.665850340136085","848","472.58333333333337","","","","","9-6= ?","3","1","","","","","","","",""
"2068","","4","psychophysics","111","442764","0.0-7.0-5.0-0.8","6","5","6","5","4","5","4","4","5","5","5","1","-1","-2","2","-1","1","1","0","5","4","5","5","5","4","3","3","4","4","5","6","4","4","2","3","3","6","4","5","1","3","3","6","1","2","2","4","3","1","2","1","5","2","2","5","2","4","5","5","1","3","2","1","1","3","2","7","3","7","2","2","3","1","2","2","4","3","1","2","798933752469397506","马","325","Female","[""好她"",""好我"",""坏她"",""坏我""]","[""强她"",""强我"",""弱她"",""弱我""]","","","","","","","","4","","","","","","","","","SRET","SRET_math_calculate","","key","4","16.665853658536303","848","472.58333333333337","","","","","2+2= ?","4","1","","","","","","","",""
"2344","","2","psychophysics","112","445109","0.0-7.0-5.0-0.9","6","5","6","5","4","5","4","4","5","5","5","1","-1","-2","2","-1","1","1","0","5","4","5","5","5","4","3","3","4","4","5","6","4","4","2","3","3","6","4","5","1","3","3","6","1","2","2","4","3","1","2","1","5","2","2","5","2","4","5","5","1","3","2","1","1","3","2","7","3","7","2","2","3","1","2","2","4","3","1","2","798933752469397506","马","325","Female","[""好她"",""好我"",""坏她"",""坏我""]","[""强她"",""强我"",""弱她"",""弱我""]","","","","","","","","2","","","","","","","","","SRET","SRET_math_calculate","","key","2","16.665857142856943","848","472.58333333333337","","","","","90/45= ?","2","1","","","","","","","",""
"1996","","2","psychophysics","113","447105","0.0-7.0-5.0-0.10","6","5","6","5","4","5","4","4","5","5","5","1","-1","-2","2","-1","1","1","0","5","4","5","5","5","4","3","3","4","4","5","6","4","4","2","3","3","6","4","5","1","3","3","6","1","2","2","4","3","1","2","1","5","2","2","5","2","4","5","5","1","3","2","1","1","3","2","7","3","7","2","2","3","1","2","2","4","3","1","2","798933752469397506","马","325","Female","[""好她"",""好我"",""坏她"",""坏我""]","[""强她"",""强我"",""弱她"",""弱我""]","","","","","","","","2","","","","","","","","","SRET","SRET_math_calculate","","key","2","16.66576271186439","848","472.58333333333337","","","","","8/4= ?","2","1","","","","","","","",""
"2094","","5","psychophysics","114","449201","0.0-7.0-5.0-0.11","6","5","6","5","4","5","4","4","5","5","5","1","-1","-2","2","-1","1","1","0","5","4","5","5","5","4","3","3","4","4","5","6","4","4","2","3","3","6","4","5","1","3","3","6","1","2","2","4","3","1","2","1","5","2","2","5","2","4","5","5","1","3","2","1","1","3","2","7","3","7","2","2","3","1","2","2","4","3","1","2","798933752469397506","马","325","Female","[""好她"",""好我"",""坏她"",""坏我""]","[""强她"",""强我"",""弱她"",""弱我""]","","","","","","","","5","","","","","","","","","SRET","SRET_math_calculate","","key","5","16.665759999999775","848","472.58333333333337","","","","","15-10= ?","5","1","","","","","","","",""
"2807","","7","psychophysics","115","452008","0.0-7.0-5.0-0.12","6","5","6","5","4","5","4","4","5","5","5","1","-1","-2","2","-1","1","1","0","5","4","5","5","5","4","3","3","4","4","5","6","4","4","2","3","3","6","4","5","1","3","3","6","1","2","2","4","3","1","2","1","5","2","2","5","2","4","5","5","1","3","2","1","1","3","2","7","3","7","2","2","3","1","2","2","4","3","1","2","798933752469397506","马","325","Female","[""好她"",""好我"",""坏她"",""坏我""]","[""强她"",""强我"",""弱她"",""弱我""]","","","","","","","","7","","","","","","","","","SRET","SRET_math_calculate","","key","7","16.665833333333598","848","472.58333333333337","","","","","49/7 = ?","7","1","","","","","","","",""
"2083","","1","psychophysics","116","454093","0.0-7.0-5.0-0.13","6","5","6","5","4","5","4","4","5","5","5","1","-1","-2","2","-1","1","1","0","5","4","5","5","5","4","3","3","4","4","5","6","4","4","2","3","3","6","4","5","1","3","3","6","1","2","2","4","3","1","2","1","5","2","2","5","2","4","5","5","1","3","2","1","1","3","2","7","3","7","2","2","3","1","2","2","4","3","1","2","798933752469397506","马","325","Female","[""好她"",""好我"",""坏她"",""坏我""]","[""强她"",""强我"",""弱她"",""弱我""]","","","","","","","","1","","","","","","","","","SRET","SRET_math_calculate","","key","1","16.665806451612884","848","472.58333333333337","","","","","12/12= ?","1","1","","","","","","","",""
"2636","","6","psychophysics","117","456729","0.0-7.0-5.0-0.14","6","5","6","5","4","5","4","4","5","5","5","1","-1","-2","2","-1","1","1","0","5","4","5","5","5","4","3","3","4","4","5","6","4","4","2","3","3","6","4","5","1","3","3","6","1","2","2","4","3","1","2","1","5","2","2","5","2","4","5","5","1","3","2","1","1","3","2","7","3","7","2","2","3","1","2","2","4","3","1","2","798933752469397506","马","325","Female","[""好她"",""好我"",""坏她"",""坏我""]","[""强她"",""强我"",""弱她"",""弱我""]","","","","","","","","6","","","","","","","","","SRET","SRET_math_calculate","","key","6","16.665859872611332","848","472.58333333333337","","","","","2*3= ?","6","1","","","","","","","",""
"2000","","1","psychophysics","118","458729","0.0-7.0-5.0-0.15","6","5","6","5","4","5","4","4","5","5","5","1","-1","-2","2","-1","1","1","0","5","4","5","5","5","4","3","3","4","4","5","6","4","4","2","3","3","6","4","5","1","3","3","6","1","2","2","4","3","1","2","1","5","2","2","5","2","4","5","5","1","3","2","1","1","3","2","7","3","7","2","2","3","1","2","2","4","3","1","2","798933752469397506","马","325","Female","[""好她"",""好我"",""坏她"",""坏我""]","[""强她"",""强我"",""弱她"",""弱我""]","","","","","","","","1","","","","","","","","","SRET","SRET_math_calculate","","key","1","16.665882352941587","848","472.58333333333337","","","","","4/4= ?","1","1","","","","","","","",""
"2023","","3","psychophysics","119","460752","0.0-7.0-5.0-0.16","6","5","6","5","4","5","4","4","5","5","5","1","-1","-2","2","-1","1","1","0","5","4","5","5","5","4","3","3","4","4","5","6","4","4","2","3","3","6","4","5","1","3","3","6","1","2","2","4","3","1","2","1","5","2","2","5","2","4","5","5","1","3","2","1","1","3","2","7","3","7","2","2","3","1","2","2","4","3","1","2","798933752469397506","马","325","Female","[""好她"",""好我"",""坏她"",""坏我""]","[""强她"",""强我"",""弱她"",""弱我""]","","","","","","","","3","","","","","","","","","SRET","SRET_math_calculate","","key","3","16.665833333333527","848","472.58333333333337","","","","","3*1= ?","3","1","","","","","","","",""
"2332","","0","psychophysics","120","463086","0.0-7.0-5.0-0.17","6","5","6","5","4","5","4","4","5","5","5","1","-1","-2","2","-1","1","1","0","5","4","5","5","5","4","3","3","4","4","5","6","4","4","2","3","3","6","4","5","1","3","3","6","1","2","2","4","3","1","2","1","5","2","2","5","2","4","5","5","1","3","2","1","1","3","2","7","3","7","2","2","3","1","2","2","4","3","1","2","798933752469397506","马","325","Female","[""好她"",""好我"",""坏她"",""坏我""]","[""强她"",""强我"",""弱她"",""弱我""]","","","","","","","","0","","","","","","","","","SRET","SRET_math_calculate","","key","0","16.665755395683302","848","472.58333333333337","","","","","6*0= ?","0","1","","","","","","","",""
"2190","","6","psychophysics","121","465276","0.0-7.0-5.0-0.18","6","5","6","5","4","5","4","4","5","5","5","1","-1","-2","2","-1","1","1","0","5","4","5","5","5","4","3","3","4","4","5","6","4","4","2","3","3","6","4","5","1","3","3","6","1","2","2","4","3","1","2","1","5","2","2","5","2","4","5","5","1","3","2","1","1","3","2","7","3","7","2","2","3","1","2","2","4","3","1","2","798933752469397506","马","325","Female","[""好她"",""好我"",""坏她"",""坏我""]","[""强她"",""强我"",""弱她"",""弱我""]","","","","","","","","6","","","","","","","","","SRET","SRET_math_calculate","","key","6","16.665954198473212","848","472.58333333333337","","","","","3+3= ?","6","1","","","","","","","",""
"2195","","2","psychophysics","122","467472","0.0-7.0-5.0-0.19","6","5","6","5","4","5","4","4","5","5","5","1","-1","-2","2","-1","1","1","0","5","4","5","5","5","4","3","3","4","4","5","6","4","4","2","3","3","6","4","5","1","3","3","6","1","2","2","4","3","1","2","1","5","2","2","5","2","4","5","5","1","3","2","1","1","3","2","7","3","7","2","2","3","1","2","2","4","3","1","2","798933752469397506","马","325","Female","[""好她"",""好我"",""坏她"",""坏我""]","[""强她"",""强我"",""弱她"",""弱我""]","","","","","","","","2","","","","","","","","","SRET","SRET_math_calculate","","key","2","16.66580152671779","848","472.58333333333337","","","","","29-27= ?","2","1","","","","","","","",""
"2408","","9","psychophysics","123","469881","0.0-7.0-5.0-0.20","6","5","6","5","4","5","4","4","5","5","5","1","-1","-2","2","-1","1","1","0","5","4","5","5","5","4","3","3","4","4","5","6","4","4","2","3","3","6","4","5","1","3","3","6","1","2","2","4","3","1","2","1","5","2","2","5","2","4","5","5","1","3","2","1","1","3","2","7","3","7","2","2","3","1","2","2","4","3","1","2","798933752469397506","马","325","Female","[""好她"",""好我"",""坏她"",""坏我""]","[""强她"",""强我"",""弱她"",""弱我""]","","","","","","","","9","","","","","","","","","SRET","SRET_math_calculate","","key","9","16.66587412587434","848","472.58333333333337","","","","","18/2= ?","9","1","","","","","","","",""
"1968","","8","psychophysics","124","471849","0.0-7.0-5.0-0.21","6","5","6","5","4","5","4","4","5","5","5","1","-1","-2","2","-1","1","1","0","5","4","5","5","5","4","3","3","4","4","5","6","4","4","2","3","3","6","4","5","1","3","3","6","1","2","2","4","3","1","2","1","5","2","2","5","2","4","5","5","1","3","2","1","1","3","2","7","3","7","2","2","3","1","2","2","4","3","1","2","798933752469397506","马","325","Female","[""好她"",""好我"",""坏她"",""坏我""]","[""强她"",""强我"",""弱她"",""弱我""]","","","","","","","","8","","","","","","","","","SRET","SRET_math_calculate","","key","8","16.665982905982766","848","472.58333333333337","","","","","5+3= ?","8","1","","","","","","","",""
"3575","","5","psychophysics","125","475425","0.0-7.0-5.0-0.22","6","5","6","5","4","5","4","4","5","5","5","1","-1","-2","2","-1","1","1","0","5","4","5","5","5","4","3","3","4","4","5","6","4","4","2","3","3","6","4","5","1","3","3","6","1","2","2","4","3","1","2","1","5","2","2","5","2","4","5","5","1","3","2","1","1","3","2","7","3","7","2","2","3","1","2","2","4","3","1","2","798933752469397506","马","325","Female","[""好她"",""好我"",""坏她"",""坏我""]","[""强她"",""强我"",""弱她"",""弱我""]","","","","","","","","5","","","","","","","","","SRET","SRET_math_calculate","","key","5","16.665794392523278","848","472.58333333333337","","","","","12-7= ?","5","1","","","","","","","",""
"2083","","8","psychophysics","126","477509","0.0-7.0-5.0-0.23","6","5","6","5","4","5","4","4","5","5","5","1","-1","-2","2","-1","1","1","0","5","4","5","5","5","4","3","3","4","4","5","6","4","4","2","3","3","6","4","5","1","3","3","6","1","2","2","4","3","1","2","1","5","2","2","5","2","4","5","5","1","3","2","1","1","3","2","7","3","7","2","2","3","1","2","2","4","3","1","2","798933752469397506","马","325","Female","[""好她"",""好我"",""坏她"",""坏我""]","[""强她"",""强我"",""弱她"",""弱我""]","","","","","","","","8","","","","","","","","","SRET","SRET_math_calculate","","key","8","16.665806451612884","848","472.58333333333337","","","","","3+5= ?","8","1","","","","","","","",""
"2080","","7","psychophysics","127","479589","0.0-7.0-5.0-0.24","6","5","6","5","4","5","4","4","5","5","5","1","-1","-2","2","-1","1","1","0","5","4","5","5","5","4","3","3","4","4","5","6","4","4","2","3","3","6","4","5","1","3","3","6","1","2","2","4","3","1","2","1","5","2","2","5","2","4","5","5","1","3","2","1","1","3","2","7","3","7","2","2","3","1","2","2","4","3","1","2","798933752469397506","马","325","Female","[""好她"",""好我"",""坏她"",""坏我""]","[""强她"",""强我"",""弱她"",""弱我""]","","","","","","","","7","","","","","","","","","SRET","SRET_math_calculate","","key","7","16.665806451612884","848","472.58333333333337","","","","","5+2= ?","7","1","","","","","","","",""
"1987","","4","psychophysics","128","481577","0.0-7.0-5.0-0.25","6","5","6","5","4","5","4","4","5","5","5","1","-1","-2","2","-1","1","1","0","5","4","5","5","5","4","3","3","4","4","5","6","4","4","2","3","3","6","4","5","1","3","3","6","1","2","2","4","3","1","2","1","5","2","2","5","2","4","5","5","1","3","2","1","1","3","2","7","3","7","2","2","3","1","2","2","4","3","1","2","798933752469397506","马","325","Female","[""好她"",""好我"",""坏她"",""坏我""]","[""强她"",""强我"",""弱她"",""弱我""]","","","","","","","","4","","","","","","","","","SRET","SRET_math_calculate","","key","4","16.665932203389968","848","472.58333333333337","","","","","8-4= ?","4","1","","","","","","","",""
"1979","","6","psychophysics","129","483557","0.0-7.0-5.0-0.26","6","5","6","5","4","5","4","4","5","5","5","1","-1","-2","2","-1","1","1","0","5","4","5","5","5","4","3","3","4","4","5","6","4","4","2","3","3","6","4","5","1","3","3","6","1","2","2","4","3","1","2","1","5","2","2","5","2","4","5","5","1","3","2","1","1","3","2","7","3","7","2","2","3","1","2","2","4","3","1","2","798933752469397506","马","325","Female","[""好她"",""好我"",""坏她"",""坏我""]","[""强她"",""强我"",""弱她"",""弱我""]","","","","","","","","6","","","","","","","","","SRET","SRET_math_calculate","","key","6","16.665932203389968","848","472.58333333333337","","","","","4+2= ?","6","1","","","","","","","",""
"2327","","5","psychophysics","130","485884","0.0-7.0-5.0-0.27","6","5","6","5","4","5","4","4","5","5","5","1","-1","-2","2","-1","1","1","0","5","4","5","5","5","4","3","3","4","4","5","6","4","4","2","3","3","6","4","5","1","3","3","6","1","2","2","4","3","1","2","1","5","2","2","5","2","4","5","5","1","3","2","1","1","3","2","7","3","7","2","2","3","1","2","2","4","3","1","2","798933752469397506","马","325","Female","[""好她"",""好我"",""坏她"",""坏我""]","[""强她"",""强我"",""弱她"",""弱我""]","","","","","","","","5","","","","","","","","","SRET","SRET_math_calculate","","key","5","16.66579710144931","848","472.58333333333337","","","","","14-9= ?","5","1","","","","","","","",""
"2007","","6","psychophysics","131","487893","0.0-7.0-5.0-0.28","6","5","6","5","4","5","4","4","5","5","5","1","-1","-2","2","-1","1","1","0","5","4","5","5","5","4","3","3","4","4","5","6","4","4","2","3","3","6","4","5","1","3","3","6","1","2","2","4","3","1","2","1","5","2","2","5","2","4","5","5","1","3","2","1","1","3","2","7","3","7","2","2","3","1","2","2","4","3","1","2","798933752469397506","马","325","Female","[""好她"",""好我"",""坏她"",""坏我""]","[""强她"",""强我"",""弱她"",""弱我""]","","","","","","","","6","","","","","","","","","SRET","SRET_math_calculate","","key","6","16.665833333333044","848","472.58333333333337","","","","","5+1= ?","6","1","","","","","","","",""
"2299","","5","psychophysics","132","490192","0.0-7.0-5.0-0.29","6","5","6","5","4","5","4","4","5","5","5","1","-1","-2","2","-1","1","1","0","5","4","5","5","5","4","3","3","4","4","5","6","4","4","2","3","3","6","4","5","1","3","3","6","1","2","2","4","3","1","2","1","5","2","2","5","2","4","5","5","1","3","2","1","1","3","2","7","3","7","2","2","3","1","2","2","4","3","1","2","798933752469397506","马","325","Female","[""好她"",""好我"",""坏她"",""坏我""]","[""强她"",""强我"",""弱她"",""弱我""]","","","","","","","","5","","","","","","","","","SRET","SRET_math_calculate","","key","5","16.66583941605819","848","472.58333333333337","","","","","8-3= ? ","5","1","","","","","","","",""
"2895","","7","psychophysics","133","493088","0.0-7.0-5.0-0.30","6","5","6","5","4","5","4","4","5","5","5","1","-1","-2","2","-1","1","1","0","5","4","5","5","5","4","3","3","4","4","5","6","4","4","2","3","3","6","4","5","1","3","3","6","1","2","2","4","3","1","2","1","5","2","2","5","2","4","5","5","1","3","2","1","1","3","2","7","3","7","2","2","3","1","2","2","4","3","1","2","798933752469397506","马","325","Female","[""好她"",""好我"",""坏她"",""坏我""]","[""强她"",""强我"",""弱她"",""弱我""]","","","","","","","","7","","","","","","","","","SRET","SRET_math_calculate","","key","7","16.665780346821105","848","472.58333333333337","","","","","13-6= ?","7","1","","","","","","","",""
"1984","","8","psychophysics","134","495074","0.0-7.0-5.0-0.31","6","5","6","5","4","5","4","4","5","5","5","1","-1","-2","2","-1","1","1","0","5","4","5","5","5","4","3","3","4","4","5","6","4","4","2","3","3","6","4","5","1","3","3","6","1","2","2","4","3","1","2","1","5","2","2","5","2","4","5","5","1","3","2","1","1","3","2","7","3","7","2","2","3","1","2","2","4","3","1","2","798933752469397506","马","325","Female","[""好她"",""好我"",""坏她"",""坏我""]","[""强她"",""强我"",""弱她"",""弱我""]","","","","","","","","8","","","","","","","","","SRET","SRET_math_calculate","","key","8","16.66576271186439","848","472.58333333333337","","","","","8*1= ?","8","1","","","","","","","",""
"2233","","5","psychophysics","135","497309","0.0-7.0-5.0-0.32","6","5","6","5","4","5","4","4","5","5","5","1","-1","-2","2","-1","1","1","0","5","4","5","5","5","4","3","3","4","4","5","6","4","4","2","3","3","6","4","5","1","3","3","6","1","2","2","4","3","1","2","1","5","2","2","5","2","4","5","5","1","3","2","1","1","3","2","7","3","7","2","2","3","1","2","2","4","3","1","2","798933752469397506","马","325","Female","[""好她"",""好我"",""坏她"",""坏我""]","[""强她"",""强我"",""弱她"",""弱我""]","","","","","","","","5","","","","","","","","","SRET","SRET_math_calculate","","key","5","16.66586466165412","848","472.58333333333337","","","","","2+3= ?","5","1","","","","","","","",""
"2373","","9","psychophysics","136","499681","0.0-7.0-5.0-0.33","6","5","6","5","4","5","4","4","5","5","5","1","-1","-2","2","-1","1","1","0","5","4","5","5","5","4","3","3","4","4","5","6","4","4","2","3","3","6","4","5","1","3","3","6","1","2","2","4","3","1","2","1","5","2","2","5","2","4","5","5","1","3","2","1","1","3","2","7","3","7","2","2","3","1","2","2","4","3","1","2","798933752469397506","马","325","Female","[""好她"",""好我"",""坏她"",""坏我""]","[""强她"",""强我"",""弱她"",""弱我""]","","","","","","","","9","","","","","","","","","SRET","SRET_math_calculate","","key","9","16.665957446808264","848","472.58333333333337","","","","","32-23= ?","9","1","","","","","","","",""
"2196","","2","psychophysics","137","501877","0.0-7.0-5.0-0.34","6","5","6","5","4","5","4","4","5","5","5","1","-1","-2","2","-1","1","1","0","5","4","5","5","5","4","3","3","4","4","5","6","4","4","2","3","3","6","4","5","1","3","3","6","1","2","2","4","3","1","2","1","5","2","2","5","2","4","5","5","1","3","2","1","1","3","2","7","3","7","2","2","3","1","2","2","4","3","1","2","798933752469397506","马","325","Female","[""好她"",""好我"",""坏她"",""坏我""]","[""强她"",""强我"",""弱她"",""弱我""]","","","","","","","","2","","","","","","","","","SRET","SRET_math_calculate","","key","2","16.665801526717345","848","472.58333333333337","","","","","19-17= ?","2","1","","","","","","","",""
"1823","","1","psychophysics","138","503701","0.0-7.0-5.0-0.35","6","5","6","5","4","5","4","4","5","5","5","1","-1","-2","2","-1","1","1","0","5","4","5","5","5","4","3","3","4","4","5","6","4","4","2","3","3","6","4","5","1","3","3","6","1","2","2","4","3","1","2","1","5","2","2","5","2","4","5","5","1","3","2","1","1","3","2","7","3","7","2","2","3","1","2","2","4","3","1","2","798933752469397506","马","325","Female","[""好她"",""好我"",""坏她"",""坏我""]","[""强她"",""强我"",""弱她"",""弱我""]","","","","","","","","1","","","","","","","","","SRET","SRET_math_calculate","","key","1","16.665925925925777","848","472.58333333333337","","","","","9-8= ?","1","1","","","","","","","",""
"2231","","8","psychophysics","139","505933","0.0-7.0-5.0-0.36","6","5","6","5","4","5","4","4","5","5","5","1","-1","-2","2","-1","1","1","0","5","4","5","5","5","4","3","3","4","4","5","6","4","4","2","3","3","6","4","5","1","3","3","6","1","2","2","4","3","1","2","1","5","2","2","5","2","4","5","5","1","3","2","1","1","3","2","7","3","7","2","2","3","1","2","2","4","3","1","2","798933752469397506","马","325","Female","[""好她"",""好我"",""坏她"",""坏我""]","[""强她"",""强我"",""弱她"",""弱我""]","","","","","","","","8","","","","","","","","","SRET","SRET_math_calculate","","key","8","16.66586466165412","848","472.58333333333337","","","","","4+4= ?","8","1","","","","","","","",""
