"rt","stimulus","response","trial_type","trial_index","time_elapsed","internal_node_id","swb_1","swb_2","swb_3","swb_4","swb_5","LOT_1","LOT_2","LOT_3","LOT_4","LOT_5","LOT_6","IPC_1","IPC_2","IPC_3","IPC_4","IPC_5","IPC_6","IPC_7","IPC_8","MorIden_1","MorIden_2","MorIden_3","MorIden_4","MorIden_5","MorIden_6","MorIden_7","MorIden_8","MorIden_9","MorIden_10","moralSeImag_1","moralSeImag_2","moralSeImag_3","moralSeImag_4","moralSeImag_5","moralSeImag_6","moralSeImag_7","moralSeImag_8","moralSeImag_9","sde_1","sde_2","sde_3","sde_4","sde_5","sde_6","sde_7","sde_8","sde_9","sde_10","trap2","sde_11","sde_12","sde_13","sde_14","sde_15","sde_16","sde_17","sde_18","sde_19","sde_20","IM_1","IM_2","IM_3","IM_4","IM_5","IM_6","IM_7","IM_8","IM_9","IM_10","IM_11","IM_12","IM_13","IM_14","IM_15","IM_16","IM_17","IM_18","IM_19","IM_20","subj_idx","friend_name","ParticipantID","Sex","Word","Word2","value","success","timeout","failed_images","failed_audio","failed_video","user_agent","responses","item_order","radio_event_ids","radio_event_times","key_event_times","mouse_event_times","straightlining","zigzagging","honeypot","task_id","screen_id","time_stamp","response_type","key_press","avg_frame_time","center_x","center_y","person","word","valence","domain","math","correct_response","correct","status","view_history","identity","duration","Image","condition","question_order","trap2_item"
"13248","
   <p><div style='color:white; font-size: 25px'>您好，欢迎参加本次实验。</div></p>
   <p><div style='color:white; font-size: 25px'>为充分保障您的权利，请确保您已经知晓并同意《参与实验同意书》以及《数据公开知情同意书》。</div></p>
   <p><div style='color:white; font-size: 25px'>如果您未见过上述内容，请咨询实验员。</div></p>
   <p style='color:white; font-size: 25px'>如果您选择继续实验，则表示您已经清楚两份知情同意书的内容并同意。</p>
   <p><div style = ""color: pink;font-size:30px;"">请确保您记得day0的实验编号，您将在本次实验输入该编号，若您忘记，请咨询实验员后作答。</div></p>
   <p><div style = ""color:lightblue;font-size:25px;"">请您尽可能认真地作答，我们将依据您在各问卷和按键任务中的作答质量发放报酬。</div></p>
   <p> <div style = ""color: green""><按空格键至下页></div> </p>
   "," ","html-keyboard-response","0","13259","0.0-0.0","6","5","7","6","5","4","5","5","4","5","4","1","0","2","0","1","1","2","1","4","5","5","4","4","5","4","4","5","4","5","7","8","7","4","5","4","8","7","3","7","5","6","6","7","7","2","7","6","1","6","6","5","7","6","5","5","7","6","6","6","6","7","4","3","7","6","6","7","7","7","5","7","5","6","7","5","6","6","7","786960916901269506","王","438","Female","[""坏我"",""好我"",""好她"",""坏她""]","[""弱我"",""强我"",""强她"",""弱她""]","","","","","","","","","","","","","","","","","","","","","","","","","","","","","","","","","","","","","","",""
"","","","call-function","1","13268","0.0-1.0-0.0","6","5","7","6","5","4","5","5","4","5","4","1","0","2","0","1","1","2","1","4","5","5","4","4","5","4","4","5","4","5","7","8","7","4","5","4","8","7","3","7","5","6","6","7","7","2","7","6","1","6","6","5","7","6","5","5","7","6","6","6","6","7","4","3","7","6","6","7","7","7","5","7","5","6","7","5","6","6","7","786960916901269506","王","438","Female","[""坏我"",""好我"",""好她"",""坏她""]","[""弱我"",""强我"",""强她"",""弱她""]","","","","","","","","","","","","","","","","","","","","","","","","","","","","","","","","","","","","","","",""
"32768","","[{""name"":""Sex"",""value"":""1""},{""name"":""friend_name"",""value"":""王""},{""name"":""ParticipantID"",""value"":""438""}]","survey-html-form","2","46044","0.0-1.0-1.0","6","5","7","6","5","4","5","5","4","5","4","1","0","2","0","1","1","2","1","4","5","5","4","4","5","4","4","5","4","5","7","8","7","4","5","4","8","7","3","7","5","6","6","7","7","2","7","6","1","6","6","5","7","6","5","5","7","6","6","6","6","7","4","3","7","6","6","7","7","7","5","7","5","6","7","5","6","6","7","786960916901269506","王","438","Female","[""坏我"",""好我"",""好她"",""坏她""]","[""弱我"",""强我"",""强她"",""弱她""]","","","","","","","","","","","","","","","","","","","","","","","","","","","","","","","","","","","","","","",""
"","","","preload","3","46854","0.0-2.0","6","5","7","6","5","4","5","5","4","5","4","1","0","2","0","1","1","2","1","4","5","5","4","4","5","4","4","5","4","5","7","8","7","4","5","4","8","7","3","7","5","6","6","7","7","2","7","6","1","6","6","5","7","6","5","5","7","6","6","6","6","7","4","3","7","6","6","7","7","7","5","7","5","6","7","5","6","6","7","786960916901269506","王","438","Female","[""坏我"",""好我"",""好她"",""坏她""]","[""弱我"",""强我"",""强她"",""弱她""]","","true","false","[]","[]","[]","","","","","","","","","","","","","","","","","","","","","","","","","","","","","","","","",""
"","","","fullscreen","4","68043","0.0-3.0","6","5","7","6","5","4","5","5","4","5","4","1","0","2","0","1","1","2","1","4","5","5","4","4","5","4","4","5","4","5","7","8","7","4","5","4","8","7","3","7","5","6","6","7","7","2","7","6","1","6","6","5","7","6","5","5","7","6","6","6","6","7","4","3","7","6","6","7","7","7","5","7","5","6","7","5","6","6","7","786960916901269506","王","438","Female","[""坏我"",""好我"",""好她"",""坏她""]","[""弱我"",""强我"",""强她"",""弱她""]","","true","","","","","{}","","","","","","","","","","","","","","","","","","","","","","","","","","","","","","","",""
"13569.79999999702","","{""Q01"":""6"",""Q02"":""5"",""Q03"":""7"",""Q04"":""6"",""Q05"":""5""}","survey-template","5","81687","0.0-4.0","6","5","7","6","5","4","5","5","4","5","4","1","0","2","0","1","1","2","1","4","5","5","4","4","5","4","4","5","4","5","7","8","7","4","5","4","8","7","3","7","5","6","6","7","7","2","7","6","1","6","6","5","7","6","5","5","7","6","6","6","6","7","4","3","7","6","6","7","7","7","5","7","5","6","7","5","6","6","7","786960916901269506","王","438","Female","[""坏我"",""好我"",""好她"",""坏她""]","[""弱我"",""强我"",""强她"",""弱她""]","","","","","","","","{""Q01"":""6"",""Q02"":""5"",""Q03"":""7"",""Q04"":""6"",""Q05"":""5""}","[0,1,2,3,4]","[""Q01"",""Q02"",""Q03"",""Q04"",""Q05""]","[3626.599999997765,5249.79999999702,6281.89999999851,9128.79999999702,9809.099999997765]","[]","[3626.599999997765,5249.79999999702,6281.89999999851,9128.79999999702,9809.099999997765,13560.5]","0.4","0.75","0","","","","","","","","","","","","","","","","","","","","","","",""
"30199.300000000745","","{""Q01"":""4"",""Q02"":""5"",""Q03"":""5"",""Q04"":""4"",""Q05"":""5"",""Q06"":""4""}","survey-template","6","111934","0.0-5.0","6","5","7","6","5","4","5","5","4","5","4","1","0","2","0","1","1","2","1","4","5","5","4","4","5","4","4","5","4","5","7","8","7","4","5","4","8","7","3","7","5","6","6","7","7","2","7","6","1","6","6","5","7","6","5","5","7","6","6","6","6","7","4","3","7","6","6","7","7","7","5","7","5","6","7","5","6","6","7","786960916901269506","王","438","Female","[""坏我"",""好我"",""好她"",""坏她""]","[""弱我"",""强我"",""强她"",""弱她""]","","","","","","","","{""Q01"":""4"",""Q02"":""5"",""Q03"":""5"",""Q04"":""4"",""Q05"":""5"",""Q06"":""4""}","[0,1,2,3,4,5]","[""Q01"",""Q02"",""Q03"",""Q04"",""Q05"",""Q06""]","[5054.89999999851,7461.300000000745,8797.300000000745,11404.39999999851,12781,16428.39999999851]","[]","[5054.89999999851,7461.300000000745,8797.300000000745,11404.39999999851,12781,16428.39999999851,30193.39999999851]","0.3333333333333333","0.4","0","","","","","","","","","","","","","","","","","","","","","","",""
"25326","","{""Q01"":""1"",""Q02"":""0"",""Q03"":""2"",""Q04"":""0"",""Q05"":""1"",""Q06"":""1"",""Q07"":""2"",""Q08"":""1""}","survey-template","7","137286","0.0-6.0","6","5","7","6","5","4","5","5","4","5","4","1","0","2","0","1","1","2","1","4","5","5","4","4","5","4","4","5","4","5","7","8","7","4","5","4","8","7","3","7","5","6","6","7","7","2","7","6","1","6","6","5","7","6","5","5","7","6","6","6","6","7","4","3","7","6","6","7","7","7","5","7","5","6","7","5","6","6","7","786960916901269506","王","438","Female","[""坏我"",""好我"",""好她"",""坏她""]","[""弱我"",""强我"",""强她"",""弱她""]","","","","","","","","{""Q01"":""1"",""Q02"":""0"",""Q03"":""2"",""Q04"":""0"",""Q05"":""1"",""Q06"":""1"",""Q07"":""2"",""Q08"":""1""}","[0,1,2,3,4,5,6,7]","[""Q01"",""Q02"",""Q03"",""Q04"",""Q05"",""Q06"",""Q07"",""Q08""]","[2673,4232.800000000745,8168.400000002235,11863,16030.10000000149,17214.10000000149,18646.10000000149,20533.199999999255]","[]","[2673,4232.800000000745,8168.400000002235,11863,16030.10000000149,17214.10000000149,18646.10000000149,20533.199999999255,25317.300000000745]","0.5","0.5714285714285714","0","","","","","","","","","","","","","","","","","","","","","","",""
"29420","
    <p><div style='color:white;font-size:35px; line-height:20px;'>词汇评估任务</div></p><br>
    <p><div style='color:white;font-size:25px; line-height:20px;'>请再次回忆该亲密的朋友，你们至少2年前就认识了，并且最近2年经常见面。</div></p>
    <p><div style='color:white;font-size:25px; line-height:20px;'>在本实验中，您将会看到一些形容词。</div></p>
    <p><div style='color:yellow;font-size:25px; line-height:20px;'>您的任务是判断这些形容词是否符合对您自己或您的朋友的描述。</div></p><p style='font-size:35px'>符合按<span style=""color:lightgreen""> f 键</span>，不符合按<span style=""color:red""> j 键</span></p>","0","html-button-response","8","166728","0.0-7.0-0.0","6","5","7","6","5","4","5","5","4","5","4","1","0","2","0","1","1","2","1","4","5","5","4","4","5","4","4","5","4","5","7","8","7","4","5","4","8","7","3","7","5","6","6","7","7","2","7","6","1","6","6","5","7","6","5","5","7","6","6","6","6","7","4","3","7","6","6","7","7","7","5","7","5","6","7","5","6","6","7","786960916901269506","王","438","Female","[""坏我"",""好我"",""好她"",""坏她""]","[""弱我"",""强我"",""强她"",""弱她""]","","","","","","","","","","","","","","","","","SRET_EW","EW_instructions","Thu Jan 25 2024 19:16:14 GMT+0800 (中国标准时间)","","","","","","","","","","","","","","","","","","","",""
"null","","null","psychophysics","9","169766","0.0-7.0-1.0-0.0","6","5","7","6","5","4","5","5","4","5","4","1","0","2","0","1","1","2","1","4","5","5","4","4","5","4","4","5","4","5","7","8","7","4","5","4","8","7","3","7","5","6","6","7","7","2","7","6","1","6","6","5","7","6","5","5","7","6","6","6","6","7","4","3","7","6","6","7","7","7","5","7","5","6","7","5","6","6","7","786960916901269506","王","438","Female","[""坏我"",""好我"",""好她"",""坏她""]","[""弱我"",""强我"",""强她"",""弱她""]","","","","","","","","","","","","","","","","","SRET_EW","EW_practice","","key","null","43.55218840579703","650.4762200163078","361.42858784215053","自己","刻板","Negative","ability","","","","","","","","","","",""
"1369","","f","psychophysics","10","172151","0.0-7.0-1.0-0.1","6","5","7","6","5","4","5","5","4","5","4","1","0","2","0","1","1","2","1","4","5","5","4","4","5","4","4","5","4","5","7","8","7","4","5","4","8","7","3","7","5","6","6","7","7","2","7","6","1","6","6","5","7","6","5","5","7","6","6","6","6","7","4","3","7","6","6","7","7","7","5","7","5","6","7","5","6","6","7","786960916901269506","王","438","Female","[""坏我"",""好我"",""好她"",""坏她""]","[""弱我"",""强我"",""强她"",""弱她""]","","","","","","","","yes","","","","","","","","","SRET_EW","EW_practice","","key","f","43.91464150943442","650.4762200163078","361.42858784215053","朋友","忠实","Positive","morality","","","","","","","","","","",""
"1130","","j","psychophysics","11","174288","0.0-7.0-1.0-0.2","6","5","7","6","5","4","5","5","4","5","4","1","0","2","0","1","1","2","1","4","5","5","4","4","5","4","4","5","4","5","7","8","7","4","5","4","8","7","3","7","5","6","6","7","7","2","7","6","1","6","6","5","7","6","5","5","7","6","6","6","6","7","4","3","7","6","6","7","7","7","5","7","5","6","7","5","6","6","7","786960916901269506","王","438","Female","[""坏我"",""好我"",""好她"",""坏她""]","[""弱我"",""强我"",""强她"",""弱她""]","","","","","","","","no","","","","","","","","","SRET_EW","EW_practice","","key","j","39.61766037735803","650.4762200163078","361.42858784215053","朋友","徇私","Negative","morality","","","","","","","","","","",""
"1387","","f","psychophysics","12","176683","0.0-7.0-1.0-0.3","6","5","7","6","5","4","5","5","4","5","4","1","0","2","0","1","1","2","1","4","5","5","4","4","5","4","4","5","4","5","7","8","7","4","5","4","8","7","3","7","5","6","6","7","7","2","7","6","1","6","6","5","7","6","5","5","7","6","6","6","6","7","4","3","7","6","6","7","7","7","5","7","5","6","7","5","6","6","7","786960916901269506","王","438","Female","[""坏我"",""好我"",""好她"",""坏她""]","[""弱我"",""强我"",""强她"",""弱她""]","","","","","","","","yes","","","","","","","","","SRET_EW","EW_practice","","key","f","43.512574074074145","650.4762200163078","361.42858784215053","自己","严谨","Positive","ability","","","","","","","","","","",""
"10107","
    <p><div style='color:white;font-size:35px; line-height:20px;'>请您再次阅读实验要求</div></p><br>
    <p><div style='color:white;font-size:25px; line-height:20px;'>请回忆某一个亲密的朋友，你们至少2年前就认识了，并且最近2年经常见面。</div></p>
    <p><div style='color:white;font-size:25px; line-height:20px;'>在本实验中，您将会看到一些形容词。</div></p>
    <p><div style='color:yellow;font-size:25px; line-height:20px;'>您的任务是判断这些形容词是否符合对您自己或您的朋友的描述。</div></p>
    <p><div class='footer' style='font-size:25px; line-height:20px;'>如果对本实验还有不清楚之处，请立即向实验员咨询。</p><p style='font-size:25px; line-height:20px;'>如果您明白了规则：</p><p style='font-size:22px; line-height:20px;'>请按 继续 进入正式实验</p>
    </div>
    <p style='font-size:35px'>符合按<span style=""color:lightgreen""> f 键</span>，不符合按<span style=""color:red""> j 键</span></p>","0","html-button-response","13","186795","0.0-7.0-2.0","6","5","7","6","5","4","5","5","4","5","4","1","0","2","0","1","1","2","1","4","5","5","4","4","5","4","4","5","4","5","7","8","7","4","5","4","8","7","3","7","5","6","6","7","7","2","7","6","1","6","6","5","7","6","5","5","7","6","6","6","6","7","4","3","7","6","6","7","7","7","5","7","5","6","7","5","6","6","7","786960916901269506","王","438","Female","[""坏我"",""好我"",""好她"",""坏她""]","[""弱我"",""强我"",""强她"",""弱她""]","","","","","","","","","","","","","","","","","SRET_EW","prac_instructions","Thu Jan 25 2024 19:16:14 GMT+0800 (中国标准时间)","","","","","","","","","","","","","","","","","","","",""
"1064","","j","psychophysics","14","188874","0.0-7.0-3.0-0.0","6","5","7","6","5","4","5","5","4","5","4","1","0","2","0","1","1","2","1","4","5","5","4","4","5","4","4","5","4","5","7","8","7","4","5","4","8","7","3","7","5","6","6","7","7","2","7","6","1","6","6","5","7","6","5","5","7","6","6","6","6","7","4","3","7","6","6","7","7","7","5","7","5","6","7","5","6","6","7","786960916901269506","王","438","Female","[""坏我"",""好我"",""好她"",""坏她""]","[""弱我"",""强我"",""强她"",""弱她""]","","","","","","","","no","","","","","","","","","SRET","EW_formal","","key","j","41.60185714285733","650.4762200163078","361.42858784215053","自己","说谎","Negative","morality","","","","","","","","","","",""
"1199","","f","psychophysics","15","191077","0.0-7.0-3.0-0.1","6","5","7","6","5","4","5","5","4","5","4","1","0","2","0","1","1","2","1","4","5","5","4","4","5","4","4","5","4","5","7","8","7","4","5","4","8","7","3","7","5","6","6","7","7","2","7","6","1","6","6","5","7","6","5","5","7","6","6","6","6","7","4","3","7","6","6","7","7","7","5","7","5","6","7","5","6","6","7","786960916901269506","王","438","Female","[""坏我"",""好我"",""好她"",""坏她""]","[""弱我"",""强我"",""强她"",""弱她""]","","","","","","","","yes","","","","","","","","","SRET","EW_formal","","key","f","41.55426923076895","650.4762200163078","361.42858784215053","朋友","务实","Positive","ability","","","","","","","","","","",""
"1583","","f","psychophysics","16","193678","0.0-7.0-3.0-0.2","6","5","7","6","5","4","5","5","4","5","4","1","0","2","0","1","1","2","1","4","5","5","4","4","5","4","4","5","4","5","7","8","7","4","5","4","8","7","3","7","5","6","6","7","7","2","7","6","1","6","6","5","7","6","5","5","7","6","6","6","6","7","4","3","7","6","6","7","7","7","5","7","5","6","7","5","6","6","7","786960916901269506","王","438","Female","[""坏我"",""好我"",""好她"",""坏她""]","[""弱我"",""强我"",""强她"",""弱她""]","","","","","","","","yes","","","","","","","","","SRET","EW_formal","","key","f","40.999857142856825","650.4762200163078","361.42858784215053","自己","坚贞","Positive","morality","","","","","","","","","","",""
"1182","","j","psychophysics","17","195875","0.0-7.0-3.0-0.3","6","5","7","6","5","4","5","5","4","5","4","1","0","2","0","1","1","2","1","4","5","5","4","4","5","4","4","5","4","5","7","8","7","4","5","4","8","7","3","7","5","6","6","7","7","2","7","6","1","6","6","5","7","6","5","5","7","6","6","6","6","7","4","3","7","6","6","7","7","7","5","7","5","6","7","5","6","6","7","786960916901269506","王","438","Female","[""坏我"",""好我"",""好她"",""坏她""]","[""弱我"",""强我"",""强她"",""弱她""]","","","","","","","","no","","","","","","","","","SRET","EW_formal","","key","j","43.30485714285703","650.4762200163078","361.42858784215053","朋友","迷糊","Negative","ability","","","","","","","","","","",""
"1468","","j","psychophysics","18","198347","0.0-7.0-3.0-0.4","6","5","7","6","5","4","5","5","4","5","4","1","0","2","0","1","1","2","1","4","5","5","4","4","5","4","4","5","4","5","7","8","7","4","5","4","8","7","3","7","5","6","6","7","7","2","7","6","1","6","6","5","7","6","5","5","7","6","6","6","6","7","4","3","7","6","6","7","7","7","5","7","5","6","7","5","6","6","7","786960916901269506","王","438","Female","[""坏我"",""好我"",""好她"",""坏她""]","[""弱我"",""强我"",""强她"",""弱她""]","","","","","","","","no","","","","","","","","","SRET","EW_formal","","key","j","41.514877192982425","650.4762200163078","361.42858784215053","自己","不良","Negative","morality","","","","","","","","","","",""
"1107","","f","psychophysics","19","200458","0.0-7.0-3.0-0.5","6","5","7","6","5","4","5","5","4","5","4","1","0","2","0","1","1","2","1","4","5","5","4","4","5","4","4","5","4","5","7","8","7","4","5","4","8","7","3","7","5","6","6","7","7","2","7","6","1","6","6","5","7","6","5","5","7","6","6","6","6","7","4","3","7","6","6","7","7","7","5","7","5","6","7","5","6","6","7","786960916901269506","王","438","Female","[""坏我"",""好我"",""好她"",""坏她""]","[""弱我"",""强我"",""强她"",""弱她""]","","","","","","","","yes","","","","","","","","","SRET","EW_formal","","key","f","41.604387755101854","650.4762200163078","361.42858784215053","自己","坚持","Positive","ability","","","","","","","","","","",""
"1348","","f","psychophysics","20","202825","0.0-7.0-3.0-0.6","6","5","7","6","5","4","5","5","4","5","4","1","0","2","0","1","1","2","1","4","5","5","4","4","5","4","4","5","4","5","7","8","7","4","5","4","8","7","3","7","5","6","6","7","7","2","7","6","1","6","6","5","7","6","5","5","7","6","6","6","6","7","4","3","7","6","6","7","7","7","5","7","5","6","7","5","6","6","7","786960916901269506","王","438","Female","[""坏我"",""好我"",""好她"",""坏她""]","[""弱我"",""强我"",""强她"",""弱她""]","","","","","","","","yes","","","","","","","","","SRET","EW_formal","","key","f","43.51314814814854","650.4762200163078","361.42858784215053","自己","学霸","Positive","ability","","","","","","","","","","",""
"1045","","f","psychophysics","21","204877","0.0-7.0-3.0-0.7","6","5","7","6","5","4","5","5","4","5","4","1","0","2","0","1","1","2","1","4","5","5","4","4","5","4","4","5","4","5","7","8","7","4","5","4","8","7","3","7","5","6","6","7","7","2","7","6","1","6","6","5","7","6","5","5","7","6","6","6","6","7","4","3","7","6","6","7","7","7","5","7","5","6","7","5","6","6","7","786960916901269506","王","438","Female","[""坏我"",""好我"",""好她"",""坏她""]","[""弱我"",""强我"",""强她"",""弱她""]","","","","","","","","yes","","","","","","","","","SRET","EW_formal","","key","f","41.66120833333358","650.4762200163078","361.42858784215053","自己","毅力","Positive","ability","","","","","","","","","","",""
"1148","","j","psychophysics","22","207051","0.0-7.0-3.0-0.8","6","5","7","6","5","4","5","5","4","5","4","1","0","2","0","1","1","2","1","4","5","5","4","4","5","4","4","5","4","5","7","8","7","4","5","4","8","7","3","7","5","6","6","7","7","2","7","6","1","6","6","5","7","6","5","5","7","6","6","6","6","7","4","3","7","6","6","7","7","7","5","7","5","6","7","5","6","6","7","786960916901269506","王","438","Female","[""坏我"",""好我"",""好她"",""坏她""]","[""弱我"",""强我"",""强她"",""弱她""]","","","","","","","","no","","","","","","","","","SRET","EW_formal","","key","j","45.739085106382845","650.4762200163078","361.42858784215053","自己","昏庸","Negative","ability","","","","","","","","","","",""
"1398","","f","psychophysics","23","209467","0.0-7.0-3.0-0.9","6","5","7","6","5","4","5","5","4","5","4","1","0","2","0","1","1","2","1","4","5","5","4","4","5","4","4","5","4","5","7","8","7","4","5","4","8","7","3","7","5","6","6","7","7","2","7","6","1","6","6","5","7","6","5","5","7","6","6","6","6","7","4","3","7","6","6","7","7","7","5","7","5","6","7","5","6","6","7","786960916901269506","王","438","Female","[""坏我"",""好我"",""好她"",""坏她""]","[""弱我"",""强我"",""强她"",""弱她""]","","","","","","","","yes","","","","","","","","","SRET","EW_formal","","key","f","40.79906896551708","650.4762200163078","361.42858784215053","朋友","忠良","Positive","morality","","","","","","","","","","",""
"1433","","j","psychophysics","24","211904","0.0-7.0-3.0-0.10","6","5","7","6","5","4","5","5","4","5","4","1","0","2","0","1","1","2","1","4","5","5","4","4","5","4","4","5","4","5","7","8","7","4","5","4","8","7","3","7","5","6","6","7","7","2","7","6","1","6","6","5","7","6","5","5","7","6","6","6","6","7","4","3","7","6","6","7","7","7","5","7","5","6","7","5","6","6","7","786960916901269506","王","438","Female","[""坏我"",""好我"",""好她"",""坏她""]","[""弱我"",""强我"",""强她"",""弱她""]","","","","","","","","no","","","","","","","","","SRET","EW_formal","","key","j","42.923454545454696","650.4762200163078","361.42858784215053","自己","拖延","Negative","ability","","","","","","","","","","",""
"1620","","j","psychophysics","25","214542","0.0-7.0-3.0-0.11","6","5","7","6","5","4","5","5","4","5","4","1","0","2","0","1","1","2","1","4","5","5","4","4","5","4","4","5","4","5","7","8","7","4","5","4","8","7","3","7","5","6","6","7","7","2","7","6","1","6","6","5","7","6","5","5","7","6","6","6","6","7","4","3","7","6","6","7","7","7","5","7","5","6","7","5","6","6","7","786960916901269506","王","438","Female","[""坏我"",""好我"",""好她"",""坏她""]","[""弱我"",""强我"",""强她"",""弱她""]","","","","","","","","no","","","","","","","","","SRET","EW_formal","","key","j","43.77942372881314","650.4762200163078","361.42858784215053","朋友","驽钝","Negative","ability","","","","","","","","","","",""
"1418","","j","psychophysics","26","216975","0.0-7.0-3.0-0.12","6","5","7","6","5","4","5","5","4","5","4","1","0","2","0","1","1","2","1","4","5","5","4","4","5","4","4","5","4","5","7","8","7","4","5","4","8","7","3","7","5","6","6","7","7","2","7","6","1","6","6","5","7","6","5","5","7","6","6","6","6","7","4","3","7","6","6","7","7","7","5","7","5","6","7","5","6","6","7","786960916901269506","王","438","Female","[""坏我"",""好我"",""好她"",""坏她""]","[""弱我"",""强我"",""强她"",""弱她""]","","","","","","","","no","","","","","","","","","SRET","EW_formal","","key","j","46.29023529411757","650.4762200163078","361.42858784215053","朋友","贪污","Negative","morality","","","","","","","","","","",""
"1605","","j","psychophysics","27","219596","0.0-7.0-3.0-0.13","6","5","7","6","5","4","5","5","4","5","4","1","0","2","0","1","1","2","1","4","5","5","4","4","5","4","4","5","4","5","7","8","7","4","5","4","8","7","3","7","5","6","6","7","7","2","7","6","1","6","6","5","7","6","5","5","7","6","6","6","6","7","4","3","7","6","6","7","7","7","5","7","5","6","7","5","6","6","7","786960916901269506","王","438","Female","[""坏我"",""好我"",""好她"",""坏她""]","[""弱我"",""强我"",""强她"",""弱她""]","","","","","","","","no","","","","","","","","","SRET","EW_formal","","key","j","42.34431147540979","650.4762200163078","361.42858784215053","自己","诡诈","Negative","morality","","","","","","","","","","",""
"1209","","f","psychophysics","28","221818","0.0-7.0-3.0-0.14","6","5","7","6","5","4","5","5","4","5","4","1","0","2","0","1","1","2","1","4","5","5","4","4","5","4","4","5","4","5","7","8","7","4","5","4","8","7","3","7","5","6","6","7","7","2","7","6","1","6","6","5","7","6","5","5","7","6","6","6","6","7","4","3","7","6","6","7","7","7","5","7","5","6","7","5","6","6","7","786960916901269506","王","438","Female","[""坏我"",""好我"",""好她"",""坏她""]","[""弱我"",""强我"",""强她"",""弱她""]","","","","","","","","yes","","","","","","","","","SRET","EW_formal","","key","f","42.088961538461334","650.4762200163078","361.42858784215053","自己","廉明","Positive","morality","","","","","","","","","","",""
"1374","","f","psychophysics","29","224207","0.0-7.0-3.0-0.15","6","5","7","6","5","4","5","5","4","5","4","1","0","2","0","1","1","2","1","4","5","5","4","4","5","4","4","5","4","5","7","8","7","4","5","4","8","7","3","7","5","6","6","7","7","2","7","6","1","6","6","5","7","6","5","5","7","6","6","6","6","7","4","3","7","6","6","7","7","7","5","7","5","6","7","5","6","6","7","786960916901269506","王","438","Female","[""坏我"",""好我"",""好她"",""坏她""]","[""弱我"",""强我"",""强她"",""弱她""]","","","","","","","","yes","","","","","","","","","SRET","EW_formal","","key","f","44.33388679245276","650.4762200163078","361.42858784215053","朋友","专注","Positive","ability","","","","","","","","","","",""
"1084","","j","psychophysics","30","226312","0.0-7.0-3.0-0.16","6","5","7","6","5","4","5","5","4","5","4","1","0","2","0","1","1","2","1","4","5","5","4","4","5","4","4","5","4","5","7","8","7","4","5","4","8","7","3","7","5","6","6","7","7","2","7","6","1","6","6","5","7","6","5","5","7","6","6","6","6","7","4","3","7","6","6","7","7","7","5","7","5","6","7","5","6","6","7","786960916901269506","王","438","Female","[""坏我"",""好我"",""好她"",""坏她""]","[""弱我"",""强我"",""强她"",""弱她""]","","","","","","","","no","","","","","","","","","SRET","EW_formal","","key","j","43.396916666666584","650.4762200163078","361.42858784215053","朋友","马虎","Negative","ability","","","","","","","","","","",""
"1370","","j","psychophysics","31","228686","0.0-7.0-3.0-0.17","6","5","7","6","5","4","5","5","4","5","4","1","0","2","0","1","1","2","1","4","5","5","4","4","5","4","4","5","4","5","7","8","7","4","5","4","8","7","3","7","5","6","6","7","7","2","7","6","1","6","6","5","7","6","5","5","7","6","6","6","6","7","4","3","7","6","6","7","7","7","5","7","5","6","7","5","6","6","7","786960916901269506","王","438","Female","[""坏我"",""好我"",""好她"",""坏她""]","[""弱我"",""强我"",""强她"",""弱她""]","","","","","","","","no","","","","","","","","","SRET","EW_formal","","key","j","42.48422222222197","650.4762200163078","361.42858784215053","自己","龌龊","Negative","morality","","","","","","","","","","",""
"1559","","j","psychophysics","32","231256","0.0-7.0-3.0-0.18","6","5","7","6","5","4","5","5","4","5","4","1","0","2","0","1","1","2","1","4","5","5","4","4","5","4","4","5","4","5","7","8","7","4","5","4","8","7","3","7","5","6","6","7","7","2","7","6","1","6","6","5","7","6","5","5","7","6","6","6","6","7","4","3","7","6","6","7","7","7","5","7","5","6","7","5","6","6","7","786960916901269506","王","438","Female","[""坏我"",""好我"",""好她"",""坏她""]","[""弱我"",""强我"",""强她"",""弱她""]","","","","","","","","no","","","","","","","","","SRET","EW_formal","","key","j","45.52973214285729","650.4762200163078","361.42858784215053","朋友","奸诈","Negative","morality","","","","","","","","","","",""
"1598","","j","psychophysics","33","233859","0.0-7.0-3.0-0.19","6","5","7","6","5","4","5","5","4","5","4","1","0","2","0","1","1","2","1","4","5","5","4","4","5","4","4","5","4","5","7","8","7","4","5","4","8","7","3","7","5","6","6","7","7","2","7","6","1","6","6","5","7","6","5","5","7","6","6","6","6","7","4","3","7","6","6","7","7","7","5","7","5","6","7","5","6","6","7","786960916901269506","王","438","Female","[""坏我"",""好我"",""好她"",""坏她""]","[""弱我"",""强我"",""强她"",""弱她""]","","","","","","","","no","","","","","","","","","SRET","EW_formal","","key","j","42.58708333333343","650.4762200163078","361.42858784215053","自己","才尽","Negative","ability","","","","","","","","","","",""
"1501","","f","psychophysics","34","236366","0.0-7.0-3.0-0.20","6","5","7","6","5","4","5","5","4","5","4","1","0","2","0","1","1","2","1","4","5","5","4","4","5","4","4","5","4","5","7","8","7","4","5","4","8","7","3","7","5","6","6","7","7","2","7","6","1","6","6","5","7","6","5","5","7","6","6","6","6","7","4","3","7","6","6","7","7","7","5","7","5","6","7","5","6","6","7","786960916901269506","王","438","Female","[""坏我"",""好我"",""好她"",""坏她""]","[""弱我"",""强我"",""强她"",""弱她""]","","","","","","","","yes","","","","","","","","","SRET","EW_formal","","key","f","48.250745098039225","650.4762200163078","361.42858784215053","自己","廉正","Positive","morality","","","","","","","","","","",""
"1404","","j","psychophysics","35","238800","0.0-7.0-3.0-0.21","6","5","7","6","5","4","5","5","4","5","4","1","0","2","0","1","1","2","1","4","5","5","4","4","5","4","4","5","4","5","7","8","7","4","5","4","8","7","3","7","5","6","6","7","7","2","7","6","1","6","6","5","7","6","5","5","7","6","6","6","6","7","4","3","7","6","6","7","7","7","5","7","5","6","7","5","6","6","7","786960916901269506","王","438","Female","[""坏我"",""好我"",""好她"",""坏她""]","[""弱我"",""强我"",""强她"",""弱她""]","","","","","","","","no","","","","","","","","","SRET","EW_formal","","key","j","41.66094827586193","650.4762200163078","361.42858784215053","自己","小人","Negative","morality","","","","","","","","","","",""
"1735","","j","psychophysics","36","241555","0.0-7.0-3.0-0.22","6","5","7","6","5","4","5","5","4","5","4","1","0","2","0","1","1","2","1","4","5","5","4","4","5","4","4","5","4","5","7","8","7","4","5","4","8","7","3","7","5","6","6","7","7","2","7","6","1","6","6","5","7","6","5","5","7","6","6","6","6","7","4","3","7","6","6","7","7","7","5","7","5","6","7","5","6","6","7","786960916901269506","王","438","Female","[""坏我"",""好我"",""好她"",""坏她""]","[""弱我"",""强我"",""强她"",""弱她""]","","","","","","","","no","","","","","","","","","SRET","EW_formal","","key","j","41.9216718749999","650.4762200163078","361.42858784215053","朋友","毛糙","Negative","ability","","","","","","","","","","",""
"882","","f","psychophysics","37","243454","0.0-7.0-3.0-0.23","6","5","7","6","5","4","5","5","4","5","4","1","0","2","0","1","1","2","1","4","5","5","4","4","5","4","4","5","4","5","7","8","7","4","5","4","8","7","3","7","5","6","6","7","7","2","7","6","1","6","6","5","7","6","5","5","7","6","6","6","6","7","4","3","7","6","6","7","7","7","5","7","5","6","7","5","6","6","7","786960916901269506","王","438","Female","[""坏我"",""好我"",""好她"",""坏她""]","[""弱我"",""强我"",""强她"",""弱她""]","","","","","","","","yes","","","","","","","","","SRET","EW_formal","","key","f","43.79281395348872","650.4762200163078","361.42858784215053","自己","善心","Positive","morality","","","","","","","","","","",""
"1019","","f","psychophysics","38","245484","0.0-7.0-3.0-0.24","6","5","7","6","5","4","5","5","4","5","4","1","0","2","0","1","1","2","1","4","5","5","4","4","5","4","4","5","4","5","7","8","7","4","5","4","8","7","3","7","5","6","6","7","7","2","7","6","1","6","6","5","7","6","5","5","7","6","6","6","6","7","4","3","7","6","6","7","7","7","5","7","5","6","7","5","6","6","7","786960916901269506","王","438","Female","[""坏我"",""好我"",""好她"",""坏她""]","[""弱我"",""强我"",""强她"",""弱她""]","","","","","","","","yes","","","","","","","","","SRET","EW_formal","","key","f","42.21704444444428","650.4762200163078","361.42858784215053","自己","勤恳","Positive","morality","","","","","","","","","","",""
"1039","","f","psychophysics","39","247529","0.0-7.0-3.0-0.25","6","5","7","6","5","4","5","5","4","5","4","1","0","2","0","1","1","2","1","4","5","5","4","4","5","4","4","5","4","5","7","8","7","4","5","4","8","7","3","7","5","6","6","7","7","2","7","6","1","6","6","5","7","6","5","5","7","6","6","6","6","7","4","3","7","6","6","7","7","7","5","7","5","6","7","5","6","6","7","786960916901269506","王","438","Female","[""坏我"",""好我"",""好她"",""坏她""]","[""弱我"",""强我"",""强她"",""弱她""]","","","","","","","","yes","","","","","","","","","SRET","EW_formal","","key","f","45.28358695652138","650.4762200163078","361.42858784215053","自己","高洁","Positive","morality","","","","","","","","","","",""
"1090","","j","psychophysics","40","249622","0.0-7.0-3.0-0.26","6","5","7","6","5","4","5","5","4","5","4","1","0","2","0","1","1","2","1","4","5","5","4","4","5","4","4","5","4","5","7","8","7","4","5","4","8","7","3","7","5","6","6","7","7","2","7","6","1","6","6","5","7","6","5","5","7","6","6","6","6","7","4","3","7","6","6","7","7","7","5","7","5","6","7","5","6","6","7","786960916901269506","王","438","Female","[""坏我"",""好我"",""好她"",""坏她""]","[""弱我"",""强我"",""强她"",""弱她""]","","","","","","","","no","","","","","","","","","SRET","EW_formal","","key","j","44.19710869565176","650.4762200163078","361.42858784215053","自己","外行","Negative","ability","","","","","","","","","","",""
"1413","","j","psychophysics","41","252042","0.0-7.0-3.0-0.27","6","5","7","6","5","4","5","5","4","5","4","1","0","2","0","1","1","2","1","4","5","5","4","4","5","4","4","5","4","5","7","8","7","4","5","4","8","7","3","7","5","6","6","7","7","2","7","6","1","6","6","5","7","6","5","5","7","6","6","6","6","7","4","3","7","6","6","7","7","7","5","7","5","6","7","5","6","6","7","786960916901269506","王","438","Female","[""坏我"",""好我"",""好她"",""坏她""]","[""弱我"",""强我"",""强她"",""弱她""]","","","","","","","","no","","","","","","","","","SRET","EW_formal","","key","j","56.20983333333321","650.4762200163078","361.42858784215053","自己","愚钝","Negative","ability","","","","","","","","","","",""
"1382","","f","psychophysics","42","254429","0.0-7.0-3.0-0.28","6","5","7","6","5","4","5","5","4","5","4","1","0","2","0","1","1","2","1","4","5","5","4","4","5","4","4","5","4","5","7","8","7","4","5","4","8","7","3","7","5","6","6","7","7","2","7","6","1","6","6","5","7","6","5","5","7","6","6","6","6","7","4","3","7","6","6","7","7","7","5","7","5","6","7","5","6","6","7","786960916901269506","王","438","Female","[""坏我"",""好我"",""好她"",""坏她""]","[""弱我"",""强我"",""强她"",""弱她""]","","","","","","","","yes","","","","","","","","","SRET","EW_formal","","key","f","45.07969230769231","650.4762200163078","361.42858784215053","自己","奉献","Positive","morality","","","","","","","","","","",""
"1189","","j","psychophysics","43","256625","0.0-7.0-3.0-0.29","6","5","7","6","5","4","5","5","4","5","4","1","0","2","0","1","1","2","1","4","5","5","4","4","5","4","4","5","4","5","7","8","7","4","5","4","8","7","3","7","5","6","6","7","7","2","7","6","1","6","6","5","7","6","5","5","7","6","6","6","6","7","4","3","7","6","6","7","7","7","5","7","5","6","7","5","6","6","7","786960916901269506","王","438","Female","[""坏我"",""好我"",""好她"",""坏她""]","[""弱我"",""强我"",""强她"",""弱她""]","","","","","","","","no","","","","","","","","","SRET","EW_formal","","key","j","43.8718367346939","650.4762200163078","361.42858784215053","朋友","低劣","Negative","morality","","","","","","","","","","",""
"1283","","j","psychophysics","44","258921","0.0-7.0-3.0-0.30","6","5","7","6","5","4","5","5","4","5","4","1","0","2","0","1","1","2","1","4","5","5","4","4","5","4","4","5","4","5","7","8","7","4","5","4","8","7","3","7","5","6","6","7","7","2","7","6","1","6","6","5","7","6","5","5","7","6","6","6","6","7","4","3","7","6","6","7","7","7","5","7","5","6","7","5","6","6","7","786960916901269506","王","438","Female","[""坏我"",""好我"",""好她"",""坏她""]","[""弱我"",""强我"",""强她"",""弱她""]","","","","","","","","no","","","","","","","","","SRET","EW_formal","","key","j","43.26394230769242","650.4762200163078","361.42858784215053","朋友","愚痴","Negative","ability","","","","","","","","","","",""
"1081","","j","psychophysics","45","261008","0.0-7.0-3.0-0.31","6","5","7","6","5","4","5","5","4","5","4","1","0","2","0","1","1","2","1","4","5","5","4","4","5","4","4","5","4","5","7","8","7","4","5","4","8","7","3","7","5","6","6","7","7","2","7","6","1","6","6","5","7","6","5","5","7","6","6","6","6","7","4","3","7","6","6","7","7","7","5","7","5","6","7","5","6","6","7","786960916901269506","王","438","Female","[""坏我"",""好我"",""好她"",""坏她""]","[""弱我"",""强我"",""强她"",""弱她""]","","","","","","","","no","","","","","","","","","SRET","EW_formal","","key","j","42.471312500000444","650.4762200163078","361.42858784215053","自己","窝囊","Negative","ability","","","","","","","","","","",""
"1295","","j","psychophysics","46","263328","0.0-7.0-3.0-0.32","6","5","7","6","5","4","5","5","4","5","4","1","0","2","0","1","1","2","1","4","5","5","4","4","5","4","4","5","4","5","7","8","7","4","5","4","8","7","3","7","5","6","6","7","7","2","7","6","1","6","6","5","7","6","5","5","7","6","6","6","6","7","4","3","7","6","6","7","7","7","5","7","5","6","7","5","6","6","7","786960916901269506","王","438","Female","[""坏我"",""好我"",""好她"",""坏她""]","[""弱我"",""强我"",""强她"",""弱她""]","","","","","","","","no","","","","","","","","","SRET","EW_formal","","key","j","42.971339622640954","650.4762200163078","361.42858784215053","自己","狡狯","Negative","morality","","","","","","","","","","",""
"1358","","j","psychophysics","47","265702","0.0-7.0-3.0-0.33","6","5","7","6","5","4","5","5","4","5","4","1","0","2","0","1","1","2","1","4","5","5","4","4","5","4","4","5","4","5","7","8","7","4","5","4","8","7","3","7","5","6","6","7","7","2","7","6","1","6","6","5","7","6","5","5","7","6","6","6","6","7","4","3","7","6","6","7","7","7","5","7","5","6","7","5","6","6","7","786960916901269506","王","438","Female","[""坏我"",""好我"",""好她"",""坏她""]","[""弱我"",""强我"",""强她"",""弱她""]","","","","","","","","no","","","","","","","","","SRET","EW_formal","","key","j","42.41852727272675","650.4762200163078","361.42858784215053","自己","庸碌","Negative","ability","","","","","","","","","","",""
"1829","","f","psychophysics","48","268535","0.0-7.0-3.0-0.34","6","5","7","6","5","4","5","5","4","5","4","1","0","2","0","1","1","2","1","4","5","5","4","4","5","4","4","5","4","5","7","8","7","4","5","4","8","7","3","7","5","6","6","7","7","2","7","6","1","6","6","5","7","6","5","5","7","6","6","6","6","7","4","3","7","6","6","7","7","7","5","7","5","6","7","5","6","6","7","786960916901269506","王","438","Female","[""坏我"",""好我"",""好她"",""坏她""]","[""弱我"",""强我"",""强她"",""弱她""]","","","","","","","","yes","","","","","","","","","SRET","EW_formal","","key","f","47.73362711864382","650.4762200163078","361.42858784215053","朋友","慈悲","Positive","morality","","","","","","","","","","",""
"1081","","f","psychophysics","49","270625","0.0-7.0-3.0-0.35","6","5","7","6","5","4","5","5","4","5","4","1","0","2","0","1","1","2","1","4","5","5","4","4","5","4","4","5","4","5","7","8","7","4","5","4","8","7","3","7","5","6","6","7","7","2","7","6","1","6","6","5","7","6","5","5","7","6","6","6","6","7","4","3","7","6","6","7","7","7","5","7","5","6","7","5","6","6","7","786960916901269506","王","438","Female","[""坏我"",""好我"",""好她"",""坏她""]","[""弱我"",""强我"",""强她"",""弱她""]","","","","","","","","yes","","","","","","","","","SRET","EW_formal","","key","f","54.64816216216108","650.4762200163078","361.42858784215053","自己","坦荡","Positive","morality","","","","","","","","","","",""
"1381","","f","psychophysics","50","273009","0.0-7.0-3.0-0.36","6","5","7","6","5","4","5","5","4","5","4","1","0","2","0","1","1","2","1","4","5","5","4","4","5","4","4","5","4","5","7","8","7","4","5","4","8","7","3","7","5","6","6","7","7","2","7","6","1","6","6","5","7","6","5","5","7","6","6","6","6","7","4","3","7","6","6","7","7","7","5","7","5","6","7","5","6","6","7","786960916901269506","王","438","Female","[""坏我"",""好我"",""好她"",""坏她""]","[""弱我"",""强我"",""强她"",""弱她""]","","","","","","","","yes","","","","","","","","","SRET","EW_formal","","key","f","44.3316153846155","650.4762200163078","361.42858784215053","朋友","思辨","Positive","ability","","","","","","","","","","",""
"958","","f","psychophysics","51","274996","0.0-7.0-3.0-0.37","6","5","7","6","5","4","5","5","4","5","4","1","0","2","0","1","1","2","1","4","5","5","4","4","5","4","4","5","4","5","7","8","7","4","5","4","8","7","3","7","5","6","6","7","7","2","7","6","1","6","6","5","7","6","5","5","7","6","6","6","6","7","4","3","7","6","6","7","7","7","5","7","5","6","7","5","6","6","7","786960916901269506","王","438","Female","[""坏我"",""好我"",""好她"",""坏她""]","[""弱我"",""强我"",""强她"",""弱她""]","","","","","","","","yes","","","","","","","","","SRET","EW_formal","","key","f","41.483893617021636","650.4762200163078","361.42858784215053","自己","仁爱","Positive","morality","","","","","","","","","","",""
"936","","f","psychophysics","52","276941","0.0-7.0-3.0-0.38","6","5","7","6","5","4","5","5","4","5","4","1","0","2","0","1","1","2","1","4","5","5","4","4","5","4","4","5","4","5","7","8","7","4","5","4","8","7","3","7","5","6","6","7","7","2","7","6","1","6","6","5","7","6","5","5","7","6","6","6","6","7","4","3","7","6","6","7","7","7","5","7","5","6","7","5","6","6","7","786960916901269506","王","438","Female","[""坏我"",""好我"",""好她"",""坏她""]","[""弱我"",""强我"",""强她"",""弱她""]","","","","","","","","yes","","","","","","","","","SRET","EW_formal","","key","f","45.62900000000012","650.4762200163078","361.42858784215053","朋友","仁厚","Positive","morality","","","","","","","","","","",""
"1276","","f","psychophysics","53","279222","0.0-7.0-3.0-0.39","6","5","7","6","5","4","5","5","4","5","4","1","0","2","0","1","1","2","1","4","5","5","4","4","5","4","4","5","4","5","7","8","7","4","5","4","8","7","3","7","5","6","6","7","7","2","7","6","1","6","6","5","7","6","5","5","7","6","6","6","6","7","4","3","7","6","6","7","7","7","5","7","5","6","7","5","6","6","7","786960916901269506","王","438","Female","[""坏我"",""好我"",""好她"",""坏她""]","[""弱我"",""强我"",""强她"",""弱她""]","","","","","","","","yes","","","","","","","","","SRET","EW_formal","","key","f","41.764462962962206","650.4762200163078","361.42858784215053","朋友","礼貌","Positive","morality","","","","","","","","","","",""
"954","","f","psychophysics","54","281197","0.0-7.0-3.0-0.40","6","5","7","6","5","4","5","5","4","5","4","1","0","2","0","1","1","2","1","4","5","5","4","4","5","4","4","5","4","5","7","8","7","4","5","4","8","7","3","7","5","6","6","7","7","2","7","6","1","6","6","5","7","6","5","5","7","6","6","6","6","7","4","3","7","6","6","7","7","7","5","7","5","6","7","5","6","6","7","786960916901269506","王","438","Female","[""坏我"",""好我"",""好她"",""坏她""]","[""弱我"",""强我"",""强她"",""弱她""]","","","","","","","","yes","","","","","","","","","SRET","EW_formal","","key","f","41.54010869565283","650.4762200163078","361.42858784215053","朋友","顶事","Positive","ability","","","","","","","","","","",""
"940","","f","psychophysics","55","283149","0.0-7.0-3.0-0.41","6","5","7","6","5","4","5","5","4","5","4","1","0","2","0","1","1","2","1","4","5","5","4","4","5","4","4","5","4","5","7","8","7","4","5","4","8","7","3","7","5","6","6","7","7","2","7","6","1","6","6","5","7","6","5","5","7","6","6","6","6","7","4","3","7","6","6","7","7","7","5","7","5","6","7","5","6","6","7","786960916901269506","王","438","Female","[""坏我"",""好我"",""好她"",""坏她""]","[""弱我"",""强我"",""强她"",""弱她""]","","","","","","","","yes","","","","","","","","","SRET","EW_formal","","key","f","42.58668888888917","650.4762200163078","361.42858784215053","自己","义气","Positive","morality","","","","","","","","","","",""
"855","","j","psychophysics","56","285013","0.0-7.0-3.0-0.42","6","5","7","6","5","4","5","5","4","5","4","1","0","2","0","1","1","2","1","4","5","5","4","4","5","4","4","5","4","5","7","8","7","4","5","4","8","7","3","7","5","6","6","7","7","2","7","6","1","6","6","5","7","6","5","5","7","6","6","6","6","7","4","3","7","6","6","7","7","7","5","7","5","6","7","5","6","6","7","786960916901269506","王","438","Female","[""坏我"",""好我"",""好她"",""坏她""]","[""弱我"",""强我"",""强她"",""弱她""]","","","","","","","","no","","","","","","","","","SRET","EW_formal","","key","j","46.2895897435896","650.4762200163078","361.42858784215053","自己","混账","Negative","morality","","","","","","","","","","",""
"998","","f","psychophysics","57","287036","0.0-7.0-3.0-0.43","6","5","7","6","5","4","5","5","4","5","4","1","0","2","0","1","1","2","1","4","5","5","4","4","5","4","4","5","4","5","7","8","7","4","5","4","8","7","3","7","5","6","6","7","7","2","7","6","1","6","6","5","7","6","5","5","7","6","6","6","6","7","4","3","7","6","6","7","7","7","5","7","5","6","7","5","6","6","7","786960916901269506","王","438","Female","[""坏我"",""好我"",""好她"",""坏她""]","[""弱我"",""强我"",""强她"",""弱她""]","","","","","","","","yes","","","","","","","","","SRET","EW_formal","","key","f","53.29599999999974","650.4762200163078","361.42858784215053","朋友","清廉","Positive","morality","","","","","","","","","","",""
"1492","","f","psychophysics","58","289556","0.0-7.0-3.0-0.44","6","5","7","6","5","4","5","5","4","5","4","1","0","2","0","1","1","2","1","4","5","5","4","4","5","4","4","5","4","5","7","8","7","4","5","4","8","7","3","7","5","6","6","7","7","2","7","6","1","6","6","5","7","6","5","5","7","6","6","6","6","7","4","3","7","6","6","7","7","7","5","7","5","6","7","5","6","6","7","786960916901269506","王","438","Female","[""坏我"",""好我"",""好她"",""坏她""]","[""弱我"",""强我"",""强她"",""弱她""]","","","","","","","","yes","","","","","","","","","SRET","EW_formal","","key","f","49.660139999999664","650.4762200163078","361.42858784215053","自己","高明","Positive","ability","","","","","","","","","","",""
"1057","","j","psychophysics","59","291626","0.0-7.0-3.0-0.45","6","5","7","6","5","4","5","5","4","5","4","1","0","2","0","1","1","2","1","4","5","5","4","4","5","4","4","5","4","5","7","8","7","4","5","4","8","7","3","7","5","6","6","7","7","2","7","6","1","6","6","5","7","6","5","5","7","6","6","6","6","7","4","3","7","6","6","7","7","7","5","7","5","6","7","5","6","6","7","786960916901269506","王","438","Female","[""坏我"",""好我"",""好她"",""坏她""]","[""弱我"",""强我"",""强她"",""弱她""]","","","","","","","","no","","","","","","","","","SRET","EW_formal","","key","j","44.19697826086928","650.4762200163078","361.42858784215053","自己","怠惰","Negative","ability","","","","","","","","","","",""
"1067","","f","psychophysics","60","293703","0.0-7.0-3.0-0.46","6","5","7","6","5","4","5","5","4","5","4","1","0","2","0","1","1","2","1","4","5","5","4","4","5","4","4","5","4","5","7","8","7","4","5","4","8","7","3","7","5","6","6","7","7","2","7","6","1","6","6","5","7","6","5","5","7","6","6","6","6","7","4","3","7","6","6","7","7","7","5","7","5","6","7","5","6","6","7","786960916901269506","王","438","Female","[""坏我"",""好我"",""好她"",""坏她""]","[""弱我"",""强我"",""强她"",""弱她""]","","","","","","","","yes","","","","","","","","","SRET","EW_formal","","key","f","43.25657446808528","650.4762200163078","361.42858784215053","朋友","能干","Positive","ability","","","","","","","","","","",""
"1086","","f","psychophysics","61","295804","0.0-7.0-3.0-0.47","6","5","7","6","5","4","5","5","4","5","4","1","0","2","0","1","1","2","1","4","5","5","4","4","5","4","4","5","4","5","7","8","7","4","5","4","8","7","3","7","5","6","6","7","7","2","7","6","1","6","6","5","7","6","5","5","7","6","6","6","6","7","4","3","7","6","6","7","7","7","5","7","5","6","7","5","6","6","7","786960916901269506","王","438","Female","[""坏我"",""好我"",""好她"",""坏她""]","[""弱我"",""强我"",""强她"",""弱她""]","","","","","","","","yes","","","","","","","","","SRET","EW_formal","","key","f","42.24039583333312","650.4762200163078","361.42858784215053","朋友","慷慨","Positive","morality","","","","","","","","","","",""
"1040","","j","psychophysics","62","297863","0.0-7.0-3.0-0.48","6","5","7","6","5","4","5","5","4","5","4","1","0","2","0","1","1","2","1","4","5","5","4","4","5","4","4","5","4","5","7","8","7","4","5","4","8","7","3","7","5","6","6","7","7","2","7","6","1","6","6","5","7","6","5","5","7","6","6","6","6","7","4","3","7","6","6","7","7","7","5","7","5","6","7","5","6","6","7","786960916901269506","王","438","Female","[""坏我"",""好我"",""好她"",""坏她""]","[""弱我"",""强我"",""强她"",""弱她""]","","","","","","","","no","","","","","","","","","SRET","EW_formal","","key","j","43.493106382979484","650.4762200163078","361.42858784215053","朋友","迂拙","Negative","ability","","","","","","","","","","",""
"992","","f","psychophysics","63","299870","0.0-7.0-3.0-0.49","6","5","7","6","5","4","5","5","4","5","4","1","0","2","0","1","1","2","1","4","5","5","4","4","5","4","4","5","4","5","7","8","7","4","5","4","8","7","3","7","5","6","6","7","7","2","7","6","1","6","6","5","7","6","5","5","7","6","6","6","6","7","4","3","7","6","6","7","7","7","5","7","5","6","7","5","6","6","7","786960916901269506","王","438","Female","[""坏我"",""好我"",""好她"",""坏她""]","[""弱我"",""强我"",""强她"",""弱她""]","","","","","","","","yes","","","","","","","","","SRET","EW_formal","","key","f","41.24755319148956","650.4762200163078","361.42858784215053","自己","高效","Positive","ability","","","","","","","","","","",""
"1233","","j","psychophysics","64","302134","0.0-7.0-3.0-0.50","6","5","7","6","5","4","5","5","4","5","4","1","0","2","0","1","1","2","1","4","5","5","4","4","5","4","4","5","4","5","7","8","7","4","5","4","8","7","3","7","5","6","6","7","7","2","7","6","1","6","6","5","7","6","5","5","7","6","6","6","6","7","4","3","7","6","6","7","7","7","5","7","5","6","7","5","6","6","7","786960916901269506","王","438","Female","[""坏我"",""好我"",""好她"",""坏她""]","[""弱我"",""强我"",""强她"",""弱她""]","","","","","","","","no","","","","","","","","","SRET","EW_formal","","key","j","45.82739583333387","650.4762200163078","361.42858784215053","自己","邪恶","Negative","morality","","","","","","","","","","",""
"995","","f","psychophysics","65","304133","0.0-7.0-3.0-0.51","6","5","7","6","5","4","5","5","4","5","4","1","0","2","0","1","1","2","1","4","5","5","4","4","5","4","4","5","4","5","7","8","7","4","5","4","8","7","3","7","5","6","6","7","7","2","7","6","1","6","6","5","7","6","5","5","7","6","6","6","6","7","4","3","7","6","6","7","7","7","5","7","5","6","7","5","6","6","7","786960916901269506","王","438","Female","[""坏我"",""好我"",""好她"",""坏她""]","[""弱我"",""强我"",""强她"",""弱她""]","","","","","","","","yes","","","","","","","","","SRET","EW_formal","","key","f","46.42247619047633","650.4762200163078","361.42858784215053","自己","果决","Positive","ability","","","","","","","","","","",""
"1520","","j","psychophysics","66","306658","0.0-7.0-3.0-0.52","6","5","7","6","5","4","5","5","4","5","4","1","0","2","0","1","1","2","1","4","5","5","4","4","5","4","4","5","4","5","7","8","7","4","5","4","8","7","3","7","5","6","6","7","7","2","7","6","1","6","6","5","7","6","5","5","7","6","6","6","6","7","4","3","7","6","6","7","7","7","5","7","5","6","7","5","6","6","7","786960916901269506","王","438","Female","[""坏我"",""好我"",""好她"",""坏她""]","[""弱我"",""强我"",""强她"",""弱她""]","","","","","","","","no","","","","","","","","","SRET","EW_formal","","key","j","53.857608695652424","650.4762200163078","361.42858784215053","朋友","逞强","Negative","ability","","","","","","","","","","",""
"890","","f","psychophysics","67","308559","0.0-7.0-3.0-0.53","6","5","7","6","5","4","5","5","4","5","4","1","0","2","0","1","1","2","1","4","5","5","4","4","5","4","4","5","4","5","7","8","7","4","5","4","8","7","3","7","5","6","6","7","7","2","7","6","1","6","6","5","7","6","5","5","7","6","6","6","6","7","4","3","7","6","6","7","7","7","5","7","5","6","7","5","6","6","7","786960916901269506","王","438","Female","[""坏我"",""好我"",""好她"",""坏她""]","[""弱我"",""强我"",""强她"",""弱她""]","","","","","","","","yes","","","","","","","","","SRET","EW_formal","","key","f","43.79283720930243","650.4762200163078","361.42858784215053","自己","刻苦","Positive","ability","","","","","","","","","","",""
"1219","","f","psychophysics","68","310798","0.0-7.0-3.0-0.54","6","5","7","6","5","4","5","5","4","5","4","1","0","2","0","1","1","2","1","4","5","5","4","4","5","4","4","5","4","5","7","8","7","4","5","4","8","7","3","7","5","6","6","7","7","2","7","6","1","6","6","5","7","6","5","5","7","6","6","6","6","7","4","3","7","6","6","7","7","7","5","7","5","6","7","5","6","6","7","786960916901269506","王","438","Female","[""坏我"",""好我"",""好她"",""坏她""]","[""弱我"",""强我"",""强她"",""弱她""]","","","","","","","","yes","","","","","","","","","SRET","EW_formal","","key","f","41.34071153846162","650.4762200163078","361.42858784215053","朋友","智慧","Positive","ability","","","","","","","","","","",""
"996","","j","psychophysics","69","312814","0.0-7.0-3.0-0.55","6","5","7","6","5","4","5","5","4","5","4","1","0","2","0","1","1","2","1","4","5","5","4","4","5","4","4","5","4","5","7","8","7","4","5","4","8","7","3","7","5","6","6","7","7","2","7","6","1","6","6","5","7","6","5","5","7","6","6","6","6","7","4","3","7","6","6","7","7","7","5","7","5","6","7","5","6","6","7","786960916901269506","王","438","Female","[""坏我"",""好我"",""好她"",""坏她""]","[""弱我"",""强我"",""强她"",""弱她""]","","","","","","","","no","","","","","","","","","SRET","EW_formal","","key","j","44.565045454545974","650.4762200163078","361.42858784215053","朋友","拜金","Negative","morality","","","","","","","","","","",""
"1211","","f","psychophysics","70","315067","0.0-7.0-3.0-0.56","6","5","7","6","5","4","5","5","4","5","4","1","0","2","0","1","1","2","1","4","5","5","4","4","5","4","4","5","4","5","7","8","7","4","5","4","8","7","3","7","5","6","6","7","7","2","7","6","1","6","6","5","7","6","5","5","7","6","6","6","6","7","4","3","7","6","6","7","7","7","5","7","5","6","7","5","6","6","7","786960916901269506","王","438","Female","[""坏我"",""好我"",""好她"",""坏她""]","[""弱我"",""强我"",""强她"",""弱她""]","","","","","","","","yes","","","","","","","","","SRET","EW_formal","","key","f","42.51532692307732","650.4762200163078","361.42858784215053","自己","独断","Negative","ability","","","","","","","","","","",""
"1328","","j","psychophysics","71","317413","0.0-7.0-3.0-0.57","6","5","7","6","5","4","5","5","4","5","4","1","0","2","0","1","1","2","1","4","5","5","4","4","5","4","4","5","4","5","7","8","7","4","5","4","8","7","3","7","5","6","6","7","7","2","7","6","1","6","6","5","7","6","5","5","7","6","6","6","6","7","4","3","7","6","6","7","7","7","5","7","5","6","7","5","6","6","7","786960916901269506","王","438","Female","[""坏我"",""好我"",""好她"",""坏她""]","[""弱我"",""强我"",""强她"",""弱她""]","","","","","","","","no","","","","","","","","","SRET","EW_formal","","key","j","45.994000000000234","650.4762200163078","361.42858784215053","朋友","无耻","Negative","morality","","","","","","","","","","",""
"1165","","j","psychophysics","72","319592","0.0-7.0-3.0-0.58","6","5","7","6","5","4","5","5","4","5","4","1","0","2","0","1","1","2","1","4","5","5","4","4","5","4","4","5","4","5","7","8","7","4","5","4","8","7","3","7","5","6","6","7","7","2","7","6","1","6","6","5","7","6","5","5","7","6","6","6","6","7","4","3","7","6","6","7","7","7","5","7","5","6","7","5","6","6","7","786960916901269506","王","438","Female","[""坏我"",""好我"",""好她"",""坏她""]","[""弱我"",""强我"",""强她"",""弱她""]","","","","","","","","no","","","","","","","","","SRET","EW_formal","","key","j","41.0199230769235","650.4762200163078","361.42858784215053","自己","偏私","Negative","morality","","","","","","","","","","",""
"1098","","j","psychophysics","73","321700","0.0-7.0-3.0-0.59","6","5","7","6","5","4","5","5","4","5","4","1","0","2","0","1","1","2","1","4","5","5","4","4","5","4","4","5","4","5","7","8","7","4","5","4","8","7","3","7","5","6","6","7","7","2","7","6","1","6","6","5","7","6","5","5","7","6","6","6","6","7","4","3","7","6","6","7","7","7","5","7","5","6","7","5","6","6","7","786960916901269506","王","438","Female","[""坏我"",""好我"",""好她"",""坏她""]","[""弱我"",""强我"",""强她"",""弱她""]","","","","","","","","no","","","","","","","","","SRET","EW_formal","","key","j","44.083957446808434","650.4762200163078","361.42858784215053","自己","不孝","Negative","morality","","","","","","","","","","",""
"987","","f","psychophysics","74","323707","0.0-7.0-3.0-0.60","6","5","7","6","5","4","5","5","4","5","4","1","0","2","0","1","1","2","1","4","5","5","4","4","5","4","4","5","4","5","7","8","7","4","5","4","8","7","3","7","5","6","6","7","7","2","7","6","1","6","6","5","7","6","5","5","7","6","6","6","6","7","4","3","7","6","6","7","7","7","5","7","5","6","7","5","6","6","7","786960916901269506","王","438","Female","[""坏我"",""好我"",""好她"",""坏她""]","[""弱我"",""强我"",""强她"",""弱她""]","","","","","","","","yes","","","","","","","","","SRET","EW_formal","","key","f","44.691159090909586","650.4762200163078","361.42858784215053","朋友","努力","Positive","ability","","","","","","","","","","",""
"827","","j","psychophysics","75","325542","0.0-7.0-3.0-0.61","6","5","7","6","5","4","5","5","4","5","4","1","0","2","0","1","1","2","1","4","5","5","4","4","5","4","4","5","4","5","7","8","7","4","5","4","8","7","3","7","5","6","6","7","7","2","7","6","1","6","6","5","7","6","5","5","7","6","6","6","6","7","4","3","7","6","6","7","7","7","5","7","5","6","7","5","6","6","7","786960916901269506","王","438","Female","[""坏我"",""好我"",""好她"",""坏她""]","[""弱我"",""强我"",""强她"",""弱她""]","","","","","","","","no","","","","","","","","","SRET","EW_formal","","key","j","43.08382926829211","650.4762200163078","361.42858784215053","朋友","黑心","Negative","morality","","","","","","","","","","",""
"1040","","j","psychophysics","76","327590","0.0-7.0-3.0-0.62","6","5","7","6","5","4","5","5","4","5","4","1","0","2","0","1","1","2","1","4","5","5","4","4","5","4","4","5","4","5","7","8","7","4","5","4","8","7","3","7","5","6","6","7","7","2","7","6","1","6","6","5","7","6","5","5","7","6","6","6","6","7","4","3","7","6","6","7","7","7","5","7","5","6","7","5","6","6","7","786960916901269506","王","438","Female","[""坏我"",""好我"",""好她"",""坏她""]","[""弱我"",""强我"",""强她"",""弱她""]","","","","","","","","no","","","","","","","","","SRET","EW_formal","","key","j","43.109586956522314","650.4762200163078","361.42858784215053","朋友","背叛","Negative","morality","","","","","","","","","","",""
"850","","j","psychophysics","77","329449","0.0-7.0-3.0-0.63","6","5","7","6","5","4","5","5","4","5","4","1","0","2","0","1","1","2","1","4","5","5","4","4","5","4","4","5","4","5","7","8","7","4","5","4","8","7","3","7","5","6","6","7","7","2","7","6","1","6","6","5","7","6","5","5","7","6","6","6","6","7","4","3","7","6","6","7","7","7","5","7","5","6","7","5","6","6","7","786960916901269506","王","438","Female","[""坏我"",""好我"",""好她"",""坏她""]","[""弱我"",""强我"",""强她"",""弱她""]","","","","","","","","no","","","","","","","","","SRET","EW_formal","","key","j","43.38050000000069","650.4762200163078","361.42858784215053","朋友","粗心","Negative","ability","","","","","","","","","","",""
"953","","f","psychophysics","78","331406","0.0-7.0-3.0-0.64","6","5","7","6","5","4","5","5","4","5","4","1","0","2","0","1","1","2","1","4","5","5","4","4","5","4","4","5","4","5","7","8","7","4","5","4","8","7","3","7","5","6","6","7","7","2","7","6","1","6","6","5","7","6","5","5","7","6","6","6","6","7","4","3","7","6","6","7","7","7","5","7","5","6","7","5","6","6","7","786960916901269506","王","438","Female","[""坏我"",""好我"",""好她"",""坏她""]","[""弱我"",""强我"",""强她"",""弱她""]","","","","","","","","yes","","","","","","","","","SRET","EW_formal","","key","f","43.42859090909108","650.4762200163078","361.42858784215053","朋友","谦逊","Positive","morality","","","","","","","","","","",""
"915","","f","psychophysics","79","333343","0.0-7.0-3.0-0.65","6","5","7","6","5","4","5","5","4","5","4","1","0","2","0","1","1","2","1","4","5","5","4","4","5","4","4","5","4","5","7","8","7","4","5","4","8","7","3","7","5","6","6","7","7","2","7","6","1","6","6","5","7","6","5","5","7","6","6","6","6","7","4","3","7","6","6","7","7","7","5","7","5","6","7","5","6","6","7","786960916901269506","王","438","Female","[""坏我"",""好我"",""好她"",""坏她""]","[""弱我"",""强我"",""强她"",""弱她""]","","","","","","","","yes","","","","","","","","","SRET","EW_formal","","key","f","42.216622222222696","650.4762200163078","361.42858784215053","自己","敬业","Positive","morality","","","","","","","","","","",""
"898","","j","psychophysics","80","335264","0.0-7.0-3.0-0.66","6","5","7","6","5","4","5","5","4","5","4","1","0","2","0","1","1","2","1","4","5","5","4","4","5","4","4","5","4","5","7","8","7","4","5","4","8","7","3","7","5","6","6","7","7","2","7","6","1","6","6","5","7","6","5","5","7","6","6","6","6","7","4","3","7","6","6","7","7","7","5","7","5","6","7","5","6","6","7","786960916901269506","王","438","Female","[""坏我"",""好我"",""好她"",""坏她""]","[""弱我"",""强我"",""强她"",""弱她""]","","","","","","","","no","","","","","","","","","SRET","EW_formal","","key","j","41.22904444444511","650.4762200163078","361.42858784215053","自己","屈才","Negative","ability","","","","","","","","","","",""
"1009","","j","psychophysics","81","337310","0.0-7.0-3.0-0.67","6","5","7","6","5","4","5","5","4","5","4","1","0","2","0","1","1","2","1","4","5","5","4","4","5","4","4","5","4","5","7","8","7","4","5","4","8","7","3","7","5","6","6","7","7","2","7","6","1","6","6","5","7","6","5","5","7","6","6","6","6","7","4","3","7","6","6","7","7","7","5","7","5","6","7","5","6","6","7","786960916901269506","王","438","Female","[""坏我"",""好我"",""好她"",""坏她""]","[""弱我"",""强我"",""强她"",""弱她""]","","","","","","","","no","","","","","","","","","SRET","EW_formal","","key","j","43.83480434782636","650.4762200163078","361.42858784215053","朋友","差生","Negative","ability","","","","","","","","","","",""
"1412","","j","psychophysics","82","339732","0.0-7.0-3.0-0.68","6","5","7","6","5","4","5","5","4","5","4","1","0","2","0","1","1","2","1","4","5","5","4","4","5","4","4","5","4","5","7","8","7","4","5","4","8","7","3","7","5","6","6","7","7","2","7","6","1","6","6","5","7","6","5","5","7","6","6","6","6","7","4","3","7","6","6","7","7","7","5","7","5","6","7","5","6","6","7","786960916901269506","王","438","Female","[""坏我"",""好我"",""好她"",""坏她""]","[""弱我"",""强我"",""强她"",""弱她""]","","","","","","","","no","","","","","","","","","SRET","EW_formal","","key","j","42.25651785714269","650.4762200163078","361.42858784215053","朋友","短浅","Negative","ability","","","","","","","","","","",""
"933","","j","psychophysics","83","341686","0.0-7.0-3.0-0.69","6","5","7","6","5","4","5","5","4","5","4","1","0","2","0","1","1","2","1","4","5","5","4","4","5","4","4","5","4","5","7","8","7","4","5","4","8","7","3","7","5","6","6","7","7","2","7","6","1","6","6","5","7","6","5","5","7","6","6","6","6","7","4","3","7","6","6","7","7","7","5","7","5","6","7","5","6","6","7","786960916901269506","王","438","Female","[""坏我"",""好我"",""好她"",""坏她""]","[""弱我"",""强我"",""强她"",""弱她""]","","","","","","","","no","","","","","","","","","SRET","EW_formal","","key","j","42.21673333333262","650.4762200163078","361.42858784215053","朋友","伪善","Negative","morality","","","","","","","","","","",""
"1051","","f","psychophysics","84","343741","0.0-7.0-3.0-0.70","6","5","7","6","5","4","5","5","4","5","4","1","0","2","0","1","1","2","1","4","5","5","4","4","5","4","4","5","4","5","7","8","7","4","5","4","8","7","3","7","5","6","6","7","7","2","7","6","1","6","6","5","7","6","5","5","7","6","6","6","6","7","4","3","7","6","6","7","7","7","5","7","5","6","7","5","6","6","7","786960916901269506","王","438","Female","[""坏我"",""好我"",""好她"",""坏她""]","[""弱我"",""强我"",""强她"",""弱她""]","","","","","","","","yes","","","","","","","","","SRET","EW_formal","","key","f","41.83122448979554","650.4762200163078","361.42858784215053","朋友","变通","Positive","ability","","","","","","","","","","",""
"906","","f","psychophysics","85","345657","0.0-7.0-3.0-0.71","6","5","7","6","5","4","5","5","4","5","4","1","0","2","0","1","1","2","1","4","5","5","4","4","5","4","4","5","4","5","7","8","7","4","5","4","8","7","3","7","5","6","6","7","7","2","7","6","1","6","6","5","7","6","5","5","7","6","6","6","6","7","4","3","7","6","6","7","7","7","5","7","5","6","7","5","6","6","7","786960916901269506","王","438","Female","[""坏我"",""好我"",""好她"",""坏她""]","[""弱我"",""强我"",""强她"",""弱她""]","","","","","","","","yes","","","","","","","","","SRET","EW_formal","","key","f","43.77747619047711","650.4762200163078","361.42858784215053","朋友","高尚","Positive","morality","","","","","","","","","","",""
"1125","","f","psychophysics","86","347797","0.0-7.0-3.0-0.72","6","5","7","6","5","4","5","5","4","5","4","1","0","2","0","1","1","2","1","4","5","5","4","4","5","4","4","5","4","5","7","8","7","4","5","4","8","7","3","7","5","6","6","7","7","2","7","6","1","6","6","5","7","6","5","5","7","6","6","6","6","7","4","3","7","6","6","7","7","7","5","7","5","6","7","5","6","6","7","786960916901269506","王","438","Female","[""坏我"",""好我"",""好她"",""坏她""]","[""弱我"",""强我"",""强她"",""弱她""]","","","","","","","","yes","","","","","","","","","SRET","EW_formal","","key","f","44.67397872340355","650.4762200163078","361.42858784215053","朋友","侠义","Positive","morality","","","","","","","","","","",""
"1239","","f","psychophysics","87","350053","0.0-7.0-3.0-0.73","6","5","7","6","5","4","5","5","4","5","4","1","0","2","0","1","1","2","1","4","5","5","4","4","5","4","4","5","4","5","7","8","7","4","5","4","8","7","3","7","5","6","6","7","7","2","7","6","1","6","6","5","7","6","5","5","7","6","6","6","6","7","4","3","7","6","6","7","7","7","5","7","5","6","7","5","6","6","7","786960916901269506","王","438","Female","[""坏我"",""好我"",""好她"",""坏她""]","[""弱我"",""强我"",""强她"",""弱她""]","","","","","","","","yes","","","","","","","","","SRET","EW_formal","","key","f","41.24987037037068","650.4762200163078","361.42858784215053","自己","懂行","Positive","ability","","","","","","","","","","",""
"898","","f","psychophysics","88","351963","0.0-7.0-3.0-0.74","6","5","7","6","5","4","5","5","4","5","4","1","0","2","0","1","1","2","1","4","5","5","4","4","5","4","4","5","4","5","7","8","7","4","5","4","8","7","3","7","5","6","6","7","7","2","7","6","1","6","6","5","7","6","5","5","7","6","6","6","6","7","4","3","7","6","6","7","7","7","5","7","5","6","7","5","6","6","7","786960916901269506","王","438","Female","[""坏我"",""好我"",""好她"",""坏她""]","[""弱我"",""强我"",""强她"",""弱她""]","","","","","","","","yes","","","","","","","","","SRET","EW_formal","","key","f","44.574341463414875","650.4762200163078","361.42858784215053","朋友","厚道","Positive","morality","","","","","","","","","","",""
"979","","f","psychophysics","89","353948","0.0-7.0-3.0-0.75","6","5","7","6","5","4","5","5","4","5","4","1","0","2","0","1","1","2","1","4","5","5","4","4","5","4","4","5","4","5","7","8","7","4","5","4","8","7","3","7","5","6","6","7","7","2","7","6","1","6","6","5","7","6","5","5","7","6","6","6","6","7","4","3","7","6","6","7","7","7","5","7","5","6","7","5","6","6","7","786960916901269506","王","438","Female","[""坏我"",""好我"",""好她"",""坏她""]","[""弱我"",""强我"",""强她"",""弱她""]","","","","","","","","yes","","","","","","","","","SRET","EW_formal","","key","f","41.2476808510639","650.4762200163078","361.42858784215053","朋友","肯干","Positive","ability","","","","","","","","","","",""
"1080","","f","psychophysics","90","356035","0.0-7.0-3.0-0.76","6","5","7","6","5","4","5","5","4","5","4","1","0","2","0","1","1","2","1","4","5","5","4","4","5","4","4","5","4","5","7","8","7","4","5","4","8","7","3","7","5","6","6","7","7","2","7","6","1","6","6","5","7","6","5","5","7","6","6","6","6","7","4","3","7","6","6","7","7","7","5","7","5","6","7","5","6","6","7","786960916901269506","王","438","Female","[""坏我"",""好我"",""好她"",""坏她""]","[""弱我"",""强我"",""强她"",""弱她""]","","","","","","","","yes","","","","","","","","","SRET","EW_formal","","key","f","42.471249999999905","650.4762200163078","361.42858784215053","朋友","精干","Positive","ability","","","","","","","","","","",""
"1053","","j","psychophysics","91","358096","0.0-7.0-3.0-0.77","6","5","7","6","5","4","5","5","4","5","4","1","0","2","0","1","1","2","1","4","5","5","4","4","5","4","4","5","4","5","7","8","7","4","5","4","8","7","3","7","5","6","6","7","7","2","7","6","1","6","6","5","7","6","5","5","7","6","6","6","6","7","4","3","7","6","6","7","7","7","5","7","5","6","7","5","6","6","7","786960916901269506","王","438","Female","[""坏我"",""好我"",""好她"",""坏她""]","[""弱我"",""强我"",""强她"",""弱她""]","","","","","","","","no","","","","","","","","","SRET","EW_formal","","key","j","42.78395744680893","650.4762200163078","361.42858784215053","朋友","罪恶","Negative","morality","","","","","","","","","","",""
"1001","","j","psychophysics","92","360111","0.0-7.0-3.0-0.78","6","5","7","6","5","4","5","5","4","5","4","1","0","2","0","1","1","2","1","4","5","5","4","4","5","4","4","5","4","5","7","8","7","4","5","4","8","7","3","7","5","6","6","7","7","2","7","6","1","6","6","5","7","6","5","5","7","6","6","6","6","7","4","3","7","6","6","7","7","7","5","7","5","6","7","5","6","6","7","786960916901269506","王","438","Female","[""坏我"",""好我"",""好她"",""坏她""]","[""弱我"",""强我"",""强她"",""弱她""]","","","","","","","","no","","","","","","","","","SRET","EW_formal","","key","j","41.83876595744601","650.4762200163078","361.42858784215053","朋友","弱智","Negative","ability","","","","","","","","","","",""
"996","","j","psychophysics","93","362114","0.0-7.0-3.0-0.79","6","5","7","6","5","4","5","5","4","5","4","1","0","2","0","1","1","2","1","4","5","5","4","4","5","4","4","5","4","5","7","8","7","4","5","4","8","7","3","7","5","6","6","7","7","2","7","6","1","6","6","5","7","6","5","5","7","6","6","6","6","7","4","3","7","6","6","7","7","7","5","7","5","6","7","5","6","6","7","786960916901269506","王","438","Female","[""坏我"",""好我"",""好她"",""坏她""]","[""弱我"",""强我"",""强她"",""弱她""]","","","","","","","","no","","","","","","","","","SRET","EW_formal","","key","j","43.69795555555546","650.4762200163078","361.42858784215053","朋友","无敌","Positive","ability","","","","","","","","","","",""
"901","","j","psychophysics","94","364037","0.0-7.0-3.0-0.80","6","5","7","6","5","4","5","5","4","5","4","1","0","2","0","1","1","2","1","4","5","5","4","4","5","4","4","5","4","5","7","8","7","4","5","4","8","7","3","7","5","6","6","7","7","2","7","6","1","6","6","5","7","6","5","5","7","6","6","6","6","7","4","3","7","6","6","7","7","7","5","7","5","6","7","5","6","6","7","786960916901269506","王","438","Female","[""坏我"",""好我"",""好她"",""坏她""]","[""弱我"",""强我"",""强她"",""弱她""]","","","","","","","","no","","","","","","","","","SRET","EW_formal","","key","j","41.96955555555566","650.4762200163078","361.42858784215053","朋友","不端","Negative","morality","","","","","","","","","","",""
"958","","f","psychophysics","95","365999","0.0-7.0-3.0-0.81","6","5","7","6","5","4","5","5","4","5","4","1","0","2","0","1","1","2","1","4","5","5","4","4","5","4","4","5","4","5","7","8","7","4","5","4","8","7","3","7","5","6","6","7","7","2","7","6","1","6","6","5","7","6","5","5","7","6","6","6","6","7","4","3","7","6","6","7","7","7","5","7","5","6","7","5","6","6","7","786960916901269506","王","438","Female","[""坏我"",""好我"",""好她"",""坏她""]","[""弱我"",""强我"",""强她"",""弱她""]","","","","","","","","yes","","","","","","","","","SRET","EW_formal","","key","f","42.79709090909058","650.4762200163078","361.42858784215053","自己","细心","Positive","ability","","","","","","","","","","",""
"1218","","j","psychophysics","96","368223","0.0-7.0-3.0-0.82","6","5","7","6","5","4","5","5","4","5","4","1","0","2","0","1","1","2","1","4","5","5","4","4","5","4","4","5","4","5","7","8","7","4","5","4","8","7","3","7","5","6","6","7","7","2","7","6","1","6","6","5","7","6","5","5","7","6","6","6","6","7","4","3","7","6","6","7","7","7","5","7","5","6","7","5","6","6","7","786960916901269506","王","438","Female","[""坏我"",""好我"",""好她"",""坏她""]","[""弱我"",""强我"",""强她"",""弱她""]","","","","","","","","no","","","","","","","","","SRET","EW_formal","","key","j","44.43881632653137","650.4762200163078","361.42858784215053","自己","贪腐","Negative","morality","","","","","","","","","","",""
"804","","f","psychophysics","97","370043","0.0-7.0-3.0-0.83","6","5","7","6","5","4","5","5","4","5","4","1","0","2","0","1","1","2","1","4","5","5","4","4","5","4","4","5","4","5","7","8","7","4","5","4","8","7","3","7","5","6","6","7","7","2","7","6","1","6","6","5","7","6","5","5","7","6","6","6","6","7","4","3","7","6","6","7","7","7","5","7","5","6","7","5","6","6","7","786960916901269506","王","438","Female","[""坏我"",""好我"",""好她"",""坏她""]","[""弱我"",""强我"",""强她"",""弱她""]","","","","","","","","yes","","","","","","","","","SRET","EW_formal","","key","f","44.16092499999941","650.4762200163078","361.42858784215053","自己","稳健","Positive","ability","","","","","","","","","","",""
"918","","j","psychophysics","98","371978","0.0-7.0-3.0-0.84","6","5","7","6","5","4","5","5","4","5","4","1","0","2","0","1","1","2","1","4","5","5","4","4","5","4","4","5","4","5","7","8","7","4","5","4","8","7","3","7","5","6","6","7","7","2","7","6","1","6","6","5","7","6","5","5","7","6","6","6","6","7","4","3","7","6","6","7","7","7","5","7","5","6","7","5","6","6","7","786960916901269506","王","438","Female","[""坏我"",""好我"",""好她"",""坏她""]","[""弱我"",""强我"",""强她"",""弱她""]","","","","","","","","no","","","","","","","","","SRET","EW_formal","","key","j","48.71151282051309","650.4762200163078","361.42858784215053","朋友","低俗","Negative","morality","","","","","","","","","","",""
"1386","","j","psychophysics","99","374368","0.0-7.0-3.0-0.85","6","5","7","6","5","4","5","5","4","5","4","1","0","2","0","1","1","2","1","4","5","5","4","4","5","4","4","5","4","5","7","8","7","4","5","4","8","7","3","7","5","6","6","7","7","2","7","6","1","6","6","5","7","6","5","5","7","6","6","6","6","7","4","3","7","6","6","7","7","7","5","7","5","6","7","5","6","6","7","786960916901269506","王","438","Female","[""坏我"",""好我"",""好她"",""坏她""]","[""弱我"",""强我"",""强她"",""弱她""]","","","","","","","","no","","","","","","","","","SRET","EW_formal","","key","j","42.31758181818189","650.4762200163078","361.42858784215053","自己","缓慢","Negative","ability","","","","","","","","","","",""
"1255","","f","psychophysics","100","376627","0.0-7.0-3.0-0.86","6","5","7","6","5","4","5","5","4","5","4","1","0","2","0","1","1","2","1","4","5","5","4","4","5","4","4","5","4","5","7","8","7","4","5","4","8","7","3","7","5","6","6","7","7","2","7","6","1","6","6","5","7","6","5","5","7","6","6","6","6","7","4","3","7","6","6","7","7","7","5","7","5","6","7","5","6","6","7","786960916901269506","王","438","Female","[""坏我"",""好我"",""好她"",""坏她""]","[""弱我"",""强我"",""强她"",""弱她""]","","","","","","","","yes","","","","","","","","","SRET","EW_formal","","key","f","41.81856603773513","650.4762200163078","361.42858784215053","朋友","素养","Positive","morality","","","","","","","","","","",""
"985","","f","psychophysics","101","378631","0.0-7.0-3.0-0.87","6","5","7","6","5","4","5","5","4","5","4","1","0","2","0","1","1","2","1","4","5","5","4","4","5","4","4","5","4","5","7","8","7","4","5","4","8","7","3","7","5","6","6","7","7","2","7","6","1","6","6","5","7","6","5","5","7","6","6","6","6","7","4","3","7","6","6","7","7","7","5","7","5","6","7","5","6","6","7","786960916901269506","王","438","Female","[""坏我"",""好我"",""好她"",""坏她""]","[""弱我"",""强我"",""强她"",""弱她""]","","","","","","","","yes","","","","","","","","","SRET","EW_formal","","key","f","42.38599999999987","650.4762200163078","361.42858784215053","自己","主见","Positive","ability","","","","","","","","","","",""
"11992","
    <p><div style='color:white;font-size:35px; line-height:20px;'>计算任务</div></p><br>
    <p><div style='color:red;font-size:25px; line-height:20px;'>接下来，您将看到一些四则运算题，<b>请从键盘选择 0-9 进行反应。</b></div></p>
    <p><div style='color:red;font-size:25px; line-height:20px;'>请尽可能快地进行计算，计算的速度和正确率将影响报酬的发放。</div></p>
    <p><div class='footer' style='color:white;font-size:25px; line-height:20px;'>如果对本实验还有不清楚之处，请立即向实验员咨询。</p><p style='color:white;font-size:25px; line-height:20px;'>如果您明白了规则：</p><p style='color:white;font-size:22px; line-height:20px;'>请按 继续 进入练习</p>
    </div>
    ","0","html-button-response","102","390628","0.0-7.0-4.0","6","5","7","6","5","4","5","5","4","5","4","1","0","2","0","1","1","2","1","4","5","5","4","4","5","4","4","5","4","5","7","8","7","4","5","4","8","7","3","7","5","6","6","7","7","2","7","6","1","6","6","5","7","6","5","5","7","6","6","6","6","7","4","3","7","6","6","7","7","7","5","7","5","6","7","5","6","6","7","786960916901269506","王","438","Female","[""坏我"",""好我"",""好她"",""坏她""]","[""弱我"",""强我"",""强她"",""弱她""]","","","","","","","","","","","","","","","","","SRET_math","math_instructions","Thu Jan 25 2024 19:16:14 GMT+0800 (中国标准时间)","","","","","","","","","","","","","","","","","","","",""
"2160","","9","psychophysics","103","392812","0.0-7.0-5.0-0.0","6","5","7","6","5","4","5","5","4","5","4","1","0","2","0","1","1","2","1","4","5","5","4","4","5","4","4","5","4","5","7","8","7","4","5","4","8","7","3","7","5","6","6","7","7","2","7","6","1","6","6","5","7","6","5","5","7","6","6","6","6","7","4","3","7","6","6","7","7","7","5","7","5","6","7","5","6","6","7","786960916901269506","王","438","Female","[""坏我"",""好我"",""好她"",""坏她""]","[""弱我"",""强我"",""强她"",""弱她""]","","","","","","","","9","","","","","","","","","SRET","SRET_math_calculate","","key","9","41.08192452830197","650.4762200163078","361.42858784215053","","","","","8+1= ?","9","1","","","","","","","",""
"2177","","7","psychophysics","104","395002","0.0-7.0-5.0-0.1","6","5","7","6","5","4","5","5","4","5","4","1","0","2","0","1","1","2","1","4","5","5","4","4","5","4","4","5","4","5","7","8","7","4","5","4","8","7","3","7","5","6","6","7","7","2","7","6","1","6","6","5","7","6","5","5","7","6","6","6","6","7","4","3","7","6","6","7","7","7","5","7","5","6","7","5","6","6","7","786960916901269506","王","438","Female","[""坏我"",""好我"",""好她"",""坏她""]","[""弱我"",""强我"",""强她"",""弱她""]","","","","","","","","7","","","","","","","","","SRET","SRET_math_calculate","","key","7","40.24567924528317","650.4762200163078","361.42858784215053","","","","","6+1= ?","7","1","","","","","","","",""
"2240","","1","psychophysics","105","397266","0.0-7.0-5.0-0.2","6","5","7","6","5","4","5","5","4","5","4","1","0","2","0","1","1","2","1","4","5","5","4","4","5","4","4","5","4","5","7","8","7","4","5","4","8","7","3","7","5","6","6","7","7","2","7","6","1","6","6","5","7","6","5","5","7","6","6","6","6","7","4","3","7","6","6","7","7","7","5","7","5","6","7","5","6","6","7","786960916901269506","王","438","Female","[""坏我"",""好我"",""好她"",""坏她""]","[""弱我"",""强我"",""强她"",""弱她""]","","","","","","","","1","","","","","","","","","SRET","SRET_math_calculate","","key","1","39.17621052631569","650.4762200163078","361.42858784215053","","","","","30-29= ?","1","1","","","","","","","",""
"2097","","7","psychophysics","106","399392","0.0-7.0-5.0-0.3","6","5","7","6","5","4","5","5","4","5","4","1","0","2","0","1","1","2","1","4","5","5","4","4","5","4","4","5","4","5","7","8","7","4","5","4","8","7","3","7","5","6","6","7","7","2","7","6","1","6","6","5","7","6","5","5","7","6","6","6","6","7","4","3","7","6","6","7","7","7","5","7","5","6","7","5","6","6","7","786960916901269506","王","438","Female","[""坏我"",""好我"",""好她"",""坏她""]","[""弱我"",""强我"",""强她"",""弱她""]","","","","","","","","7","","","","","","","","","SRET","SRET_math_calculate","","key","7","38.574629629630145","650.4762200163078","361.42858784215053","","","","","5+2= ?","7","1","","","","","","","",""
"2226","","0","psychophysics","107","401659","0.0-7.0-5.0-0.4","6","5","7","6","5","4","5","5","4","5","4","1","0","2","0","1","1","2","1","4","5","5","4","4","5","4","4","5","4","5","7","8","7","4","5","4","8","7","3","7","5","6","6","7","7","2","7","6","1","6","6","5","7","6","5","5","7","6","6","6","6","7","4","3","7","6","6","7","7","7","5","7","5","6","7","5","6","6","7","786960916901269506","王","438","Female","[""坏我"",""好我"",""好她"",""坏她""]","[""弱我"",""强我"",""强她"",""弱她""]","","","","","","","","0","","","","","","","","","SRET","SRET_math_calculate","","key","0","41.04403703703752","650.4762200163078","361.42858784215053","","","","","5*0= ?","0","1","","","","","","","",""
"2139","","8","psychophysics","108","403820","0.0-7.0-5.0-0.5","6","5","7","6","5","4","5","5","4","5","4","1","0","2","0","1","1","2","1","4","5","5","4","4","5","4","4","5","4","5","7","8","7","4","5","4","8","7","3","7","5","6","6","7","7","2","7","6","1","6","6","5","7","6","5","5","7","6","6","6","6","7","4","3","7","6","6","7","7","7","5","7","5","6","7","5","6","6","7","786960916901269506","王","438","Female","[""坏我"",""好我"",""好她"",""坏她""]","[""弱我"",""强我"",""强她"",""弱她""]","","","","","","","","8","","","","","","","","","SRET","SRET_math_calculate","","key","8","40.69942307692299","650.4762200163078","361.42858784215053","","","","","6+2= ?","8","1","","","","","","","",""
"2385","","4","psychophysics","109","406232","0.0-7.0-5.0-0.6","6","5","7","6","5","4","5","5","4","5","4","1","0","2","0","1","1","2","1","4","5","5","4","4","5","4","4","5","4","5","7","8","7","4","5","4","8","7","3","7","5","6","6","7","7","2","7","6","1","6","6","5","7","6","5","5","7","6","6","6","6","7","4","3","7","6","6","7","7","7","5","7","5","6","7","5","6","6","7","786960916901269506","王","438","Female","[""坏我"",""好我"",""好她"",""坏她""]","[""弱我"",""强我"",""强她"",""弱她""]","","","","","","","","4","","","","","","","","","SRET","SRET_math_calculate","","key","4","42.75212499999907","650.4762200163078","361.42858784215053","","","","","13-9= ?","4","1","","","","","","","",""
"2211","","8","psychophysics","110","408458","0.0-7.0-5.0-0.7","6","5","7","6","5","4","5","5","4","5","4","1","0","2","0","1","1","2","1","4","5","5","4","4","5","4","4","5","4","5","7","8","7","4","5","4","8","7","3","7","5","6","6","7","7","2","7","6","1","6","6","5","7","6","5","5","7","6","6","6","6","7","4","3","7","6","6","7","7","7","5","7","5","6","7","5","6","6","7","786960916901269506","王","438","Female","[""坏我"",""好我"",""好她"",""坏她""]","[""弱我"",""强我"",""强她"",""弱她""]","","","","","","","","8","","","","","","","","","SRET","SRET_math_calculate","","key","8","41.233692307692344","650.4762200163078","361.42858784215053","","","","","8*1= ?","8","1","","","","","","","",""
"2001","","2","psychophysics","111","410498","0.0-7.0-5.0-0.8","6","5","7","6","5","4","5","5","4","5","4","1","0","2","0","1","1","2","1","4","5","5","4","4","5","4","4","5","4","5","7","8","7","4","5","4","8","7","3","7","5","6","6","7","7","2","7","6","1","6","6","5","7","6","5","5","7","6","6","6","6","7","4","3","7","6","6","7","7","7","5","7","5","6","7","5","6","6","7","786960916901269506","王","438","Female","[""坏我"",""好我"",""好她"",""坏她""]","[""弱我"",""强我"",""强她"",""弱她""]","","","","","","","","2","","","","","","","","","SRET","SRET_math_calculate","","key","2","41.661166666666155","650.4762200163078","361.42858784215053","","","","","1+1= ?","2","1","","","","","","","",""
"1993","","6","psychophysics","112","412518","0.0-7.0-5.0-0.9","6","5","7","6","5","4","5","5","4","5","4","1","0","2","0","1","1","2","1","4","5","5","4","4","5","4","4","5","4","5","7","8","7","4","5","4","8","7","3","7","5","6","6","7","7","2","7","6","1","6","6","5","7","6","5","5","7","6","6","6","6","7","4","3","7","6","6","7","7","7","5","7","5","6","7","5","6","6","7","786960916901269506","王","438","Female","[""坏我"",""好我"",""好她"",""坏她""]","[""弱我"",""强我"",""强她"",""弱她""]","","","","","","","","6","","","","","","","","","SRET","SRET_math_calculate","","key","6","40.4702857142856","650.4762200163078","361.42858784215053","","","","","4+2= ?","6","1","","","","","","","",""
"2118","","9","psychophysics","113","414660","0.0-7.0-5.0-0.10","6","5","7","6","5","4","5","5","4","5","4","1","0","2","0","1","1","2","1","4","5","5","4","4","5","4","4","5","4","5","7","8","7","4","5","4","8","7","3","7","5","6","6","7","7","2","7","6","1","6","6","5","7","6","5","5","7","6","6","6","6","7","4","3","7","6","6","7","7","7","5","7","5","6","7","5","6","6","7","786960916901269506","王","438","Female","[""坏我"",""好我"",""好她"",""坏她""]","[""弱我"",""强我"",""强她"",""弱她""]","","","","","","","","9","","","","","","","","","SRET","SRET_math_calculate","","key","9","38.98590740740743","650.4762200163078","361.42858784215053","","","","","1*9= ?","9","1","","","","","","","",""
"2179","","4","psychophysics","114","416879","0.0-7.0-5.0-0.11","6","5","7","6","5","4","5","5","4","5","4","1","0","2","0","1","1","2","1","4","5","5","4","4","5","4","4","5","4","5","7","8","7","4","5","4","8","7","3","7","5","6","6","7","7","2","7","6","1","6","6","5","7","6","5","5","7","6","6","6","6","7","4","3","7","6","6","7","7","7","5","7","5","6","7","5","6","6","7","786960916901269506","王","438","Female","[""坏我"",""好我"",""好她"",""坏她""]","[""弱我"",""强我"",""强她"",""弱她""]","","","","","","","","4","","","","","","","","","SRET","SRET_math_calculate","","key","4","43.660879999999885","650.4762200163078","361.42858784215053","","","","","9-5= ?","4","1","","","","","","","",""
"2195","","2","psychophysics","115","419109","0.0-7.0-5.0-0.12","6","5","7","6","5","4","5","5","4","5","4","1","0","2","0","1","1","2","1","4","5","5","4","4","5","4","4","5","4","5","7","8","7","4","5","4","8","7","3","7","5","6","6","7","7","2","7","6","1","6","6","5","7","6","5","5","7","6","6","6","6","7","4","3","7","6","6","7","7","7","5","7","5","6","7","5","6","6","7","786960916901269506","王","438","Female","[""坏我"",""好我"",""好她"",""坏她""]","[""弱我"",""强我"",""强她"",""弱她""]","","","","","","","","2","","","","","","","","","SRET","SRET_math_calculate","","key","2","42.195288461539","650.4762200163078","361.42858784215053","","","","","8-6= ?","2","1","","","","","","","",""
"2115","","8","psychophysics","116","421237","0.0-7.0-5.0-0.13","6","5","7","6","5","4","5","5","4","5","4","1","0","2","0","1","1","2","1","4","5","5","4","4","5","4","4","5","4","5","7","8","7","4","5","4","8","7","3","7","5","6","6","7","7","2","7","6","1","6","6","5","7","6","5","5","7","6","6","6","6","7","4","3","7","6","6","7","7","7","5","7","5","6","7","5","6","6","7","786960916901269506","王","438","Female","[""坏我"",""好我"",""好她"",""坏她""]","[""弱我"",""强我"",""强她"",""弱她""]","","","","","","","","8","","","","","","","","","SRET","SRET_math_calculate","","key","8","42.93381250000069","650.4762200163078","361.42858784215053","","","","","13-5= ?","8","1","","","","","","","",""
"2066","","5","psychophysics","117","423347","0.0-7.0-5.0-0.14","6","5","7","6","5","4","5","5","4","5","4","1","0","2","0","1","1","2","1","4","5","5","4","4","5","4","4","5","4","5","7","8","7","4","5","4","8","7","3","7","5","6","6","7","7","2","7","6","1","6","6","5","7","6","5","5","7","6","6","6","6","7","4","3","7","6","6","7","7","7","5","7","5","6","7","5","6","6","7","786960916901269506","王","438","Female","[""坏我"",""好我"",""好她"",""坏她""]","[""弱我"",""强我"",""强她"",""弱她""]","","","","","","","","5","","","","","","","","","SRET","SRET_math_calculate","","key","5","45.30248888888939","650.4762200163078","361.42858784215053","","","","","4+1= ?","5","1","","","","","","","",""
"1980","","5","psychophysics","118","425375","0.0-7.0-5.0-0.15","6","5","7","6","5","4","5","5","4","5","4","1","0","2","0","1","1","2","1","4","5","5","4","4","5","4","4","5","4","5","7","8","7","4","5","4","8","7","3","7","5","6","6","7","7","2","7","6","1","6","6","5","7","6","5","5","7","6","6","6","6","7","4","3","7","6","6","7","7","7","5","7","5","6","7","5","6","6","7","786960916901269506","王","438","Female","[""坏我"",""好我"",""好她"",""坏她""]","[""弱我"",""强我"",""强她"",""弱她""]","","","","","","","","5","","","","","","","","","SRET","SRET_math_calculate","","key","5","42.07510638297808","650.4762200163078","361.42858784215053","","","","","9-4= ?","5","1","","","","","","","",""
"2291","","1","psychophysics","119","427707","0.0-7.0-5.0-0.16","6","5","7","6","5","4","5","5","4","5","4","1","0","2","0","1","1","2","1","4","5","5","4","4","5","4","4","5","4","5","7","8","7","4","5","4","8","7","3","7","5","6","6","7","7","2","7","6","1","6","6","5","7","6","5","5","7","6","6","6","6","7","4","3","7","6","6","7","7","7","5","7","5","6","7","5","6","6","7","786960916901269506","王","438","Female","[""坏我"",""好我"",""好她"",""坏她""]","[""弱我"",""强我"",""强她"",""弱她""]","","","","","","","","1","","","","","","","","","SRET","SRET_math_calculate","","key","1","42.27848148148149","650.4762200163078","361.42858784215053","","","","","4/4= ?","1","1","","","","","","","",""
"1946","","4","psychophysics","120","429678","0.0-7.0-5.0-0.17","6","5","7","6","5","4","5","5","4","5","4","1","0","2","0","1","1","2","1","4","5","5","4","4","5","4","4","5","4","5","7","8","7","4","5","4","8","7","3","7","5","6","6","7","7","2","7","6","1","6","6","5","7","6","5","5","7","6","6","6","6","7","4","3","7","6","6","7","7","7","5","7","5","6","7","5","6","6","7","786960916901269506","王","438","Female","[""坏我"",""好我"",""好她"",""坏她""]","[""弱我"",""强我"",""强她"",""弱她""]","","","","","","","","4","","","","","","","","","SRET","SRET_math_calculate","","key","4","40.27229166666681","650.4762200163078","361.42858784215053","","","","","3+1= ?","4","1","","","","","","","",""
"2259","","3","psychophysics","121","431961","0.0-7.0-5.0-0.18","6","5","7","6","5","4","5","5","4","5","4","1","0","2","0","1","1","2","1","4","5","5","4","4","5","4","4","5","4","5","7","8","7","4","5","4","8","7","3","7","5","6","6","7","7","2","7","6","1","6","6","5","7","6","5","5","7","6","6","6","6","7","4","3","7","6","6","7","7","7","5","7","5","6","7","5","6","6","7","786960916901269506","王","438","Female","[""坏我"",""好我"",""好她"",""坏她""]","[""弱我"",""强我"",""强她"",""弱她""]","","","","","","","","3","","","","","","","","","SRET","SRET_math_calculate","","key","3","41.4558888888892","650.4762200163078","361.42858784215053","","","","","3+0= ?","3","1","","","","","","","",""
"2387","","2","psychophysics","122","434362","0.0-7.0-5.0-0.19","6","5","7","6","5","4","5","5","4","5","4","1","0","2","0","1","1","2","1","4","5","5","4","4","5","4","4","5","4","5","7","8","7","4","5","4","8","7","3","7","5","6","6","7","7","2","7","6","1","6","6","5","7","6","5","5","7","6","6","6","6","7","4","3","7","6","6","7","7","7","5","7","5","6","7","5","6","6","7","786960916901269506","王","438","Female","[""坏我"",""好我"",""好她"",""坏她""]","[""弱我"",""强我"",""强她"",""弱她""]","","","","","","","","2","","","","","","","","","SRET","SRET_math_calculate","","key","2","43.226818181817755","650.4762200163078","361.42858784215053","","","","","9-7= ?","2","1","","","","","","","",""
"2802","","4","psychophysics","123","437179","0.0-7.0-5.0-0.20","6","5","7","6","5","4","5","5","4","5","4","1","0","2","0","1","1","2","1","4","5","5","4","4","5","4","4","5","4","5","7","8","7","4","5","4","8","7","3","7","5","6","6","7","7","2","7","6","1","6","6","5","7","6","5","5","7","6","6","6","6","7","4","3","7","6","6","7","7","7","5","7","5","6","7","5","6","6","7","786960916901269506","王","438","Female","[""坏我"",""好我"",""好她"",""坏她""]","[""弱我"",""强我"",""强她"",""弱她""]","","","","","","","","4","","","","","","","","","SRET","SRET_math_calculate","","key","4","46.88645762711827","650.4762200163078","361.42858784215053","","","","","8-4= ?","4","1","","","","","","","",""
"2313","","7","psychophysics","124","439506","0.0-7.0-5.0-0.21","6","5","7","6","5","4","5","5","4","5","4","1","0","2","0","1","1","2","1","4","5","5","4","4","5","4","4","5","4","5","7","8","7","4","5","4","8","7","3","7","5","6","6","7","7","2","7","6","1","6","6","5","7","6","5","5","7","6","6","6","6","7","4","3","7","6","6","7","7","7","5","7","5","6","7","5","6","6","7","786960916901269506","王","438","Female","[""坏我"",""好我"",""好她"",""坏她""]","[""弱我"",""强我"",""强她"",""弱她""]","","","","","","","","7","","","","","","","","","SRET","SRET_math_calculate","","key","7","44.88263999999967","650.4762200163078","361.42858784215053","","","","","3+4= ?","7","1","","","","","","","",""
"2342","","0","psychophysics","125","441872","0.0-7.0-5.0-0.22","6","5","7","6","5","4","5","5","4","5","4","1","0","2","0","1","1","2","1","4","5","5","4","4","5","4","4","5","4","5","7","8","7","4","5","4","8","7","3","7","5","6","6","7","7","2","7","6","1","6","6","5","7","6","5","5","7","6","6","6","6","7","4","3","7","6","6","7","7","7","5","7","5","6","7","5","6","6","7","786960916901269506","王","438","Female","[""坏我"",""好我"",""好她"",""坏她""]","[""弱我"",""强我"",""强她"",""弱她""]","","","","","","","","0","","","","","","","","","SRET","SRET_math_calculate","","key","0","40.73517543859698","650.4762200163078","361.42858784215053","","","","","22-22= ?","0","1","","","","","","","",""
"2090","","3","psychophysics","126","443981","0.0-7.0-5.0-0.23","6","5","7","6","5","4","5","5","4","5","4","1","0","2","0","1","1","2","1","4","5","5","4","4","5","4","4","5","4","5","7","8","7","4","5","4","8","7","3","7","5","6","6","7","7","2","7","6","1","6","6","5","7","6","5","5","7","6","6","6","6","7","4","3","7","6","6","7","7","7","5","7","5","6","7","5","6","6","7","786960916901269506","王","438","Female","[""坏我"",""好我"",""好她"",""坏她""]","[""弱我"",""强我"",""强她"",""弱她""]","","","","","","","","3","","","","","","","","","SRET","SRET_math_calculate","","key","3","42.703020833333234","650.4762200163078","361.42858784215053","","","","","11-8= ?","3","1","","","","","","","",""
"2462","","3","psychophysics","127","446460","0.0-7.0-5.0-0.24","6","5","7","6","5","4","5","5","4","5","4","1","0","2","0","1","1","2","1","4","5","5","4","4","5","4","4","5","4","5","7","8","7","4","5","4","8","7","3","7","5","6","6","7","7","2","7","6","1","6","6","5","7","6","5","5","7","6","6","6","6","7","4","3","7","6","6","7","7","7","5","7","5","6","7","5","6","6","7","786960916901269506","王","438","Female","[""坏我"",""好我"",""好她"",""坏她""]","[""弱我"",""强我"",""强她"",""弱她""]","","","","","","","","3","","","","","","","","","SRET","SRET_math_calculate","","key","3","41.66115517241395","650.4762200163078","361.42858784215053","","","","","9-6= ?","3","1","","","","","","","",""
"2312","","2","psychophysics","128","448787","0.0-7.0-5.0-0.25","6","5","7","6","5","4","5","5","4","5","4","1","0","2","0","1","1","2","1","4","5","5","4","4","5","4","4","5","4","5","7","8","7","4","5","4","8","7","3","7","5","6","6","7","7","2","7","6","1","6","6","5","7","6","5","5","7","6","6","6","6","7","4","3","7","6","6","7","7","7","5","7","5","6","7","5","6","6","7","786960916901269506","王","438","Female","[""坏我"",""好我"",""好她"",""坏她""]","[""弱我"",""强我"",""强她"",""弱她""]","","","","","","","","2","","","","","","","","","SRET","SRET_math_calculate","","key","2","40.248122807017225","650.4762200163078","361.42858784215053","","","","","29-27= ?","2","1","","","","","","","",""
"2516","","5","psychophysics","129","451316","0.0-7.0-5.0-0.26","6","5","7","6","5","4","5","5","4","5","4","1","0","2","0","1","1","2","1","4","5","5","4","4","5","4","4","5","4","5","7","8","7","4","5","4","8","7","3","7","5","6","6","7","7","2","7","6","1","6","6","5","7","6","5","5","7","6","6","6","6","7","4","3","7","6","6","7","7","7","5","7","5","6","7","5","6","6","7","786960916901269506","王","438","Female","[""坏我"",""好我"",""好她"",""坏她""]","[""弱我"",""强我"",""强她"",""弱她""]","","","","","","","","5","","","","","","","","","SRET","SRET_math_calculate","","key","5","41.42637288135622","650.4762200163078","361.42858784215053","","","","","14-9= ?","5","1","","","","","","","",""
"2251","","7","psychophysics","130","453591","0.0-7.0-5.0-0.27","6","5","7","6","5","4","5","5","4","5","4","1","0","2","0","1","1","2","1","4","5","5","4","4","5","4","4","5","4","5","7","8","7","4","5","4","8","7","3","7","5","6","6","7","7","2","7","6","1","6","6","5","7","6","5","5","7","6","6","6","6","7","4","3","7","6","6","7","7","7","5","7","5","6","7","5","6","6","7","786960916901269506","王","438","Female","[""坏我"",""好我"",""好她"",""坏她""]","[""弱我"",""强我"",""强她"",""弱她""]","","","","","","","","7","","","","","","","","","SRET","SRET_math_calculate","","key","7","39.760526315789065","650.4762200163078","361.42858784215053","","","","","21/3= ? ","7","1","","","","","","","",""
"2317","","8","psychophysics","131","455922","0.0-7.0-5.0-0.28","6","5","7","6","5","4","5","5","4","5","4","1","0","2","0","1","1","2","1","4","5","5","4","4","5","4","4","5","4","5","7","8","7","4","5","4","8","7","3","7","5","6","6","7","7","2","7","6","1","6","6","5","7","6","5","5","7","6","6","6","6","7","4","3","7","6","6","7","7","7","5","7","5","6","7","5","6","6","7","786960916901269506","王","438","Female","[""坏我"",""好我"",""好她"",""坏她""]","[""弱我"",""强我"",""强她"",""弱她""]","","","","","","","","8","","","","","","","","","SRET","SRET_math_calculate","","key","8","44.11160784313688","650.4762200163078","361.42858784215053","","","","","1+7= ?","8","1","","","","","","","",""
"2252","","8","psychophysics","132","458190","0.0-7.0-5.0-0.29","6","5","7","6","5","4","5","5","4","5","4","1","0","2","0","1","1","2","1","4","5","5","4","4","5","4","4","5","4","5","7","8","7","4","5","4","8","7","3","7","5","6","6","7","7","2","7","6","1","6","6","5","7","6","5","5","7","6","6","6","6","7","4","3","7","6","6","7","7","7","5","7","5","6","7","5","6","6","7","786960916901269506","王","438","Female","[""坏我"",""好我"",""好她"",""坏她""]","[""弱我"",""强我"",""强她"",""弱她""]","","","","","","","","8","","","","","","","","","SRET","SRET_math_calculate","","key","8","39.47930357142884","650.4762200163078","361.42858784215053","","","","","11-3= ?","8","1","","","","","","","",""
"2370","","5","psychophysics","133","460575","0.0-7.0-5.0-0.30","6","5","7","6","5","4","5","5","4","5","4","1","0","2","0","1","1","2","1","4","5","5","4","4","5","4","4","5","4","5","7","8","7","4","5","4","8","7","3","7","5","6","6","7","7","2","7","6","1","6","6","5","7","6","5","5","7","6","6","6","6","7","4","3","7","6","6","7","7","7","5","7","5","6","7","5","6","6","7","786960916901269506","王","438","Female","[""坏我"",""好我"",""好她"",""坏她""]","[""弱我"",""强我"",""强她"",""弱她""]","","","","","","","","5","","","","","","","","","SRET","SRET_math_calculate","","key","5","41.12521052631558","650.4762200163078","361.42858784215053","","","","","16-11= ?","5","1","","","","","","","",""
"2079","","8","psychophysics","134","462679","0.0-7.0-5.0-0.31","6","5","7","6","5","4","5","5","4","5","4","1","0","2","0","1","1","2","1","4","5","5","4","4","5","4","4","5","4","5","7","8","7","4","5","4","8","7","3","7","5","6","6","7","7","2","7","6","1","6","6","5","7","6","5","5","7","6","6","6","6","7","4","3","7","6","6","7","7","7","5","7","5","6","7","5","6","6","7","786960916901269506","王","438","Female","[""坏我"",""好我"",""好她"",""坏她""]","[""弱我"",""强我"",""强她"",""弱她""]","","","","","","","","8","","","","","","","","","SRET","SRET_math_calculate","","key","8","40.05923076922996","650.4762200163078","361.42858784215053","","","","","3+5= ?","8","1","","","","","","","",""
"2371","","7","psychophysics","135","465066","0.0-7.0-5.0-0.32","6","5","7","6","5","4","5","5","4","5","4","1","0","2","0","1","1","2","1","4","5","5","4","4","5","4","4","5","4","5","7","8","7","4","5","4","8","7","3","7","5","6","6","7","7","2","7","6","1","6","6","5","7","6","5","5","7","6","6","6","6","7","4","3","7","6","6","7","7","7","5","7","5","6","7","5","6","6","7","786960916901269506","王","438","Female","[""坏我"",""好我"",""好她"",""坏她""]","[""弱我"",""强我"",""强她"",""弱她""]","","","","","","","","7","","","","","","","","","SRET","SRET_math_calculate","","key","7","41.36373214285725","650.4762200163078","361.42858784215053","","","","","11-4= ?","7","1","","","","","","","",""
"2167","","3","psychophysics","136","467262","0.0-7.0-5.0-0.33","6","5","7","6","5","4","5","5","4","5","4","1","0","2","0","1","1","2","1","4","5","5","4","4","5","4","4","5","4","5","7","8","7","4","5","4","8","7","3","7","5","6","6","7","7","2","7","6","1","6","6","5","7","6","5","5","7","6","6","6","6","7","4","3","7","6","6","7","7","7","5","7","5","6","7","5","6","6","7","786960916901269506","王","438","Female","[""坏我"",""好我"",""好她"",""坏她""]","[""弱我"",""强我"",""强她"",""弱她""]","","","","","","","","3","","","","","","","","","SRET","SRET_math_calculate","","key","3","41.340865384614936","650.4762200163078","361.42858784215053","","","","","21/7=  ?","3","1","","","","","","","",""
"2014","","7","psychophysics","137","469303","0.0-7.0-5.0-0.34","6","5","7","6","5","4","5","5","4","5","4","1","0","2","0","1","1","2","1","4","5","5","4","4","5","4","4","5","4","5","7","8","7","4","5","4","8","7","3","7","5","6","6","7","7","2","7","6","1","6","6","5","7","6","5","5","7","6","6","6","6","7","4","3","7","6","6","7","7","7","5","7","5","6","7","5","6","6","7","786960916901269506","王","438","Female","[""坏我"",""好我"",""好她"",""坏她""]","[""弱我"",""强我"",""强她"",""弱她""]","","","","","","","","7","","","","","","","","","SRET","SRET_math_calculate","","key","7","39.99494000000064","650.4762200163078","361.42858784215053","","","","","49/7 = ?","7","1","","","","","","","",""
