"rt","stimulus","response","trial_type","trial_index","time_elapsed","internal_node_id","swb_1","swb_2","swb_3","swb_4","swb_5","LOT_1","LOT_2","LOT_3","LOT_4","LOT_5","LOT_6","IPC_1","IPC_2","IPC_3","IPC_4","IPC_5","IPC_6","IPC_7","IPC_8","MorIden_1","MorIden_2","MorIden_3","MorIden_4","MorIden_5","MorIden_6","MorIden_7","MorIden_8","MorIden_9","MorIden_10","moralSeImag_1","moralSeImag_2","moralSeImag_3","moralSeImag_4","moralSeImag_5","moralSeImag_6","moralSeImag_7","moralSeImag_8","moralSeImag_9","sde_1","sde_2","sde_3","sde_4","sde_5","sde_6","sde_7","sde_8","sde_9","sde_10","trap2","sde_11","sde_12","sde_13","sde_14","sde_15","sde_16","sde_17","sde_18","sde_19","sde_20","IM_1","IM_2","IM_3","IM_4","IM_5","IM_6","IM_7","IM_8","IM_9","IM_10","IM_11","IM_12","IM_13","IM_14","IM_15","IM_16","IM_17","IM_18","IM_19","IM_20","subj_idx","friend_name","ParticipantID","Sex","Word","Word2","value","success","timeout","failed_images","failed_audio","failed_video","user_agent","responses","item_order","radio_event_ids","radio_event_times","key_event_times","mouse_event_times","straightlining","zigzagging","honeypot","view_history","response_type","key_press","avg_frame_time","center_x","center_y","correct_response","correct","identity","Image","word","condition","task_id","screen_id","time_stamp","person","valence","domain","math","status","duration","question_order","trap2_item"
"33019","
   <p><div style='color:white; font-size: 25px'>您好，欢迎参加本次实验。</div></p>
   <p><div style='color:white; font-size: 25px'>为充分保障您的权利，请确保您已经知晓并同意《参与实验同意书》以及《数据公开知情同意书》。</div></p>
   <p><div style='color:white; font-size: 25px'>如果您未见过上述内容，请咨询实验员。</div></p>
   <p style='color:white; font-size: 25px'>如果您选择继续实验，则表示您已经清楚两份知情同意书的内容并同意。</p>
   <p><div style = ""color: pink;font-size:30px;"">请确保您记得day0的实验编号，您将在本次实验输入该编号，若您忘记，请咨询实验员后作答。</div></p>
   <p><div style = ""color:lightblue;font-size:25px;"">请您尽可能认真地作答，我们将依据您在各问卷和按键任务中的作答质量发放报酬。</div></p>
   <p> <div style = ""color: green""><按空格键至下页></div> </p>
   "," ","html-keyboard-response","0","33021","0.0-0.0","3","3","3","2","2","4","3","4","4","4","4","1","-1","0","1","-2","-1","0","1","5","4","4","4","4","3","4","4","5","4","7","7","6","8","5","6","7","5","8","3","4","2","4","5","5","5","6","4","2","1","2","4","5","5","4","4","5","5","2","4","2","4","5","3","4","5","5","3","7","3","5","3","7","1","6","3","6","6","4","2","682593254339772416","张","522","Female","[""坏她"",""好我"",""坏我"",""好她""]","[""弱她"",""强我"",""弱我"",""强她""]","","","","","","","","","","","","","","","","","","","","","","","","","","","","","","","","","","","","","","",""
"","","","call-function","1","33022","0.0-1.0-0.0","3","3","3","2","2","4","3","4","4","4","4","1","-1","0","1","-2","-1","0","1","5","4","4","4","4","3","4","4","5","4","7","7","6","8","5","6","7","5","8","3","4","2","4","5","5","5","6","4","2","1","2","4","5","5","4","4","5","5","2","4","2","4","5","3","4","5","5","3","7","3","5","3","7","1","6","3","6","6","4","2","682593254339772416","张","522","Female","[""坏她"",""好我"",""坏我"",""好她""]","[""弱她"",""强我"",""弱我"",""强她""]","","","","","","","","","","","","","","","","","","","","","","","","","","","","","","","","","","","","","","",""
"14498","","[{""name"":""Sex"",""value"":""1""},{""name"":""friend_name"",""value"":""张""},{""name"":""ParticipantID"",""value"":""522""}]","survey-html-form","2","47520","0.0-1.0-1.0","3","3","3","2","2","4","3","4","4","4","4","1","-1","0","1","-2","-1","0","1","5","4","4","4","4","3","4","4","5","4","7","7","6","8","5","6","7","5","8","3","4","2","4","5","5","5","6","4","2","1","2","4","5","5","4","4","5","5","2","4","2","4","5","3","4","5","5","3","7","3","5","3","7","1","6","3","6","6","4","2","682593254339772416","张","522","Female","[""坏她"",""好我"",""坏我"",""好她""]","[""弱她"",""强我"",""弱我"",""强她""]","","","","","","","","","","","","","","","","","","","","","","","","","","","","","","","","","","","","","","",""
"","","","preload","3","47819","0.0-2.0","3","3","3","2","2","4","3","4","4","4","4","1","-1","0","1","-2","-1","0","1","5","4","4","4","4","3","4","4","5","4","7","7","6","8","5","6","7","5","8","3","4","2","4","5","5","5","6","4","2","1","2","4","5","5","4","4","5","5","2","4","2","4","5","3","4","5","5","3","7","3","5","3","7","1","6","3","6","6","4","2","682593254339772416","张","522","Female","[""坏她"",""好我"",""坏我"",""好她""]","[""弱她"",""强我"",""弱我"",""强她""]","","true","false","[]","[]","[]","","","","","","","","","","","","","","","","","","","","","","","","","","","","","","","","",""
"","","","fullscreen","4","50420","0.0-3.0","3","3","3","2","2","4","3","4","4","4","4","1","-1","0","1","-2","-1","0","1","5","4","4","4","4","3","4","4","5","4","7","7","6","8","5","6","7","5","8","3","4","2","4","5","5","5","6","4","2","1","2","4","5","5","4","4","5","5","2","4","2","4","5","3","4","5","5","3","7","3","5","3","7","1","6","3","6","6","4","2","682593254339772416","张","522","Female","[""坏她"",""好我"",""坏我"",""好她""]","[""弱她"",""强我"",""弱我"",""强她""]","","true","","","","","{}","","","","","","","","","","","","","","","","","","","","","","","","","","","","","","","",""
"101869.89999999997","","{""Q01"":""3"",""Q02"":""3"",""Q03"":""3"",""Q04"":""2"",""Q05"":""2""}","survey-template","5","152292","0.0-4.0","3","3","3","2","2","4","3","4","4","4","4","1","-1","0","1","-2","-1","0","1","5","4","4","4","4","3","4","4","5","4","7","7","6","8","5","6","7","5","8","3","4","2","4","5","5","5","6","4","2","1","2","4","5","5","4","4","5","5","2","4","2","4","5","3","4","5","5","3","7","3","5","3","7","1","6","3","6","6","4","2","682593254339772416","张","522","Female","[""坏她"",""好我"",""坏我"",""好她""]","[""弱她"",""强我"",""弱我"",""强她""]","","","","","","","","{""Q01"":""3"",""Q02"":""3"",""Q03"":""3"",""Q04"":""2"",""Q05"":""2""}","[0,1,2,3,4]","[""Q01"",""Q02"",""Q03"",""Q04"",""Q05""]","[66421.89999999997,71028.20000000001,77127.59999999998,78809.20000000001,99797.5]","[]","[66421.89999999997,71028.20000000001,74973.20000000001,77127.59999999998,78809.20000000001,99797.5,101868.59999999998]","0.6","0.25","0","","","","","","","","","","","","","","","","","","","","","","",""
"26708.600000000035","","{""Q01"":""4"",""Q02"":""3"",""Q03"":""4"",""Q04"":""4"",""Q05"":""4"",""Q06"":""4""}","survey-template","6","179004","0.0-5.0","3","3","3","2","2","4","3","4","4","4","4","1","-1","0","1","-2","-1","0","1","5","4","4","4","4","3","4","4","5","4","7","7","6","8","5","6","7","5","8","3","4","2","4","5","5","5","6","4","2","1","2","4","5","5","4","4","5","5","2","4","2","4","5","3","4","5","5","3","7","3","5","3","7","1","6","3","6","6","4","2","682593254339772416","张","522","Female","[""坏她"",""好我"",""坏我"",""好她""]","[""弱她"",""强我"",""弱我"",""强她""]","","","","","","","","{""Q01"":""4"",""Q02"":""3"",""Q03"":""4"",""Q04"":""4"",""Q05"":""4"",""Q06"":""4""}","[0,1,2,3,4,5]","[""Q01"",""Q02"",""Q03"",""Q04"",""Q05"",""Q06""]","[7275.800000000047,9628.700000000012,15005.800000000047,19399.900000000023,21970,25450.70000000001]","[]","[4467.100000000035,7275.800000000047,9628.700000000012,15005.800000000047,19399.900000000023,21970,25450.70000000001,26707.800000000047]","0.5","0.4","0","","","","","","","","","","","","","","","","","","","","","","",""
"80390.20000000001","","{""Q01"":""1"",""Q02"":""-1"",""Q03"":""0"",""Q04"":""1"",""Q05"":""-2"",""Q06"":""-1"",""Q07"":""0"",""Q08"":""1""}","survey-template","7","259397","0.0-6.0","3","3","3","2","2","4","3","4","4","4","4","1","-1","0","1","-2","-1","0","1","5","4","4","4","4","3","4","4","5","4","7","7","6","8","5","6","7","5","8","3","4","2","4","5","5","5","6","4","2","1","2","4","5","5","4","4","5","5","2","4","2","4","5","3","4","5","5","3","7","3","5","3","7","1","6","3","6","6","4","2","682593254339772416","张","522","Female","[""坏她"",""好我"",""坏我"",""好她""]","[""弱她"",""强我"",""弱我"",""强她""]","","","","","","","","{""Q01"":""1"",""Q02"":""-1"",""Q03"":""0"",""Q04"":""1"",""Q05"":""-2"",""Q06"":""-1"",""Q07"":""0"",""Q08"":""1""}","[0,1,2,3,4,5,6,7]","[""Q01"",""Q02"",""Q03"",""Q04"",""Q05"",""Q06"",""Q07"",""Q08""]","[3313.600000000035,7113.5,11488.100000000035,19832.600000000035,62802.90000000002,64737.5,74758.39999999997,77918.20000000001]","[]","[3313.600000000035,7113.5,10216.900000000023,11488.100000000035,19832.600000000035,62802.90000000002,64737.5,74758.39999999997,77918.20000000001,80389.10000000003]","0.375","0.7142857142857143","0","","","","","","","","","","","","","","","","","","","","","","",""
"5094","","","instructions","8","264493","0.0-7.0","3","3","3","2","2","4","3","4","4","4","4","1","-1","0","1","-2","-1","0","1","5","4","4","4","4","3","4","4","5","4","7","7","6","8","5","6","7","5","8","3","4","2","4","5","5","5","6","4","2","1","2","4","5","5","4","4","5","5","2","4","2","4","5","3","4","5","5","3","7","3","5","3","7","1","6","3","6","6","4","2","682593254339772416","张","522","Female","[""坏她"",""好我"",""坏我"",""好她""]","[""弱她"",""强我"",""弱我"",""强她""]","","","","","","","","","","","","","","","","","[{""page_index"":0,""viewing_time"":5094}]","","","","","","","","","","","","","","","","","","","","","",""
"72141","","","instructions","9","336636","0.0-8.0-0.0-0.0","3","3","3","2","2","4","3","4","4","4","4","1","-1","0","1","-2","-1","0","1","5","4","4","4","4","3","4","4","5","4","7","7","6","8","5","6","7","5","8","3","4","2","4","5","5","5","6","4","2","1","2","4","5","5","4","4","5","5","2","4","2","4","5","3","4","5","5","3","7","3","5","3","7","1","6","3","6","6","4","2","682593254339772416","张","522","Female","[""坏她"",""好我"",""坏我"",""好她""]","[""弱她"",""强我"",""弱我"",""强她""]","","","","","","","","","","","","","","","","","[{""page_index"":0,""viewing_time"":10369},{""page_index"":1,""viewing_time"":55788},{""page_index"":2,""viewing_time"":3729},{""page_index"":3,""viewing_time"":2256}]","","","","","","","","","","","","","","","","","","","","","",""
"924","","j","psychophysics","10","338563","0.0-8.0-0.0-1.0-0.0-0.0","3","3","3","2","2","4","3","4","4","4","4","1","-1","0","1","-2","-1","0","1","5","4","4","4","4","3","4","4","5","4","7","7","6","8","5","6","7","5","8","3","4","2","4","5","5","5","6","4","2","1","2","4","5","5","4","4","5","5","2","4","2","4","5","3","4","5","5","3","7","3","5","3","7","1","6","3","6","6","4","2","682593254339772416","张","522","Female","[""坏她"",""好我"",""坏我"",""好她""]","[""弱她"",""强我"",""弱我"",""强她""]","","","","","","","","nonmatch","","","","","","","","","","key","j","16.64649122807028","960","536","j","true","nonmatch","img/ellipse.png","坏我","坏她","prac_ALT2_moral","practice_moral","","","","","","","","",""
"null","<span style='color:GreenYellow; font-size: 70px;'>正确! </span>","null","html-keyboard-response","11","339071","0.0-8.0-0.0-1.0-0.0-1.0","3","3","3","2","2","4","3","4","4","4","4","1","-1","0","1","-2","-1","0","1","5","4","4","4","4","3","4","4","5","4","7","7","6","8","5","6","7","5","8","3","4","2","4","5","5","5","6","4","2","1","2","4","5","5","4","4","5","5","2","4","2","4","5","3","4","5","5","3","7","3","5","3","7","1","6","3","6","6","4","2","682593254339772416","张","522","Female","[""坏她"",""好我"",""坏我"",""好她""]","[""弱她"",""强我"",""弱我"",""强她""]","","","","","","","","","","","","","","","","","","","","","","","","","","","","","","feedback_test","","","","","","","","",""
"null","","null","psychophysics","12","341274","0.0-8.0-0.0-1.0-0.0-0.1","3","3","3","2","2","4","3","4","4","4","4","1","-1","0","1","-2","-1","0","1","5","4","4","4","4","3","4","4","5","4","7","7","6","8","5","6","7","5","8","3","4","2","4","5","5","5","6","4","2","1","2","4","5","5","4","4","5","5","2","4","2","4","5","3","4","5","5","3","7","3","5","3","7","1","6","3","6","6","4","2","682593254339772416","张","522","Female","[""坏她"",""好我"",""坏我"",""好她""]","[""弱她"",""强我"",""弱我"",""强她""]","","","","","","","","null","","","","","","","","","","key","null","16.65190839694674","960","536","j","false","nonmatch","img/pentagon.png","好我","好她","prac_ALT2_moral","practice_moral","","","","","","","","",""
"null","<span class='add_' style='color:yellow; font-size: 70px;'> 太慢! </span>","null","html-keyboard-response","13","341775","0.0-8.0-0.0-1.0-0.0-1.1","3","3","3","2","2","4","3","4","4","4","4","1","-1","0","1","-2","-1","0","1","5","4","4","4","4","3","4","4","5","4","7","7","6","8","5","6","7","5","8","3","4","2","4","5","5","5","6","4","2","1","2","4","5","5","4","4","5","5","2","4","2","4","5","3","4","5","5","3","7","3","5","3","7","1","6","3","6","6","4","2","682593254339772416","张","522","Female","[""坏她"",""好我"",""坏我"",""好她""]","[""弱她"",""强我"",""弱我"",""强她""]","","","","","","","","","","","","","","","","","","","","","","","","","","","","","","feedback_test","","","","","","","","",""
"823","","j","psychophysics","14","343599","0.0-8.0-0.0-1.0-0.0-0.2","3","3","3","2","2","4","3","4","4","4","4","1","-1","0","1","-2","-1","0","1","5","4","4","4","4","3","4","4","5","4","7","7","6","8","5","6","7","5","8","3","4","2","4","5","5","5","6","4","2","1","2","4","5","5","4","4","5","5","2","4","2","4","5","3","4","5","5","3","7","3","5","3","7","1","6","3","6","6","4","2","682593254339772416","张","522","Female","[""坏她"",""好我"",""坏我"",""好她""]","[""弱她"",""强我"",""弱我"",""强她""]","","","","","","","","nonmatch","","","","","","","","","","key","j","16.65321100917442","960","536","f","false","match","img/ellipse.png","坏她","坏她","prac_ALT2_moral","practice_moral","","","","","","","","",""
"null","<span style='color:red; font-size: 70px;'>错误! </span>","null","html-keyboard-response","15","344101","0.0-8.0-0.0-1.0-0.0-1.2","3","3","3","2","2","4","3","4","4","4","4","1","-1","0","1","-2","-1","0","1","5","4","4","4","4","3","4","4","5","4","7","7","6","8","5","6","7","5","8","3","4","2","4","5","5","5","6","4","2","1","2","4","5","5","4","4","5","5","2","4","2","4","5","3","4","5","5","3","7","3","5","3","7","1","6","3","6","6","4","2","682593254339772416","张","522","Female","[""坏她"",""好我"",""坏我"",""好她""]","[""弱她"",""强我"",""弱我"",""强她""]","","","","","","","","","","","","","","","","","","","","","","","","","","","","","","feedback_test","","","","","","","","",""
"834","","j","psychophysics","16","345936","0.0-8.0-0.0-1.0-0.0-0.3","3","3","3","2","2","4","3","4","4","4","4","1","-1","0","1","-2","-1","0","1","5","4","4","4","4","3","4","4","5","4","7","7","6","8","5","6","7","5","8","3","4","2","4","5","5","5","6","4","2","1","2","4","5","5","4","4","5","5","2","4","2","4","5","3","4","5","5","3","7","3","5","3","7","1","6","3","6","6","4","2","682593254339772416","张","522","Female","[""坏她"",""好我"",""坏我"",""好她""]","[""弱她"",""强我"",""弱我"",""强她""]","","","","","","","","nonmatch","","","","","","","","","","key","j","16.65229357798144","960","536","j","true","nonmatch","img/square.png","好她","好我","prac_ALT2_moral","practice_moral","","","","","","","","",""
"null","<span style='color:GreenYellow; font-size: 70px;'>正确! </span>","null","html-keyboard-response","17","346437","0.0-8.0-0.0-1.0-0.0-1.3","3","3","3","2","2","4","3","4","4","4","4","1","-1","0","1","-2","-1","0","1","5","4","4","4","4","3","4","4","5","4","7","7","6","8","5","6","7","5","8","3","4","2","4","5","5","5","6","4","2","1","2","4","5","5","4","4","5","5","2","4","2","4","5","3","4","5","5","3","7","3","5","3","7","1","6","3","6","6","4","2","682593254339772416","张","522","Female","[""坏她"",""好我"",""坏我"",""好她""]","[""弱她"",""强我"",""弱我"",""强她""]","","","","","","","","","","","","","","","","","","","","","","","","","","","","","","feedback_test","","","","","","","","",""
"870","","f","psychophysics","18","348309","0.0-8.0-0.0-1.0-0.0-0.4","3","3","3","2","2","4","3","4","4","4","4","1","-1","0","1","-2","-1","0","1","5","4","4","4","4","3","4","4","5","4","7","7","6","8","5","6","7","5","8","3","4","2","4","5","5","5","6","4","2","1","2","4","5","5","4","4","5","5","2","4","2","4","5","3","4","5","5","3","7","3","5","3","7","1","6","3","6","6","4","2","682593254339772416","张","522","Female","[""坏她"",""好我"",""坏我"",""好她""]","[""弱她"",""强我"",""弱我"",""强她""]","","","","","","","","match","","","","","","","","","","key","f","16.653153153153152","960","536","f","true","match","img/square.png","好我","好我","prac_ALT2_moral","practice_moral","","","","","","","","",""
"null","<span style='color:GreenYellow; font-size: 70px;'>正确! </span>","null","html-keyboard-response","19","348810","0.0-8.0-0.0-1.0-0.0-1.4","3","3","3","2","2","4","3","4","4","4","4","1","-1","0","1","-2","-1","0","1","5","4","4","4","4","3","4","4","5","4","7","7","6","8","5","6","7","5","8","3","4","2","4","5","5","5","6","4","2","1","2","4","5","5","4","4","5","5","2","4","2","4","5","3","4","5","5","3","7","3","5","3","7","1","6","3","6","6","4","2","682593254339772416","张","522","Female","[""坏她"",""好我"",""坏我"",""好她""]","[""弱她"",""强我"",""弱我"",""强她""]","","","","","","","","","","","","","","","","","","","","","","","","","","","","","","feedback_test","","","","","","","","",""
"574","","f","psychophysics","20","350387","0.0-8.0-0.0-1.0-0.0-0.5","3","3","3","2","2","4","3","4","4","4","4","1","-1","0","1","-2","-1","0","1","5","4","4","4","4","3","4","4","5","4","7","7","6","8","5","6","7","5","8","3","4","2","4","5","5","5","6","4","2","1","2","4","5","5","4","4","5","5","2","4","2","4","5","3","4","5","5","3","7","3","5","3","7","1","6","3","6","6","4","2","682593254339772416","张","522","Female","[""坏她"",""好我"",""坏我"",""好她""]","[""弱她"",""强我"",""弱我"",""强她""]","","","","","","","","match","","","","","","","","","","key","f","16.651612903225555","960","536","f","true","match","img/diamond.png","坏我","坏我","prac_ALT2_moral","practice_moral","","","","","","","","",""
"null","<span style='color:GreenYellow; font-size: 70px;'>正确! </span>","null","html-keyboard-response","21","350887","0.0-8.0-0.0-1.0-0.0-1.5","3","3","3","2","2","4","3","4","4","4","4","1","-1","0","1","-2","-1","0","1","5","4","4","4","4","3","4","4","5","4","7","7","6","8","5","6","7","5","8","3","4","2","4","5","5","5","6","4","2","1","2","4","5","5","4","4","5","5","2","4","2","4","5","3","4","5","5","3","7","3","5","3","7","1","6","3","6","6","4","2","682593254339772416","张","522","Female","[""坏她"",""好我"",""坏我"",""好她""]","[""弱她"",""强我"",""弱我"",""强她""]","","","","","","","","","","","","","","","","","","","","","","","","","","","","","","feedback_test","","","","","","","","",""
"1078","","j","psychophysics","22","352967","0.0-8.0-0.0-1.0-0.0-0.6","3","3","3","2","2","4","3","4","4","4","4","1","-1","0","1","-2","-1","0","1","5","4","4","4","4","3","4","4","5","4","7","7","6","8","5","6","7","5","8","3","4","2","4","5","5","5","6","4","2","1","2","4","5","5","4","4","5","5","2","4","2","4","5","3","4","5","5","3","7","3","5","3","7","1","6","3","6","6","4","2","682593254339772416","张","522","Female","[""坏她"",""好我"",""坏我"",""好她""]","[""弱她"",""强我"",""弱我"",""强她""]","","","","","","","","nonmatch","","","","","","","","","","key","j","16.65403225806433","960","536","f","false","match","img/ellipse.png","坏她","坏她","prac_ALT2_moral","practice_moral","","","","","","","","",""
"null","<span style='color:red; font-size: 70px;'>错误! </span>","null","html-keyboard-response","23","353468","0.0-8.0-0.0-1.0-0.0-1.6","3","3","3","2","2","4","3","4","4","4","4","1","-1","0","1","-2","-1","0","1","5","4","4","4","4","3","4","4","5","4","7","7","6","8","5","6","7","5","8","3","4","2","4","5","5","5","6","4","2","1","2","4","5","5","4","4","5","5","2","4","2","4","5","3","4","5","5","3","7","3","5","3","7","1","6","3","6","6","4","2","682593254339772416","张","522","Female","[""坏她"",""好我"",""坏我"",""好她""]","[""弱她"",""强我"",""弱我"",""强她""]","","","","","","","","","","","","","","","","","","","","","","","","","","","","","","feedback_test","","","","","","","","",""
"831","","f","psychophysics","24","355301","0.0-8.0-0.0-1.0-0.0-0.7","3","3","3","2","2","4","3","4","4","4","4","1","-1","0","1","-2","-1","0","1","5","4","4","4","4","3","4","4","5","4","7","7","6","8","5","6","7","5","8","3","4","2","4","5","5","5","6","4","2","1","2","4","5","5","4","4","5","5","2","4","2","4","5","3","4","5","5","3","7","3","5","3","7","1","6","3","6","6","4","2","682593254339772416","张","522","Female","[""坏她"",""好我"",""坏我"",""好她""]","[""弱她"",""强我"",""弱我"",""强她""]","","","","","","","","match","","","","","","","","","","key","f","16.6541284403674","960","536","f","true","match","img/pentagon.png","好她","好她","prac_ALT2_moral","practice_moral","","","","","","","","",""
"null","<span style='color:GreenYellow; font-size: 70px;'>正确! </span>","null","html-keyboard-response","25","355802","0.0-8.0-0.0-1.0-0.0-1.7","3","3","3","2","2","4","3","4","4","4","4","1","-1","0","1","-2","-1","0","1","5","4","4","4","4","3","4","4","5","4","7","7","6","8","5","6","7","5","8","3","4","2","4","5","5","5","6","4","2","1","2","4","5","5","4","4","5","5","2","4","2","4","5","3","4","5","5","3","7","3","5","3","7","1","6","3","6","6","4","2","682593254339772416","张","522","Female","[""坏她"",""好我"",""坏我"",""好她""]","[""弱她"",""强我"",""弱我"",""强她""]","","","","","","","","","","","","","","","","","","","","","","","","","","","","","","feedback_test","","","","","","","","",""
"994","","f","psychophysics","26","357798","0.0-8.0-0.0-1.0-0.0-0.8","3","3","3","2","2","4","3","4","4","4","4","1","-1","0","1","-2","-1","0","1","5","4","4","4","4","3","4","4","5","4","7","7","6","8","5","6","7","5","8","3","4","2","4","5","5","5","6","4","2","1","2","4","5","5","4","4","5","5","2","4","2","4","5","3","4","5","5","3","7","3","5","3","7","1","6","3","6","6","4","2","682593254339772416","张","522","Female","[""坏她"",""好我"",""坏我"",""好她""]","[""弱她"",""强我"",""弱我"",""强她""]","","","","","","","","match","","","","","","","","","","key","f","16.649579831932677","960","536","j","false","nonmatch","img/pentagon.png","坏我","好她","prac_ALT2_moral","practice_moral","","","","","","","","",""
"null","<span style='color:red; font-size: 70px;'>错误! </span>","null","html-keyboard-response","27","358298","0.0-8.0-0.0-1.0-0.0-1.8","3","3","3","2","2","4","3","4","4","4","4","1","-1","0","1","-2","-1","0","1","5","4","4","4","4","3","4","4","5","4","7","7","6","8","5","6","7","5","8","3","4","2","4","5","5","5","6","4","2","1","2","4","5","5","4","4","5","5","2","4","2","4","5","3","4","5","5","3","7","3","5","3","7","1","6","3","6","6","4","2","682593254339772416","张","522","Female","[""坏她"",""好我"",""坏我"",""好她""]","[""弱她"",""强我"",""弱我"",""强她""]","","","","","","","","","","","","","","","","","","","","","","","","","","","","","","feedback_test","","","","","","","","",""
"788","","j","psychophysics","28","360089","0.0-8.0-0.0-1.0-0.0-0.9","3","3","3","2","2","4","3","4","4","4","4","1","-1","0","1","-2","-1","0","1","5","4","4","4","4","3","4","4","5","4","7","7","6","8","5","6","7","5","8","3","4","2","4","5","5","5","6","4","2","1","2","4","5","5","4","4","5","5","2","4","2","4","5","3","4","5","5","3","7","3","5","3","7","1","6","3","6","6","4","2","682593254339772416","张","522","Female","[""坏她"",""好我"",""坏我"",""好她""]","[""弱她"",""强我"",""弱我"",""强她""]","","","","","","","","nonmatch","","","","","","","","","","key","j","16.6532710280376","960","536","j","true","nonmatch","img/square.png","坏她","好我","prac_ALT2_moral","practice_moral","","","","","","","","",""
"null","<span style='color:GreenYellow; font-size: 70px;'>正确! </span>","null","html-keyboard-response","29","360589","0.0-8.0-0.0-1.0-0.0-1.9","3","3","3","2","2","4","3","4","4","4","4","1","-1","0","1","-2","-1","0","1","5","4","4","4","4","3","4","4","5","4","7","7","6","8","5","6","7","5","8","3","4","2","4","5","5","5","6","4","2","1","2","4","5","5","4","4","5","5","2","4","2","4","5","3","4","5","5","3","7","3","5","3","7","1","6","3","6","6","4","2","682593254339772416","张","522","Female","[""坏她"",""好我"",""坏我"",""好她""]","[""弱她"",""强我"",""弱我"",""强她""]","","","","","","","","","","","","","","","","","","","","","","","","","","","","","","feedback_test","","","","","","","","",""
"716","","f","psychophysics","30","362307","0.0-8.0-0.0-1.0-0.0-0.10","3","3","3","2","2","4","3","4","4","4","4","1","-1","0","1","-2","-1","0","1","5","4","4","4","4","3","4","4","5","4","7","7","6","8","5","6","7","5","8","3","4","2","4","5","5","5","6","4","2","1","2","4","5","5","4","4","5","5","2","4","2","4","5","3","4","5","5","3","7","3","5","3","7","1","6","3","6","6","4","2","682593254339772416","张","522","Female","[""坏她"",""好我"",""坏我"",""好她""]","[""弱她"",""强我"",""弱我"",""强她""]","","","","","","","","match","","","","","","","","","","key","f","16.65294117647036","960","536","f","true","match","img/square.png","好我","好我","prac_ALT2_moral","practice_moral","","","","","","","","",""
"null","<span style='color:GreenYellow; font-size: 70px;'>正确! </span>","null","html-keyboard-response","31","362816","0.0-8.0-0.0-1.0-0.0-1.10","3","3","3","2","2","4","3","4","4","4","4","1","-1","0","1","-2","-1","0","1","5","4","4","4","4","3","4","4","5","4","7","7","6","8","5","6","7","5","8","3","4","2","4","5","5","5","6","4","2","1","2","4","5","5","4","4","5","5","2","4","2","4","5","3","4","5","5","3","7","3","5","3","7","1","6","3","6","6","4","2","682593254339772416","张","522","Female","[""坏她"",""好我"",""坏我"",""好她""]","[""弱她"",""强我"",""弱我"",""强她""]","","","","","","","","","","","","","","","","","","","","","","","","","","","","","","feedback_test","","","","","","","","",""
"604","","j","psychophysics","32","364422","0.0-8.0-0.0-1.0-0.0-0.11","3","3","3","2","2","4","3","4","4","4","4","1","-1","0","1","-2","-1","0","1","5","4","4","4","4","3","4","4","5","4","7","7","6","8","5","6","7","5","8","3","4","2","4","5","5","5","6","4","2","1","2","4","5","5","4","4","5","5","2","4","2","4","5","3","4","5","5","3","7","3","5","3","7","1","6","3","6","6","4","2","682593254339772416","张","522","Female","[""坏她"",""好我"",""坏我"",""好她""]","[""弱她"",""强我"",""弱我"",""强她""]","","","","","","","","nonmatch","","","","","","","","","","key","j","16.652631578947368","960","536","j","true","nonmatch","img/pentagon.png","坏她","好她","prac_ALT2_moral","practice_moral","","","","","","","","",""
"null","<span style='color:GreenYellow; font-size: 70px;'>正确! </span>","null","html-keyboard-response","33","364923","0.0-8.0-0.0-1.0-0.0-1.11","3","3","3","2","2","4","3","4","4","4","4","1","-1","0","1","-2","-1","0","1","5","4","4","4","4","3","4","4","5","4","7","7","6","8","5","6","7","5","8","3","4","2","4","5","5","5","6","4","2","1","2","4","5","5","4","4","5","5","2","4","2","4","5","3","4","5","5","3","7","3","5","3","7","1","6","3","6","6","4","2","682593254339772416","张","522","Female","[""坏她"",""好我"",""坏我"",""好她""]","[""弱她"",""强我"",""弱我"",""强她""]","","","","","","","","","","","","","","","","","","","","","","","","","","","","","","feedback_test","","","","","","","","",""
"809","","j","psychophysics","34","366734","0.0-8.0-0.0-1.0-0.0-0.12","3","3","3","2","2","4","3","4","4","4","4","1","-1","0","1","-2","-1","0","1","5","4","4","4","4","3","4","4","5","4","7","7","6","8","5","6","7","5","8","3","4","2","4","5","5","5","6","4","2","1","2","4","5","5","4","4","5","5","2","4","2","4","5","3","4","5","5","3","7","3","5","3","7","1","6","3","6","6","4","2","682593254339772416","张","522","Female","[""坏她"",""好我"",""坏我"",""好她""]","[""弱她"",""强我"",""弱我"",""强她""]","","","","","","","","nonmatch","","","","","","","","","","key","j","16.65370370370403","960","536","f","false","match","img/square.png","好我","好我","prac_ALT2_moral","practice_moral","","","","","","","","",""
"null","<span style='color:red; font-size: 70px;'>错误! </span>","null","html-keyboard-response","35","367243","0.0-8.0-0.0-1.0-0.0-1.12","3","3","3","2","2","4","3","4","4","4","4","1","-1","0","1","-2","-1","0","1","5","4","4","4","4","3","4","4","5","4","7","7","6","8","5","6","7","5","8","3","4","2","4","5","5","5","6","4","2","1","2","4","5","5","4","4","5","5","2","4","2","4","5","3","4","5","5","3","7","3","5","3","7","1","6","3","6","6","4","2","682593254339772416","张","522","Female","[""坏她"",""好我"",""坏我"",""好她""]","[""弱她"",""强我"",""弱我"",""强她""]","","","","","","","","","","","","","","","","","","","","","","","","","","","","","","feedback_test","","","","","","","","",""
"905","","f","psychophysics","36","369149","0.0-8.0-0.0-1.0-0.0-0.13","3","3","3","2","2","4","3","4","4","4","4","1","-1","0","1","-2","-1","0","1","5","4","4","4","4","3","4","4","5","4","7","7","6","8","5","6","7","5","8","3","4","2","4","5","5","5","6","4","2","1","2","4","5","5","4","4","5","5","2","4","2","4","5","3","4","5","5","3","7","3","5","3","7","1","6","3","6","6","4","2","682593254339772416","张","522","Female","[""坏她"",""好我"",""坏我"",""好她""]","[""弱她"",""强我"",""弱我"",""强她""]","","","","","","","","match","","","","","","","","","","key","f","16.646017699115045","960","536","f","true","match","img/diamond.png","坏我","坏我","prac_ALT2_moral","practice_moral","","","","","","","","",""
"null","<span style='color:GreenYellow; font-size: 70px;'>正确! </span>","null","html-keyboard-response","37","369650","0.0-8.0-0.0-1.0-0.0-1.13","3","3","3","2","2","4","3","4","4","4","4","1","-1","0","1","-2","-1","0","1","5","4","4","4","4","3","4","4","5","4","7","7","6","8","5","6","7","5","8","3","4","2","4","5","5","5","6","4","2","1","2","4","5","5","4","4","5","5","2","4","2","4","5","3","4","5","5","3","7","3","5","3","7","1","6","3","6","6","4","2","682593254339772416","张","522","Female","[""坏她"",""好我"",""坏我"",""好她""]","[""弱她"",""强我"",""弱我"",""强她""]","","","","","","","","","","","","","","","","","","","","","","","","","","","","","","feedback_test","","","","","","","","",""
"899","","j","psychophysics","38","371550","0.0-8.0-0.0-1.0-0.0-0.14","3","3","3","2","2","4","3","4","4","4","4","1","-1","0","1","-2","-1","0","1","5","4","4","4","4","3","4","4","5","4","7","7","6","8","5","6","7","5","8","3","4","2","4","5","5","5","6","4","2","1","2","4","5","5","4","4","5","5","2","4","2","4","5","3","4","5","5","3","7","3","5","3","7","1","6","3","6","6","4","2","682593254339772416","张","522","Female","[""坏她"",""好我"",""坏我"",""好她""]","[""弱她"",""强我"",""弱我"",""强她""]","","","","","","","","nonmatch","","","","","","","","","","key","j","16.652212389380633","960","536","j","true","nonmatch","img/diamond.png","好她","坏我","prac_ALT2_moral","practice_moral","","","","","","","","",""
"null","<span style='color:GreenYellow; font-size: 70px;'>正确! </span>","null","html-keyboard-response","39","372052","0.0-8.0-0.0-1.0-0.0-1.14","3","3","3","2","2","4","3","4","4","4","4","1","-1","0","1","-2","-1","0","1","5","4","4","4","4","3","4","4","5","4","7","7","6","8","5","6","7","5","8","3","4","2","4","5","5","5","6","4","2","1","2","4","5","5","4","4","5","5","2","4","2","4","5","3","4","5","5","3","7","3","5","3","7","1","6","3","6","6","4","2","682593254339772416","张","522","Female","[""坏她"",""好我"",""坏我"",""好她""]","[""弱她"",""强我"",""弱我"",""强她""]","","","","","","","","","","","","","","","","","","","","","","","","","","","","","","feedback_test","","","","","","","","",""
"813","","f","psychophysics","40","373867","0.0-8.0-0.0-1.0-0.0-0.15","3","3","3","2","2","4","3","4","4","4","4","1","-1","0","1","-2","-1","0","1","5","4","4","4","4","3","4","4","5","4","7","7","6","8","5","6","7","5","8","3","4","2","4","5","5","5","6","4","2","1","2","4","5","5","4","4","5","5","2","4","2","4","5","3","4","5","5","3","7","3","5","3","7","1","6","3","6","6","4","2","682593254339772416","张","522","Female","[""坏她"",""好我"",""坏我"",""好她""]","[""弱她"",""强我"",""弱我"",""强她""]","","","","","","","","match","","","","","","","","","","key","f","16.65277777777778","960","536","f","true","match","img/pentagon.png","好她","好她","prac_ALT2_moral","practice_moral","","","","","","","","",""
"null","<span style='color:GreenYellow; font-size: 70px;'>正确! </span>","null","html-keyboard-response","41","374368","0.0-8.0-0.0-1.0-0.0-1.15","3","3","3","2","2","4","3","4","4","4","4","1","-1","0","1","-2","-1","0","1","5","4","4","4","4","3","4","4","5","4","7","7","6","8","5","6","7","5","8","3","4","2","4","5","5","5","6","4","2","1","2","4","5","5","4","4","5","5","2","4","2","4","5","3","4","5","5","3","7","3","5","3","7","1","6","3","6","6","4","2","682593254339772416","张","522","Female","[""坏她"",""好我"",""坏我"",""好她""]","[""弱她"",""强我"",""弱我"",""强她""]","","","","","","","","","","","","","","","","","","","","","","","","","","","","","","feedback_test","","","","","","","","",""
"1090","","f","psychophysics","42","376459","0.0-8.0-0.0-1.0-0.0-0.16","3","3","3","2","2","4","3","4","4","4","4","1","-1","0","1","-2","-1","0","1","5","4","4","4","4","3","4","4","5","4","7","7","6","8","5","6","7","5","8","3","4","2","4","5","5","5","6","4","2","1","2","4","5","5","4","4","5","5","2","4","2","4","5","3","4","5","5","3","7","3","5","3","7","1","6","3","6","6","4","2","682593254339772416","张","522","Female","[""坏她"",""好我"",""坏我"",""好她""]","[""弱她"",""强我"",""弱我"",""强她""]","","","","","","","","match","","","","","","","","","","key","f","16.653600000000093","960","536","j","false","nonmatch","img/square.png","坏我","好我","prac_ALT2_moral","practice_moral","","","","","","","","",""
"null","<span style='color:red; font-size: 70px;'>错误! </span>","null","html-keyboard-response","43","376959","0.0-8.0-0.0-1.0-0.0-1.16","3","3","3","2","2","4","3","4","4","4","4","1","-1","0","1","-2","-1","0","1","5","4","4","4","4","3","4","4","5","4","7","7","6","8","5","6","7","5","8","3","4","2","4","5","5","5","6","4","2","1","2","4","5","5","4","4","5","5","2","4","2","4","5","3","4","5","5","3","7","3","5","3","7","1","6","3","6","6","4","2","682593254339772416","张","522","Female","[""坏她"",""好我"",""坏我"",""好她""]","[""弱她"",""强我"",""弱我"",""强她""]","","","","","","","","","","","","","","","","","","","","","","","","","","","","","","feedback_test","","","","","","","","",""
"976","","f","psychophysics","44","378937","0.0-8.0-0.0-1.0-0.0-0.17","3","3","3","2","2","4","3","4","4","4","4","1","-1","0","1","-2","-1","0","1","5","4","4","4","4","3","4","4","5","4","7","7","6","8","5","6","7","5","8","3","4","2","4","5","5","5","6","4","2","1","2","4","5","5","4","4","5","5","2","4","2","4","5","3","4","5","5","3","7","3","5","3","7","1","6","3","6","6","4","2","682593254339772416","张","522","Female","[""坏她"",""好我"",""坏我"",""好她""]","[""弱她"",""强我"",""弱我"",""强她""]","","","","","","","","match","","","","","","","","","","key","f","16.653389830508278","960","536","f","true","match","img/diamond.png","坏我","坏我","prac_ALT2_moral","practice_moral","","","","","","","","",""
"null","<span style='color:GreenYellow; font-size: 70px;'>正确! </span>","null","html-keyboard-response","45","379438","0.0-8.0-0.0-1.0-0.0-1.17","3","3","3","2","2","4","3","4","4","4","4","1","-1","0","1","-2","-1","0","1","5","4","4","4","4","3","4","4","5","4","7","7","6","8","5","6","7","5","8","3","4","2","4","5","5","5","6","4","2","1","2","4","5","5","4","4","5","5","2","4","2","4","5","3","4","5","5","3","7","3","5","3","7","1","6","3","6","6","4","2","682593254339772416","张","522","Female","[""坏她"",""好我"",""坏我"",""好她""]","[""弱她"",""强我"",""弱我"",""强她""]","","","","","","","","","","","","","","","","","","","","","","","","","","","","","","feedback_test","","","","","","","","",""
"944","","f","psychophysics","46","381383","0.0-8.0-0.0-1.0-0.0-0.18","3","3","3","2","2","4","3","4","4","4","4","1","-1","0","1","-2","-1","0","1","5","4","4","4","4","3","4","4","5","4","7","7","6","8","5","6","7","5","8","3","4","2","4","5","5","5","6","4","2","1","2","4","5","5","4","4","5","5","2","4","2","4","5","3","4","5","5","3","7","3","5","3","7","1","6","3","6","6","4","2","682593254339772416","张","522","Female","[""坏她"",""好我"",""坏我"",""好她""]","[""弱她"",""强我"",""弱我"",""强她""]","","","","","","","","match","","","","","","","","","","key","f","16.650862068965516","960","536","f","true","match","img/pentagon.png","好她","好她","prac_ALT2_moral","practice_moral","","","","","","","","",""
"null","<span style='color:GreenYellow; font-size: 70px;'>正确! </span>","null","html-keyboard-response","47","381884","0.0-8.0-0.0-1.0-0.0-1.18","3","3","3","2","2","4","3","4","4","4","4","1","-1","0","1","-2","-1","0","1","5","4","4","4","4","3","4","4","5","4","7","7","6","8","5","6","7","5","8","3","4","2","4","5","5","5","6","4","2","1","2","4","5","5","4","4","5","5","2","4","2","4","5","3","4","5","5","3","7","3","5","3","7","1","6","3","6","6","4","2","682593254339772416","张","522","Female","[""坏她"",""好我"",""坏我"",""好她""]","[""弱她"",""强我"",""弱我"",""强她""]","","","","","","","","","","","","","","","","","","","","","","","","","","","","","","feedback_test","","","","","","","","",""
"693","","j","psychophysics","48","383579","0.0-8.0-0.0-1.0-0.0-0.19","3","3","3","2","2","4","3","4","4","4","4","1","-1","0","1","-2","-1","0","1","5","4","4","4","4","3","4","4","5","4","7","7","6","8","5","6","7","5","8","3","4","2","4","5","5","5","6","4","2","1","2","4","5","5","4","4","5","5","2","4","2","4","5","3","4","5","5","3","7","3","5","3","7","1","6","3","6","6","4","2","682593254339772416","张","522","Female","[""坏她"",""好我"",""坏我"",""好她""]","[""弱她"",""强我"",""弱我"",""强她""]","","","","","","","","nonmatch","","","","","","","","","","key","j","16.652000000000115","960","536","j","true","nonmatch","img/ellipse.png","好她","坏她","prac_ALT2_moral","practice_moral","","","","","","","","",""
"null","<span style='color:GreenYellow; font-size: 70px;'>正确! </span>","null","html-keyboard-response","49","384080","0.0-8.0-0.0-1.0-0.0-1.19","3","3","3","2","2","4","3","4","4","4","4","1","-1","0","1","-2","-1","0","1","5","4","4","4","4","3","4","4","5","4","7","7","6","8","5","6","7","5","8","3","4","2","4","5","5","5","6","4","2","1","2","4","5","5","4","4","5","5","2","4","2","4","5","3","4","5","5","3","7","3","5","3","7","1","6","3","6","6","4","2","682593254339772416","张","522","Female","[""坏她"",""好我"",""坏我"",""好她""]","[""弱她"",""强我"",""弱我"",""强她""]","","","","","","","","","","","","","","","","","","","","","","","","","","","","","","feedback_test","","","","","","","","",""
"832","","j","psychophysics","50","385914","0.0-8.0-0.0-1.0-0.0-0.20","3","3","3","2","2","4","3","4","4","4","4","1","-1","0","1","-2","-1","0","1","5","4","4","4","4","3","4","4","5","4","7","7","6","8","5","6","7","5","8","3","4","2","4","5","5","5","6","4","2","1","2","4","5","5","4","4","5","5","2","4","2","4","5","3","4","5","5","3","7","3","5","3","7","1","6","3","6","6","4","2","682593254339772416","张","522","Female","[""坏她"",""好我"",""坏我"",""好她""]","[""弱她"",""强我"",""弱我"",""强她""]","","","","","","","","nonmatch","","","","","","","","","","key","j","16.653211009173884","960","536","j","true","nonmatch","img/ellipse.png","好我","坏她","prac_ALT2_moral","practice_moral","","","","","","","","",""
"null","<span style='color:GreenYellow; font-size: 70px;'>正确! </span>","null","html-keyboard-response","51","386414","0.0-8.0-0.0-1.0-0.0-1.20","3","3","3","2","2","4","3","4","4","4","4","1","-1","0","1","-2","-1","0","1","5","4","4","4","4","3","4","4","5","4","7","7","6","8","5","6","7","5","8","3","4","2","4","5","5","5","6","4","2","1","2","4","5","5","4","4","5","5","2","4","2","4","5","3","4","5","5","3","7","3","5","3","7","1","6","3","6","6","4","2","682593254339772416","张","522","Female","[""坏她"",""好我"",""坏我"",""好她""]","[""弱她"",""强我"",""弱我"",""强她""]","","","","","","","","","","","","","","","","","","","","","","","","","","","","","","feedback_test","","","","","","","","",""
"1016","","j","psychophysics","52","388431","0.0-8.0-0.0-1.0-0.0-0.21","3","3","3","2","2","4","3","4","4","4","4","1","-1","0","1","-2","-1","0","1","5","4","4","4","4","3","4","4","5","4","7","7","6","8","5","6","7","5","8","3","4","2","4","5","5","5","6","4","2","1","2","4","5","5","4","4","5","5","2","4","2","4","5","3","4","5","5","3","7","3","5","3","7","1","6","3","6","6","4","2","682593254339772416","张","522","Female","[""坏她"",""好我"",""坏我"",""好她""]","[""弱她"",""强我"",""弱我"",""强她""]","","","","","","","","nonmatch","","","","","","","","","","key","j","16.652499999999904","960","536","f","false","match","img/ellipse.png","坏她","坏她","prac_ALT2_moral","practice_moral","","","","","","","","",""
"null","<span style='color:red; font-size: 70px;'>错误! </span>","null","html-keyboard-response","53","388937","0.0-8.0-0.0-1.0-0.0-1.21","3","3","3","2","2","4","3","4","4","4","4","1","-1","0","1","-2","-1","0","1","5","4","4","4","4","3","4","4","5","4","7","7","6","8","5","6","7","5","8","3","4","2","4","5","5","5","6","4","2","1","2","4","5","5","4","4","5","5","2","4","2","4","5","3","4","5","5","3","7","3","5","3","7","1","6","3","6","6","4","2","682593254339772416","张","522","Female","[""坏她"",""好我"",""坏我"",""好她""]","[""弱她"",""强我"",""弱我"",""强她""]","","","","","","","","","","","","","","","","","","","","","","","","","","","","","","feedback_test","","","","","","","","",""
"821","","j","psychophysics","54","390760","0.0-8.0-0.0-1.0-0.0-0.22","3","3","3","2","2","4","3","4","4","4","4","1","-1","0","1","-2","-1","0","1","5","4","4","4","4","3","4","4","5","4","7","7","6","8","5","6","7","5","8","3","4","2","4","5","5","5","6","4","2","1","2","4","5","5","4","4","5","5","2","4","2","4","5","3","4","5","5","3","7","3","5","3","7","1","6","3","6","6","4","2","682593254339772416","张","522","Female","[""坏她"",""好我"",""坏我"",""好她""]","[""弱她"",""强我"",""弱我"",""强她""]","","","","","","","","nonmatch","","","","","","","","","","key","j","16.653211009173884","960","536","j","true","nonmatch","img/diamond.png","坏她","坏我","prac_ALT2_moral","practice_moral","","","","","","","","",""
"null","<span style='color:GreenYellow; font-size: 70px;'>正确! </span>","null","html-keyboard-response","55","391260","0.0-8.0-0.0-1.0-0.0-1.22","3","3","3","2","2","4","3","4","4","4","4","1","-1","0","1","-2","-1","0","1","5","4","4","4","4","3","4","4","5","4","7","7","6","8","5","6","7","5","8","3","4","2","4","5","5","5","6","4","2","1","2","4","5","5","4","4","5","5","2","4","2","4","5","3","4","5","5","3","7","3","5","3","7","1","6","3","6","6","4","2","682593254339772416","张","522","Female","[""坏她"",""好我"",""坏我"",""好她""]","[""弱她"",""强我"",""弱我"",""强她""]","","","","","","","","","","","","","","","","","","","","","","","","","","","","","","feedback_test","","","","","","","","",""
"767","","f","psychophysics","56","393030","0.0-8.0-0.0-1.0-0.0-0.23","3","3","3","2","2","4","3","4","4","4","4","1","-1","0","1","-2","-1","0","1","5","4","4","4","4","3","4","4","5","4","7","7","6","8","5","6","7","5","8","3","4","2","4","5","5","5","6","4","2","1","2","4","5","5","4","4","5","5","2","4","2","4","5","3","4","5","5","3","7","3","5","3","7","1","6","3","6","6","4","2","682593254339772416","张","522","Female","[""坏她"",""好我"",""坏我"",""好她""]","[""弱她"",""强我"",""弱我"",""强她""]","","","","","","","","match","","","","","","","","","","key","f","16.652380952380952","960","536","j","false","nonmatch","img/diamond.png","好我","坏我","prac_ALT2_moral","practice_moral","","","","","","","","",""
"null","<span style='color:red; font-size: 70px;'>错误! </span>","null","html-keyboard-response","57","393531","0.0-8.0-0.0-1.0-0.0-1.23","3","3","3","2","2","4","3","4","4","4","4","1","-1","0","1","-2","-1","0","1","5","4","4","4","4","3","4","4","5","4","7","7","6","8","5","6","7","5","8","3","4","2","4","5","5","5","6","4","2","1","2","4","5","5","4","4","5","5","2","4","2","4","5","3","4","5","5","3","7","3","5","3","7","1","6","3","6","6","4","2","682593254339772416","张","522","Female","[""坏她"",""好我"",""坏我"",""好她""]","[""弱她"",""强我"",""弱我"",""强她""]","","","","","","","","","","","","","","","","","","","","","","","","","","","","","","feedback_test","","","","","","","","",""
"1019","","j","psychophysics","58","395551","0.0-8.0-0.0-1.0-0.0-0.24","3","3","3","2","2","4","3","4","4","4","4","1","-1","0","1","-2","-1","0","1","5","4","4","4","4","3","4","4","5","4","7","7","6","8","5","6","7","5","8","3","4","2","4","5","5","5","6","4","2","1","2","4","5","5","4","4","5","5","2","4","2","4","5","3","4","5","5","3","7","3","5","3","7","1","6","3","6","6","4","2","682593254339772416","张","522","Female","[""坏她"",""好我"",""坏我"",""好她""]","[""弱她"",""强我"",""弱我"",""强她""]","","","","","","","","nonmatch","","","","","","","","","","key","j","16.653333333333528","960","536","j","true","nonmatch","img/diamond.png","好我","坏我","prac_ALT2_moral","practice_moral","","","","","","","","",""
"null","<span style='color:GreenYellow; font-size: 70px;'>正确! </span>","null","html-keyboard-response","59","396053","0.0-8.0-0.0-1.0-0.0-1.24","3","3","3","2","2","4","3","4","4","4","4","1","-1","0","1","-2","-1","0","1","5","4","4","4","4","3","4","4","5","4","7","7","6","8","5","6","7","5","8","3","4","2","4","5","5","5","6","4","2","1","2","4","5","5","4","4","5","5","2","4","2","4","5","3","4","5","5","3","7","3","5","3","7","1","6","3","6","6","4","2","682593254339772416","张","522","Female","[""坏她"",""好我"",""坏我"",""好她""]","[""弱她"",""强我"",""弱我"",""强她""]","","","","","","","","","","","","","","","","","","","","","","","","","","","","","","feedback_test","","","","","","","","",""
"792","","j","psychophysics","60","397847","0.0-8.0-0.0-1.0-0.0-0.25","3","3","3","2","2","4","3","4","4","4","4","1","-1","0","1","-2","-1","0","1","5","4","4","4","4","3","4","4","5","4","7","7","6","8","5","6","7","5","8","3","4","2","4","5","5","5","6","4","2","1","2","4","5","5","4","4","5","5","2","4","2","4","5","3","4","5","5","3","7","3","5","3","7","1","6","3","6","6","4","2","682593254339772416","张","522","Female","[""坏她"",""好我"",""坏我"",""好她""]","[""弱她"",""强我"",""弱我"",""强她""]","","","","","","","","nonmatch","","","","","","","","","","key","j","16.649056603773474","960","536","j","true","nonmatch","img/pentagon.png","坏我","好她","prac_ALT2_moral","practice_moral","","","","","","","","",""
"null","<span style='color:GreenYellow; font-size: 70px;'>正确! </span>","null","html-keyboard-response","61","398349","0.0-8.0-0.0-1.0-0.0-1.25","3","3","3","2","2","4","3","4","4","4","4","1","-1","0","1","-2","-1","0","1","5","4","4","4","4","3","4","4","5","4","7","7","6","8","5","6","7","5","8","3","4","2","4","5","5","5","6","4","2","1","2","4","5","5","4","4","5","5","2","4","2","4","5","3","4","5","5","3","7","3","5","3","7","1","6","3","6","6","4","2","682593254339772416","张","522","Female","[""坏她"",""好我"",""坏我"",""好她""]","[""弱她"",""强我"",""弱我"",""强她""]","","","","","","","","","","","","","","","","","","","","","","","","","","","","","","feedback_test","","","","","","","","",""
"827","","j","psychophysics","62","400177","0.0-8.0-0.0-1.0-0.0-0.26","3","3","3","2","2","4","3","4","4","4","4","1","-1","0","1","-2","-1","0","1","5","4","4","4","4","3","4","4","5","4","7","7","6","8","5","6","7","5","8","3","4","2","4","5","5","5","6","4","2","1","2","4","5","5","4","4","5","5","2","4","2","4","5","3","4","5","5","3","7","3","5","3","7","1","6","3","6","6","4","2","682593254339772416","张","522","Female","[""坏她"",""好我"",""坏我"",""好她""]","[""弱她"",""强我"",""弱我"",""强她""]","","","","","","","","nonmatch","","","","","","","","","","key","j","16.65321100917442","960","536","f","false","match","img/ellipse.png","坏她","坏她","prac_ALT2_moral","practice_moral","","","","","","","","",""
"null","<span style='color:red; font-size: 70px;'>错误! </span>","null","html-keyboard-response","63","400678","0.0-8.0-0.0-1.0-0.0-1.26","3","3","3","2","2","4","3","4","4","4","4","1","-1","0","1","-2","-1","0","1","5","4","4","4","4","3","4","4","5","4","7","7","6","8","5","6","7","5","8","3","4","2","4","5","5","5","6","4","2","1","2","4","5","5","4","4","5","5","2","4","2","4","5","3","4","5","5","3","7","3","5","3","7","1","6","3","6","6","4","2","682593254339772416","张","522","Female","[""坏她"",""好我"",""坏我"",""好她""]","[""弱她"",""强我"",""弱我"",""强她""]","","","","","","","","","","","","","","","","","","","","","","","","","","","","","","feedback_test","","","","","","","","",""
"1025","","f","psychophysics","64","402705","0.0-8.0-0.0-1.0-0.0-0.27","3","3","3","2","2","4","3","4","4","4","4","1","-1","0","1","-2","-1","0","1","5","4","4","4","4","3","4","4","5","4","7","7","6","8","5","6","7","5","8","3","4","2","4","5","5","5","6","4","2","1","2","4","5","5","4","4","5","5","2","4","2","4","5","3","4","5","5","3","7","3","5","3","7","1","6","3","6","6","4","2","682593254339772416","张","522","Female","[""坏她"",""好我"",""坏我"",""好她""]","[""弱她"",""强我"",""弱我"",""强她""]","","","","","","","","match","","","","","","","","","","key","f","16.65289256198347","960","536","j","false","nonmatch","img/diamond.png","坏她","坏我","prac_ALT2_moral","practice_moral","","","","","","","","",""
"null","<span style='color:red; font-size: 70px;'>错误! </span>","null","html-keyboard-response","65","403207","0.0-8.0-0.0-1.0-0.0-1.27","3","3","3","2","2","4","3","4","4","4","4","1","-1","0","1","-2","-1","0","1","5","4","4","4","4","3","4","4","5","4","7","7","6","8","5","6","7","5","8","3","4","2","4","5","5","5","6","4","2","1","2","4","5","5","4","4","5","5","2","4","2","4","5","3","4","5","5","3","7","3","5","3","7","1","6","3","6","6","4","2","682593254339772416","张","522","Female","[""坏她"",""好我"",""坏我"",""好她""]","[""弱她"",""强我"",""弱我"",""强她""]","","","","","","","","","","","","","","","","","","","","","","","","","","","","","","feedback_test","","","","","","","","",""
"703","","f","psychophysics","66","404911","0.0-8.0-0.0-1.0-0.0-0.28","3","3","3","2","2","4","3","4","4","4","4","1","-1","0","1","-2","-1","0","1","5","4","4","4","4","3","4","4","5","4","7","7","6","8","5","6","7","5","8","3","4","2","4","5","5","5","6","4","2","1","2","4","5","5","4","4","5","5","2","4","2","4","5","3","4","5","5","3","7","3","5","3","7","1","6","3","6","6","4","2","682593254339772416","张","522","Female","[""坏她"",""好我"",""坏我"",""好她""]","[""弱她"",""强我"",""弱我"",""强她""]","","","","","","","","match","","","","","","","","","","key","f","16.654455445544325","960","536","f","true","match","img/square.png","好我","好我","prac_ALT2_moral","practice_moral","","","","","","","","",""
"null","<span style='color:GreenYellow; font-size: 70px;'>正确! </span>","null","html-keyboard-response","67","405413","0.0-8.0-0.0-1.0-0.0-1.28","3","3","3","2","2","4","3","4","4","4","4","1","-1","0","1","-2","-1","0","1","5","4","4","4","4","3","4","4","5","4","7","7","6","8","5","6","7","5","8","3","4","2","4","5","5","5","6","4","2","1","2","4","5","5","4","4","5","5","2","4","2","4","5","3","4","5","5","3","7","3","5","3","7","1","6","3","6","6","4","2","682593254339772416","张","522","Female","[""坏她"",""好我"",""坏我"",""好她""]","[""弱她"",""强我"",""弱我"",""强她""]","","","","","","","","","","","","","","","","","","","","","","","","","","","","","","feedback_test","","","","","","","","",""
"959","","f","psychophysics","68","407373","0.0-8.0-0.0-1.0-0.0-0.29","3","3","3","2","2","4","3","4","4","4","4","1","-1","0","1","-2","-1","0","1","5","4","4","4","4","3","4","4","5","4","7","7","6","8","5","6","7","5","8","3","4","2","4","5","5","5","6","4","2","1","2","4","5","5","4","4","5","5","2","4","2","4","5","3","4","5","5","3","7","3","5","3","7","1","6","3","6","6","4","2","682593254339772416","张","522","Female","[""坏她"",""好我"",""坏我"",""好她""]","[""弱她"",""强我"",""弱我"",""强她""]","","","","","","","","match","","","","","","","","","","key","f","16.65258620689665","960","536","f","true","match","img/ellipse.png","坏她","坏她","prac_ALT2_moral","practice_moral","","","","","","","","",""
"null","<span style='color:GreenYellow; font-size: 70px;'>正确! </span>","null","html-keyboard-response","69","407874","0.0-8.0-0.0-1.0-0.0-1.29","3","3","3","2","2","4","3","4","4","4","4","1","-1","0","1","-2","-1","0","1","5","4","4","4","4","3","4","4","5","4","7","7","6","8","5","6","7","5","8","3","4","2","4","5","5","5","6","4","2","1","2","4","5","5","4","4","5","5","2","4","2","4","5","3","4","5","5","3","7","3","5","3","7","1","6","3","6","6","4","2","682593254339772416","张","522","Female","[""坏她"",""好我"",""坏我"",""好她""]","[""弱她"",""强我"",""弱我"",""强她""]","","","","","","","","","","","","","","","","","","","","","","","","","","","","","","feedback_test","","","","","","","","",""
"null","","null","psychophysics","70","410077","0.0-8.0-0.0-1.0-0.0-0.30","3","3","3","2","2","4","3","4","4","4","4","1","-1","0","1","-2","-1","0","1","5","4","4","4","4","3","4","4","5","4","7","7","6","8","5","6","7","5","8","3","4","2","4","5","5","5","6","4","2","1","2","4","5","5","4","4","5","5","2","4","2","4","5","3","4","5","5","3","7","3","5","3","7","1","6","3","6","6","4","2","682593254339772416","张","522","Female","[""坏她"",""好我"",""坏我"",""好她""]","[""弱她"",""强我"",""弱我"",""强她""]","","","","","","","","null","","","","","","","","","","key","null","16.65454545454519","960","536","j","false","nonmatch","img/square.png","好她","好我","prac_ALT2_moral","practice_moral","","","","","","","","",""
"null","<span class='add_' style='color:yellow; font-size: 70px;'> 太慢! </span>","null","html-keyboard-response","71","410579","0.0-8.0-0.0-1.0-0.0-1.30","3","3","3","2","2","4","3","4","4","4","4","1","-1","0","1","-2","-1","0","1","5","4","4","4","4","3","4","4","5","4","7","7","6","8","5","6","7","5","8","3","4","2","4","5","5","5","6","4","2","1","2","4","5","5","4","4","5","5","2","4","2","4","5","3","4","5","5","3","7","3","5","3","7","1","6","3","6","6","4","2","682593254339772416","张","522","Female","[""坏她"",""好我"",""坏我"",""好她""]","[""弱她"",""强我"",""弱我"",""强她""]","","","","","","","","","","","","","","","","","","","","","","","","","","","","","","feedback_test","","","","","","","","",""
"738","","j","psychophysics","72","412318","0.0-8.0-0.0-1.0-0.0-0.31","3","3","3","2","2","4","3","4","4","4","4","1","-1","0","1","-2","-1","0","1","5","4","4","4","4","3","4","4","5","4","7","7","6","8","5","6","7","5","8","3","4","2","4","5","5","5","6","4","2","1","2","4","5","5","4","4","5","5","2","4","2","4","5","3","4","5","5","3","7","3","5","3","7","1","6","3","6","6","4","2","682593254339772416","张","522","Female","[""坏她"",""好我"",""坏我"",""好她""]","[""弱她"",""强我"",""弱我"",""强她""]","","","","","","","","nonmatch","","","","","","","","","","key","j","16.650485436893202","960","536","j","true","nonmatch","img/ellipse.png","好她","坏她","prac_ALT2_moral","practice_moral","","","","","","","","",""
"null","<span style='color:GreenYellow; font-size: 70px;'>正确! </span>","null","html-keyboard-response","73","412819","0.0-8.0-0.0-1.0-0.0-1.31","3","3","3","2","2","4","3","4","4","4","4","1","-1","0","1","-2","-1","0","1","5","4","4","4","4","3","4","4","5","4","7","7","6","8","5","6","7","5","8","3","4","2","4","5","5","5","6","4","2","1","2","4","5","5","4","4","5","5","2","4","2","4","5","3","4","5","5","3","7","3","5","3","7","1","6","3","6","6","4","2","682593254339772416","张","522","Female","[""坏她"",""好我"",""坏我"",""好她""]","[""弱她"",""强我"",""弱我"",""强她""]","","","","","","","","","","","","","","","","","","","","","","","","","","","","","","feedback_test","","","","","","","","",""
"892","","f","psychophysics","74","414713","0.0-8.0-0.0-1.0-0.0-0.32","3","3","3","2","2","4","3","4","4","4","4","1","-1","0","1","-2","-1","0","1","5","4","4","4","4","3","4","4","5","4","7","7","6","8","5","6","7","5","8","3","4","2","4","5","5","5","6","4","2","1","2","4","5","5","4","4","5","5","2","4","2","4","5","3","4","5","5","3","7","3","5","3","7","1","6","3","6","6","4","2","682593254339772416","张","522","Female","[""坏她"",""好我"",""坏我"",""好她""]","[""弱她"",""强我"",""弱我"",""强她""]","","","","","","","","match","","","","","","","","","","key","f","16.652212389380633","960","536","f","true","match","img/pentagon.png","好她","好她","prac_ALT2_moral","practice_moral","","","","","","","","",""
"null","<span style='color:GreenYellow; font-size: 70px;'>正确! </span>","null","html-keyboard-response","75","415223","0.0-8.0-0.0-1.0-0.0-1.32","3","3","3","2","2","4","3","4","4","4","4","1","-1","0","1","-2","-1","0","1","5","4","4","4","4","3","4","4","5","4","7","7","6","8","5","6","7","5","8","3","4","2","4","5","5","5","6","4","2","1","2","4","5","5","4","4","5","5","2","4","2","4","5","3","4","5","5","3","7","3","5","3","7","1","6","3","6","6","4","2","682593254339772416","张","522","Female","[""坏她"",""好我"",""坏我"",""好她""]","[""弱她"",""强我"",""弱我"",""强她""]","","","","","","","","","","","","","","","","","","","","","","","","","","","","","","feedback_test","","","","","","","","",""
"864","","f","psychophysics","76","417088","0.0-8.0-0.0-1.0-0.0-0.33","3","3","3","2","2","4","3","4","4","4","4","1","-1","0","1","-2","-1","0","1","5","4","4","4","4","3","4","4","5","4","7","7","6","8","5","6","7","5","8","3","4","2","4","5","5","5","6","4","2","1","2","4","5","5","4","4","5","5","2","4","2","4","5","3","4","5","5","3","7","3","5","3","7","1","6","3","6","6","4","2","682593254339772416","张","522","Female","[""坏她"",""好我"",""坏我"",""好她""]","[""弱她"",""强我"",""弱我"",""强她""]","","","","","","","","match","","","","","","","","","","key","f","16.652252252251937","960","536","f","true","match","img/ellipse.png","坏她","坏她","prac_ALT2_moral","practice_moral","","","","","","","","",""
"null","<span style='color:GreenYellow; font-size: 70px;'>正确! </span>","null","html-keyboard-response","77","417589","0.0-8.0-0.0-1.0-0.0-1.33","3","3","3","2","2","4","3","4","4","4","4","1","-1","0","1","-2","-1","0","1","5","4","4","4","4","3","4","4","5","4","7","7","6","8","5","6","7","5","8","3","4","2","4","5","5","5","6","4","2","1","2","4","5","5","4","4","5","5","2","4","2","4","5","3","4","5","5","3","7","3","5","3","7","1","6","3","6","6","4","2","682593254339772416","张","522","Female","[""坏她"",""好我"",""坏我"",""好她""]","[""弱她"",""强我"",""弱我"",""强她""]","","","","","","","","","","","","","","","","","","","","","","","","","","","","","","feedback_test","","","","","","","","",""
"890","","j","psychophysics","78","419480","0.0-8.0-0.0-1.0-0.0-0.34","3","3","3","2","2","4","3","4","4","4","4","1","-1","0","1","-2","-1","0","1","5","4","4","4","4","3","4","4","5","4","7","7","6","8","5","6","7","5","8","3","4","2","4","5","5","5","6","4","2","1","2","4","5","5","4","4","5","5","2","4","2","4","5","3","4","5","5","3","7","3","5","3","7","1","6","3","6","6","4","2","682593254339772416","张","522","Female","[""坏她"",""好我"",""坏我"",""好她""]","[""弱她"",""强我"",""弱我"",""强她""]","","","","","","","","nonmatch","","","","","","","","","","key","j","16.649107142856728","960","536","j","true","nonmatch","img/square.png","坏她","好我","prac_ALT2_moral","practice_moral","","","","","","","","",""
"null","<span style='color:GreenYellow; font-size: 70px;'>正确! </span>","null","html-keyboard-response","79","419981","0.0-8.0-0.0-1.0-0.0-1.34","3","3","3","2","2","4","3","4","4","4","4","1","-1","0","1","-2","-1","0","1","5","4","4","4","4","3","4","4","5","4","7","7","6","8","5","6","7","5","8","3","4","2","4","5","5","5","6","4","2","1","2","4","5","5","4","4","5","5","2","4","2","4","5","3","4","5","5","3","7","3","5","3","7","1","6","3","6","6","4","2","682593254339772416","张","522","Female","[""坏她"",""好我"",""坏我"",""好她""]","[""弱她"",""强我"",""弱我"",""强她""]","","","","","","","","","","","","","","","","","","","","","","","","","","","","","","feedback_test","","","","","","","","",""
"885","","f","psychophysics","80","421867","0.0-8.0-0.0-1.0-0.0-0.35","3","3","3","2","2","4","3","4","4","4","4","1","-1","0","1","-2","-1","0","1","5","4","4","4","4","3","4","4","5","4","7","7","6","8","5","6","7","5","8","3","4","2","4","5","5","5","6","4","2","1","2","4","5","5","4","4","5","5","2","4","2","4","5","3","4","5","5","3","7","3","5","3","7","1","6","3","6","6","4","2","682593254339772416","张","522","Female","[""坏她"",""好我"",""坏我"",""好她""]","[""弱她"",""强我"",""弱我"",""强她""]","","","","","","","","match","","","","","","","","","","key","f","16.643750000000313","960","536","f","true","match","img/pentagon.png","好她","好她","prac_ALT2_moral","practice_moral","","","","","","","","",""
"null","<span style='color:GreenYellow; font-size: 70px;'>正确! </span>","null","html-keyboard-response","81","422369","0.0-8.0-0.0-1.0-0.0-1.35","3","3","3","2","2","4","3","4","4","4","4","1","-1","0","1","-2","-1","0","1","5","4","4","4","4","3","4","4","5","4","7","7","6","8","5","6","7","5","8","3","4","2","4","5","5","5","6","4","2","1","2","4","5","5","4","4","5","5","2","4","2","4","5","3","4","5","5","3","7","3","5","3","7","1","6","3","6","6","4","2","682593254339772416","张","522","Female","[""坏她"",""好我"",""坏我"",""好她""]","[""弱她"",""强我"",""弱我"",""强她""]","","","","","","","","","","","","","","","","","","","","","","","","","","","","","","feedback_test","","","","","","","","",""
"1035","","f","psychophysics","82","424405","0.0-8.0-0.0-1.0-0.0-0.36","3","3","3","2","2","4","3","4","4","4","4","1","-1","0","1","-2","-1","0","1","5","4","4","4","4","3","4","4","5","4","7","7","6","8","5","6","7","5","8","3","4","2","4","5","5","5","6","4","2","1","2","4","5","5","4","4","5","5","2","4","2","4","5","3","4","5","5","3","7","3","5","3","7","1","6","3","6","6","4","2","682593254339772416","张","522","Female","[""坏她"",""好我"",""坏我"",""好她""]","[""弱她"",""强我"",""弱我"",""强她""]","","","","","","","","match","","","","","","","","","","key","f","16.65123966942139","960","536","f","true","match","img/diamond.png","坏我","坏我","prac_ALT2_moral","practice_moral","","","","","","","","",""
"null","<span style='color:GreenYellow; font-size: 70px;'>正确! </span>","null","html-keyboard-response","83","424914","0.0-8.0-0.0-1.0-0.0-1.36","3","3","3","2","2","4","3","4","4","4","4","1","-1","0","1","-2","-1","0","1","5","4","4","4","4","3","4","4","5","4","7","7","6","8","5","6","7","5","8","3","4","2","4","5","5","5","6","4","2","1","2","4","5","5","4","4","5","5","2","4","2","4","5","3","4","5","5","3","7","3","5","3","7","1","6","3","6","6","4","2","682593254339772416","张","522","Female","[""坏她"",""好我"",""坏我"",""好她""]","[""弱她"",""强我"",""弱我"",""强她""]","","","","","","","","","","","","","","","","","","","","","","","","","","","","","","feedback_test","","","","","","","","",""
"730","","f","psychophysics","84","426646","0.0-8.0-0.0-1.0-0.0-0.37","3","3","3","2","2","4","3","4","4","4","4","1","-1","0","1","-2","-1","0","1","5","4","4","4","4","3","4","4","5","4","7","7","6","8","5","6","7","5","8","3","4","2","4","5","5","5","6","4","2","1","2","4","5","5","4","4","5","5","2","4","2","4","5","3","4","5","5","3","7","3","5","3","7","1","6","3","6","6","4","2","682593254339772416","张","522","Female","[""坏她"",""好我"",""坏我"",""好她""]","[""弱她"",""强我"",""弱我"",""强她""]","","","","","","","","match","","","","","","","","","","key","f","16.65242718446613","960","536","f","true","match","img/diamond.png","坏我","坏我","prac_ALT2_moral","practice_moral","","","","","","","","",""
"null","<span style='color:GreenYellow; font-size: 70px;'>正确! </span>","null","html-keyboard-response","85","427147","0.0-8.0-0.0-1.0-0.0-1.37","3","3","3","2","2","4","3","4","4","4","4","1","-1","0","1","-2","-1","0","1","5","4","4","4","4","3","4","4","5","4","7","7","6","8","5","6","7","5","8","3","4","2","4","5","5","5","6","4","2","1","2","4","5","5","4","4","5","5","2","4","2","4","5","3","4","5","5","3","7","3","5","3","7","1","6","3","6","6","4","2","682593254339772416","张","522","Female","[""坏她"",""好我"",""坏我"",""好她""]","[""弱她"",""强我"",""弱我"",""强她""]","","","","","","","","","","","","","","","","","","","","","","","","","","","","","","feedback_test","","","","","","","","",""
"879","","f","psychophysics","86","429029","0.0-8.0-0.0-1.0-0.0-0.38","3","3","3","2","2","4","3","4","4","4","4","1","-1","0","1","-2","-1","0","1","5","4","4","4","4","3","4","4","5","4","7","7","6","8","5","6","7","5","8","3","4","2","4","5","5","5","6","4","2","1","2","4","5","5","4","4","5","5","2","4","2","4","5","3","4","5","5","3","7","3","5","3","7","1","6","3","6","6","4","2","682593254339772416","张","522","Female","[""坏她"",""好我"",""坏我"",""好她""]","[""弱她"",""强我"",""弱我"",""强她""]","","","","","","","","match","","","","","","","","","","key","f","16.65357142857153","960","536","f","true","match","img/square.png","好我","好我","prac_ALT2_moral","practice_moral","","","","","","","","",""
"null","<span style='color:GreenYellow; font-size: 70px;'>正确! </span>","null","html-keyboard-response","87","429530","0.0-8.0-0.0-1.0-0.0-1.38","3","3","3","2","2","4","3","4","4","4","4","1","-1","0","1","-2","-1","0","1","5","4","4","4","4","3","4","4","5","4","7","7","6","8","5","6","7","5","8","3","4","2","4","5","5","5","6","4","2","1","2","4","5","5","4","4","5","5","2","4","2","4","5","3","4","5","5","3","7","3","5","3","7","1","6","3","6","6","4","2","682593254339772416","张","522","Female","[""坏她"",""好我"",""坏我"",""好她""]","[""弱她"",""强我"",""弱我"",""强她""]","","","","","","","","","","","","","","","","","","","","","","","","","","","","","","feedback_test","","","","","","","","",""
"757","","j","psychophysics","88","431289","0.0-8.0-0.0-1.0-0.0-0.39","3","3","3","2","2","4","3","4","4","4","4","1","-1","0","1","-2","-1","0","1","5","4","4","4","4","3","4","4","5","4","7","7","6","8","5","6","7","5","8","3","4","2","4","5","5","5","6","4","2","1","2","4","5","5","4","4","5","5","2","4","2","4","5","3","4","5","5","3","7","3","5","3","7","1","6","3","6","6","4","2","682593254339772416","张","522","Female","[""坏她"",""好我"",""坏我"",""好她""]","[""弱她"",""强我"",""弱我"",""强她""]","","","","","","","","nonmatch","","","","","","","","","","key","j","16.65096153846109","960","536","f","false","match","img/pentagon.png","好她","好她","prac_ALT2_moral","practice_moral","","","","","","","","",""
"null","<span style='color:red; font-size: 70px;'>错误! </span>","null","html-keyboard-response","89","431790","0.0-8.0-0.0-1.0-0.0-1.39","3","3","3","2","2","4","3","4","4","4","4","1","-1","0","1","-2","-1","0","1","5","4","4","4","4","3","4","4","5","4","7","7","6","8","5","6","7","5","8","3","4","2","4","5","5","5","6","4","2","1","2","4","5","5","4","4","5","5","2","4","2","4","5","3","4","5","5","3","7","3","5","3","7","1","6","3","6","6","4","2","682593254339772416","张","522","Female","[""坏她"",""好我"",""坏我"",""好她""]","[""弱她"",""强我"",""弱我"",""强她""]","","","","","","","","","","","","","","","","","","","","","","","","","","","","","","feedback_test","","","","","","","","",""
"747","","f","psychophysics","90","433539","0.0-8.0-0.0-1.0-0.0-0.40","3","3","3","2","2","4","3","4","4","4","4","1","-1","0","1","-2","-1","0","1","5","4","4","4","4","3","4","4","5","4","7","7","6","8","5","6","7","5","8","3","4","2","4","5","5","5","6","4","2","1","2","4","5","5","4","4","5","5","2","4","2","4","5","3","4","5","5","3","7","3","5","3","7","1","6","3","6","6","4","2","682593254339772416","张","522","Female","[""坏她"",""好我"",""坏我"",""好她""]","[""弱她"",""强我"",""弱我"",""强她""]","","","","","","","","match","","","","","","","","","","key","f","16.651456310679386","960","536","f","true","match","img/diamond.png","坏我","坏我","prac_ALT2_moral","practice_moral","","","","","","","","",""
"null","<span style='color:GreenYellow; font-size: 70px;'>正确! </span>","null","html-keyboard-response","91","434039","0.0-8.0-0.0-1.0-0.0-1.40","3","3","3","2","2","4","3","4","4","4","4","1","-1","0","1","-2","-1","0","1","5","4","4","4","4","3","4","4","5","4","7","7","6","8","5","6","7","5","8","3","4","2","4","5","5","5","6","4","2","1","2","4","5","5","4","4","5","5","2","4","2","4","5","3","4","5","5","3","7","3","5","3","7","1","6","3","6","6","4","2","682593254339772416","张","522","Female","[""坏她"",""好我"",""坏我"",""好她""]","[""弱她"",""强我"",""弱我"",""强她""]","","","","","","","","","","","","","","","","","","","","","","","","","","","","","","feedback_test","","","","","","","","",""
"967","","f","psychophysics","92","436008","0.0-8.0-0.0-1.0-0.0-0.41","3","3","3","2","2","4","3","4","4","4","4","1","-1","0","1","-2","-1","0","1","5","4","4","4","4","3","4","4","5","4","7","7","6","8","5","6","7","5","8","3","4","2","4","5","5","5","6","4","2","1","2","4","5","5","4","4","5","5","2","4","2","4","5","3","4","5","5","3","7","3","5","3","7","1","6","3","6","6","4","2","682593254339772416","张","522","Female","[""坏她"",""好我"",""坏我"",""好她""]","[""弱她"",""强我"",""弱我"",""强她""]","","","","","","","","match","","","","","","","","","","key","f","16.652991452991653","960","536","j","false","nonmatch","img/square.png","坏我","好我","prac_ALT2_moral","practice_moral","","","","","","","","",""
"null","<span style='color:red; font-size: 70px;'>错误! </span>","null","html-keyboard-response","93","436509","0.0-8.0-0.0-1.0-0.0-1.41","3","3","3","2","2","4","3","4","4","4","4","1","-1","0","1","-2","-1","0","1","5","4","4","4","4","3","4","4","5","4","7","7","6","8","5","6","7","5","8","3","4","2","4","5","5","5","6","4","2","1","2","4","5","5","4","4","5","5","2","4","2","4","5","3","4","5","5","3","7","3","5","3","7","1","6","3","6","6","4","2","682593254339772416","张","522","Female","[""坏她"",""好我"",""坏我"",""好她""]","[""弱她"",""强我"",""弱我"",""强她""]","","","","","","","","","","","","","","","","","","","","","","","","","","","","","","feedback_test","","","","","","","","",""
"943","","j","psychophysics","94","438454","0.0-8.0-0.0-1.0-0.0-0.42","3","3","3","2","2","4","3","4","4","4","4","1","-1","0","1","-2","-1","0","1","5","4","4","4","4","3","4","4","5","4","7","7","6","8","5","6","7","5","8","3","4","2","4","5","5","5","6","4","2","1","2","4","5","5","4","4","5","5","2","4","2","4","5","3","4","5","5","3","7","3","5","3","7","1","6","3","6","6","4","2","682593254339772416","张","522","Female","[""坏她"",""好我"",""坏我"",""好她""]","[""弱她"",""强我"",""弱我"",""强她""]","","","","","","","","nonmatch","","","","","","","","","","key","j","16.65344827586197","960","536","j","true","nonmatch","img/ellipse.png","坏我","坏她","prac_ALT2_moral","practice_moral","","","","","","","","",""
"null","<span style='color:GreenYellow; font-size: 70px;'>正确! </span>","null","html-keyboard-response","95","438958","0.0-8.0-0.0-1.0-0.0-1.42","3","3","3","2","2","4","3","4","4","4","4","1","-1","0","1","-2","-1","0","1","5","4","4","4","4","3","4","4","5","4","7","7","6","8","5","6","7","5","8","3","4","2","4","5","5","5","6","4","2","1","2","4","5","5","4","4","5","5","2","4","2","4","5","3","4","5","5","3","7","3","5","3","7","1","6","3","6","6","4","2","682593254339772416","张","522","Female","[""坏她"",""好我"",""坏我"",""好她""]","[""弱她"",""强我"",""弱我"",""强她""]","","","","","","","","","","","","","","","","","","","","","","","","","","","","","","feedback_test","","","","","","","","",""
"991","","f","psychophysics","96","440952","0.0-8.0-0.0-1.0-0.0-0.43","3","3","3","2","2","4","3","4","4","4","4","1","-1","0","1","-2","-1","0","1","5","4","4","4","4","3","4","4","5","4","7","7","6","8","5","6","7","5","8","3","4","2","4","5","5","5","6","4","2","1","2","4","5","5","4","4","5","5","2","4","2","4","5","3","4","5","5","3","7","3","5","3","7","1","6","3","6","6","4","2","682593254339772416","张","522","Female","[""坏她"",""好我"",""坏我"",""好她""]","[""弱她"",""强我"",""弱我"",""强她""]","","","","","","","","match","","","","","","","","","","key","f","16.652941176470687","960","536","j","false","nonmatch","img/pentagon.png","好我","好她","prac_ALT2_moral","practice_moral","","","","","","","","",""
"null","<span style='color:red; font-size: 70px;'>错误! </span>","null","html-keyboard-response","97","441453","0.0-8.0-0.0-1.0-0.0-1.43","3","3","3","2","2","4","3","4","4","4","4","1","-1","0","1","-2","-1","0","1","5","4","4","4","4","3","4","4","5","4","7","7","6","8","5","6","7","5","8","3","4","2","4","5","5","5","6","4","2","1","2","4","5","5","4","4","5","5","2","4","2","4","5","3","4","5","5","3","7","3","5","3","7","1","6","3","6","6","4","2","682593254339772416","张","522","Female","[""坏她"",""好我"",""坏我"",""好她""]","[""弱她"",""强我"",""弱我"",""强她""]","","","","","","","","","","","","","","","","","","","","","","","","","","","","","","feedback_test","","","","","","","","",""
"719","","f","psychophysics","98","443173","0.0-8.0-0.0-1.0-0.0-0.44","3","3","3","2","2","4","3","4","4","4","4","1","-1","0","1","-2","-1","0","1","5","4","4","4","4","3","4","4","5","4","7","7","6","8","5","6","7","5","8","3","4","2","4","5","5","5","6","4","2","1","2","4","5","5","4","4","5","5","2","4","2","4","5","3","4","5","5","3","7","3","5","3","7","1","6","3","6","6","4","2","682593254339772416","张","522","Female","[""坏她"",""好我"",""坏我"",""好她""]","[""弱她"",""强我"",""弱我"",""强她""]","","","","","","","","match","","","","","","","","","","key","f","16.65294117647036","960","536","f","true","match","img/square.png","好我","好我","prac_ALT2_moral","practice_moral","","","","","","","","",""
"null","<span style='color:GreenYellow; font-size: 70px;'>正确! </span>","null","html-keyboard-response","99","443675","0.0-8.0-0.0-1.0-0.0-1.44","3","3","3","2","2","4","3","4","4","4","4","1","-1","0","1","-2","-1","0","1","5","4","4","4","4","3","4","4","5","4","7","7","6","8","5","6","7","5","8","3","4","2","4","5","5","5","6","4","2","1","2","4","5","5","4","4","5","5","2","4","2","4","5","3","4","5","5","3","7","3","5","3","7","1","6","3","6","6","4","2","682593254339772416","张","522","Female","[""坏她"",""好我"",""坏我"",""好她""]","[""弱她"",""强我"",""弱我"",""强她""]","","","","","","","","","","","","","","","","","","","","","","","","","","","","","","feedback_test","","","","","","","","",""
"760","","j","psychophysics","100","445436","0.0-8.0-0.0-1.0-0.0-0.45","3","3","3","2","2","4","3","4","4","4","4","1","-1","0","1","-2","-1","0","1","5","4","4","4","4","3","4","4","5","4","7","7","6","8","5","6","7","5","8","3","4","2","4","5","5","5","6","4","2","1","2","4","5","5","4","4","5","5","2","4","2","4","5","3","4","5","5","3","7","3","5","3","7","1","6","3","6","6","4","2","682593254339772416","张","522","Female","[""坏她"",""好我"",""坏我"",""好她""]","[""弱她"",""强我"",""弱我"",""强她""]","","","","","","","","nonmatch","","","","","","","","","","key","j","16.654285714285272","960","536","j","true","nonmatch","img/diamond.png","好她","坏我","prac_ALT2_moral","practice_moral","","","","","","","","",""
"null","<span style='color:GreenYellow; font-size: 70px;'>正确! </span>","null","html-keyboard-response","101","445937","0.0-8.0-0.0-1.0-0.0-1.45","3","3","3","2","2","4","3","4","4","4","4","1","-1","0","1","-2","-1","0","1","5","4","4","4","4","3","4","4","5","4","7","7","6","8","5","6","7","5","8","3","4","2","4","5","5","5","6","4","2","1","2","4","5","5","4","4","5","5","2","4","2","4","5","3","4","5","5","3","7","3","5","3","7","1","6","3","6","6","4","2","682593254339772416","张","522","Female","[""坏她"",""好我"",""坏我"",""好她""]","[""弱她"",""强我"",""弱我"",""强她""]","","","","","","","","","","","","","","","","","","","","","","","","","","","","","","feedback_test","","","","","","","","",""
"713","","j","psychophysics","102","447652","0.0-8.0-0.0-1.0-0.0-0.46","3","3","3","2","2","4","3","4","4","4","4","1","-1","0","1","-2","-1","0","1","5","4","4","4","4","3","4","4","5","4","7","7","6","8","5","6","7","5","8","3","4","2","4","5","5","5","6","4","2","1","2","4","5","5","4","4","5","5","2","4","2","4","5","3","4","5","5","3","7","3","5","3","7","1","6","3","6","6","4","2","682593254339772416","张","522","Female","[""坏她"",""好我"",""坏我"",""好她""]","[""弱她"",""强我"",""弱我"",""强她""]","","","","","","","","nonmatch","","","","","","","","","","key","j","16.653921568627567","960","536","j","true","nonmatch","img/pentagon.png","坏她","好她","prac_ALT2_moral","practice_moral","","","","","","","","",""
"null","<span style='color:GreenYellow; font-size: 70px;'>正确! </span>","null","html-keyboard-response","103","448154","0.0-8.0-0.0-1.0-0.0-1.46","3","3","3","2","2","4","3","4","4","4","4","1","-1","0","1","-2","-1","0","1","5","4","4","4","4","3","4","4","5","4","7","7","6","8","5","6","7","5","8","3","4","2","4","5","5","5","6","4","2","1","2","4","5","5","4","4","5","5","2","4","2","4","5","3","4","5","5","3","7","3","5","3","7","1","6","3","6","6","4","2","682593254339772416","张","522","Female","[""坏她"",""好我"",""坏我"",""好她""]","[""弱她"",""强我"",""弱我"",""强她""]","","","","","","","","","","","","","","","","","","","","","","","","","","","","","","feedback_test","","","","","","","","",""
"654","","j","psychophysics","104","449809","0.0-8.0-0.0-1.0-0.0-0.47","3","3","3","2","2","4","3","4","4","4","4","1","-1","0","1","-2","-1","0","1","5","4","4","4","4","3","4","4","5","4","7","7","6","8","5","6","7","5","8","3","4","2","4","5","5","5","6","4","2","1","2","4","5","5","4","4","5","5","2","4","2","4","5","3","4","5","5","3","7","3","5","3","7","1","6","3","6","6","4","2","682593254339772416","张","522","Female","[""坏她"",""好我"",""坏我"",""好她""]","[""弱她"",""强我"",""弱我"",""强她""]","","","","","","","","nonmatch","","","","","","","","","","key","j","16.653061224489797","960","536","j","true","nonmatch","img/ellipse.png","好我","坏她","prac_ALT2_moral","practice_moral","","","","","","","","",""
"null","<span style='color:GreenYellow; font-size: 70px;'>正确! </span>","null","html-keyboard-response","105","450310","0.0-8.0-0.0-1.0-0.0-1.47","3","3","3","2","2","4","3","4","4","4","4","1","-1","0","1","-2","-1","0","1","5","4","4","4","4","3","4","4","5","4","7","7","6","8","5","6","7","5","8","3","4","2","4","5","5","5","6","4","2","1","2","4","5","5","4","4","5","5","2","4","2","4","5","3","4","5","5","3","7","3","5","3","7","1","6","3","6","6","4","2","682593254339772416","张","522","Female","[""坏她"",""好我"",""坏我"",""好她""]","[""弱她"",""强我"",""弱我"",""强她""]","","","","","","","","","","","","","","","","","","","","","","","","","","","","","","feedback_test","","","","","","","","",""
"9004","<style>.context{color:white; font-size: 35px; line-height:40px}</style>                            <div><p class='context'>您正确回答了71% 的试次。</p><p class='context'>您的平均反应时为822毫秒。</p><p class='context'>恭喜您完成练习。按空格键进入正式实验。</p><p class='footer' style='font-size: 35px; line-height:40px;'>请在进入正式实验实验之前将您的<span style='color: lightgreen;'>食指</span>放在电脑键盘的相应键位上进行按键。</p>"," ","html-keyboard-response","106","459317","0.0-8.0-0.0-2.0","3","3","3","2","2","4","3","4","4","4","4","1","-1","0","1","-2","-1","0","1","5","4","4","4","4","3","4","4","5","4","7","7","6","8","5","6","7","5","8","3","4","2","4","5","5","5","6","4","2","1","2","4","5","5","4","4","5","5","2","4","2","4","5","3","4","5","5","3","7","3","5","3","7","1","6","3","6","6","4","2","682593254339772416","张","522","Female","[""坏她"",""好我"",""坏我"",""好她""]","[""弱她"",""强我"",""弱我"",""强她""]","","","","","","","","","","","","","","","","","","","","","","","","","","","","","","","","","","","","","","",""
"34331","
    <p style='color: white; font-size: 22px'>请您将手指放在按键上，准备进入正式的匹配任务。</p>
    <p> <div style = ""color: green""><按空格键进入下一阶段的匹配任务></div></p>
    "," ","html-keyboard-response","107","493650","0.0-8.0-0.0-3.0","3","3","3","2","2","4","3","4","4","4","4","1","-1","0","1","-2","-1","0","1","5","4","4","4","4","3","4","4","5","4","7","7","6","8","5","6","7","5","8","3","4","2","4","5","5","5","6","4","2","1","2","4","5","5","4","4","5","5","2","4","2","4","5","3","4","5","5","3","7","3","5","3","7","1","6","3","6","6","4","2","682593254339772416","张","522","Female","[""坏她"",""好我"",""坏我"",""好她""]","[""弱她"",""强我"",""弱我"",""强她""]","","","","","","","","","","","","","","","","","","","","","","","","","","","","","","","","","","","","","","",""
"673","","j","psychophysics","108","495324","0.0-8.0-0.0-4.0-0.0-0.0","3","3","3","2","2","4","3","4","4","4","4","1","-1","0","1","-2","-1","0","1","5","4","4","4","4","3","4","4","5","4","7","7","6","8","5","6","7","5","8","3","4","2","4","5","5","5","6","4","2","1","2","4","5","5","4","4","5","5","2","4","2","4","5","3","4","5","5","3","7","3","5","3","7","1","6","3","6","6","4","2","682593254339772416","张","522","Female","[""坏她"",""好我"",""坏我"",""好她""]","[""弱她"",""强我"",""弱我"",""强她""]","","","","","","","","nonmatch","","","","","","","","","","key","j","16.654000000000234","960","536","f","false","match","img/diamond.png","坏我","坏我","ALT2","moral","","","","","","","","",""
"null","<span style='color:red; font-size: 70px;'>错误! </span>","null","html-keyboard-response","109","495825","0.0-8.0-0.0-4.0-0.0-1.0","3","3","3","2","2","4","3","4","4","4","4","1","-1","0","1","-2","-1","0","1","5","4","4","4","4","3","4","4","5","4","7","7","6","8","5","6","7","5","8","3","4","2","4","5","5","5","6","4","2","1","2","4","5","5","4","4","5","5","2","4","2","4","5","3","4","5","5","3","7","3","5","3","7","1","6","3","6","6","4","2","682593254339772416","张","522","Female","[""坏她"",""好我"",""坏我"",""好她""]","[""弱她"",""强我"",""弱我"",""强她""]","","","","","","","","","","","","","","","","","","","","","","","","","","","","","","feedback_test","","","","","","","","",""
"811","","f","psychophysics","110","497637","0.0-8.0-0.0-4.0-0.0-0.1","3","3","3","2","2","4","3","4","4","4","4","1","-1","0","1","-2","-1","0","1","5","4","4","4","4","3","4","4","5","4","7","7","6","8","5","6","7","5","8","3","4","2","4","5","5","5","6","4","2","1","2","4","5","5","4","4","5","5","2","4","2","4","5","3","4","5","5","3","7","3","5","3","7","1","6","3","6","6","4","2","682593254339772416","张","522","Female","[""坏她"",""好我"",""坏我"",""好她""]","[""弱她"",""强我"",""弱我"",""强她""]","","","","","","","","match","","","","","","","","","","key","f","16.65000000000011","960","536","f","true","match","img/diamond.png","坏我","坏我","ALT2","moral","","","","","","","","",""
"null","<span style='color:GreenYellow; font-size: 70px;'>正确! </span>","null","html-keyboard-response","111","498138","0.0-8.0-0.0-4.0-0.0-1.1","3","3","3","2","2","4","3","4","4","4","4","1","-1","0","1","-2","-1","0","1","5","4","4","4","4","3","4","4","5","4","7","7","6","8","5","6","7","5","8","3","4","2","4","5","5","5","6","4","2","1","2","4","5","5","4","4","5","5","2","4","2","4","5","3","4","5","5","3","7","3","5","3","7","1","6","3","6","6","4","2","682593254339772416","张","522","Female","[""坏她"",""好我"",""坏我"",""好她""]","[""弱她"",""强我"",""弱我"",""强她""]","","","","","","","","","","","","","","","","","","","","","","","","","","","","","","feedback_test","","","","","","","","",""
"752","","j","psychophysics","112","499892","0.0-8.0-0.0-4.0-0.0-0.2","3","3","3","2","2","4","3","4","4","4","4","1","-1","0","1","-2","-1","0","1","5","4","4","4","4","3","4","4","5","4","7","7","6","8","5","6","7","5","8","3","4","2","4","5","5","5","6","4","2","1","2","4","5","5","4","4","5","5","2","4","2","4","5","3","4","5","5","3","7","3","5","3","7","1","6","3","6","6","4","2","682593254339772416","张","522","Female","[""坏她"",""好我"",""坏我"",""好她""]","[""弱她"",""强我"",""弱我"",""强她""]","","","","","","","","nonmatch","","","","","","","","","","key","j","16.64903846153846","960","536","f","false","match","img/pentagon.png","好她","好她","ALT2","moral","","","","","","","","",""
"null","<span style='color:red; font-size: 70px;'>错误! </span>","null","html-keyboard-response","113","500392","0.0-8.0-0.0-4.0-0.0-1.2","3","3","3","2","2","4","3","4","4","4","4","1","-1","0","1","-2","-1","0","1","5","4","4","4","4","3","4","4","5","4","7","7","6","8","5","6","7","5","8","3","4","2","4","5","5","5","6","4","2","1","2","4","5","5","4","4","5","5","2","4","2","4","5","3","4","5","5","3","7","3","5","3","7","1","6","3","6","6","4","2","682593254339772416","张","522","Female","[""坏她"",""好我"",""坏我"",""好她""]","[""弱她"",""强我"",""弱我"",""强她""]","","","","","","","","","","","","","","","","","","","","","","","","","","","","","","feedback_test","","","","","","","","",""
"636","","f","psychophysics","114","502029","0.0-8.0-0.0-4.0-0.0-0.3","3","3","3","2","2","4","3","4","4","4","4","1","-1","0","1","-2","-1","0","1","5","4","4","4","4","3","4","4","5","4","7","7","6","8","5","6","7","5","8","3","4","2","4","5","5","5","6","4","2","1","2","4","5","5","4","4","5","5","2","4","2","4","5","3","4","5","5","3","7","3","5","3","7","1","6","3","6","6","4","2","682593254339772416","张","522","Female","[""坏她"",""好我"",""坏我"",""好她""]","[""弱她"",""强我"",""弱我"",""强她""]","","","","","","","","match","","","","","","","","","","key","f","16.652577319587508","960","536","f","true","match","img/square.png","好我","好我","ALT2","moral","","","","","","","","",""
"null","<span style='color:GreenYellow; font-size: 70px;'>正确! </span>","null","html-keyboard-response","115","502531","0.0-8.0-0.0-4.0-0.0-1.3","3","3","3","2","2","4","3","4","4","4","4","1","-1","0","1","-2","-1","0","1","5","4","4","4","4","3","4","4","5","4","7","7","6","8","5","6","7","5","8","3","4","2","4","5","5","5","6","4","2","1","2","4","5","5","4","4","5","5","2","4","2","4","5","3","4","5","5","3","7","3","5","3","7","1","6","3","6","6","4","2","682593254339772416","张","522","Female","[""坏她"",""好我"",""坏我"",""好她""]","[""弱她"",""强我"",""弱我"",""强她""]","","","","","","","","","","","","","","","","","","","","","","","","","","","","","","feedback_test","","","","","","","","",""
"918","","f","psychophysics","116","504451","0.0-8.0-0.0-4.0-0.0-0.4","3","3","3","2","2","4","3","4","4","4","4","1","-1","0","1","-2","-1","0","1","5","4","4","4","4","3","4","4","5","4","7","7","6","8","5","6","7","5","8","3","4","2","4","5","5","5","6","4","2","1","2","4","5","5","4","4","5","5","2","4","2","4","5","3","4","5","5","3","7","3","5","3","7","1","6","3","6","6","4","2","682593254339772416","张","522","Female","[""坏她"",""好我"",""坏我"",""好她""]","[""弱她"",""强我"",""弱我"",""强她""]","","","","","","","","match","","","","","","","","","","key","f","16.642105263157998","960","536","j","false","nonmatch","img/pentagon.png","坏她","好她","ALT2","moral","","","","","","","","",""
"null","<span style='color:red; font-size: 70px;'>错误! </span>","null","html-keyboard-response","117","504951","0.0-8.0-0.0-4.0-0.0-1.4","3","3","3","2","2","4","3","4","4","4","4","1","-1","0","1","-2","-1","0","1","5","4","4","4","4","3","4","4","5","4","7","7","6","8","5","6","7","5","8","3","4","2","4","5","5","5","6","4","2","1","2","4","5","5","4","4","5","5","2","4","2","4","5","3","4","5","5","3","7","3","5","3","7","1","6","3","6","6","4","2","682593254339772416","张","522","Female","[""坏她"",""好我"",""坏我"",""好她""]","[""弱她"",""强我"",""弱我"",""强她""]","","","","","","","","","","","","","","","","","","","","","","","","","","","","","","feedback_test","","","","","","","","",""
"701","","f","psychophysics","118","506655","0.0-8.0-0.0-4.0-0.0-0.5","3","3","3","2","2","4","3","4","4","4","4","1","-1","0","1","-2","-1","0","1","5","4","4","4","4","3","4","4","5","4","7","7","6","8","5","6","7","5","8","3","4","2","4","5","5","5","6","4","2","1","2","4","5","5","4","4","5","5","2","4","2","4","5","3","4","5","5","3","7","3","5","3","7","1","6","3","6","6","4","2","682593254339772416","张","522","Female","[""坏她"",""好我"",""坏我"",""好她""]","[""弱她"",""强我"",""弱我"",""强她""]","","","","","","","","match","","","","","","","","","","key","f","16.651485148514737","960","536","f","true","match","img/pentagon.png","好她","好她","ALT2","moral","","","","","","","","",""
"null","<span style='color:GreenYellow; font-size: 70px;'>正确! </span>","null","html-keyboard-response","119","507157","0.0-8.0-0.0-4.0-0.0-1.5","3","3","3","2","2","4","3","4","4","4","4","1","-1","0","1","-2","-1","0","1","5","4","4","4","4","3","4","4","5","4","7","7","6","8","5","6","7","5","8","3","4","2","4","5","5","5","6","4","2","1","2","4","5","5","4","4","5","5","2","4","2","4","5","3","4","5","5","3","7","3","5","3","7","1","6","3","6","6","4","2","682593254339772416","张","522","Female","[""坏她"",""好我"",""坏我"",""好她""]","[""弱她"",""强我"",""弱我"",""强她""]","","","","","","","","","","","","","","","","","","","","","","","","","","","","","","feedback_test","","","","","","","","",""
"861","","j","psychophysics","120","509020","0.0-8.0-0.0-4.0-0.0-0.6","3","3","3","2","2","4","3","4","4","4","4","1","-1","0","1","-2","-1","0","1","5","4","4","4","4","3","4","4","5","4","7","7","6","8","5","6","7","5","8","3","4","2","4","5","5","5","6","4","2","1","2","4","5","5","4","4","5","5","2","4","2","4","5","3","4","5","5","3","7","3","5","3","7","1","6","3","6","6","4","2","682593254339772416","张","522","Female","[""坏她"",""好我"",""坏我"",""好她""]","[""弱她"",""强我"",""弱我"",""强她""]","","","","","","","","nonmatch","","","","","","","","","","key","j","16.653153153153152","960","536","j","true","nonmatch","img/diamond.png","好她","坏我","ALT2","moral","","","","","","","","",""
"null","<span style='color:GreenYellow; font-size: 70px;'>正确! </span>","null","html-keyboard-response","121","509522","0.0-8.0-0.0-4.0-0.0-1.6","3","3","3","2","2","4","3","4","4","4","4","1","-1","0","1","-2","-1","0","1","5","4","4","4","4","3","4","4","5","4","7","7","6","8","5","6","7","5","8","3","4","2","4","5","5","5","6","4","2","1","2","4","5","5","4","4","5","5","2","4","2","4","5","3","4","5","5","3","7","3","5","3","7","1","6","3","6","6","4","2","682593254339772416","张","522","Female","[""坏她"",""好我"",""坏我"",""好她""]","[""弱她"",""强我"",""弱我"",""强她""]","","","","","","","","","","","","","","","","","","","","","","","","","","","","","","feedback_test","","","","","","","","",""
"682","","f","psychophysics","122","511205","0.0-8.0-0.0-4.0-0.0-0.7","3","3","3","2","2","4","3","4","4","4","4","1","-1","0","1","-2","-1","0","1","5","4","4","4","4","3","4","4","5","4","7","7","6","8","5","6","7","5","8","3","4","2","4","5","5","5","6","4","2","1","2","4","5","5","4","4","5","5","2","4","2","4","5","3","4","5","5","3","7","3","5","3","7","1","6","3","6","6","4","2","682593254339772416","张","522","Female","[""坏她"",""好我"",""坏我"",""好她""]","[""弱她"",""强我"",""弱我"",""强她""]","","","","","","","","match","","","","","","","","","","key","f","16.652000000000115","960","536","j","false","nonmatch","img/square.png","坏我","好我","ALT2","moral","","","","","","","","",""
"null","<span style='color:red; font-size: 70px;'>错误! </span>","null","html-keyboard-response","123","511706","0.0-8.0-0.0-4.0-0.0-1.7","3","3","3","2","2","4","3","4","4","4","4","1","-1","0","1","-2","-1","0","1","5","4","4","4","4","3","4","4","5","4","7","7","6","8","5","6","7","5","8","3","4","2","4","5","5","5","6","4","2","1","2","4","5","5","4","4","5","5","2","4","2","4","5","3","4","5","5","3","7","3","5","3","7","1","6","3","6","6","4","2","682593254339772416","张","522","Female","[""坏她"",""好我"",""坏我"",""好她""]","[""弱她"",""强我"",""弱我"",""强她""]","","","","","","","","","","","","","","","","","","","","","","","","","","","","","","feedback_test","","","","","","","","",""
"764","","j","psychophysics","124","513472","0.0-8.0-0.0-4.0-0.0-0.8","3","3","3","2","2","4","3","4","4","4","4","1","-1","0","1","-2","-1","0","1","5","4","4","4","4","3","4","4","5","4","7","7","6","8","5","6","7","5","8","3","4","2","4","5","5","5","6","4","2","1","2","4","5","5","4","4","5","5","2","4","2","4","5","3","4","5","5","3","7","3","5","3","7","1","6","3","6","6","4","2","682593254339772416","张","522","Female","[""坏她"",""好我"",""坏我"",""好她""]","[""弱她"",""强我"",""弱我"",""强她""]","","","","","","","","nonmatch","","","","","","","","","","key","j","16.653333333333666","960","536","j","true","nonmatch","img/diamond.png","好我","坏我","ALT2","moral","","","","","","","","",""
"null","<span style='color:GreenYellow; font-size: 70px;'>正确! </span>","null","html-keyboard-response","125","513978","0.0-8.0-0.0-4.0-0.0-1.8","3","3","3","2","2","4","3","4","4","4","4","1","-1","0","1","-2","-1","0","1","5","4","4","4","4","3","4","4","5","4","7","7","6","8","5","6","7","5","8","3","4","2","4","5","5","5","6","4","2","1","2","4","5","5","4","4","5","5","2","4","2","4","5","3","4","5","5","3","7","3","5","3","7","1","6","3","6","6","4","2","682593254339772416","张","522","Female","[""坏她"",""好我"",""坏我"",""好她""]","[""弱她"",""强我"",""弱我"",""强她""]","","","","","","","","","","","","","","","","","","","","","","","","","","","","","","feedback_test","","","","","","","","",""
"767","","f","psychophysics","126","515747","0.0-8.0-0.0-4.0-0.0-0.9","3","3","3","2","2","4","3","4","4","4","4","1","-1","0","1","-2","-1","0","1","5","4","4","4","4","3","4","4","5","4","7","7","6","8","5","6","7","5","8","3","4","2","4","5","5","5","6","4","2","1","2","4","5","5","4","4","5","5","2","4","2","4","5","3","4","5","5","3","7","3","5","3","7","1","6","3","6","6","4","2","682593254339772416","张","522","Female","[""坏她"",""好我"",""坏我"",""好她""]","[""弱她"",""强我"",""弱我"",""强她""]","","","","","","","","match","","","","","","","","","","key","f","16.652380952380952","960","536","f","true","match","img/ellipse.png","坏她","坏她","ALT2","moral","","","","","","","","",""
"null","<span style='color:GreenYellow; font-size: 70px;'>正确! </span>","null","html-keyboard-response","127","516248","0.0-8.0-0.0-4.0-0.0-1.9","3","3","3","2","2","4","3","4","4","4","4","1","-1","0","1","-2","-1","0","1","5","4","4","4","4","3","4","4","5","4","7","7","6","8","5","6","7","5","8","3","4","2","4","5","5","5","6","4","2","1","2","4","5","5","4","4","5","5","2","4","2","4","5","3","4","5","5","3","7","3","5","3","7","1","6","3","6","6","4","2","682593254339772416","张","522","Female","[""坏她"",""好我"",""坏我"",""好她""]","[""弱她"",""强我"",""弱我"",""强她""]","","","","","","","","","","","","","","","","","","","","","","","","","","","","","","feedback_test","","","","","","","","",""
"925","","f","psychophysics","128","518174","0.0-8.0-0.0-4.0-0.0-0.10","3","3","3","2","2","4","3","4","4","4","4","1","-1","0","1","-2","-1","0","1","5","4","4","4","4","3","4","4","5","4","7","7","6","8","5","6","7","5","8","3","4","2","4","5","5","5","6","4","2","1","2","4","5","5","4","4","5","5","2","4","2","4","5","3","4","5","5","3","7","3","5","3","7","1","6","3","6","6","4","2","682593254339772416","张","522","Female","[""坏她"",""好我"",""坏我"",""好她""]","[""弱她"",""强我"",""弱我"",""强她""]","","","","","","","","match","","","","","","","","","","key","f","16.653043478260667","960","536","j","false","nonmatch","img/ellipse.png","好我","坏她","ALT2","moral","","","","","","","","",""
"null","<span style='color:red; font-size: 70px;'>错误! </span>","null","html-keyboard-response","129","518675","0.0-8.0-0.0-4.0-0.0-1.10","3","3","3","2","2","4","3","4","4","4","4","1","-1","0","1","-2","-1","0","1","5","4","4","4","4","3","4","4","5","4","7","7","6","8","5","6","7","5","8","3","4","2","4","5","5","5","6","4","2","1","2","4","5","5","4","4","5","5","2","4","2","4","5","3","4","5","5","3","7","3","5","3","7","1","6","3","6","6","4","2","682593254339772416","张","522","Female","[""坏她"",""好我"",""坏我"",""好她""]","[""弱她"",""强我"",""弱我"",""强她""]","","","","","","","","","","","","","","","","","","","","","","","","","","","","","","feedback_test","","","","","","","","",""
"638","","f","psychophysics","130","520314","0.0-8.0-0.0-4.0-0.0-0.11","3","3","3","2","2","4","3","4","4","4","4","1","-1","0","1","-2","-1","0","1","5","4","4","4","4","3","4","4","5","4","7","7","6","8","5","6","7","5","8","3","4","2","4","5","5","5","6","4","2","1","2","4","5","5","4","4","5","5","2","4","2","4","5","3","4","5","5","3","7","3","5","3","7","1","6","3","6","6","4","2","682593254339772416","张","522","Female","[""坏她"",""好我"",""坏我"",""好她""]","[""弱她"",""强我"",""弱我"",""强她""]","","","","","","","","match","","","","","","","","","","key","f","16.649484536082475","960","536","f","true","match","img/square.png","好我","好我","ALT2","moral","","","","","","","","",""
"null","<span style='color:GreenYellow; font-size: 70px;'>正确! </span>","null","html-keyboard-response","131","520815","0.0-8.0-0.0-4.0-0.0-1.11","3","3","3","2","2","4","3","4","4","4","4","1","-1","0","1","-2","-1","0","1","5","4","4","4","4","3","4","4","5","4","7","7","6","8","5","6","7","5","8","3","4","2","4","5","5","5","6","4","2","1","2","4","5","5","4","4","5","5","2","4","2","4","5","3","4","5","5","3","7","3","5","3","7","1","6","3","6","6","4","2","682593254339772416","张","522","Female","[""坏她"",""好我"",""坏我"",""好她""]","[""弱她"",""强我"",""弱我"",""强她""]","","","","","","","","","","","","","","","","","","","","","","","","","","","","","","feedback_test","","","","","","","","",""
"777","","f","psychophysics","132","522594","0.0-8.0-0.0-4.0-0.0-0.12","3","3","3","2","2","4","3","4","4","4","4","1","-1","0","1","-2","-1","0","1","5","4","4","4","4","3","4","4","5","4","7","7","6","8","5","6","7","5","8","3","4","2","4","5","5","5","6","4","2","1","2","4","5","5","4","4","5","5","2","4","2","4","5","3","4","5","5","3","7","3","5","3","7","1","6","3","6","6","4","2","682593254339772416","张","522","Female","[""坏她"",""好我"",""坏我"",""好她""]","[""弱她"",""强我"",""弱我"",""强她""]","","","","","","","","match","","","","","","","","","","key","f","16.650943396226417","960","536","f","true","match","img/square.png","好我","好我","ALT2","moral","","","","","","","","",""
"null","<span style='color:GreenYellow; font-size: 70px;'>正确! </span>","null","html-keyboard-response","133","523103","0.0-8.0-0.0-4.0-0.0-1.12","3","3","3","2","2","4","3","4","4","4","4","1","-1","0","1","-2","-1","0","1","5","4","4","4","4","3","4","4","5","4","7","7","6","8","5","6","7","5","8","3","4","2","4","5","5","5","6","4","2","1","2","4","5","5","4","4","5","5","2","4","2","4","5","3","4","5","5","3","7","3","5","3","7","1","6","3","6","6","4","2","682593254339772416","张","522","Female","[""坏她"",""好我"",""坏我"",""好她""]","[""弱她"",""强我"",""弱我"",""强她""]","","","","","","","","","","","","","","","","","","","","","","","","","","","","","","feedback_test","","","","","","","","",""
"811","","j","psychophysics","134","524915","0.0-8.0-0.0-4.0-0.0-0.13","3","3","3","2","2","4","3","4","4","4","4","1","-1","0","1","-2","-1","0","1","5","4","4","4","4","3","4","4","5","4","7","7","6","8","5","6","7","5","8","3","4","2","4","5","5","5","6","4","2","1","2","4","5","5","4","4","5","5","2","4","2","4","5","3","4","5","5","3","7","3","5","3","7","1","6","3","6","6","4","2","682593254339772416","张","522","Female","[""坏她"",""好我"",""坏我"",""好她""]","[""弱她"",""强我"",""弱我"",""强她""]","","","","","","","","nonmatch","","","","","","","","","","key","j","16.65092592592636","960","536","j","true","nonmatch","img/diamond.png","坏她","坏我","ALT2","moral","","","","","","","","",""
"null","<span style='color:GreenYellow; font-size: 70px;'>正确! </span>","null","html-keyboard-response","135","525416","0.0-8.0-0.0-4.0-0.0-1.13","3","3","3","2","2","4","3","4","4","4","4","1","-1","0","1","-2","-1","0","1","5","4","4","4","4","3","4","4","5","4","7","7","6","8","5","6","7","5","8","3","4","2","4","5","5","5","6","4","2","1","2","4","5","5","4","4","5","5","2","4","2","4","5","3","4","5","5","3","7","3","5","3","7","1","6","3","6","6","4","2","682593254339772416","张","522","Female","[""坏她"",""好我"",""坏我"",""好她""]","[""弱她"",""强我"",""弱我"",""强她""]","","","","","","","","","","","","","","","","","","","","","","","","","","","","","","feedback_test","","","","","","","","",""
"943","","j","psychophysics","136","527360","0.0-8.0-0.0-4.0-0.0-0.14","3","3","3","2","2","4","3","4","4","4","4","1","-1","0","1","-2","-1","0","1","5","4","4","4","4","3","4","4","5","4","7","7","6","8","5","6","7","5","8","3","4","2","4","5","5","5","6","4","2","1","2","4","5","5","4","4","5","5","2","4","2","4","5","3","4","5","5","3","7","3","5","3","7","1","6","3","6","6","4","2","682593254339772416","张","522","Female","[""坏她"",""好我"",""坏我"",""好她""]","[""弱她"",""强我"",""弱我"",""强她""]","","","","","","","","nonmatch","","","","","","","","","","key","j","16.652173913043477","960","536","j","true","nonmatch","img/pentagon.png","坏我","好她","ALT2","moral","","","","","","","","",""
"null","<span style='color:GreenYellow; font-size: 70px;'>正确! </span>","null","html-keyboard-response","137","527861","0.0-8.0-0.0-4.0-0.0-1.14","3","3","3","2","2","4","3","4","4","4","4","1","-1","0","1","-2","-1","0","1","5","4","4","4","4","3","4","4","5","4","7","7","6","8","5","6","7","5","8","3","4","2","4","5","5","5","6","4","2","1","2","4","5","5","4","4","5","5","2","4","2","4","5","3","4","5","5","3","7","3","5","3","7","1","6","3","6","6","4","2","682593254339772416","张","522","Female","[""坏她"",""好我"",""坏我"",""好她""]","[""弱她"",""强我"",""弱我"",""强她""]","","","","","","","","","","","","","","","","","","","","","","","","","","","","","","feedback_test","","","","","","","","",""
