"rt","stimulus","response","trial_type","trial_index","time_elapsed","internal_node_id","swb_1","swb_2","swb_3","swb_4","swb_5","LOT_1","LOT_2","LOT_3","LOT_4","LOT_5","LOT_6","IPC_1","IPC_2","IPC_3","IPC_4","IPC_5","IPC_6","IPC_7","IPC_8","MorIden_1","MorIden_2","MorIden_3","MorIden_4","MorIden_5","MorIden_6","MorIden_7","MorIden_8","MorIden_9","MorIden_10","moralSeImag_1","moralSeImag_2","moralSeImag_3","moralSeImag_4","moralSeImag_5","moralSeImag_6","moralSeImag_7","moralSeImag_8","moralSeImag_9","sde_1","sde_2","sde_3","sde_4","sde_5","sde_6","sde_7","sde_8","sde_9","sde_10","trap2","sde_11","sde_12","sde_13","sde_14","sde_15","sde_16","sde_17","sde_18","sde_19","sde_20","IM_1","IM_2","IM_3","IM_4","IM_5","IM_6","IM_7","IM_8","IM_9","IM_10","IM_11","IM_12","IM_13","IM_14","IM_15","IM_16","IM_17","IM_18","IM_19","IM_20","subj_idx","friend_name","ParticipantID","Sex","Word","Word2","value","success","timeout","failed_images","failed_audio","failed_video","user_agent","responses","item_order","radio_event_ids","radio_event_times","key_event_times","mouse_event_times","straightlining","zigzagging","honeypot","task_id","screen_id","time_stamp","response_type","key_press","avg_frame_time","center_x","center_y","person","word","valence","domain","math","correct_response","correct","status","view_history","identity","duration","Image","condition","question_order","trap2_item"
"7123","
   <p><div style='color:white; font-size: 25px'>您好，欢迎参加本次实验。</div></p>
   <p><div style='color:white; font-size: 25px'>为充分保障您的权利，请确保您已经知晓并同意《参与实验同意书》以及《数据公开知情同意书》。</div></p>
   <p><div style='color:white; font-size: 25px'>如果您未见过上述内容，请咨询实验员。</div></p>
   <p style='color:white; font-size: 25px'>如果您选择继续实验，则表示您已经清楚两份知情同意书的内容并同意。</p>
   <p><div style = ""color: pink;font-size:30px;"">请确保您记得day0的实验编号，您将在本次实验输入该编号，若您忘记，请咨询实验员后作答。</div></p>
   <p><div style = ""color:lightblue;font-size:25px;"">请您尽可能认真地作答，我们将依据您在各问卷和按键任务中的作答质量发放报酬。</div></p>
   <p> <div style = ""color: green""><按空格键至下页></div> </p>
   "," ","html-keyboard-response","0","7125","0.0-0.0","3","2","3","2","1","4","2","5","5","4","4","1","0","1","1","0","1","2","1","5","4","5","5","4","5","4","4","5","4","6","7","5","7","6","5","6","5","6","4","2","3","2","2","1","5","1","5","2","1","4","2","5","3","2","3","6","4","3","2","2","5","2","4","5","6","5","6","6","6","6","5","5","4","3","6","3","6","3","5","798930525371899905","李     ","439","Male","[""坏我"",""好我"",""坏他"",""好他""]","[""弱我"",""强我"",""弱他"",""强他""]","","","","","","","","","","","","","","","","","","","","","","","","","","","","","","","","","","","","","","",""
"","","","call-function","1","7126","0.0-1.0-0.0","3","2","3","2","1","4","2","5","5","4","4","1","0","1","1","0","1","2","1","5","4","5","5","4","5","4","4","5","4","6","7","5","7","6","5","6","5","6","4","2","3","2","2","1","5","1","5","2","1","4","2","5","3","2","3","6","4","3","2","2","5","2","4","5","6","5","6","6","6","6","5","5","4","3","6","3","6","3","5","798930525371899905","李     ","439","Male","[""坏我"",""好我"",""坏他"",""好他""]","[""弱我"",""强我"",""弱他"",""强他""]","","","","","","","","","","","","","","","","","","","","","","","","","","","","","","","","","","","","","","",""
"22551","","[{""name"":""friend_name"",""value"":""李     ""},{""name"":""ParticipantID"",""value"":""439""}]","survey-html-form","2","29679","0.0-1.0-1.0","3","2","3","2","1","4","2","5","5","4","4","1","0","1","1","0","1","2","1","5","4","5","5","4","5","4","4","5","4","6","7","5","7","6","5","6","5","6","4","2","3","2","2","1","5","1","5","2","1","4","2","5","3","2","3","6","4","3","2","2","5","2","4","5","6","5","6","6","6","6","5","5","4","3","6","3","6","3","5","798930525371899905","李     ","439","Male","[""坏我"",""好我"",""坏他"",""好他""]","[""弱我"",""强我"",""弱他"",""强他""]","","","","","","","","","","","","","","","","","","","","","","","","","","","","","","","","","","","","","","",""
"","","","preload","3","29858","0.0-2.0","3","2","3","2","1","4","2","5","5","4","4","1","0","1","1","0","1","2","1","5","4","5","5","4","5","4","4","5","4","6","7","5","7","6","5","6","5","6","4","2","3","2","2","1","5","1","5","2","1","4","2","5","3","2","3","6","4","3","2","2","5","2","4","5","6","5","6","6","6","6","5","5","4","3","6","3","6","3","5","798930525371899905","李     ","439","Male","[""坏我"",""好我"",""坏他"",""好他""]","[""弱我"",""强我"",""弱他"",""强他""]","","true","false","[]","[]","[]","","","","","","","","","","","","","","","","","","","","","","","","","","","","","","","","",""
"","","","fullscreen","4","31027","0.0-3.0","3","2","3","2","1","4","2","5","5","4","4","1","0","1","1","0","1","2","1","5","4","5","5","4","5","4","4","5","4","6","7","5","7","6","5","6","5","6","4","2","3","2","2","1","5","1","5","2","1","4","2","5","3","2","3","6","4","3","2","2","5","2","4","5","6","5","6","6","6","6","5","5","4","3","6","3","6","3","5","798930525371899905","李     ","439","Male","[""坏我"",""好我"",""坏他"",""好他""]","[""弱我"",""强我"",""弱他"",""强他""]","","true","","","","","","","","","","","","","","","","","","","","","","","","","","","","","","","","","","","","",""
"33307.870000004186","","{""Q01"":""3"",""Q02"":""2"",""Q03"":""3"",""Q04"":""2"",""Q05"":""1""}","survey-template","5","64338","0.0-4.0","3","2","3","2","1","4","2","5","5","4","4","1","0","1","1","0","1","2","1","5","4","5","5","4","5","4","4","5","4","6","7","5","7","6","5","6","5","6","4","2","3","2","2","1","5","1","5","2","1","4","2","5","3","2","3","6","4","3","2","2","5","2","4","5","6","5","6","6","6","6","5","5","4","3","6","3","6","3","5","798930525371899905","李     ","439","Male","[""坏我"",""好我"",""坏他"",""好他""]","[""弱我"",""强我"",""弱他"",""强他""]","","","","","","","","{""Q01"":""3"",""Q02"":""2"",""Q03"":""3"",""Q04"":""2"",""Q05"":""1""}","[0,1,2,3,4]","[""Q01"",""Q02"",""Q03"",""Q04"",""Q05""]","[2186.9949999963865,3375.7949999999255,4320.910000009462,27631.66500000807,31288.215000007767]","[]","[2186.9949999963865,3375.7949999999255,4320.910000009462,27631.66500000807,31288.215000007767,33305.91500000446]","0.4","1","0","","","","","","","","","","","","","","","","","","","","","","",""
"13549.934999988182","","{""Q01"":""4"",""Q02"":""2"",""Q03"":""5"",""Q04"":""5"",""Q05"":""4"",""Q06"":""4""}","survey-template","6","77894","0.0-5.0","3","2","3","2","1","4","2","5","5","4","4","1","0","1","1","0","1","2","1","5","4","5","5","4","5","4","4","5","4","6","7","5","7","6","5","6","5","6","4","2","3","2","2","1","5","1","5","2","1","4","2","5","3","2","3","6","4","3","2","2","5","2","4","5","6","5","6","6","6","6","5","5","4","3","6","3","6","3","5","798930525371899905","李     ","439","Male","[""坏我"",""好我"",""坏他"",""好他""]","[""弱我"",""强我"",""弱他"",""强他""]","","","","","","","","{""Q01"":""4"",""Q02"":""2"",""Q03"":""5"",""Q04"":""5"",""Q05"":""4"",""Q06"":""4""}","[0,1,2,3,4,5]","[""Q01"",""Q02"",""Q03"",""Q04"",""Q05"",""Q06""]","[1877.6049999869429,5541.245000000345,6749.32999999146,9301.349999994272,11228.745000000345,12796.699999991688]","[]","[1877.6049999869429,5541.245000000345,6749.32999999146,9301.349999994272,10868.62999999721,11228.745000000345,12796.699999991688,13548.964999994496]","0.5","0.6","0","","","","","","","","","","","","","","","","","","","","","","",""
"22115.265000000363","","{""Q01"":""1"",""Q02"":""0"",""Q03"":""1"",""Q04"":""1"",""Q05"":""0"",""Q06"":""1"",""Q07"":""2"",""Q08"":""1""}","survey-template","7","100015","0.0-6.0","3","2","3","2","1","4","2","5","5","4","4","1","0","1","1","0","1","2","1","5","4","5","5","4","5","4","4","5","4","6","7","5","7","6","5","6","5","6","4","2","3","2","2","1","5","1","5","2","1","4","2","5","3","2","3","6","4","3","2","2","5","2","4","5","6","5","6","6","6","6","5","5","4","3","6","3","6","3","5","798930525371899905","李     ","439","Male","[""坏我"",""好我"",""坏他"",""好他""]","[""弱我"",""强我"",""弱他"",""强他""]","","","","","","","","{""Q01"":""1"",""Q02"":""0"",""Q03"":""1"",""Q04"":""1"",""Q05"":""0"",""Q06"":""1"",""Q07"":""2"",""Q08"":""1""}","[0,1,2,3,4,5,6,7]","[""Q01"",""Q02"",""Q03"",""Q04"",""Q05"",""Q06"",""Q07"",""Q08"",""Q02""]","[1945.6300000019837,3273.5800000082236,4281.640000001062,7546.354999998584,8953.59499999904,10563.989999995101,12634.265000000596,13682.459999996354,19946.89500000095]","[]","[219.4900000031339,1945.6300000019837,3273.5800000082236,4281.640000001062,7546.354999998584,8953.59499999904,10563.989999995101,12634.265000000596,13682.459999996354,19946.89500000095,22113.50500000117]","0.625","0.8571428571428571","0","","","","","","","","","","","","","","","","","","","","","","",""
"36771","
    <p><div style='color:white;font-size:35px; line-height:20px;'>词汇评估任务</div></p><br>
    <p><div style='color:white;font-size:25px; line-height:20px;'>请再次回忆该亲密的朋友，你们至少2年前就认识了，并且最近2年经常见面。</div></p>
    <p><div style='color:white;font-size:25px; line-height:20px;'>在本实验中，您将会看到一些形容词。</div></p>
    <p><div style='color:yellow;font-size:25px; line-height:20px;'>您的任务是判断这些形容词是否符合对您自己或您的朋友的描述。</div></p><p style='font-size:35px'>符合按<span style=""color:lightgreen""> j 键</span>，不符合按<span style=""color:red""> f 键</span></p>","0","html-button-response","8","136792","0.0-7.0-0.0","3","2","3","2","1","4","2","5","5","4","4","1","0","1","1","0","1","2","1","5","4","5","5","4","5","4","4","5","4","6","7","5","7","6","5","6","5","6","4","2","3","2","2","1","5","1","5","2","1","4","2","5","3","2","3","6","4","3","2","2","5","2","4","5","6","5","6","6","6","6","5","5","4","3","6","3","6","3","5","798930525371899905","李     ","439","Male","[""坏我"",""好我"",""坏他"",""好他""]","[""弱我"",""强我"",""弱他"",""强他""]","","","","","","","","","","","","","","","","","SRET_EW","EW_instructions","Sat Jan 20 2024 20:29:16 GMT+0800 (中国标准时间)","","","","","","","","","","","","","","","","","","","",""
"1936","","j","psychophysics","9","139749","0.0-7.0-1.0-0.0","3","2","3","2","1","4","2","5","5","4","4","1","0","1","1","0","1","2","1","5","4","5","5","4","5","4","4","5","4","6","7","5","7","6","5","6","5","6","4","2","3","2","2","1","5","1","5","2","1","4","2","5","3","2","3","6","4","3","2","2","5","2","4","5","6","5","6","6","6","6","5","5","4","3","6","3","6","3","5","798930525371899905","李     ","439","Male","[""坏我"",""好我"",""坏他"",""好他""]","[""弱我"",""强我"",""弱他"",""强他""]","","","","","","","","yes","","","","","","","","","SRET_EW","EW_practice","","key","j","16.765960227272775","853.3333333333334","476","朋友","徇私","Negative","morality","","","","","","","","","","",""
"388","","f","psychophysics","10","141139","0.0-7.0-1.0-0.1","3","2","3","2","1","4","2","5","5","4","4","1","0","1","1","0","1","2","1","5","4","5","5","4","5","4","4","5","4","6","7","5","7","6","5","6","5","6","4","2","3","2","2","1","5","1","5","2","1","4","2","5","3","2","3","6","4","3","2","2","5","2","4","5","6","5","6","6","6","6","5","5","4","3","6","3","6","3","5","798930525371899905","李     ","439","Male","[""坏我"",""好我"",""坏他"",""好他""]","[""弱我"",""强我"",""弱他"",""强他""]","","","","","","","","no","","","","","","","","","SRET_EW","EW_practice","","key","f","16.671560975609747","853.3333333333334","476","朋友","忠实","Positive","morality","","","","","","","","","","",""
"875","","j","psychophysics","11","143015","0.0-7.0-1.0-0.2","3","2","3","2","1","4","2","5","5","4","4","1","0","1","1","0","1","2","1","5","4","5","5","4","5","4","4","5","4","6","7","5","7","6","5","6","5","6","4","2","3","2","2","1","5","1","5","2","1","4","2","5","3","2","3","6","4","3","2","2","5","2","4","5","6","5","6","6","6","6","5","5","4","3","6","3","6","3","5","798930525371899905","李     ","439","Male","[""坏我"",""好我"",""坏他"",""好他""]","[""弱我"",""强我"",""弱他"",""强他""]","","","","","","","","yes","","","","","","","","","SRET_EW","EW_practice","","key","j","16.671223214285938","853.3333333333334","476","自己","刻板","Negative","ability","","","","","","","","","","",""
"853","","j","psychophysics","12","144870","0.0-7.0-1.0-0.3","3","2","3","2","1","4","2","5","5","4","4","1","0","1","1","0","1","2","1","5","4","5","5","4","5","4","4","5","4","6","7","5","7","6","5","6","5","6","4","2","3","2","2","1","5","1","5","2","1","4","2","5","3","2","3","6","4","3","2","2","5","2","4","5","6","5","6","6","6","6","5","5","4","3","6","3","6","3","5","798930525371899905","李     ","439","Male","[""坏我"",""好我"",""坏他"",""好他""]","[""弱我"",""强我"",""弱他"",""强他""]","","","","","","","","yes","","","","","","","","","SRET_EW","EW_practice","","key","j","16.670581818182043","853.3333333333334","476","自己","严谨","Positive","ability","","","","","","","","","","",""
"78847","
    <p><div style='color:white;font-size:35px; line-height:20px;'>请您再次阅读实验要求</div></p><br>
    <p><div style='color:white;font-size:25px; line-height:20px;'>请回忆某一个亲密的朋友，你们至少2年前就认识了，并且最近2年经常见面。</div></p>
    <p><div style='color:white;font-size:25px; line-height:20px;'>在本实验中，您将会看到一些形容词。</div></p>
    <p><div style='color:yellow;font-size:25px; line-height:20px;'>您的任务是判断这些形容词是否符合对您自己或您的朋友的描述。</div></p>
    <p><div class='footer' style='font-size:25px; line-height:20px;'>如果对本实验还有不清楚之处，请立即向实验员咨询。</p><p style='font-size:25px; line-height:20px;'>如果您明白了规则：</p><p style='font-size:22px; line-height:20px;'>请按 继续 进入正式实验</p>
    </div>
    <p style='font-size:35px'>符合按<span style=""color:lightgreen""> j 键</span>，不符合按<span style=""color:red""> f 键</span></p>","0","html-button-response","13","223718","0.0-7.0-2.0","3","2","3","2","1","4","2","5","5","4","4","1","0","1","1","0","1","2","1","5","4","5","5","4","5","4","4","5","4","6","7","5","7","6","5","6","5","6","4","2","3","2","2","1","5","1","5","2","1","4","2","5","3","2","3","6","4","3","2","2","5","2","4","5","6","5","6","6","6","6","5","5","4","3","6","3","6","3","5","798930525371899905","李     ","439","Male","[""坏我"",""好我"",""坏他"",""好他""]","[""弱我"",""强我"",""弱他"",""强他""]","","","","","","","","","","","","","","","","","SRET_EW","prac_instructions","Sat Jan 20 2024 20:29:16 GMT+0800 (中国标准时间)","","","","","","","","","","","","","","","","","","","",""
"566","","j","psychophysics","14","225287","0.0-7.0-3.0-0.0","3","2","3","2","1","4","2","5","5","4","4","1","0","1","1","0","1","2","1","5","4","5","5","4","5","4","4","5","4","6","7","5","7","6","5","6","5","6","4","2","3","2","2","1","5","1","5","2","1","4","2","5","3","2","3","6","4","3","2","2","5","2","4","5","6","5","6","6","6","6","5","5","4","3","6","3","6","3","5","798930525371899905","李     ","439","Male","[""坏我"",""好我"",""坏他"",""好他""]","[""弱我"",""强我"",""弱他"",""强他""]","","","","","","","","yes","","","","","","","","","SRET","EW_formal","","key","j","16.67153191489342","853.3333333333334","476","自己","坚贞","Positive","morality","","","","","","","","","","",""
"710","","f","psychophysics","15","226999","0.0-7.0-3.0-0.1","3","2","3","2","1","4","2","5","5","4","4","1","0","1","1","0","1","2","1","5","4","5","5","4","5","4","4","5","4","6","7","5","7","6","5","6","5","6","4","2","3","2","2","1","5","1","5","2","1","4","2","5","3","2","3","6","4","3","2","2","5","2","4","5","6","5","6","6","6","6","5","5","4","3","6","3","6","3","5","798930525371899905","李     ","439","Male","[""坏我"",""好我"",""坏他"",""好他""]","[""弱我"",""强我"",""弱他"",""强他""]","","","","","","","","no","","","","","","","","","SRET","EW_formal","","key","f","16.671980392157018","853.3333333333334","476","朋友","迷糊","Negative","ability","","","","","","","","","","",""
"959","","f","psychophysics","16","228961","0.0-7.0-3.0-0.2","3","2","3","2","1","4","2","5","5","4","4","1","0","1","1","0","1","2","1","5","4","5","5","4","5","4","4","5","4","6","7","5","7","6","5","6","5","6","4","2","3","2","2","1","5","1","5","2","1","4","2","5","3","2","3","6","4","3","2","2","5","2","4","5","6","5","6","6","6","6","5","5","4","3","6","3","6","3","5","798930525371899905","李     ","439","Male","[""坏我"",""好我"",""坏他"",""好他""]","[""弱我"",""强我"",""弱他"",""强他""]","","","","","","","","no","","","","","","","","","SRET","EW_formal","","key","f","16.96315789473674","853.3333333333334","476","自己","说谎","Negative","morality","","","","","","","","","","",""
"793","","j","psychophysics","17","230756","0.0-7.0-3.0-0.3","3","2","3","2","1","4","2","5","5","4","4","1","0","1","1","0","1","2","1","5","4","5","5","4","5","4","4","5","4","6","7","5","7","6","5","6","5","6","4","2","3","2","2","1","5","1","5","2","1","4","2","5","3","2","3","6","4","3","2","2","5","2","4","5","6","5","6","6","6","6","5","5","4","3","6","3","6","3","5","798930525371899905","李     ","439","Male","[""坏我"",""好我"",""坏他"",""好他""]","[""弱我"",""强我"",""弱他"",""强他""]","","","","","","","","yes","","","","","","","","","SRET","EW_formal","","key","j","16.67123364485968","853.3333333333334","476","朋友","务实","Positive","ability","","","","","","","","","","",""
"575","","j","psychophysics","18","232333","0.0-7.0-3.0-0.4","3","2","3","2","1","4","2","5","5","4","4","1","0","1","1","0","1","2","1","5","4","5","5","4","5","4","4","5","4","6","7","5","7","6","5","6","5","6","4","2","3","2","2","1","5","1","5","2","1","4","2","5","3","2","3","6","4","3","2","2","5","2","4","5","6","5","6","6","6","6","5","5","4","3","6","3","6","3","5","798930525371899905","李     ","439","Male","[""坏我"",""好我"",""坏他"",""好他""]","[""弱我"",""强我"",""弱他"",""强他""]","","","","","","","","yes","","","","","","","","","SRET","EW_formal","","key","j","16.671085106383234","853.3333333333334","476","朋友","高效","Positive","ability","","","","","","","","","","",""
"641","","j","psychophysics","19","233977","0.0-7.0-3.0-0.5","3","2","3","2","1","4","2","5","5","4","4","1","0","1","1","0","1","2","1","5","4","5","5","4","5","4","4","5","4","6","7","5","7","6","5","6","5","6","4","2","3","2","2","1","5","1","5","2","1","4","2","5","3","2","3","6","4","3","2","2","5","2","4","5","6","5","6","6","6","6","5","5","4","3","6","3","6","3","5","798930525371899905","李     ","439","Male","[""坏我"",""好我"",""坏他"",""好他""]","[""弱我"",""强我"",""弱他"",""强他""]","","","","","","","","yes","","","","","","","","","SRET","EW_formal","","key","j","16.670969072164976","853.3333333333334","476","朋友","厚道","Positive","morality","","","","","","","","","","",""
"1408","","f","psychophysics","20","236387","0.0-7.0-3.0-0.6","3","2","3","2","1","4","2","5","5","4","4","1","0","1","1","0","1","2","1","5","4","5","5","4","5","4","4","5","4","6","7","5","7","6","5","6","5","6","4","2","3","2","2","1","5","1","5","2","1","4","2","5","3","2","3","6","4","3","2","2","5","2","4","5","6","5","6","6","6","6","5","5","4","3","6","3","6","3","5","798930525371899905","李     ","439","Male","[""坏我"",""好我"",""坏他"",""好他""]","[""弱我"",""强我"",""弱他"",""强他""]","","","","","","","","no","","","","","","","","","SRET","EW_formal","","key","f","16.67106249999981","853.3333333333334","476","自己","周到","Positive","ability","","","","","","","","","","",""
"1203","","f","psychophysics","21","238593","0.0-7.0-3.0-0.7","3","2","3","2","1","4","2","5","5","4","4","1","0","1","1","0","1","2","1","5","4","5","5","4","5","4","4","5","4","6","7","5","7","6","5","6","5","6","4","2","3","2","2","1","5","1","5","2","1","4","2","5","3","2","3","6","4","3","2","2","5","2","4","5","6","5","6","6","6","6","5","5","4","3","6","3","6","3","5","798930525371899905","李     ","439","Male","[""坏我"",""好我"",""坏他"",""好他""]","[""弱我"",""强我"",""弱他"",""强他""]","","","","","","","","no","","","","","","","","","SRET","EW_formal","","key","f","16.67123664122138","853.3333333333334","476","朋友","粗心","Negative","ability","","","","","","","","","","",""
"1293","","j","psychophysics","22","240887","0.0-7.0-3.0-0.8","3","2","3","2","1","4","2","5","5","4","4","1","0","1","1","0","1","2","1","5","4","5","5","4","5","4","4","5","4","6","7","5","7","6","5","6","5","6","4","2","3","2","2","1","5","1","5","2","1","4","2","5","3","2","3","6","4","3","2","2","5","2","4","5","6","5","6","6","6","6","5","5","4","3","6","3","6","3","5","798930525371899905","李     ","439","Male","[""坏我"",""好我"",""坏他"",""好他""]","[""弱我"",""强我"",""弱他"",""强他""]","","","","","","","","yes","","","","","","","","","SRET","EW_formal","","key","j","16.67110948905117","853.3333333333334","476","自己","诚信","Positive","morality","","","","","","","","","","",""
"815","","j","psychophysics","23","242705","0.0-7.0-3.0-0.9","3","2","3","2","1","4","2","5","5","4","4","1","0","1","1","0","1","2","1","5","4","5","5","4","5","4","4","5","4","6","7","5","7","6","5","6","5","6","4","2","3","2","2","1","5","1","5","2","1","4","2","5","3","2","3","6","4","3","2","2","5","2","4","5","6","5","6","6","6","6","5","5","4","3","6","3","6","3","5","798930525371899905","李     ","439","Male","[""坏我"",""好我"",""坏他"",""好他""]","[""弱我"",""强我"",""弱他"",""强他""]","","","","","","","","yes","","","","","","","","","SRET","EW_formal","","key","j","16.670749999999924","853.3333333333334","476","朋友","毅力","Positive","ability","","","","","","","","","","",""
"720","","f","psychophysics","24","244428","0.0-7.0-3.0-0.10","3","2","3","2","1","4","2","5","5","4","4","1","0","1","1","0","1","2","1","5","4","5","5","4","5","4","4","5","4","6","7","5","7","6","5","6","5","6","4","2","3","2","2","1","5","1","5","2","1","4","2","5","3","2","3","6","4","3","2","2","5","2","4","5","6","5","6","6","6","6","5","5","4","3","6","3","6","3","5","798930525371899905","李     ","439","Male","[""坏我"",""好我"",""坏他"",""好他""]","[""弱我"",""强我"",""弱他"",""强他""]","","","","","","","","no","","","","","","","","","SRET","EW_formal","","key","f","16.67044117647068","853.3333333333334","476","朋友","蛇蝎","Negative","morality","","","","","","","","","","",""
"1303","","f","psychophysics","25","246734","0.0-7.0-3.0-0.11","3","2","3","2","1","4","2","5","5","4","4","1","0","1","1","0","1","2","1","5","4","5","5","4","5","4","4","5","4","6","7","5","7","6","5","6","5","6","4","2","3","2","2","1","5","1","5","2","1","4","2","5","3","2","3","6","4","3","2","2","5","2","4","5","6","5","6","6","6","6","5","5","4","3","6","3","6","3","5","798930525371899905","李     ","439","Male","[""坏我"",""好我"",""坏他"",""好他""]","[""弱我"",""强我"",""弱他"",""强他""]","","","","","","","","no","","","","","","","","","SRET","EW_formal","","key","f","16.67095620437958","853.3333333333334","476","自己","毛糙","Negative","ability","","","","","","","","","","",""
"685","","j","psychophysics","26","248421","0.0-7.0-3.0-0.12","3","2","3","2","1","4","2","5","5","4","4","1","0","1","1","0","1","2","1","5","4","5","5","4","5","4","4","5","4","6","7","5","7","6","5","6","5","6","4","2","3","2","2","1","5","1","5","2","1","4","2","5","3","2","3","6","4","3","2","2","5","2","4","5","6","5","6","6","6","6","5","5","4","3","6","3","6","3","5","798930525371899905","李     ","439","Male","[""坏我"",""好我"",""坏他"",""好他""]","[""弱我"",""强我"",""弱他"",""强他""]","","","","","","","","yes","","","","","","","","","SRET","EW_formal","","key","j","16.671207920792234","853.3333333333334","476","自己","廉正","Positive","morality","","","","","","","","","","",""
"679","","f","psychophysics","27","250105","0.0-7.0-3.0-0.13","3","2","3","2","1","4","2","5","5","4","4","1","0","1","1","0","1","2","1","5","4","5","5","4","5","4","4","5","4","6","7","5","7","6","5","6","5","6","4","2","3","2","2","1","5","1","5","2","1","4","2","5","3","2","3","6","4","3","2","2","5","2","4","5","6","5","6","6","6","6","5","5","4","3","6","3","6","3","5","798930525371899905","李     ","439","Male","[""坏我"",""好我"",""坏他"",""好他""]","[""弱我"",""强我"",""弱他"",""强他""]","","","","","","","","no","","","","","","","","","SRET","EW_formal","","key","f","16.670730000000038","853.3333333333334","476","朋友","贪污","Negative","morality","","","","","","","","","","",""
"729","","f","psychophysics","28","251835","0.0-7.0-3.0-0.14","3","2","3","2","1","4","2","5","5","4","4","1","0","1","1","0","1","2","1","5","4","5","5","4","5","4","4","5","4","6","7","5","7","6","5","6","5","6","4","2","3","2","2","1","5","1","5","2","1","4","2","5","3","2","3","6","4","3","2","2","5","2","4","5","6","5","6","6","6","6","5","5","4","3","6","3","6","3","5","798930525371899905","李     ","439","Male","[""坏我"",""好我"",""坏他"",""好他""]","[""弱我"",""强我"",""弱他"",""强他""]","","","","","","","","no","","","","","","","","","SRET","EW_formal","","key","f","16.67103921568624","853.3333333333334","476","自己","诡诈","Negative","morality","","","","","","","","","","",""
"1261","","f","psychophysics","29","254097","0.0-7.0-3.0-0.15","3","2","3","2","1","4","2","5","5","4","4","1","0","1","1","0","1","2","1","5","4","5","5","4","5","4","4","5","4","6","7","5","7","6","5","6","5","6","4","2","3","2","2","1","5","1","5","2","1","4","2","5","3","2","3","6","4","3","2","2","5","2","4","5","6","5","6","6","6","6","5","5","4","3","6","3","6","3","5","798930525371899905","李     ","439","Male","[""坏我"",""好我"",""坏他"",""好他""]","[""弱我"",""强我"",""弱他"",""强他""]","","","","","","","","no","","","","","","","","","SRET","EW_formal","","key","f","16.670577777777712","853.3333333333334","476","自己","庸碌","Negative","ability","","","","","","","","","","",""
"1361","","f","psychophysics","30","256460","0.0-7.0-3.0-0.16","3","2","3","2","1","4","2","5","5","4","4","1","0","1","1","0","1","2","1","5","4","5","5","4","5","4","4","5","4","6","7","5","7","6","5","6","5","6","4","2","3","2","2","1","5","1","5","2","1","4","2","5","3","2","3","6","4","3","2","2","5","2","4","5","6","5","6","6","6","6","5","5","4","3","6","3","6","3","5","798930525371899905","李     ","439","Male","[""坏我"",""好我"",""坏他"",""好他""]","[""弱我"",""强我"",""弱他"",""强他""]","","","","","","","","no","","","","","","","","","SRET","EW_formal","","key","f","16.671297872340364","853.3333333333334","476","朋友","无耻","Negative","morality","","","","","","","","","","",""
"732","","j","psychophysics","31","258193","0.0-7.0-3.0-0.17","3","2","3","2","1","4","2","5","5","4","4","1","0","1","1","0","1","2","1","5","4","5","5","4","5","4","4","5","4","6","7","5","7","6","5","6","5","6","4","2","3","2","2","1","5","1","5","2","1","4","2","5","3","2","3","6","4","3","2","2","5","2","4","5","6","5","6","6","6","6","5","5","4","3","6","3","6","3","5","798930525371899905","李     ","439","Male","[""坏我"",""好我"",""坏他"",""好他""]","[""弱我"",""强我"",""弱他"",""强他""]","","","","","","","","yes","","","","","","","","","SRET","EW_formal","","key","j","16.671087378640806","853.3333333333334","476","朋友","能干","Positive","ability","","","","","","","","","","",""
"951","","f","psychophysics","32","260145","0.0-7.0-3.0-0.18","3","2","3","2","1","4","2","5","5","4","4","1","0","1","1","0","1","2","1","5","4","5","5","4","5","4","4","5","4","6","7","5","7","6","5","6","5","6","4","2","3","2","2","1","5","1","5","2","1","4","2","5","3","2","3","6","4","3","2","2","5","2","4","5","6","5","6","6","6","6","5","5","4","3","6","3","6","3","5","798930525371899905","李     ","439","Male","[""坏我"",""好我"",""坏他"",""好他""]","[""弱我"",""强我"",""弱他"",""强他""]","","","","","","","","no","","","","","","","","","SRET","EW_formal","","key","f","16.704008695652263","853.3333333333334","476","自己","独断","Negative","ability","","","","","","","","","","",""
"916","","j","psychophysics","33","262062","0.0-7.0-3.0-0.19","3","2","3","2","1","4","2","5","5","4","4","1","0","1","1","0","1","2","1","5","4","5","5","4","5","4","4","5","4","6","7","5","7","6","5","6","5","6","4","2","3","2","2","1","5","1","5","2","1","4","2","5","3","2","3","6","4","3","2","2","5","2","4","5","6","5","6","6","6","6","5","5","4","3","6","3","6","3","5","798930525371899905","李     ","439","Male","[""坏我"",""好我"",""坏他"",""好他""]","[""弱我"",""强我"",""弱他"",""强他""]","","","","","","","","yes","","","","","","","","","SRET","EW_formal","","key","j","16.86885840707949","853.3333333333334","476","自己","高明","Positive","ability","","","","","","","","","","",""
"574","","j","psychophysics","34","263638","0.0-7.0-3.0-0.20","3","2","3","2","1","4","2","5","5","4","4","1","0","1","1","0","1","2","1","5","4","5","5","4","5","4","4","5","4","6","7","5","7","6","5","6","5","6","4","2","3","2","2","1","5","1","5","2","1","4","2","5","3","2","3","6","4","3","2","2","5","2","4","5","6","5","6","6","6","6","5","5","4","3","6","3","6","3","5","798930525371899905","李     ","439","Male","[""坏我"",""好我"",""坏他"",""好他""]","[""弱我"",""强我"",""弱他"",""强他""]","","","","","","","","yes","","","","","","","","","SRET","EW_formal","","key","j","16.706838709677154","853.3333333333334","476","朋友","专注","Positive","ability","","","","","","","","","","",""
"1272","","f","psychophysics","35","265911","0.0-7.0-3.0-0.21","3","2","3","2","1","4","2","5","5","4","4","1","0","1","1","0","1","2","1","5","4","5","5","4","5","4","4","5","4","6","7","5","7","6","5","6","5","6","4","2","3","2","2","1","5","1","5","2","1","4","2","5","3","2","3","6","4","3","2","2","5","2","4","5","6","5","6","6","6","6","5","5","4","3","6","3","6","3","5","798930525371899905","李     ","439","Male","[""坏我"",""好我"",""坏他"",""好他""]","[""弱我"",""强我"",""弱他"",""强他""]","","","","","","","","no","","","","","","","","","SRET","EW_formal","","key","f","16.659110294117827","853.3333333333334","476","自己","奸险","Negative","morality","","","","","","","","","","",""
"602","","j","psychophysics","36","267516","0.0-7.0-3.0-0.22","3","2","3","2","1","4","2","5","5","4","4","1","0","1","1","0","1","2","1","5","4","5","5","4","5","4","4","5","4","6","7","5","7","6","5","6","5","6","4","2","3","2","2","1","5","1","5","2","1","4","2","5","3","2","3","6","4","3","2","2","5","2","4","5","6","5","6","6","6","6","5","5","4","3","6","3","6","3","5","798930525371899905","李     ","439","Male","[""坏我"",""好我"",""坏他"",""好他""]","[""弱我"",""强我"",""弱他"",""强他""]","","","","","","","","yes","","","","","","","","","SRET","EW_formal","","key","j","16.67244210526298","853.3333333333334","476","自己","博学","Positive","ability","","","","","","","","","","",""
"730","","j","psychophysics","37","269248","0.0-7.0-3.0-0.23","3","2","3","2","1","4","2","5","5","4","4","1","0","1","1","0","1","2","1","5","4","5","5","4","5","4","4","5","4","6","7","5","7","6","5","6","5","6","4","2","3","2","2","1","5","1","5","2","1","4","2","5","3","2","3","6","4","3","2","2","5","2","4","5","6","5","6","6","6","6","5","5","4","3","6","3","6","3","5","798930525371899905","李     ","439","Male","[""坏我"",""好我"",""坏他"",""好他""]","[""弱我"",""强我"",""弱他"",""强他""]","","","","","","","","yes","","","","","","","","","SRET","EW_formal","","key","j","16.674543689320416","853.3333333333334","476","朋友","刻苦","Positive","ability","","","","","","","","","","",""
"654","","j","psychophysics","38","270904","0.0-7.0-3.0-0.24","3","2","3","2","1","4","2","5","5","4","4","1","0","1","1","0","1","2","1","5","4","5","5","4","5","4","4","5","4","6","7","5","7","6","5","6","5","6","4","2","3","2","2","1","5","1","5","2","1","4","2","5","3","2","3","6","4","3","2","2","5","2","4","5","6","5","6","6","6","6","5","5","4","3","6","3","6","3","5","798930525371899905","李     ","439","Male","[""坏我"",""好我"",""坏他"",""好他""]","[""弱我"",""强我"",""弱他"",""强他""]","","","","","","","","yes","","","","","","","","","SRET","EW_formal","","key","j","16.666969387755227","853.3333333333334","476","朋友","稳健","Positive","ability","","","","","","","","","","",""
"667","","j","psychophysics","39","272573","0.0-7.0-3.0-0.25","3","2","3","2","1","4","2","5","5","4","4","1","0","1","1","0","1","2","1","5","4","5","5","4","5","4","4","5","4","6","7","5","7","6","5","6","5","6","4","2","3","2","2","1","5","1","5","2","1","4","2","5","3","2","3","6","4","3","2","2","5","2","4","5","6","5","6","6","6","6","5","5","4","3","6","3","6","3","5","798930525371899905","李     ","439","Male","[""坏我"",""好我"",""坏他"",""好他""]","[""弱我"",""强我"",""弱他"",""强他""]","","","","","","","","yes","","","","","","","","","SRET","EW_formal","","key","j","16.661494949495072","853.3333333333334","476","自己","侠义","Positive","morality","","","","","","","","","","",""
"1401","","f","psychophysics","40","274975","0.0-7.0-3.0-0.26","3","2","3","2","1","4","2","5","5","4","4","1","0","1","1","0","1","2","1","5","4","5","5","4","5","4","4","5","4","6","7","5","7","6","5","6","5","6","4","2","3","2","2","1","5","1","5","2","1","4","2","5","3","2","3","6","4","3","2","2","5","2","4","5","6","5","6","6","6","6","5","5","4","3","6","3","6","3","5","798930525371899905","李     ","439","Male","[""坏我"",""好我"",""坏他"",""好他""]","[""弱我"",""强我"",""弱他"",""强他""]","","","","","","","","no","","","","","","","","","SRET","EW_formal","","key","f","16.67132867132867","853.3333333333334","476","朋友","笨蛋","Negative","ability","","","","","","","","","","",""
"672","","f","psychophysics","41","276651","0.0-7.0-3.0-0.27","3","2","3","2","1","4","2","5","5","4","4","1","0","1","1","0","1","2","1","5","4","5","5","4","5","4","4","5","4","6","7","5","7","6","5","6","5","6","4","2","3","2","2","1","5","1","5","2","1","4","2","5","3","2","3","6","4","3","2","2","5","2","4","5","6","5","6","6","6","6","5","5","4","3","6","3","6","3","5","798930525371899905","李     ","439","Male","[""坏我"",""好我"",""坏他"",""好他""]","[""弱我"",""强我"",""弱他"",""强他""]","","","","","","","","no","","","","","","","","","SRET","EW_formal","","key","f","16.83978787878754","853.3333333333334","476","朋友","刻薄","Negative","morality","","","","","","","","","","",""
"1202","","f","psychophysics","42","278856","0.0-7.0-3.0-0.28","3","2","3","2","1","4","2","5","5","4","4","1","0","1","1","0","1","2","1","5","4","5","5","4","5","4","4","5","4","6","7","5","7","6","5","6","5","6","4","2","3","2","2","1","5","1","5","2","1","4","2","5","3","2","3","6","4","3","2","2","5","2","4","5","6","5","6","6","6","6","5","5","4","3","6","3","6","3","5","798930525371899905","李     ","439","Male","[""坏我"",""好我"",""坏他"",""好他""]","[""弱我"",""强我"",""弱他"",""强他""]","","","","","","","","no","","","","","","","","","SRET","EW_formal","","key","f","16.671702290076464","853.3333333333334","476","朋友","不端","Negative","morality","","","","","","","","","","",""
"666","","j","psychophysics","43","280524","0.0-7.0-3.0-0.29","3","2","3","2","1","4","2","5","5","4","4","1","0","1","1","0","1","2","1","5","4","5","5","4","5","4","4","5","4","6","7","5","7","6","5","6","5","6","4","2","3","2","2","1","5","1","5","2","1","4","2","5","3","2","3","6","4","3","2","2","5","2","4","5","6","5","6","6","6","6","5","5","4","3","6","3","6","3","5","798930525371899905","李     ","439","Male","[""坏我"",""好我"",""坏他"",""好他""]","[""弱我"",""强我"",""弱他"",""强他""]","","","","","","","","yes","","","","","","","","","SRET","EW_formal","","key","j","16.671444444444425","853.3333333333334","476","朋友","义气","Positive","morality","","","","","","","","","","",""
"703","","f","psychophysics","44","282229","0.0-7.0-3.0-0.30","3","2","3","2","1","4","2","5","5","4","4","1","0","1","1","0","1","2","1","5","4","5","5","4","5","4","4","5","4","6","7","5","7","6","5","6","5","6","4","2","3","2","2","1","5","1","5","2","1","4","2","5","3","2","3","6","4","3","2","2","5","2","4","5","6","5","6","6","6","6","5","5","4","3","6","3","6","3","5","798930525371899905","李     ","439","Male","[""坏我"",""好我"",""坏他"",""好他""]","[""弱我"",""强我"",""弱他"",""强他""]","","","","","","","","no","","","","","","","","","SRET","EW_formal","","key","f","16.6707647058824","853.3333333333334","476","自己","低劣","Negative","morality","","","","","","","","","","",""
"1451","","j","psychophysics","45","284681","0.0-7.0-3.0-0.31","3","2","3","2","1","4","2","5","5","4","4","1","0","1","1","0","1","2","1","5","4","5","5","4","5","4","4","5","4","6","7","5","7","6","5","6","5","6","4","2","3","2","2","1","5","1","5","2","1","4","2","5","3","2","3","6","4","3","2","2","5","2","4","5","6","5","6","6","6","6","5","5","4","3","6","3","6","3","5","798930525371899905","李     ","439","Male","[""坏我"",""好我"",""坏他"",""好他""]","[""弱我"",""强我"",""弱他"",""强他""]","","","","","","","","yes","","","","","","","","","SRET","EW_formal","","key","j","16.671116438356215","853.3333333333334","476","自己","坦荡","Positive","morality","","","","","","","","","","",""
"611","","j","psychophysics","46","286295","0.0-7.0-3.0-0.32","3","2","3","2","1","4","2","5","5","4","4","1","0","1","1","0","1","2","1","5","4","5","5","4","5","4","4","5","4","6","7","5","7","6","5","6","5","6","4","2","3","2","2","1","5","1","5","2","1","4","2","5","3","2","3","6","4","3","2","2","5","2","4","5","6","5","6","6","6","6","5","5","4","3","6","3","6","3","5","798930525371899905","李     ","439","Male","[""坏我"",""好我"",""坏他"",""好他""]","[""弱我"",""强我"",""弱他"",""强他""]","","","","","","","","yes","","","","","","","","","SRET","EW_formal","","key","j","16.671294736841965","853.3333333333334","476","自己","独立","Positive","ability","","","","","","","","","","",""
"700","","j","psychophysics","47","287997","0.0-7.0-3.0-0.33","3","2","3","2","1","4","2","5","5","4","4","1","0","1","1","0","1","2","1","5","4","5","5","4","5","4","4","5","4","6","7","5","7","6","5","6","5","6","4","2","3","2","2","1","5","1","5","2","1","4","2","5","3","2","3","6","4","3","2","2","5","2","4","5","6","5","6","6","6","6","5","5","4","3","6","3","6","3","5","798930525371899905","李     ","439","Male","[""坏我"",""好我"",""坏他"",""好他""]","[""弱我"",""强我"",""弱他"",""强他""]","","","","","","","","yes","","","","","","","","","SRET","EW_formal","","key","j","16.67159803921594","853.3333333333334","476","自己","无私","Positive","morality","","","","","","","","","","",""
"667","","f","psychophysics","48","289665","0.0-7.0-3.0-0.34","3","2","3","2","1","4","2","5","5","4","4","1","0","1","1","0","1","2","1","5","4","5","5","4","5","4","4","5","4","6","7","5","7","6","5","6","5","6","4","2","3","2","2","1","5","1","5","2","1","4","2","5","3","2","3","6","4","3","2","2","5","2","4","5","6","5","6","6","6","6","5","5","4","3","6","3","6","3","5","798930525371899905","李     ","439","Male","[""坏我"",""好我"",""坏他"",""好他""]","[""弱我"",""强我"",""弱他"",""强他""]","","","","","","","","no","","","","","","","","","SRET","EW_formal","","key","f","16.670818181818404","853.3333333333334","476","朋友","无为","Negative","ability","","","","","","","","","","",""
"502","","j","psychophysics","49","291168","0.0-7.0-3.0-0.35","3","2","3","2","1","4","2","5","5","4","4","1","0","1","1","0","1","2","1","5","4","5","5","4","5","4","4","5","4","6","7","5","7","6","5","6","5","6","4","2","3","2","2","1","5","1","5","2","1","4","2","5","3","2","3","6","4","3","2","2","5","2","4","5","6","5","6","6","6","6","5","5","4","3","6","3","6","3","5","798930525371899905","李     ","439","Male","[""坏我"",""好我"",""坏他"",""好他""]","[""弱我"",""强我"",""弱他"",""强他""]","","","","","","","","yes","","","","","","","","","SRET","EW_formal","","key","j","16.671146067415933","853.3333333333334","476","自己","扎实","Positive","ability","","","","","","","","","","",""
"546","","f","psychophysics","50","292716","0.0-7.0-3.0-0.36","3","2","3","2","1","4","2","5","5","4","4","1","0","1","1","0","1","2","1","5","4","5","5","4","5","4","4","5","4","6","7","5","7","6","5","6","5","6","4","2","3","2","2","1","5","1","5","2","1","4","2","5","3","2","3","6","4","3","2","2","5","2","4","5","6","5","6","6","6","6","5","5","4","3","6","3","6","3","5","798930525371899905","李     ","439","Male","[""坏我"",""好我"",""坏他"",""好他""]","[""弱我"",""强我"",""弱他"",""强他""]","","","","","","","","no","","","","","","","","","SRET","EW_formal","","key","f","16.670858695651987","853.3333333333334","476","自己","草率","Negative","ability","","","","","","","","","","",""
"837","","f","psychophysics","51","294555","0.0-7.0-3.0-0.37","3","2","3","2","1","4","2","5","5","4","4","1","0","1","1","0","1","2","1","5","4","5","5","4","5","4","4","5","4","6","7","5","7","6","5","6","5","6","4","2","3","2","2","1","5","1","5","2","1","4","2","5","3","2","3","6","4","3","2","2","5","2","4","5","6","5","6","6","6","6","5","5","4","3","6","3","6","3","5","798930525371899905","李     ","439","Male","[""坏我"",""好我"",""坏他"",""好他""]","[""弱我"",""强我"",""弱他"",""强他""]","","","","","","","","no","","","","","","","","","SRET","EW_formal","","key","f","16.671724770642143","853.3333333333334","476","自己","混账","Negative","morality","","","","","","","","","","",""
"704","","j","psychophysics","52","296262","0.0-7.0-3.0-0.38","3","2","3","2","1","4","2","5","5","4","4","1","0","1","1","0","1","2","1","5","4","5","5","4","5","4","4","5","4","6","7","5","7","6","5","6","5","6","4","2","3","2","2","1","5","1","5","2","1","4","2","5","3","2","3","6","4","3","2","2","5","2","4","5","6","5","6","6","6","6","5","5","4","3","6","3","6","3","5","798930525371899905","李     ","439","Male","[""坏我"",""好我"",""坏他"",""好他""]","[""弱我"",""强我"",""弱他"",""强他""]","","","","","","","","yes","","","","","","","","","SRET","EW_formal","","key","j","16.67067326732685","853.3333333333334","476","朋友","善心","Positive","morality","","","","","","","","","","",""
"817","","f","psychophysics","53","298081","0.0-7.0-3.0-0.39","3","2","3","2","1","4","2","5","5","4","4","1","0","1","1","0","1","2","1","5","4","5","5","4","5","4","4","5","4","6","7","5","7","6","5","6","5","6","4","2","3","2","2","1","5","1","5","2","1","4","2","5","3","2","3","6","4","3","2","2","5","2","4","5","6","5","6","6","6","6","5","5","4","3","6","3","6","3","5","798930525371899905","李     ","439","Male","[""坏我"",""好我"",""坏他"",""好他""]","[""弱我"",""强我"",""弱他"",""强他""]","","","","","","","","no","","","","","","","","","SRET","EW_formal","","key","f","16.671166666666437","853.3333333333334","476","朋友","淫乱","Negative","morality","","","","","","","","","","",""
"743","","f","psychophysics","54","299830","0.0-7.0-3.0-0.40","3","2","3","2","1","4","2","5","5","4","4","1","0","1","1","0","1","2","1","5","4","5","5","4","5","4","4","5","4","6","7","5","7","6","5","6","5","6","4","2","3","2","2","1","5","1","5","2","1","4","2","5","3","2","3","6","4","3","2","2","5","2","4","5","6","5","6","6","6","6","5","5","4","3","6","3","6","3","5","798930525371899905","李     ","439","Male","[""坏我"",""好我"",""坏他"",""好他""]","[""弱我"",""强我"",""弱他"",""强他""]","","","","","","","","no","","","","","","","","","SRET","EW_formal","","key","f","16.670884615384587","853.3333333333334","476","朋友","迂拙","Negative","ability","","","","","","","","","","",""
"1269","","f","psychophysics","55","302101","0.0-7.0-3.0-0.41","3","2","3","2","1","4","2","5","5","4","4","1","0","1","1","0","1","2","1","5","4","5","5","4","5","4","4","5","4","6","7","5","7","6","5","6","5","6","4","2","3","2","2","1","5","1","5","2","1","4","2","5","3","2","3","6","4","3","2","2","5","2","4","5","6","5","6","6","6","6","5","5","4","3","6","3","6","3","5","798930525371899905","李     ","439","Male","[""坏我"",""好我"",""坏他"",""好他""]","[""弱我"",""强我"",""弱他"",""强他""]","","","","","","","","no","","","","","","","","","SRET","EW_formal","","key","f","16.67135555555535","853.3333333333334","476","朋友","无助","Negative","ability","","","","","","","","","","",""
"852","","j","psychophysics","56","303957","0.0-7.0-3.0-0.42","3","2","3","2","1","4","2","5","5","4","4","1","0","1","1","0","1","2","1","5","4","5","5","4","5","4","4","5","4","6","7","5","7","6","5","6","5","6","4","2","3","2","2","1","5","1","5","2","1","4","2","5","3","2","3","6","4","3","2","2","5","2","4","5","6","5","6","6","6","6","5","5","4","3","6","3","6","3","5","798930525371899905","李     ","439","Male","[""坏我"",""好我"",""坏他"",""好他""]","[""弱我"",""强我"",""弱他"",""强他""]","","","","","","","","yes","","","","","","","","","SRET","EW_formal","","key","j","16.67089189189226","853.3333333333334","476","朋友","善良","Positive","morality","","","","","","","","","","",""
"775","","j","psychophysics","57","305733","0.0-7.0-3.0-0.43","3","2","3","2","1","4","2","5","5","4","4","1","0","1","1","0","1","2","1","5","4","5","5","4","5","4","4","5","4","6","7","5","7","6","5","6","5","6","4","2","3","2","2","1","5","1","5","2","1","4","2","5","3","2","3","6","4","3","2","2","5","2","4","5","6","5","6","6","6","6","5","5","4","3","6","3","6","3","5","798930525371899905","李     ","439","Male","[""坏我"",""好我"",""坏他"",""好他""]","[""弱我"",""强我"",""弱他"",""强他""]","","","","","","","","yes","","","","","","","","","SRET","EW_formal","","key","j","16.671695238095154","853.3333333333334","476","自己","文明","Positive","morality","","","","","","","","","","",""
"795","","f","psychophysics","58","307529","0.0-7.0-3.0-0.44","3","2","3","2","1","4","2","5","5","4","4","1","0","1","1","0","1","2","1","5","4","5","5","4","5","4","4","5","4","6","7","5","7","6","5","6","5","6","4","2","3","2","2","1","5","1","5","2","1","4","2","5","3","2","3","6","4","3","2","2","5","2","4","5","6","5","6","6","6","6","5","5","4","3","6","3","6","3","5","798930525371899905","李     ","439","Male","[""坏我"",""好我"",""坏他"",""好他""]","[""弱我"",""强我"",""弱他"",""强他""]","","","","","","","","no","","","","","","","","","SRET","EW_formal","","key","f","16.670598130841267","853.3333333333334","476","自己","不仁","Negative","morality","","","","","","","","","","",""
"891","","f","psychophysics","59","309421","0.0-7.0-3.0-0.45","3","2","3","2","1","4","2","5","5","4","4","1","0","1","1","0","1","2","1","5","4","5","5","4","5","4","4","5","4","6","7","5","7","6","5","6","5","6","4","2","3","2","2","1","5","1","5","2","1","4","2","5","3","2","3","6","4","3","2","2","5","2","4","5","6","5","6","6","6","6","5","5","4","3","6","3","6","3","5","798930525371899905","李     ","439","Male","[""坏我"",""好我"",""坏他"",""好他""]","[""弱我"",""强我"",""弱他"",""强他""]","","","","","","","","no","","","","","","","","","SRET","EW_formal","","key","f","16.670867256637337","853.3333333333334","476","自己","利己","Negative","morality","","","","","","","","","","",""
"604","","f","psychophysics","60","311025","0.0-7.0-3.0-0.46","3","2","3","2","1","4","2","5","5","4","4","1","0","1","1","0","1","2","1","5","4","5","5","4","5","4","4","5","4","6","7","5","7","6","5","6","5","6","4","2","3","2","2","1","5","1","5","2","1","4","2","5","3","2","3","6","4","3","2","2","5","2","4","5","6","5","6","6","6","6","5","5","4","3","6","3","6","3","5","798930525371899905","李     ","439","Male","[""坏我"",""好我"",""坏他"",""好他""]","[""弱我"",""强我"",""弱他"",""强他""]","","","","","","","","no","","","","","","","","","SRET","EW_formal","","key","f","16.67123157894729","853.3333333333334","476","自己","愚蠢","Negative","ability","","","","","","","","","","",""
"641","","j","psychophysics","61","312668","0.0-7.0-3.0-0.47","3","2","3","2","1","4","2","5","5","4","4","1","0","1","1","0","1","2","1","5","4","5","5","4","5","4","4","5","4","6","7","5","7","6","5","6","5","6","4","2","3","2","2","1","5","1","5","2","1","4","2","5","3","2","3","6","4","3","2","2","5","2","4","5","6","5","6","6","6","6","5","5","4","3","6","3","6","3","5","798930525371899905","李     ","439","Male","[""坏我"",""好我"",""坏他"",""好他""]","[""弱我"",""强我"",""弱他"",""强他""]","","","","","","","","yes","","","","","","","","","SRET","EW_formal","","key","j","16.67139175257732","853.3333333333334","476","自己","好心","Positive","morality","","","","","","","","","","",""
"586","","f","psychophysics","62","314259","0.0-7.0-3.0-0.48","3","2","3","2","1","4","2","5","5","4","4","1","0","1","1","0","1","2","1","5","4","5","5","4","5","4","4","5","4","6","7","5","7","6","5","6","5","6","4","2","3","2","2","1","5","1","5","2","1","4","2","5","3","2","3","6","4","3","2","2","5","2","4","5","6","5","6","6","6","6","5","5","4","3","6","3","6","3","5","798930525371899905","李     ","439","Male","[""坏我"",""好我"",""坏他"",""好他""]","[""弱我"",""强我"",""弱他"",""强他""]","","","","","","","","no","","","","","","","","","SRET","EW_formal","","key","f","16.67131578947393","853.3333333333334","476","自己","罪恶","Negative","morality","","","","","","","","","","",""
"630","","j","psychophysics","63","315892","0.0-7.0-3.0-0.49","3","2","3","2","1","4","2","5","5","4","4","1","0","1","1","0","1","2","1","5","4","5","5","4","5","4","4","5","4","6","7","5","7","6","5","6","5","6","4","2","3","2","2","1","5","1","5","2","1","4","2","5","3","2","3","6","4","3","2","2","5","2","4","5","6","5","6","6","6","6","5","5","4","3","6","3","6","3","5","798930525371899905","李     ","439","Male","[""坏我"",""好我"",""坏他"",""好他""]","[""弱我"",""强我"",""弱他"",""强他""]","","","","","","","","yes","","","","","","","","","SRET","EW_formal","","key","j","16.671082474226516","853.3333333333334","476","自己","仁爱","Positive","morality","","","","","","","","","","",""
"659","","j","psychophysics","64","317555","0.0-7.0-3.0-0.50","3","2","3","2","1","4","2","5","5","4","4","1","0","1","1","0","1","2","1","5","4","5","5","4","5","4","4","5","4","6","7","5","7","6","5","6","5","6","4","2","3","2","2","1","5","1","5","2","1","4","2","5","3","2","3","6","4","3","2","2","5","2","4","5","6","5","6","6","6","6","5","5","4","3","6","3","6","3","5","798930525371899905","李     ","439","Male","[""坏我"",""好我"",""坏他"",""好他""]","[""弱我"",""强我"",""弱他"",""强他""]","","","","","","","","yes","","","","","","","","","SRET","EW_formal","","key","j","16.6705050505051","853.3333333333334","476","朋友","努力","Positive","ability","","","","","","","","","","",""
"572","","j","psychophysics","65","319129","0.0-7.0-3.0-0.51","3","2","3","2","1","4","2","5","5","4","4","1","0","1","1","0","1","2","1","5","4","5","5","4","5","4","4","5","4","6","7","5","7","6","5","6","5","6","4","2","3","2","2","1","5","1","5","2","1","4","2","5","3","2","3","6","4","3","2","2","5","2","4","5","6","5","6","6","6","6","5","5","4","3","6","3","6","3","5","798930525371899905","李     ","439","Male","[""坏我"",""好我"",""坏他"",""好他""]","[""弱我"",""强我"",""弱他"",""强他""]","","","","","","","","yes","","","","","","","","","SRET","EW_formal","","key","j","16.670838709677174","853.3333333333334","476","自己","敏捷","Positive","ability","","","","","","","","","","",""
"861","","f","psychophysics","66","320992","0.0-7.0-3.0-0.52","3","2","3","2","1","4","2","5","5","4","4","1","0","1","1","0","1","2","1","5","4","5","5","4","5","4","4","5","4","6","7","5","7","6","5","6","5","6","4","2","3","2","2","1","5","1","5","2","1","4","2","5","3","2","3","6","4","3","2","2","5","2","4","5","6","5","6","6","6","6","5","5","4","3","6","3","6","3","5","798930525371899905","李     ","439","Male","[""坏我"",""好我"",""坏他"",""好他""]","[""弱我"",""强我"",""弱他"",""强他""]","","","","","","","","no","","","","","","","","","SRET","EW_formal","","key","f","16.67130630630643","853.3333333333334","476","朋友","无能","Negative","ability","","","","","","","","","","",""
"1192","","f","psychophysics","67","323188","0.0-7.0-3.0-0.53","3","2","3","2","1","4","2","5","5","4","4","1","0","1","1","0","1","2","1","5","4","5","5","4","5","4","4","5","4","6","7","5","7","6","5","6","5","6","4","2","3","2","2","1","5","1","5","2","1","4","2","5","3","2","3","6","4","3","2","2","5","2","4","5","6","5","6","6","6","6","5","5","4","3","6","3","6","3","5","798930525371899905","李     ","439","Male","[""坏我"",""好我"",""坏他"",""好他""]","[""弱我"",""强我"",""弱他"",""强他""]","","","","","","","","no","","","","","","","","","SRET","EW_formal","","key","f","16.8005038759691","853.3333333333334","476","自己","畏难","Negative","ability","","","","","","","","","","",""
"728","","j","psychophysics","68","324921","0.0-7.0-3.0-0.54","3","2","3","2","1","4","2","5","5","4","4","1","0","1","1","0","1","2","1","5","4","5","5","4","5","4","4","5","4","6","7","5","7","6","5","6","5","6","4","2","3","2","2","1","5","1","5","2","1","4","2","5","3","2","3","6","4","3","2","2","5","2","4","5","6","5","6","6","6","6","5","5","4","3","6","3","6","3","5","798930525371899905","李     ","439","Male","[""坏我"",""好我"",""坏他"",""好他""]","[""弱我"",""强我"",""弱他"",""强他""]","","","","","","","","yes","","","","","","","","","SRET","EW_formal","","key","j","16.670737864077203","853.3333333333334","476","自己","果决","Positive","ability","","","","","","","","","","",""
"583","","j","psychophysics","69","326505","0.0-7.0-3.0-0.55","3","2","3","2","1","4","2","5","5","4","4","1","0","1","1","0","1","2","1","5","4","5","5","4","5","4","4","5","4","6","7","5","7","6","5","6","5","6","4","2","3","2","2","1","5","1","5","2","1","4","2","5","3","2","3","6","4","3","2","2","5","2","4","5","6","5","6","6","6","6","5","5","4","3","6","3","6","3","5","798930525371899905","李     ","439","Male","[""坏我"",""好我"",""坏他"",""好他""]","[""弱我"",""强我"",""弱他"",""强他""]","","","","","","","","yes","","","","","","","","","SRET","EW_formal","","key","j","16.670510638297777","853.3333333333334","476","朋友","守信","Positive","morality","","","","","","","","","","",""
"599","","f","psychophysics","70","328105","0.0-7.0-3.0-0.56","3","2","3","2","1","4","2","5","5","4","4","1","0","1","1","0","1","2","1","5","4","5","5","4","5","4","4","5","4","6","7","5","7","6","5","6","5","6","4","2","3","2","2","1","5","1","5","2","1","4","2","5","3","2","3","6","4","3","2","2","5","2","4","5","6","5","6","6","6","6","5","5","4","3","6","3","6","3","5","798930525371899905","李     ","439","Male","[""坏我"",""好我"",""坏他"",""好他""]","[""弱我"",""强我"",""弱他"",""强他""]","","","","","","","","no","","","","","","","","","SRET","EW_formal","","key","f","16.671094736842267","853.3333333333334","476","朋友","黑心","Negative","morality","","","","","","","","","","",""
"756","","j","psychophysics","71","329863","0.0-7.0-3.0-0.57","3","2","3","2","1","4","2","5","5","4","4","1","0","1","1","0","1","2","1","5","4","5","5","4","5","4","4","5","4","6","7","5","7","6","5","6","5","6","4","2","3","2","2","1","5","1","5","2","1","4","2","5","3","2","3","6","4","3","2","2","5","2","4","5","6","5","6","6","6","6","5","5","4","3","6","3","6","3","5","798930525371899905","李     ","439","Male","[""坏我"",""好我"",""坏他"",""好他""]","[""弱我"",""强我"",""弱他"",""强他""]","","","","","","","","yes","","","","","","","","","SRET","EW_formal","","key","j","16.671599999999827","853.3333333333334","476","自己","慈悲","Positive","morality","","","","","","","","","","",""
"729","","j","psychophysics","72","331594","0.0-7.0-3.0-0.58","3","2","3","2","1","4","2","5","5","4","4","1","0","1","1","0","1","2","1","5","4","5","5","4","5","4","4","5","4","6","7","5","7","6","5","6","5","6","4","2","3","2","2","1","5","1","5","2","1","4","2","5","3","2","3","6","4","3","2","2","5","2","4","5","6","5","6","6","6","6","5","5","4","3","6","3","6","3","5","798930525371899905","李     ","439","Male","[""坏我"",""好我"",""坏他"",""好他""]","[""弱我"",""强我"",""弱他"",""强他""]","","","","","","","","yes","","","","","","","","","SRET","EW_formal","","key","j","16.670776699029375","853.3333333333334","476","朋友","慷慨","Positive","morality","","","","","","","","","","",""
"726","","f","psychophysics","73","333323","0.0-7.0-3.0-0.59","3","2","3","2","1","4","2","5","5","4","4","1","0","1","1","0","1","2","1","5","4","5","5","4","5","4","4","5","4","6","7","5","7","6","5","6","5","6","4","2","3","2","2","1","5","1","5","2","1","4","2","5","3","2","3","6","4","3","2","2","5","2","4","5","6","5","6","6","6","6","5","5","4","3","6","3","6","3","5","798930525371899905","李     ","439","Male","[""坏我"",""好我"",""坏他"",""好他""]","[""弱我"",""强我"",""弱他"",""强他""]","","","","","","","","no","","","","","","","","","SRET","EW_formal","","key","f","16.670549019607922","853.3333333333334","476","朋友","逞能","Negative","ability","","","","","","","","","","",""
"665","","f","psychophysics","74","334989","0.0-7.0-3.0-0.60","3","2","3","2","1","4","2","5","5","4","4","1","0","1","1","0","1","2","1","5","4","5","5","4","5","4","4","5","4","6","7","5","7","6","5","6","5","6","4","2","3","2","2","1","5","1","5","2","1","4","2","5","3","2","3","6","4","3","2","2","5","2","4","5","6","5","6","6","6","6","5","5","4","3","6","3","6","3","5","798930525371899905","李     ","439","Male","[""坏我"",""好我"",""坏他"",""好他""]","[""弱我"",""强我"",""弱他"",""强他""]","","","","","","","","no","","","","","","","","","SRET","EW_formal","","key","f","16.67051515151568","853.3333333333334","476","朋友","迟钝","Negative","ability","","","","","","","","","","",""
"743","","f","psychophysics","75","336733","0.0-7.0-3.0-0.61","3","2","3","2","1","4","2","5","5","4","4","1","0","1","1","0","1","2","1","5","4","5","5","4","5","4","4","5","4","6","7","5","7","6","5","6","5","6","4","2","3","2","2","1","5","1","5","2","1","4","2","5","3","2","3","6","4","3","2","2","5","2","4","5","6","5","6","6","6","6","5","5","4","3","6","3","6","3","5","798930525371899905","李     ","439","Male","[""坏我"",""好我"",""坏他"",""好他""]","[""弱我"",""强我"",""弱他"",""强他""]","","","","","","","","no","","","","","","","","","SRET","EW_formal","","key","f","16.671038461538465","853.3333333333334","476","朋友","不孝","Negative","morality","","","","","","","","","","",""
"652","","j","psychophysics","76","338386","0.0-7.0-3.0-0.62","3","2","3","2","1","4","2","5","5","4","4","1","0","1","1","0","1","2","1","5","4","5","5","4","5","4","4","5","4","6","7","5","7","6","5","6","5","6","4","2","3","2","2","1","5","1","5","2","1","4","2","5","3","2","3","6","4","3","2","2","5","2","4","5","6","5","6","6","6","6","5","5","4","3","6","3","6","3","5","798930525371899905","李     ","439","Male","[""坏我"",""好我"",""坏他"",""好他""]","[""弱我"",""强我"",""弱他"",""强他""]","","","","","","","","yes","","","","","","","","","SRET","EW_formal","","key","j","16.671948979592084","853.3333333333334","476","朋友","变通","Positive","ability","","","","","","","","","","",""
"853","","f","psychophysics","77","340241","0.0-7.0-3.0-0.63","3","2","3","2","1","4","2","5","5","4","4","1","0","1","1","0","1","2","1","5","4","5","5","4","5","4","4","5","4","6","7","5","7","6","5","6","5","6","4","2","3","2","2","1","5","1","5","2","1","4","2","5","3","2","3","6","4","3","2","2","5","2","4","5","6","5","6","6","6","6","5","5","4","3","6","3","6","3","5","798930525371899905","李     ","439","Male","[""坏我"",""好我"",""坏他"",""好他""]","[""弱我"",""强我"",""弱他"",""强他""]","","","","","","","","no","","","","","","","","","SRET","EW_formal","","key","f","16.671381818181942","853.3333333333334","476","自己","学霸","Positive","ability","","","","","","","","","","",""
"959","","f","psychophysics","78","342202","0.0-7.0-3.0-0.64","3","2","3","2","1","4","2","5","5","4","4","1","0","1","1","0","1","2","1","5","4","5","5","4","5","4","4","5","4","6","7","5","7","6","5","6","5","6","4","2","3","2","2","1","5","1","5","2","1","4","2","5","3","2","3","6","4","3","2","2","5","2","4","5","6","5","6","6","6","6","5","5","4","3","6","3","6","3","5","798930525371899905","李     ","439","Male","[""坏我"",""好我"",""坏他"",""好他""]","[""弱我"",""强我"",""弱他"",""强他""]","","","","","","","","no","","","","","","","","","SRET","EW_formal","","key","f","16.670999999999857","853.3333333333334","476","朋友","骁勇","Positive","ability","","","","","","","","","","",""
"559","","j","psychophysics","79","343764","0.0-7.0-3.0-0.65","3","2","3","2","1","4","2","5","5","4","4","1","0","1","1","0","1","2","1","5","4","5","5","4","5","4","4","5","4","6","7","5","7","6","5","6","5","6","4","2","3","2","2","1","5","1","5","2","1","4","2","5","3","2","3","6","4","3","2","2","5","2","4","5","6","5","6","6","6","6","5","5","4","3","6","3","6","3","5","798930525371899905","李     ","439","Male","[""坏我"",""好我"",""坏他"",""好他""]","[""弱我"",""强我"",""弱他"",""强他""]","","","","","","","","yes","","","","","","","","","SRET","EW_formal","","key","j","16.670193548386877","853.3333333333334","476","自己","顶事","Positive","ability","","","","","","","","","","",""
"803","","j","psychophysics","80","345568","0.0-7.0-3.0-0.66","3","2","3","2","1","4","2","5","5","4","4","1","0","1","1","0","1","2","1","5","4","5","5","4","5","4","4","5","4","6","7","5","7","6","5","6","5","6","4","2","3","2","2","1","5","1","5","2","1","4","2","5","3","2","3","6","4","3","2","2","5","2","4","5","6","5","6","6","6","6","5","5","4","3","6","3","6","3","5","798930525371899905","李     ","439","Male","[""坏我"",""好我"",""坏他"",""好他""]","[""弱我"",""强我"",""弱他"",""强他""]","","","","","","","","yes","","","","","","","","","SRET","EW_formal","","key","j","16.670738317757284","853.3333333333334","476","朋友","聪明","Positive","ability","","","","","","","","","","",""
"662","","j","psychophysics","81","347231","0.0-7.0-3.0-0.67","3","2","3","2","1","4","2","5","5","4","4","1","0","1","1","0","1","2","1","5","4","5","5","4","5","4","4","5","4","6","7","5","7","6","5","6","5","6","4","2","3","2","2","1","5","1","5","2","1","4","2","5","3","2","3","6","4","3","2","2","5","2","4","5","6","5","6","6","6","6","5","5","4","3","6","3","6","3","5","798930525371899905","李     ","439","Male","[""坏我"",""好我"",""坏他"",""好他""]","[""弱我"",""强我"",""弱他"",""强他""]","","","","","","","","yes","","","","","","","","","SRET","EW_formal","","key","j","16.671313131312754","853.3333333333334","476","自己","细心","Positive","ability","","","","","","","","","","",""
"651","","j","psychophysics","82","348883","0.0-7.0-3.0-0.68","3","2","3","2","1","4","2","5","5","4","4","1","0","1","1","0","1","2","1","5","4","5","5","4","5","4","4","5","4","6","7","5","7","6","5","6","5","6","4","2","3","2","2","1","5","1","5","2","1","4","2","5","3","2","3","6","4","3","2","2","5","2","4","5","6","5","6","6","6","6","5","5","4","3","6","3","6","3","5","798930525371899905","李     ","439","Male","[""坏我"",""好我"",""坏他"",""好他""]","[""弱我"",""强我"",""弱他"",""强他""]","","","","","","","","yes","","","","","","","","","SRET","EW_formal","","key","j","16.671295918367463","853.3333333333334","476","朋友","清廉","Positive","morality","","","","","","","","","","",""
"684","","f","psychophysics","83","350570","0.0-7.0-3.0-0.69","3","2","3","2","1","4","2","5","5","4","4","1","0","1","1","0","1","2","1","5","4","5","5","4","5","4","4","5","4","6","7","5","7","6","5","6","5","6","4","2","3","2","2","1","5","1","5","2","1","4","2","5","3","2","3","6","4","3","2","2","5","2","4","5","6","5","6","6","6","6","5","5","4","3","6","3","6","3","5","798930525371899905","李     ","439","Male","[""坏我"",""好我"",""坏他"",""好他""]","[""弱我"",""强我"",""弱他"",""强他""]","","","","","","","","no","","","","","","","","","SRET","EW_formal","","key","f","16.671329999999724","853.3333333333334","476","自己","自私","Negative","morality","","","","","","","","","","",""
"747","","j","psychophysics","84","352319","0.0-7.0-3.0-0.70","3","2","3","2","1","4","2","5","5","4","4","1","0","1","1","0","1","2","1","5","4","5","5","4","5","4","4","5","4","6","7","5","7","6","5","6","5","6","4","2","3","2","2","1","5","1","5","2","1","4","2","5","3","2","3","6","4","3","2","2","5","2","4","5","6","5","6","6","6","6","5","5","4","3","6","3","6","3","5","798930525371899905","李     ","439","Male","[""坏我"",""好我"",""坏他"",""好他""]","[""弱我"",""强我"",""弱他"",""强他""]","","","","","","","","yes","","","","","","","","","SRET","EW_formal","","key","j","16.67080769230737","853.3333333333334","476","自己","热心","Positive","morality","","","","","","","","","","",""
"659","","f","psychophysics","85","353980","0.0-7.0-3.0-0.71","3","2","3","2","1","4","2","5","5","4","4","1","0","1","1","0","1","2","1","5","4","5","5","4","5","4","4","5","4","6","7","5","7","6","5","6","5","6","4","2","3","2","2","1","5","1","5","2","1","4","2","5","3","2","3","6","4","3","2","2","5","2","4","5","6","5","6","6","6","6","5","5","4","3","6","3","6","3","5","798930525371899905","李     ","439","Male","[""坏我"",""好我"",""坏他"",""好他""]","[""弱我"",""强我"",""弱他"",""强他""]","","","","","","","","no","","","","","","","","","SRET","EW_formal","","key","f","16.671255102040774","853.3333333333334","476","自己","虚伪","Negative","morality","","","","","","","","","","",""
"768","","j","psychophysics","86","355755","0.0-7.0-3.0-0.72","3","2","3","2","1","4","2","5","5","4","4","1","0","1","1","0","1","2","1","5","4","5","5","4","5","4","4","5","4","6","7","5","7","6","5","6","5","6","4","2","3","2","2","1","5","1","5","2","1","4","2","5","3","2","3","6","4","3","2","2","5","2","4","5","6","5","6","6","6","6","5","5","4","3","6","3","6","3","5","798930525371899905","李     ","439","Male","[""坏我"",""好我"",""坏他"",""好他""]","[""弱我"",""强我"",""弱他"",""强他""]","","","","","","","","yes","","","","","","","","","SRET","EW_formal","","key","j","16.670990566037737","853.3333333333334","476","自己","浅薄","Negative","ability","","","","","","","","","","",""
"1018","","j","psychophysics","87","357775","0.0-7.0-3.0-0.73","3","2","3","2","1","4","2","5","5","4","4","1","0","1","1","0","1","2","1","5","4","5","5","4","5","4","4","5","4","6","7","5","7","6","5","6","5","6","4","2","3","2","2","1","5","1","5","2","1","4","2","5","3","2","3","6","4","3","2","2","5","2","4","5","6","5","6","6","6","6","5","5","4","3","6","3","6","3","5","798930525371899905","李     ","439","Male","[""坏我"",""好我"",""坏他"",""好他""]","[""弱我"",""强我"",""弱他"",""强他""]","","","","","","","","yes","","","","","","","","","SRET","EW_formal","","key","j","16.67097500000042","853.3333333333334","476","朋友","正气","Positive","morality","","","","","","","","","","",""
"681","","j","psychophysics","88","359458","0.0-7.0-3.0-0.74","3","2","3","2","1","4","2","5","5","4","4","1","0","1","1","0","1","2","1","5","4","5","5","4","5","4","4","5","4","6","7","5","7","6","5","6","5","6","4","2","3","2","2","1","5","1","5","2","1","4","2","5","3","2","3","6","4","3","2","2","5","2","4","5","6","5","6","6","6","6","5","5","4","3","6","3","6","3","5","798930525371899905","李     ","439","Male","[""坏我"",""好我"",""坏他"",""好他""]","[""弱我"",""强我"",""弱他"",""强他""]","","","","","","","","yes","","","","","","","","","SRET","EW_formal","","key","j","16.671119999999647","853.3333333333334","476","朋友","仁厚","Positive","morality","","","","","","","","","","",""
"864","","f","psychophysics","89","361323","0.0-7.0-3.0-0.75","3","2","3","2","1","4","2","5","5","4","4","1","0","1","1","0","1","2","1","5","4","5","5","4","5","4","4","5","4","6","7","5","7","6","5","6","5","6","4","2","3","2","2","1","5","1","5","2","1","4","2","5","3","2","3","6","4","3","2","2","5","2","4","5","6","5","6","6","6","6","5","5","4","3","6","3","6","3","5","798930525371899905","李     ","439","Male","[""坏我"",""好我"",""坏他"",""好他""]","[""弱我"",""强我"",""弱他"",""强他""]","","","","","","","","no","","","","","","","","","SRET","EW_formal","","key","f","16.67105405405426","853.3333333333334","476","朋友","无知","Negative","ability","","","","","","","","","","",""
"913","","f","psychophysics","90","363238","0.0-7.0-3.0-0.76","3","2","3","2","1","4","2","5","5","4","4","1","0","1","1","0","1","2","1","5","4","5","5","4","5","4","4","5","4","6","7","5","7","6","5","6","5","6","4","2","3","2","2","1","5","1","5","2","1","4","2","5","3","2","3","6","4","3","2","2","5","2","4","5","6","5","6","6","6","6","5","5","4","3","6","3","6","3","5","798930525371899905","李     ","439","Male","[""坏我"",""好我"",""坏他"",""好他""]","[""弱我"",""强我"",""弱他"",""强他""]","","","","","","","","no","","","","","","","","","SRET","EW_formal","","key","f","16.67086842105256","853.3333333333334","476","朋友","失信","Negative","morality","","","","","","","","","","",""
"851","","f","psychophysics","91","365091","0.0-7.0-3.0-0.77","3","2","3","2","1","4","2","5","5","4","4","1","0","1","1","0","1","2","1","5","4","5","5","4","5","4","4","5","4","6","7","5","7","6","5","6","5","6","4","2","3","2","2","1","5","1","5","2","1","4","2","5","3","2","3","6","4","3","2","2","5","2","4","5","6","5","6","6","6","6","5","5","4","3","6","3","6","3","5","798930525371899905","李     ","439","Male","[""坏我"",""好我"",""坏他"",""好他""]","[""弱我"",""强我"",""弱他"",""强他""]","","","","","","","","no","","","","","","","","","SRET","EW_formal","","key","f","16.67142727272744","853.3333333333334","476","朋友","废物","Negative","ability","","","","","","","","","","",""
"900","","f","psychophysics","92","366993","0.0-7.0-3.0-0.78","3","2","3","2","1","4","2","5","5","4","4","1","0","1","1","0","1","2","1","5","4","5","5","4","5","4","4","5","4","6","7","5","7","6","5","6","5","6","4","2","3","2","2","1","5","1","5","2","1","4","2","5","3","2","3","6","4","3","2","2","5","2","4","5","6","5","6","6","6","6","5","5","4","3","6","3","6","3","5","798930525371899905","李     ","439","Male","[""坏我"",""好我"",""坏他"",""好他""]","[""弱我"",""强我"",""弱他"",""强他""]","","","","","","","","no","","","","","","","","","SRET","EW_formal","","key","f","16.67084955752197","853.3333333333334","476","朋友","歹毒","Negative","morality","","","","","","","","","","",""
"767","","f","psychophysics","93","368763","0.0-7.0-3.0-0.79","3","2","3","2","1","4","2","5","5","4","4","1","0","1","1","0","1","2","1","5","4","5","5","4","5","4","4","5","4","6","7","5","7","6","5","6","5","6","4","2","3","2","2","1","5","1","5","2","1","4","2","5","3","2","3","6","4","3","2","2","5","2","4","5","6","5","6","6","6","6","5","5","4","3","6","3","6","3","5","798930525371899905","李     ","439","Male","[""坏我"",""好我"",""坏他"",""好他""]","[""弱我"",""强我"",""弱他"",""强他""]","","","","","","","","no","","","","","","","","","SRET","EW_formal","","key","f","16.67162857142865","853.3333333333334","476","自己","窝囊","Negative","ability","","","","","","","","","","",""
"843","","f","psychophysics","94","370607","0.0-7.0-3.0-0.80","3","2","3","2","1","4","2","5","5","4","4","1","0","1","1","0","1","2","1","5","4","5","5","4","5","4","4","5","4","6","7","5","7","6","5","6","5","6","4","2","3","2","2","1","5","1","5","2","1","4","2","5","3","2","3","6","4","3","2","2","5","2","4","5","6","5","6","6","6","6","5","5","4","3","6","3","6","3","5","798930525371899905","李     ","439","Male","[""坏我"",""好我"",""坏他"",""好他""]","[""弱我"",""强我"",""弱他"",""强他""]","","","","","","","","no","","","","","","","","","SRET","EW_formal","","key","f","16.671081818181978","853.3333333333334","476","自己","伪善","Negative","morality","","","","","","","","","","",""
"1007","","j","psychophysics","95","372617","0.0-7.0-3.0-0.81","3","2","3","2","1","4","2","5","5","4","4","1","0","1","1","0","1","2","1","5","4","5","5","4","5","4","4","5","4","6","7","5","7","6","5","6","5","6","4","2","3","2","2","1","5","1","5","2","1","4","2","5","3","2","3","6","4","3","2","2","5","2","4","5","6","5","6","6","6","6","5","5","4","3","6","3","6","3","5","798930525371899905","李     ","439","Male","[""坏我"",""好我"",""坏他"",""好他""]","[""弱我"",""强我"",""弱他"",""强他""]","","","","","","","","yes","","","","","","","","","SRET","EW_formal","","key","j","16.67058823529402","853.3333333333334","476","自己","逞强","Negative","ability","","","","","","","","","","",""
"657","","f","psychophysics","96","374276","0.0-7.0-3.0-0.82","3","2","3","2","1","4","2","5","5","4","4","1","0","1","1","0","1","2","1","5","4","5","5","4","5","4","4","5","4","6","7","5","7","6","5","6","5","6","4","2","3","2","2","1","5","1","5","2","1","4","2","5","3","2","3","6","4","3","2","2","5","2","4","5","6","5","6","6","6","6","5","5","4","3","6","3","6","3","5","798930525371899905","李     ","439","Male","[""坏我"",""好我"",""坏他"",""好他""]","[""弱我"",""强我"",""弱他"",""强他""]","","","","","","","","no","","","","","","","","","SRET","EW_formal","","key","f","16.67151515151555","853.3333333333334","476","自己","新手","Negative","ability","","","","","","","","","","",""
"684","","j","psychophysics","97","375962","0.0-7.0-3.0-0.83","3","2","3","2","1","4","2","5","5","4","4","1","0","1","1","0","1","2","1","5","4","5","5","4","5","4","4","5","4","6","7","5","7","6","5","6","5","6","4","2","3","2","2","1","5","1","5","2","1","4","2","5","3","2","3","6","4","3","2","2","5","2","4","5","6","5","6","6","6","6","5","5","4","3","6","3","6","3","5","798930525371899905","李     ","439","Male","[""坏我"",""好我"",""坏他"",""好他""]","[""弱我"",""强我"",""弱他"",""强他""]","","","","","","","","yes","","","","","","","","","SRET","EW_formal","","key","j","16.670810000000056","853.3333333333334","476","朋友","忠义","Positive","morality","","","","","","","","","","",""
"777","","f","psychophysics","98","377742","0.0-7.0-3.0-0.84","3","2","3","2","1","4","2","5","5","4","4","1","0","1","1","0","1","2","1","5","4","5","5","4","5","4","4","5","4","6","7","5","7","6","5","6","5","6","4","2","3","2","2","1","5","1","5","2","1","4","2","5","3","2","3","6","4","3","2","2","5","2","4","5","6","5","6","6","6","6","5","5","4","3","6","3","6","3","5","798930525371899905","李     ","439","Male","[""坏我"",""好我"",""坏他"",""好他""]","[""弱我"",""强我"",""弱他"",""强他""]","","","","","","","","no","","","","","","","","","SRET","EW_formal","","key","f","16.67087735849068","853.3333333333334","476","自己","主见","Positive","ability","","","","","","","","","","",""
"738","","j","psychophysics","99","379483","0.0-7.0-3.0-0.85","3","2","3","2","1","4","2","5","5","4","4","1","0","1","1","0","1","2","1","5","4","5","5","4","5","4","4","5","4","6","7","5","7","6","5","6","5","6","4","2","3","2","2","1","5","1","5","2","1","4","2","5","3","2","3","6","4","3","2","2","5","2","4","5","6","5","6","6","6","6","5","5","4","3","6","3","6","3","5","798930525371899905","李     ","439","Male","[""坏我"",""好我"",""坏他"",""好他""]","[""弱我"",""强我"",""弱他"",""强他""]","","","","","","","","yes","","","","","","","","","SRET","EW_formal","","key","j","16.671058252427244","853.3333333333334","476","朋友","素养","Positive","morality","","","","","","","","","","",""
"634","","f","psychophysics","100","381118","0.0-7.0-3.0-0.86","3","2","3","2","1","4","2","5","5","4","4","1","0","1","1","0","1","2","1","5","4","5","5","4","5","4","4","5","4","6","7","5","7","6","5","6","5","6","4","2","3","2","2","1","5","1","5","2","1","4","2","5","3","2","3","6","4","3","2","2","5","2","4","5","6","5","6","6","6","6","5","5","4","3","6","3","6","3","5","798930525371899905","李     ","439","Male","[""坏我"",""好我"",""坏他"",""好他""]","[""弱我"",""强我"",""弱他"",""强他""]","","","","","","","","no","","","","","","","","","SRET","EW_formal","","key","f","16.671845360824683","853.3333333333334","476","朋友","低俗","Negative","morality","","","","","","","","","","",""
"788","","f","psychophysics","101","382908","0.0-7.0-3.0-0.87","3","2","3","2","1","4","2","5","5","4","4","1","0","1","1","0","1","2","1","5","4","5","5","4","5","4","4","5","4","6","7","5","7","6","5","6","5","6","4","2","3","2","2","1","5","1","5","2","1","4","2","5","3","2","3","6","4","3","2","2","5","2","4","5","6","5","6","6","6","6","5","5","4","3","6","3","6","3","5","798930525371899905","李     ","439","Male","[""坏我"",""好我"",""坏他"",""好他""]","[""弱我"",""强我"",""弱他"",""强他""]","","","","","","","","no","","","","","","","","","SRET","EW_formal","","key","f","16.671158878504794","853.3333333333334","476","自己","缓慢","Negative","ability","","","","","","","","","","",""
"7570","
    <p><div style='color:white;font-size:35px; line-height:20px;'>计算任务</div></p><br>
    <p><div style='color:red;font-size:25px; line-height:20px;'>接下来，您将看到一些四则运算题，<b>请从键盘选择 0-9 进行反应。</b></div></p>
    <p><div style='color:red;font-size:25px; line-height:20px;'>请尽可能快地进行计算，计算的速度和正确率将影响报酬的发放。</div></p>
    <p><div class='footer' style='color:white;font-size:25px; line-height:20px;'>如果对本实验还有不清楚之处，请立即向实验员咨询。</p><p style='color:white;font-size:25px; line-height:20px;'>如果您明白了规则：</p><p style='color:white;font-size:22px; line-height:20px;'>请按 继续 进入练习</p>
    </div>
    ","0","html-button-response","102","390480","0.0-7.0-4.0","3","2","3","2","1","4","2","5","5","4","4","1","0","1","1","0","1","2","1","5","4","5","5","4","5","4","4","5","4","6","7","5","7","6","5","6","5","6","4","2","3","2","2","1","5","1","5","2","1","4","2","5","3","2","3","6","4","3","2","2","5","2","4","5","6","5","6","6","6","6","5","5","4","3","6","3","6","3","5","798930525371899905","李     ","439","Male","[""坏我"",""好我"",""坏他"",""好他""]","[""弱我"",""强我"",""弱他"",""强他""]","","","","","","","","","","","","","","","","","SRET_math","math_instructions","Sat Jan 20 2024 20:29:16 GMT+0800 (中国标准时间)","","","","","","","","","","","","","","","","","","","",""
"1791","","2","psychophysics","103","392279","0.0-7.0-5.0-0.0","3","2","3","2","1","4","2","5","5","4","4","1","0","1","1","0","1","2","1","5","4","5","5","4","5","4","4","5","4","6","7","5","7","6","5","6","5","6","4","2","3","2","2","1","5","1","5","2","1","4","2","5","3","2","3","6","4","3","2","2","5","2","4","5","6","5","6","6","6","6","5","5","4","3","6","3","6","3","5","798930525371899905","李     ","439","Male","[""坏我"",""好我"",""坏他"",""好他""]","[""弱我"",""强我"",""弱他"",""强他""]","","","","","","","","2","","","","","","","","","SRET","SRET_math_calculate","","key","2","16.672222222222008","853.3333333333334","476","","","","","8-6= ?","2","1","","","","","","","",""
"1872","","8","psychophysics","104","394153","0.0-7.0-5.0-0.1","3","2","3","2","1","4","2","5","5","4","4","1","0","1","1","0","1","2","1","5","4","5","5","4","5","4","4","5","4","6","7","5","7","6","5","6","5","6","4","2","3","2","2","1","5","1","5","2","1","4","2","5","3","2","3","6","4","3","2","2","5","2","4","5","6","5","6","6","6","6","5","5","4","3","6","3","6","3","5","798930525371899905","李     ","439","Male","[""坏我"",""好我"",""坏他"",""好他""]","[""弱我"",""强我"",""弱他"",""强他""]","","","","","","","","8","","","","","","","","","SRET","SRET_math_calculate","","key","8","16.67158558558534","853.3333333333334","476","","","","","2+6= ?","8","1","","","","","","","",""
"1849","","7","psychophysics","105","396005","0.0-7.0-5.0-0.2","3","2","3","2","1","4","2","5","5","4","4","1","0","1","1","0","1","2","1","5","4","5","5","4","5","4","4","5","4","6","7","5","7","6","5","6","5","6","4","2","3","2","2","1","5","1","5","2","1","4","2","5","3","2","3","6","4","3","2","2","5","2","4","5","6","5","6","6","6","6","5","5","4","3","6","3","6","3","5","798930525371899905","李     ","439","Male","[""坏我"",""好我"",""坏他"",""好他""]","[""弱我"",""强我"",""弱他"",""强他""]","","","","","","","","7","","","","","","","","","SRET","SRET_math_calculate","","key","7","16.671281818181953","853.3333333333334","476","","","","","9-2= ?","7","1","","","","","","","",""
"1639","","9","psychophysics","106","397647","0.0-7.0-5.0-0.3","3","2","3","2","1","4","2","5","5","4","4","1","0","1","1","0","1","2","1","5","4","5","5","4","5","4","4","5","4","6","7","5","7","6","5","6","5","6","4","2","3","2","2","1","5","1","5","2","1","4","2","5","3","2","3","6","4","3","2","2","5","2","4","5","6","5","6","6","6","6","5","5","4","3","6","3","6","3","5","798930525371899905","李     ","439","Male","[""坏我"",""好我"",""坏他"",""好他""]","[""弱我"",""强我"",""弱他"",""强他""]","","","","","","","","9","","","","","","","","","SRET","SRET_math_calculate","","key","9","16.670459183673636","853.3333333333334","476","","","","","8+1= ?","9","1","","","","","","","",""
"1856","","8","psychophysics","107","399505","0.0-7.0-5.0-0.4","3","2","3","2","1","4","2","5","5","4","4","1","0","1","1","0","1","2","1","5","4","5","5","4","5","4","4","5","4","6","7","5","7","6","5","6","5","6","4","2","3","2","2","1","5","1","5","2","1","4","2","5","3","2","3","6","4","3","2","2","5","2","4","5","6","5","6","6","6","6","5","5","4","3","6","3","6","3","5","798930525371899905","李     ","439","Male","[""坏我"",""好我"",""坏他"",""好他""]","[""弱我"",""强我"",""弱他"",""强他""]","","","","","","","","8","","","","","","","","","SRET","SRET_math_calculate","","key","8","16.671363636363953","853.3333333333334","476","","","","","2*4= ?","8","1","","","","","","","",""
"1767","","3","psychophysics","108","401275","0.0-7.0-5.0-0.5","3","2","3","2","1","4","2","5","5","4","4","1","0","1","1","0","1","2","1","5","4","5","5","4","5","4","4","5","4","6","7","5","7","6","5","6","5","6","4","2","3","2","2","1","5","1","5","2","1","4","2","5","3","2","3","6","4","3","2","2","5","2","4","5","6","5","6","6","6","6","5","5","4","3","6","3","6","3","5","798930525371899905","李     ","439","Male","[""坏我"",""好我"",""坏他"",""好他""]","[""弱我"",""强我"",""弱他"",""强他""]","","","","","","","","3","","","","","","","","","SRET","SRET_math_calculate","","key","3","16.670876190476562","853.3333333333334","476","","","","","3+0= ?","3","1","","","","","","","",""
"1796","","9","psychophysics","109","403081","0.0-7.0-5.0-0.6","3","2","3","2","1","4","2","5","5","4","4","1","0","1","1","0","1","2","1","5","4","5","5","4","5","4","4","5","4","6","7","5","7","6","5","6","5","6","4","2","3","2","2","1","5","1","5","2","1","4","2","5","3","2","3","6","4","3","2","2","5","2","4","5","6","5","6","6","6","6","5","5","4","3","6","3","6","3","5","798930525371899905","李     ","439","Male","[""坏我"",""好我"",""坏他"",""好他""]","[""弱我"",""强我"",""弱他"",""强他""]","","","","","","","","9","","","","","","","","","SRET","SRET_math_calculate","","key","9","16.671212962962777","853.3333333333334","476","","","","","81/9= ?","9","1","","","","","","","",""
"1831","","2","psychophysics","110","404921","0.0-7.0-5.0-0.7","3","2","3","2","1","4","2","5","5","4","4","1","0","1","1","0","1","2","1","5","4","5","5","4","5","4","4","5","4","6","7","5","7","6","5","6","5","6","4","2","3","2","2","1","5","1","5","2","1","4","2","5","3","2","3","6","4","3","2","2","5","2","4","5","6","5","6","6","6","6","5","5","4","3","6","3","6","3","5","798930525371899905","李     ","439","Male","[""坏我"",""好我"",""坏他"",""好他""]","[""弱我"",""强我"",""弱他"",""强他""]","","","","","","","","2","","","","","","","","","SRET","SRET_math_calculate","","key","2","16.693348623853318","853.3333333333334","476","","","","","1+1= ?","2","1","","","","","","","",""
"1793","","3","psychophysics","111","406717","0.0-7.0-5.0-0.8","3","2","3","2","1","4","2","5","5","4","4","1","0","1","1","0","1","2","1","5","4","5","5","4","5","4","4","5","4","6","7","5","7","6","5","6","5","6","4","2","3","2","2","1","5","1","5","2","1","4","2","5","3","2","3","6","4","3","2","2","5","2","4","5","6","5","6","6","6","6","5","5","4","3","6","3","6","3","5","798930525371899905","李     ","439","Male","[""坏我"",""好我"",""坏他"",""好他""]","[""弱我"",""强我"",""弱他"",""强他""]","","","","","","","","3","","","","","","","","","SRET","SRET_math_calculate","","key","3","16.77167924528311","853.3333333333334","476","","","","","2+1= ?","3","1","","","","","","","",""
"1882","","0","psychophysics","112","408603","0.0-7.0-5.0-0.9","3","2","3","2","1","4","2","5","5","4","4","1","0","1","1","0","1","2","1","5","4","5","5","4","5","4","4","5","4","6","7","5","7","6","5","6","5","6","4","2","3","2","2","1","5","1","5","2","1","4","2","5","3","2","3","6","4","3","2","2","5","2","4","5","6","5","6","6","6","6","5","5","4","3","6","3","6","3","5","798930525371899905","李     ","439","Male","[""坏我"",""好我"",""坏他"",""好他""]","[""弱我"",""强我"",""弱他"",""强他""]","","","","","","","","0","","","","","","","","","SRET","SRET_math_calculate","","key","0","16.70238392857157","853.3333333333334","476","","","","","5*0= ?","0","1","","","","","","","",""
"1733","","0","psychophysics","113","410340","0.0-7.0-5.0-0.10","3","2","3","2","1","4","2","5","5","4","4","1","0","1","1","0","1","2","1","5","4","5","5","4","5","4","4","5","4","6","7","5","7","6","5","6","5","6","4","2","3","2","2","1","5","1","5","2","1","4","2","5","3","2","3","6","4","3","2","2","5","2","4","5","6","5","6","6","6","6","5","5","4","3","6","3","6","3","5","798930525371899905","李     ","439","Male","[""坏我"",""好我"",""坏他"",""好他""]","[""弱我"",""强我"",""弱他"",""强他""]","","","","","","","","0","","","","","","","","","SRET","SRET_math_calculate","","key","0","16.65136893203898","853.3333333333334","476","","","","","1-1= ?","0","1","","","","","","","",""
"1844","","6","psychophysics","114","412186","0.0-7.0-5.0-0.11","3","2","3","2","1","4","2","5","5","4","4","1","0","1","1","0","1","2","1","5","4","5","5","4","5","4","4","5","4","6","7","5","7","6","5","6","5","6","4","2","3","2","2","1","5","1","5","2","1","4","2","5","3","2","3","6","4","3","2","2","5","2","4","5","6","5","6","6","6","6","5","5","4","3","6","3","6","3","5","798930525371899905","李     ","439","Male","[""坏我"",""好我"",""坏他"",""好他""]","[""弱我"",""强我"",""弱他"",""强他""]","","","","","","","","6","","","","","","","","","SRET","SRET_math_calculate","","key","6","16.67030909090906","853.3333333333334","476","","","","","11-5= ?","6","1","","","","","","","",""
"1773","","7","psychophysics","115","413963","0.0-7.0-5.0-0.12","3","2","3","2","1","4","2","5","5","4","4","1","0","1","1","0","1","2","1","5","4","5","5","4","5","4","4","5","4","6","7","5","7","6","5","6","5","6","4","2","3","2","2","1","5","1","5","2","1","4","2","5","3","2","3","6","4","3","2","2","5","2","4","5","6","5","6","6","6","6","5","5","4","3","6","3","6","3","5","798930525371899905","李     ","439","Male","[""坏我"",""好我"",""坏他"",""好他""]","[""弱我"",""强我"",""弱他"",""强他""]","","","","","","","","7","","","","","","","","","SRET","SRET_math_calculate","","key","7","16.674466666666834","853.3333333333334","476","","","","","2+5= ?","7","1","","","","","","","",""
"1916","","2","psychophysics","116","415886","0.0-7.0-5.0-0.13","3","2","3","2","1","4","2","5","5","4","4","1","0","1","1","0","1","2","1","5","4","5","5","4","5","4","4","5","4","6","7","5","7","6","5","6","5","6","4","2","3","2","2","1","5","1","5","2","1","4","2","5","3","2","3","6","4","3","2","2","5","2","4","5","6","5","6","6","6","6","5","5","4","3","6","3","6","3","5","798930525371899905","李     ","439","Male","[""坏我"",""好我"",""坏他"",""好他""]","[""弱我"",""强我"",""弱他"",""强他""]","","","","","","","","2","","","","","","","","","SRET","SRET_math_calculate","","key","2","16.667139130434954","853.3333333333334","476","","","","","18/9= ?","2","1","","","","","","","",""
"1653","","9","psychophysics","117","417542","0.0-7.0-5.0-0.14","3","2","3","2","1","4","2","5","5","4","4","1","0","1","1","0","1","2","1","5","4","5","5","4","5","4","4","5","4","6","7","5","7","6","5","6","5","6","4","2","3","2","2","1","5","1","5","2","1","4","2","5","3","2","3","6","4","3","2","2","5","2","4","5","6","5","6","6","6","6","5","5","4","3","6","3","6","3","5","798930525371899905","李     ","439","Male","[""坏我"",""好我"",""坏他"",""好他""]","[""弱我"",""强我"",""弱他"",""强他""]","","","","","","","","9","","","","","","","","","SRET","SRET_math_calculate","","key","9","16.67052040816337","853.3333333333334","476","","","","","1+8= ?","9","1","","","","","","","",""
"1702","","5","psychophysics","118","419247","0.0-7.0-5.0-0.15","3","2","3","2","1","4","2","5","5","4","4","1","0","1","1","0","1","2","1","5","4","5","5","4","5","4","4","5","4","6","7","5","7","6","5","6","5","6","4","2","3","2","2","1","5","1","5","2","1","4","2","5","3","2","3","6","4","3","2","2","5","2","4","5","6","5","6","6","6","6","5","5","4","3","6","3","6","3","5","798930525371899905","李     ","439","Male","[""坏我"",""好我"",""坏他"",""好他""]","[""弱我"",""强我"",""弱他"",""强他""]","","","","","","","","5","","","","","","","","","SRET","SRET_math_calculate","","key","5","16.671445544554373","853.3333333333334","476","","","","","4+1= ?","5","1","","","","","","","",""
"1813","","9","psychophysics","119","421063","0.0-7.0-5.0-0.16","3","2","3","2","1","4","2","5","5","4","4","1","0","1","1","0","1","2","1","5","4","5","5","4","5","4","4","5","4","6","7","5","7","6","5","6","5","6","4","2","3","2","2","1","5","1","5","2","1","4","2","5","3","2","3","6","4","3","2","2","5","2","4","5","6","5","6","6","6","6","5","5","4","3","6","3","6","3","5","798930525371899905","李     ","439","Male","[""坏我"",""好我"",""坏他"",""好他""]","[""弱我"",""强我"",""弱他"",""强他""]","","","","","","","","9","","","","","","","","","SRET","SRET_math_calculate","","key","9","16.669675925926033","853.3333333333334","476","","","","","50-42= ?","8","0","","","","","","","",""
"1963","","2","psychophysics","120","423032","0.0-7.0-5.0-0.17","3","2","3","2","1","4","2","5","5","4","4","1","0","1","1","0","1","2","1","5","4","5","5","4","5","4","4","5","4","6","7","5","7","6","5","6","5","6","4","2","3","2","2","1","5","1","5","2","1","4","2","5","3","2","3","6","4","3","2","2","5","2","4","5","6","5","6","6","6","6","5","5","4","3","6","3","6","3","5","798930525371899905","李     ","439","Male","[""坏我"",""好我"",""坏他"",""好他""]","[""弱我"",""强我"",""弱他"",""强他""]","","","","","","","","2","","","","","","","","","SRET","SRET_math_calculate","","key","2","16.671376068376375","853.3333333333334","476","","","","","9-7= ?","2","1","","","","","","","",""
"1674","","8","psychophysics","121","424714","0.0-7.0-5.0-0.18","3","2","3","2","1","4","2","5","5","4","4","1","0","1","1","0","1","2","1","5","4","5","5","4","5","4","4","5","4","6","7","5","7","6","5","6","5","6","4","2","3","2","2","1","5","1","5","2","1","4","2","5","3","2","3","6","4","3","2","2","5","2","4","5","6","5","6","6","6","6","5","5","4","3","6","3","6","3","5","798930525371899905","李     ","439","Male","[""坏我"",""好我"",""坏他"",""好他""]","[""弱我"",""强我"",""弱他"",""强他""]","","","","","","","","8","","","","","","","","","SRET","SRET_math_calculate","","key","8","16.6707699999999","853.3333333333334","476","","","","","4+4= ?","8","1","","","","","","","",""
"1727","","7","psychophysics","122","426443","0.0-7.0-5.0-0.19","3","2","3","2","1","4","2","5","5","4","4","1","0","1","1","0","1","2","1","5","4","5","5","4","5","4","4","5","4","6","7","5","7","6","5","6","5","6","4","2","3","2","2","1","5","1","5","2","1","4","2","5","3","2","3","6","4","3","2","2","5","2","4","5","6","5","6","6","6","6","5","5","4","3","6","3","6","3","5","798930525371899905","李     ","439","Male","[""坏我"",""好我"",""坏他"",""好他""]","[""弱我"",""强我"",""弱他"",""强他""]","","","","","","","","7","","","","","","","","","SRET","SRET_math_calculate","","key","7","16.671116504854368","853.3333333333334","476","","","","","3+4= ?","7","1","","","","","","","",""
"1594","","7","psychophysics","123","428041","0.0-7.0-5.0-0.20","3","2","3","2","1","4","2","5","5","4","4","1","0","1","1","0","1","2","1","5","4","5","5","4","5","4","4","5","4","6","7","5","7","6","5","6","5","6","4","2","3","2","2","1","5","1","5","2","1","4","2","5","3","2","3","6","4","3","2","2","5","2","4","5","6","5","6","6","6","6","5","5","4","3","6","3","6","3","5","798930525371899905","李     ","439","Male","[""坏我"",""好我"",""坏他"",""好他""]","[""弱我"",""强我"",""弱他"",""强他""]","","","","","","","","7","","","","","","","","","SRET","SRET_math_calculate","","key","7","16.67074736842126","853.3333333333334","476","","","","","4+3= ?","7","1","","","","","","","",""
"1936","","5","psychophysics","124","429980","0.0-7.0-5.0-0.21","3","2","3","2","1","4","2","5","5","4","4","1","0","1","1","0","1","2","1","5","4","5","5","4","5","4","4","5","4","6","7","5","7","6","5","6","5","6","4","2","3","2","2","1","5","1","5","2","1","4","2","5","3","2","3","6","4","3","2","2","5","2","4","5","6","5","6","6","6","6","5","5","4","3","6","3","6","3","5","798930525371899905","李     ","439","Male","[""坏我"",""好我"",""坏他"",""好他""]","[""弱我"",""强我"",""弱他"",""强他""]","","","","","","","","5","","","","","","","","","SRET","SRET_math_calculate","","key","5","16.671130434782548","853.3333333333334","476","","","","","12-7= ?","5","1","","","","","","","",""
"2089","","2","psychophysics","125","432071","0.0-7.0-5.0-0.22","3","2","3","2","1","4","2","5","5","4","4","1","0","1","1","0","1","2","1","5","4","5","5","4","5","4","4","5","4","6","7","5","7","6","5","6","5","6","4","2","3","2","2","1","5","1","5","2","1","4","2","5","3","2","3","6","4","3","2","2","5","2","4","5","6","5","6","6","6","6","5","5","4","3","6","3","6","3","5","798930525371899905","李     ","439","Male","[""坏我"",""好我"",""坏他"",""好他""]","[""弱我"",""强我"",""弱他"",""强他""]","","","","","","","","2","","","","","","","","","SRET","SRET_math_calculate","","key","2","16.670736000000034","853.3333333333334","476","","","","","29-27= ?","2","1","","","","","","","",""
"1746","","8","psychophysics","126","433820","0.0-7.0-5.0-0.23","3","2","3","2","1","4","2","5","5","4","4","1","0","1","1","0","1","2","1","5","4","5","5","4","5","4","4","5","4","6","7","5","7","6","5","6","5","6","4","2","3","2","2","1","5","1","5","2","1","4","2","5","3","2","3","6","4","3","2","2","5","2","4","5","6","5","6","6","6","6","5","5","4","3","6","3","6","3","5","798930525371899905","李     ","439","Male","[""坏我"",""好我"",""坏他"",""好他""]","[""弱我"",""强我"",""弱他"",""强他""]","","","","","","","","8","","","","","","","","","SRET","SRET_math_calculate","","key","8","16.671076923076516","853.3333333333334","476","","","","","3+5= ?","8","1","","","","","","","",""
"1704","","9","psychophysics","127","435527","0.0-7.0-5.0-0.24","3","2","3","2","1","4","2","5","5","4","4","1","0","1","1","0","1","2","1","5","4","5","5","4","5","4","4","5","4","6","7","5","7","6","5","6","5","6","4","2","3","2","2","1","5","1","5","2","1","4","2","5","3","2","3","6","4","3","2","2","5","2","4","5","6","5","6","6","6","6","5","5","4","3","6","3","6","3","5","798930525371899905","李     ","439","Male","[""坏我"",""好我"",""坏他"",""好他""]","[""弱我"",""强我"",""弱他"",""强他""]","","","","","","","","9","","","","","","","","","SRET","SRET_math_calculate","","key","9","16.67129702970275","853.3333333333334","476","","","","","3+6= ?","9","1","","","","","","","",""
"1777","","6","psychophysics","128","437307","0.0-7.0-5.0-0.25","3","2","3","2","1","4","2","5","5","4","4","1","0","1","1","0","1","2","1","5","4","5","5","4","5","4","4","5","4","6","7","5","7","6","5","6","5","6","4","2","3","2","2","1","5","1","5","2","1","4","2","5","3","2","3","6","4","3","2","2","5","2","4","5","6","5","6","6","6","6","5","5","4","3","6","3","6","3","5","798930525371899905","李     ","439","Male","[""坏我"",""好我"",""坏他"",""好他""]","[""弱我"",""强我"",""弱他"",""强他""]","","","","","","","","6","","","","","","","","","SRET","SRET_math_calculate","","key","6","16.670792452830113","853.3333333333334","476","","","","","3*2= ?","6","1","","","","","","","",""
"1785","","3","psychophysics","129","439094","0.0-7.0-5.0-0.26","3","2","3","2","1","4","2","5","5","4","4","1","0","1","1","0","1","2","1","5","4","5","5","4","5","4","4","5","4","6","7","5","7","6","5","6","5","6","4","2","3","2","2","1","5","1","5","2","1","4","2","5","3","2","3","6","4","3","2","2","5","2","4","5","6","5","6","6","6","6","5","5","4","3","6","3","6","3","5","798930525371899905","李     ","439","Male","[""坏我"",""好我"",""坏他"",""好他""]","[""弱我"",""强我"",""弱他"",""强他""]","","","","","","","","3","","","","","","","","","SRET","SRET_math_calculate","","key","3","16.671084905659917","853.3333333333334","476","","","","","3*1= ?","3","1","","","","","","","",""
"1968","","1","psychophysics","130","441070","0.0-7.0-5.0-0.27","3","2","3","2","1","4","2","5","5","4","4","1","0","1","1","0","1","2","1","5","4","5","5","4","5","4","4","5","4","6","7","5","7","6","5","6","5","6","4","2","3","2","2","1","5","1","5","2","1","4","2","5","3","2","3","6","4","3","2","2","5","2","4","5","6","5","6","6","6","6","5","5","4","3","6","3","6","3","5","798930525371899905","李     ","439","Male","[""坏我"",""好我"",""坏他"",""好他""]","[""弱我"",""强我"",""弱他"",""强他""]","","","","","","","","1","","","","","","","","","SRET","SRET_math_calculate","","key","1","16.670683760683524","853.3333333333334","476","","","","","12/12= ?","1","1","","","","","","","",""
"1829","","9","psychophysics","131","442901","0.0-7.0-5.0-0.28","3","2","3","2","1","4","2","5","5","4","4","1","0","1","1","0","1","2","1","5","4","5","5","4","5","4","4","5","4","6","7","5","7","6","5","6","5","6","4","2","3","2","2","1","5","1","5","2","1","4","2","5","3","2","3","6","4","3","2","2","5","2","4","5","6","5","6","6","6","6","5","5","4","3","6","3","6","3","5","798930525371899905","李     ","439","Male","[""坏我"",""好我"",""坏他"",""好他""]","[""弱我"",""强我"",""弱他"",""强他""]","","","","","","","","9","","","","","","","","","SRET","SRET_math_calculate","","key","9","16.671100917431406","853.3333333333334","476","","","","","32-23= ?","9","1","","","","","","","",""
"2276","","8","psychophysics","132","445180","0.0-7.0-5.0-0.29","3","2","3","2","1","4","2","5","5","4","4","1","0","1","1","0","1","2","1","5","4","5","5","4","5","4","4","5","4","6","7","5","7","6","5","6","5","6","4","2","3","2","2","1","5","1","5","2","1","4","2","5","3","2","3","6","4","3","2","2","5","2","4","5","6","5","6","6","6","6","5","5","4","3","6","3","6","3","5","798930525371899905","李     ","439","Male","[""坏我"",""好我"",""坏他"",""好他""]","[""弱我"",""强我"",""弱他"",""强他""]","","","","","","","","8","","","","","","","","","SRET","SRET_math_calculate","","key","8","16.670933823529648","853.3333333333334","476","","","","","14-9= ?","5","0","","","","","","","",""
"2208","","8","psychophysics","133","447391","0.0-7.0-5.0-0.30","3","2","3","2","1","4","2","5","5","4","4","1","0","1","1","0","1","2","1","5","4","5","5","4","5","4","4","5","4","6","7","5","7","6","5","6","5","6","4","2","3","2","2","1","5","1","5","2","1","4","2","5","3","2","3","6","4","3","2","2","5","2","4","5","6","5","6","6","6","6","5","5","4","3","6","3","6","3","5","798930525371899905","李     ","439","Male","[""坏我"",""好我"",""坏他"",""好他""]","[""弱我"",""强我"",""弱他"",""强他""]","","","","","","","","8","","","","","","","","","SRET","SRET_math_calculate","","key","8","16.67101515151532","853.3333333333334","476","","","","","6+2= ?","8","1","","","","","","","",""
"1799","","6","psychophysics","134","449194","0.0-7.0-5.0-0.31","3","2","3","2","1","4","2","5","5","4","4","1","0","1","1","0","1","2","1","5","4","5","5","4","5","4","4","5","4","6","7","5","7","6","5","6","5","6","4","2","3","2","2","1","5","1","5","2","1","4","2","5","3","2","3","6","4","3","2","2","5","2","4","5","6","5","6","6","6","6","5","5","4","3","6","3","6","3","5","798930525371899905","李     ","439","Male","[""坏我"",""好我"",""坏他"",""好他""]","[""弱我"",""强我"",""弱他"",""强他""]","","","","","","","","6","","","","","","","","","SRET","SRET_math_calculate","","key","6","16.671018691588777","853.3333333333334","476","","","","","8-2= ?","6","1","","","","","","","",""
"1933","","6","psychophysics","135","451130","0.0-7.0-5.0-0.32","3","2","3","2","1","4","2","5","5","4","4","1","0","1","1","0","1","2","1","5","4","5","5","4","5","4","4","5","4","6","7","5","7","6","5","6","5","6","4","2","3","2","2","1","5","1","5","2","1","4","2","5","3","2","3","6","4","3","2","2","5","2","4","5","6","5","6","6","6","6","5","5","4","3","6","3","6","3","5","798930525371899905","李     ","439","Male","[""坏我"",""好我"",""坏他"",""好他""]","[""弱我"",""强我"",""弱他"",""强他""]","","","","","","","","6","","","","","","","","","SRET","SRET_math_calculate","","key","6","16.67119130434762","853.3333333333334","476","","","","","9-3= ?","6","1","","","","","","","",""
"1748","","5","psychophysics","136","452881","0.0-7.0-5.0-0.33","3","2","3","2","1","4","2","5","5","4","4","1","0","1","1","0","1","2","1","5","4","5","5","4","5","4","4","5","4","6","7","5","7","6","5","6","5","6","4","2","3","2","2","1","5","1","5","2","1","4","2","5","3","2","3","6","4","3","2","2","5","2","4","5","6","5","6","6","6","6","5","5","4","3","6","3","6","3","5","798930525371899905","李     ","439","Male","[""坏我"",""好我"",""坏他"",""好他""]","[""弱我"",""强我"",""弱他"",""强他""]","","","","","","","","5","","","","","","","","","SRET","SRET_math_calculate","","key","5","16.671144230769222","853.3333333333334","476","","","","","9-4= ?","5","1","","","","","","","",""
"2300","","7","psychophysics","137","455184","0.0-7.0-5.0-0.34","3","2","3","2","1","4","2","5","5","4","4","1","0","1","1","0","1","2","1","5","4","5","5","4","5","4","4","5","4","6","7","5","7","6","5","6","5","6","4","2","3","2","2","1","5","1","5","2","1","4","2","5","3","2","3","6","4","3","2","2","5","2","4","5","6","5","6","6","6","6","5","5","4","3","6","3","6","3","5","798930525371899905","李     ","439","Male","[""坏我"",""好我"",""坏他"",""好他""]","[""弱我"",""强我"",""弱他"",""强他""]","","","","","","","","7","","","","","","","","","SRET","SRET_math_calculate","","key","7","16.67166423357651","853.3333333333334","476","","","","","8-1= ?","7","1","","","","","","","",""
"2138","","7","psychophysics","138","457324","0.0-7.0-5.0-0.35","3","2","3","2","1","4","2","5","5","4","4","1","0","1","1","0","1","2","1","5","4","5","5","4","5","4","4","5","4","6","7","5","7","6","5","6","5","6","4","2","3","2","2","1","5","1","5","2","1","4","2","5","3","2","3","6","4","3","2","2","5","2","4","5","6","5","6","6","6","6","5","5","4","3","6","3","6","3","5","798930525371899905","李     ","439","Male","[""坏我"",""好我"",""坏他"",""好他""]","[""弱我"",""强我"",""弱他"",""强他""]","","","","","","","","7","","","","","","","","","SRET","SRET_math_calculate","","key","7","16.67099212598437","853.3333333333334","476","","","","","21/3= ? ","7","1","","","","","","","",""
"1735","","8","psychophysics","139","459064","0.0-7.0-5.0-0.36","3","2","3","2","1","4","2","5","5","4","4","1","0","1","1","0","1","2","1","5","4","5","5","4","5","4","4","5","4","6","7","5","7","6","5","6","5","6","4","2","3","2","2","1","5","1","5","2","1","4","2","5","3","2","3","6","4","3","2","2","5","2","4","5","6","5","6","6","6","6","5","5","4","3","6","3","6","3","5","798930525371899905","李     ","439","Male","[""坏我"",""好我"",""坏他"",""好他""]","[""弱我"",""强我"",""弱他"",""强他""]","","","","","","","","8","","","","","","","","","SRET","SRET_math_calculate","","key","8","16.671605769230855","853.3333333333334","476","","","","","9-1= ?","8","1","","","","","","","",""
