"rt","stimulus","response","trial_type","trial_index","time_elapsed","internal_node_id","ParticipantID","subj_idx","subj_name","age","education","national","birthday","sex","fatherEdu","motherEdu","FatherOccupation","MotherOccupation","income","obj_ses1","fri_ses2","selfclarity_1","selfclarity_2","selfclarity_3","selfclarity_4","selfclarity_5","selfclarity_6","selfclarity_7","selfclarity_8","selfclarity_9","selfclarity_10","selfclarity_11","selfclarity_12","phq_1","phq_2","phq_3","phq_4","phq_5","phq_6","phq_7","phq_8","phq_9","gad_1","gad_2","gad_3","gad_4","gad_5","gad_6","gad_7","success","user_agent","accuracy","question_order","responses","item_order","radio_event_ids","radio_event_times","key_event_times","mouse_event_times","straightlining","zigzagging","honeypot","value"
"16894","
   <p>您好，欢迎参加本次实验。</p>
   <p>为充分保障您的权利，请确保您已经知晓并同意《参与实验同意书》以及《数据公开知情同意书》。</p>
   <p>如果您未见过上述内容，请咨询实验员。</p>
   <p>如果您选择继续实验，则表示您已经清楚两份知情同意书的内容并同意。</p>
   <p> <div style = ""color: green""><按""继续""至下页></div> </p>
   ","0","html-button-response","0","16896","0.0-0.0","412","803676306561703937","","24","硕士","汉族","1999-08-07 00:00:00","1","1","1","0","0","4000","2","3","3","2","3","4","4","3","3","4","4","1","3","1","1","1","2","2","0","1","0","0","0","1","1","2","3","1","1","0","","","","","","","","","","","","",""
"","","","fullscreen","1","106005","0.0-1.0","412","803676306561703937","","24","硕士","汉族","1999-08-07 00:00:00","1","1","1","0","0","4000","2","3","3","2","3","4","4","3","3","4","4","1","3","1","1","1","2","2","0","1","0","0","0","1","1","2","3","1","1","0","true","{}","","","","","","","","","","",""
"22898","你的被试编号是：</br></br>412</br></br>请记住该被试编号，以便于后续的实验部分。</br></br>在下次的实验中，您将需要输入该编号。</br></br>请按空格键继续。"," ","html-keyboard-response","2","128905","0.0-2.0","412","803676306561703937","","24","硕士","汉族","1999-08-07 00:00:00","1","1","1","0","0","4000","2","3","3","2","3","4","4","3","3","4","4","1","3","1","1","1","2","2","0","1","0","0","0","1","1","2","3","1","1","0","","","","","","","","","","","","",""
"79621","","{""gender"":""B.女"",""fatherEdu"":""B.小学"",""motherEdu"":""B.小学"",""FatherOccupation"":""A.临时工、失业、待业人员、非技术及农业劳动者阶层,如农民"",""MotherOccupation"":""A.临时工、失业、待业人员、非技术及农业劳动者阶层,如农民"",""income"":""4000""}","survey","3","208587","0.0-3.0-0.0","412","803676306561703937","","24","硕士","汉族","1999-08-07 00:00:00","1","1","1","0","0","4000","2","3","3","2","3","4","4","3","3","4","4","1","3","1","1","1","2","2","0","1","0","0","0","1","1","2","3","1","1","0","","","[]","","","","","","","","","",""
"50229","","{""Q0"":1,""Q1"":2}","survey-likert","4","259602","0.0-3.0-1.0","412","803676306561703937","","24","硕士","汉族","1999-08-07 00:00:00","1","1","1","0","0","4000","2","3","3","2","3","4","4","3","3","4","4","1","3","1","1","1","2","2","0","1","0","0","0","1","1","2","3","1","1","0","","","","[0,1]","","","","","","","","",""
"106709.69999999925","","{""Q01"":""3"",""Q02"":""2"",""Q03"":""3"",""Q04"":""4"",""Q05"":""4"",""Q06"":""3"",""Q07"":""3"",""Q08"":""4"",""Q09"":""4"",""Q10"":""1"",""Q11"":""3"",""Q12"":""1""}","survey-template","5","366318","0.0-4.0","412","803676306561703937","","24","硕士","汉族","1999-08-07 00:00:00","1","1","1","0","0","4000","2","3","3","2","3","4","4","3","3","4","4","1","3","1","1","1","2","2","0","1","0","0","0","1","1","2","3","1","1","0","","","","","{""Q01"":""3"",""Q02"":""2"",""Q03"":""3"",""Q04"":""4"",""Q05"":""4"",""Q06"":""3"",""Q07"":""3"",""Q08"":""4"",""Q09"":""4"",""Q10"":""1"",""Q11"":""3"",""Q12"":""1""}","[0,1,2,3,4,5,6,7,8,9,10,11]","[""Q01"",""Q02"",""Q03"",""Q04"",""Q05"",""Q06"",""Q07"",""Q07"",""Q08"",""Q09"",""Q10"",""Q11"",""Q12""]","[29053.89999999944,32215.699999999255,37513.59999999963,44011.89999999944,51181.5,57245.59999999963,66166.5,70257.79999999981,79007.59999999963,87104,98497.59999999963,101125.69999999925,104587.69999999925]","[]","[29053.89999999944,32215.699999999255,37513.59999999963,44011.89999999944,51181.5,57245.59999999963,66166.5,70257.79999999981,79007.59999999963,87104,98497.59999999963,101125.69999999925,104587.69999999925,106707.79999999981]","0.4166666666666667","0.45454545454545453","0"
"55250.5","","{""Q01"":""1"",""Q02"":""1"",""Q03"":""2"",""Q04"":""2"",""Q05"":""0"",""Q06"":""1"",""Q07"":""0"",""Q08"":""0"",""Q09"":""0""}","survey-template","6","421572","0.0-5.0","412","803676306561703937","","24","硕士","汉族","1999-08-07 00:00:00","1","1","1","0","0","4000","2","3","3","2","3","4","4","3","3","4","4","1","3","1","1","1","2","2","0","1","0","0","0","1","1","2","3","1","1","0","","","","","{""Q01"":""1"",""Q02"":""1"",""Q03"":""2"",""Q04"":""2"",""Q05"":""0"",""Q06"":""1"",""Q07"":""0"",""Q08"":""0"",""Q09"":""0""}","[0,1,2,3,4,5,6,7,8]","[""Q01"",""Q02"",""Q03"",""Q04"",""Q05"",""Q06"",""Q07"",""Q08"",""Q09""]","[11005.600000000559,12213.5,15250.5,22683.200000000186,25017.300000000745,27309.5,31299.5,46703.5,50923.5]","[]","[11005.600000000559,12213.5,15250.5,22683.200000000186,25017.300000000745,27309.5,31299.5,46703.5,50923.5,55249.5]","0.4444444444444444","0.375","0"
"38466.200000000186","","{""Q01"":""1"",""Q02"":""1"",""Q03"":""2"",""Q04"":""3"",""Q05"":""1"",""Q06"":""1"",""Q07"":""0""}","survey-template","7","460042","0.0-6.0","412","803676306561703937","","24","硕士","汉族","1999-08-07 00:00:00","1","1","1","0","0","4000","2","3","3","2","3","4","4","3","3","4","4","1","3","1","1","1","2","2","0","1","0","0","0","1","1","2","3","1","1","0","","","","","{""Q01"":""1"",""Q02"":""1"",""Q03"":""2"",""Q04"":""3"",""Q05"":""1"",""Q06"":""1"",""Q07"":""0""}","[0,1,2,3,4,5,6]","[""Q01"",""Q02"",""Q03"",""Q04"",""Q05"",""Q06"",""Q07""]","[3075.2999999998137,8229.200000000186,10541.399999999441,12783.299999999814,24965.299999999814,32091.200000000186,34761.5]","[]","[3075.2999999998137,8229.200000000186,10541.399999999441,12783.299999999814,24965.299999999814,32091.200000000186,34761.5,38465.39999999944]","0.5714285714285714","0.5","0"
"null","
    <p>第一阶段的实验部分已结束。</p>
    <p>系统将自动下载一个.csv文件，该文件为您的实验数据的备份文件。请不要对其进行任何更改，请不要随便删除，将它保存在您的系统文件夹中。</p>
    <p>如果数据遗失，我们将联系您获取该备份文件。</p>
    <p>感谢您的配合！</p>
    <p>按 “空格键” 结束实验!</p>","null","html-keyboard-response","8","460497","0.0-7.0","412","803676306561703937","","24","硕士","汉族","1999-08-07 00:00:00","1","1","1","0","0","4000","2","3","3","2","3","4","4","3","3","4","4","1","3","1","1","1","2","2","0","1","0","0","0","1","1","2","3","1","1","0","","","","","","","","","","","","",""
