"rt","stimulus","response","trial_type","trial_index","time_elapsed","internal_node_id","swb_1","swb_2","swb_3","swb_4","swb_5","LOT_1","LOT_2","LOT_3","LOT_4","LOT_5","LOT_6","IPC_1","IPC_2","IPC_3","IPC_4","IPC_5","IPC_6","IPC_7","IPC_8","MorIden_1","MorIden_2","MorIden_3","MorIden_4","MorIden_5","MorIden_6","MorIden_7","MorIden_8","MorIden_9","MorIden_10","moralSeImag_1","moralSeImag_2","moralSeImag_3","moralSeImag_4","moralSeImag_5","moralSeImag_6","moralSeImag_7","moralSeImag_8","moralSeImag_9","sde_1","sde_2","sde_3","sde_4","sde_5","sde_6","sde_7","sde_8","sde_9","sde_10","sde_11","sde_12","sde_13","sde_14","sde_15","sde_16","sde_17","sde_18","sde_19","sde_20","IM_1","IM_2","IM_3","IM_4","IM_5","IM_6","IM_7","IM_8","IM_9","IM_10","IM_11","IM_12","IM_13","IM_14","IM_15","IM_16","IM_17","IM_18","IM_19","IM_20","subj_idx","friend_name","ParticipantID","Sex","Word","Word2","value","success","timeout","failed_images","failed_audio","failed_video","user_agent","responses","item_order","radio_event_ids","radio_event_times","key_event_times","mouse_event_times","straightlining","zigzagging","honeypot","view_history","response_type","key_press","avg_frame_time","center_x","center_y","correct_response","correct","identity","Image","word","condition","task_id","screen_id","time_stamp","person","valence","domain","math","status","duration","question_order"
"1791","
   <p><div style='color:white; font-size: 25px'>您好，欢迎参加本次实验。</div></p>
   <p><div style='color:white; font-size: 25px'>为充分保障您的权利，请确保您已经知晓并同意《参与实验同意书》以及《数据公开知情同意书》。</div></p>
   <p><div style='color:white; font-size: 25px'>如果您未见过上述内容，请咨询实验员。</div></p>
   <p style='color:white; font-size: 25px'>如果您选择继续实验，则表示您已经清楚两份知情同意书的内容并同意。</p>
   <p><div style = ""color: red;font-size:30px;"">请确保您记得day0的实验编号，您将在本次实验输入该编号，若您忘记，请咨询实验员后作答。</div></p>
   <p> <div style = ""color: green""><按空格键至下页></div> </p>
   "," ","html-keyboard-response","0","1799","0.0-0.0","5","4","5","4","5","5","3","4","5","5","5","-1","0","0","1","-2","1","0","0","5","4","5","5","4","4","5","4","5","4","8","7","7","8","8","7","9","7","8","5","4","6","5","4","4","5","1","4","3","5","4","6","4","4","6","5","4","5","4","4","5","5","6","3","6","6","6","6","7","5","6","3","5","5","6","6","5","4","6","730010828753080322","李","117","Female","[""坏她"",""坏我"",""好她"",""好我""]","[""弱她"",""弱我"",""强她"",""强我""]","","","","","","","","","","","","","","","","","","","","","","","","","","","","","","","","","","","","","",""
"","","","call-function","1","1802","0.0-1.0-0.0","5","4","5","4","5","5","3","4","5","5","5","-1","0","0","1","-2","1","0","0","5","4","5","5","4","4","5","4","5","4","8","7","7","8","8","7","9","7","8","5","4","6","5","4","4","5","1","4","3","5","4","6","4","4","6","5","4","5","4","4","5","5","6","3","6","6","6","6","7","5","6","3","5","5","6","6","5","4","6","730010828753080322","李","117","Female","[""坏她"",""坏我"",""好她"",""好我""]","[""弱她"",""弱我"",""强她"",""强我""]","","","","","","","","","","","","","","","","","","","","","","","","","","","","","","","","","","","","","",""
"25427","","[{""name"":""Sex"",""value"":""1""},{""name"":""friend_name"",""value"":""李""},{""name"":""ParticipantID"",""value"":""117""}]","survey-html-form","2","27231","0.0-1.0-1.0","5","4","5","4","5","5","3","4","5","5","5","-1","0","0","1","-2","1","0","0","5","4","5","5","4","4","5","4","5","4","8","7","7","8","8","7","9","7","8","5","4","6","5","4","4","5","1","4","3","5","4","6","4","4","6","5","4","5","4","4","5","5","6","3","6","6","6","6","7","5","6","3","5","5","6","6","5","4","6","730010828753080322","李","117","Female","[""坏她"",""坏我"",""好她"",""好我""]","[""弱她"",""弱我"",""强她"",""强我""]","","","","","","","","","","","","","","","","","","","","","","","","","","","","","","","","","","","","","",""
"","","","preload","3","28991","0.0-2.0","5","4","5","4","5","5","3","4","5","5","5","-1","0","0","1","-2","1","0","0","5","4","5","5","4","4","5","4","5","4","8","7","7","8","8","7","9","7","8","5","4","6","5","4","4","5","1","4","3","5","4","6","4","4","6","5","4","5","4","4","5","5","6","3","6","6","6","6","7","5","6","3","5","5","6","6","5","4","6","730010828753080322","李","117","Female","[""坏她"",""坏我"",""好她"",""好我""]","[""弱她"",""弱我"",""强她"",""强我""]","","true","false","[]","[]","[]","","","","","","","","","","","","","","","","","","","","","","","","","","","","","","","",""
"","","","fullscreen","4","31411","0.0-3.0","5","4","5","4","5","5","3","4","5","5","5","-1","0","0","1","-2","1","0","0","5","4","5","5","4","4","5","4","5","4","8","7","7","8","8","7","9","7","8","5","4","6","5","4","4","5","1","4","3","5","4","6","4","4","6","5","4","5","4","4","5","5","6","3","6","6","6","6","7","5","6","3","5","5","6","6","5","4","6","730010828753080322","李","117","Female","[""坏她"",""坏我"",""好她"",""好我""]","[""弱她"",""弱我"",""强她"",""强我""]","","true","","","","","{}","","","","","","","","","","","","","","","","","","","","","","","","","","","","","","",""
"13354.299999999814","","{""Q01"":""5"",""Q02"":""4"",""Q03"":""5"",""Q04"":""4"",""Q05"":""5""}","survey-template","5","44772","0.0-4.0","5","4","5","4","5","5","3","4","5","5","5","-1","0","0","1","-2","1","0","0","5","4","5","5","4","4","5","4","5","4","8","7","7","8","8","7","9","7","8","5","4","6","5","4","4","5","1","4","3","5","4","6","4","4","6","5","4","5","4","4","5","5","6","3","6","6","6","6","7","5","6","3","5","5","6","6","5","4","6","730010828753080322","李","117","Female","[""坏她"",""坏我"",""好她"",""好我""]","[""弱她"",""弱我"",""强她"",""强我""]","","","","","","","","{""Q01"":""5"",""Q02"":""4"",""Q03"":""5"",""Q04"":""4"",""Q05"":""5""}","[0,1,2,3,4]","[""Q01"",""Q02"",""Q03"",""Q04"",""Q05""]","[4950.399999999441,5638,8469.899999999441,11357.899999999441,12597.599999999627]","[]","[4950.399999999441,5638,8469.899999999441,11357.899999999441,12597.599999999627,13350]","0.6","1","0","","","","","","","","","","","","","","","","","","","","","",""
"13657.099999999627","","{""Q01"":""5"",""Q02"":""3"",""Q03"":""4"",""Q04"":""5"",""Q05"":""5"",""Q06"":""5""}","survey-template","6","58442","0.0-5.0","5","4","5","4","5","5","3","4","5","5","5","-1","0","0","1","-2","1","0","0","5","4","5","5","4","4","5","4","5","4","8","7","7","8","8","7","9","7","8","5","4","6","5","4","4","5","1","4","3","5","4","6","4","4","6","5","4","5","4","4","5","5","6","3","6","6","6","6","7","5","6","3","5","5","6","6","5","4","6","730010828753080322","李","117","Female","[""坏她"",""坏我"",""好她"",""好我""]","[""弱她"",""弱我"",""强她"",""强我""]","","","","","","","","{""Q01"":""5"",""Q02"":""3"",""Q03"":""4"",""Q04"":""5"",""Q05"":""5"",""Q06"":""5""}","[0,1,2,3,4,5]","[""Q01"",""Q01"",""Q02"",""Q03"",""Q04"",""Q05"",""Q06""]","[1910.8999999994412,2830.899999999441,5807,7118.899999999441,9063,10926.700000000186,12870.099999999627]","[]","[1910.8999999994412,2830.899999999441,5807,7118.899999999441,8647,9063,10926.700000000186,12870.099999999627,13654.899999999441]","0.3333333333333333","0.4","0","","","","","","","","","","","","","","","","","","","","","",""
"20106.599999999627","","{""Q01"":""-1"",""Q02"":""0"",""Q03"":""0"",""Q04"":""1"",""Q05"":""-2"",""Q06"":""1"",""Q07"":""0"",""Q08"":""0""}","survey-template","7","78563","0.0-6.0","5","4","5","4","5","5","3","4","5","5","5","-1","0","0","1","-2","1","0","0","5","4","5","5","4","4","5","4","5","4","8","7","7","8","8","7","9","7","8","5","4","6","5","4","4","5","1","4","3","5","4","6","4","4","6","5","4","5","4","4","5","5","6","3","6","6","6","6","7","5","6","3","5","5","6","6","5","4","6","730010828753080322","李","117","Female","[""坏她"",""坏我"",""好她"",""好我""]","[""弱她"",""弱我"",""强她"",""强我""]","","","","","","","","{""Q01"":""-1"",""Q02"":""0"",""Q03"":""0"",""Q04"":""1"",""Q05"":""-2"",""Q06"":""1"",""Q07"":""0"",""Q08"":""0""}","[0,1,2,3,4,5,6,7]","[""Q01"",""Q02"",""Q03"",""Q04"",""Q05"",""Q06"",""Q07"",""Q08""]","[5431.200000000186,8431,9871.299999999814,12295.099999999627,14271.099999999627,15631,17918.89999999944,19382.89999999944]","[]","[5431.200000000186,8431,9871.299999999814,12295.099999999627,13367.200000000186,13655,14271.099999999627,15631,17918.89999999944,19382.89999999944,20103.200000000186]","0.5","0.42857142857142855","0","","","","","","","","","","","","","","","","","","","","","",""
"10129","","","instructions","8","88703","0.0-7.0","5","4","5","4","5","5","3","4","5","5","5","-1","0","0","1","-2","1","0","0","5","4","5","5","4","4","5","4","5","4","8","7","7","8","8","7","9","7","8","5","4","6","5","4","4","5","1","4","3","5","4","6","4","4","6","5","4","5","4","4","5","5","6","3","6","6","6","6","7","5","6","3","5","5","6","6","5","4","6","730010828753080322","李","117","Female","[""坏她"",""坏我"",""好她"",""好我""]","[""弱她"",""弱我"",""强她"",""强我""]","","","","","","","","","","","","","","","","","[{""page_index"":0,""viewing_time"":10128}]","","","","","","","","","","","","","","","","","","","","",""
"90017","","","instructions","9","178726","0.0-8.0-1.0-0.0","5","4","5","4","5","5","3","4","5","5","5","-1","0","0","1","-2","1","0","0","5","4","5","5","4","4","5","4","5","4","8","7","7","8","8","7","9","7","8","5","4","6","5","4","4","5","1","4","3","5","4","6","4","4","6","5","4","5","4","4","5","5","6","3","6","6","6","6","7","5","6","3","5","5","6","6","5","4","6","730010828753080322","李","117","Female","[""坏她"",""坏我"",""好她"",""好我""]","[""弱她"",""弱我"",""强她"",""强我""]","","","","","","","","","","","","","","","","","[{""page_index"":0,""viewing_time"":9113},{""page_index"":1,""viewing_time"":78935},{""page_index"":2,""viewing_time"":1032},{""page_index"":3,""viewing_time"":936}]","","","","","","","","","","","","","","","","","","","","",""
"1043","","j","psychophysics","10","180782","0.0-8.0-1.0-1.0-0.0-0.0","5","4","5","4","5","5","3","4","5","5","5","-1","0","0","1","-2","1","0","0","5","4","5","5","4","4","5","4","5","4","8","7","7","8","8","7","9","7","8","5","4","6","5","4","4","5","1","4","3","5","4","6","4","4","6","5","4","5","4","4","5","5","6","3","6","6","6","6","7","5","6","3","5","5","6","6","5","4","6","730010828753080322","李","117","Female","[""坏她"",""坏我"",""好她"",""好我""]","[""弱她"",""弱我"",""强她"",""强我""]","","","","","","","","match","","","","","","","","","","key","j","17.235811965811937","683","380","f","false","nonmatch","img/square.png","弱她","强她","prac_ALT2_ability","practice_ability","","","","","","","",""
"null","<span style='color:red; font-size: 70px;'>错误! </span>","null","html-keyboard-response","11","181294","0.0-8.0-1.0-1.0-0.0-1.0","5","4","5","4","5","5","3","4","5","5","5","-1","0","0","1","-2","1","0","0","5","4","5","5","4","4","5","4","5","4","8","7","7","8","8","7","9","7","8","5","4","6","5","4","4","5","1","4","3","5","4","6","4","4","6","5","4","5","4","4","5","5","6","3","6","6","6","6","7","5","6","3","5","5","6","6","5","4","6","730010828753080322","李","117","Female","[""坏她"",""坏我"",""好她"",""好我""]","[""弱她"",""弱我"",""强她"",""强我""]","","","","","","","","","","","","","","","","","","","","","","","","","","","","","","feedback_test","","","","","","","",""
"1005","","f","psychophysics","12","183309","0.0-8.0-1.0-1.0-0.0-0.1","5","4","5","4","5","5","3","4","5","5","5","-1","0","0","1","-2","1","0","0","5","4","5","5","4","4","5","4","5","4","8","7","7","8","8","7","9","7","8","5","4","6","5","4","4","5","1","4","3","5","4","6","4","4","6","5","4","5","4","4","5","5","6","3","6","6","6","6","7","5","6","3","5","5","6","6","5","4","6","730010828753080322","李","117","Female","[""坏她"",""坏我"",""好她"",""好我""]","[""弱她"",""弱我"",""强她"",""强我""]","","","","","","","","nonmatch","","","","","","","","","","key","f","16.667042372881195","683","380","f","true","nonmatch","img/circle.png","弱她","弱我","prac_ALT2_ability","practice_ability","","","","","","","",""
"null","<span style='color:GreenYellow; font-size: 70px;'>正确! </span>","null","html-keyboard-response","13","183814","0.0-8.0-1.0-1.0-0.0-1.1","5","4","5","4","5","5","3","4","5","5","5","-1","0","0","1","-2","1","0","0","5","4","5","5","4","4","5","4","5","4","8","7","7","8","8","7","9","7","8","5","4","6","5","4","4","5","1","4","3","5","4","6","4","4","6","5","4","5","4","4","5","5","6","3","6","6","6","6","7","5","6","3","5","5","6","6","5","4","6","730010828753080322","李","117","Female","[""坏她"",""坏我"",""好她"",""好我""]","[""弱她"",""弱我"",""强她"",""强我""]","","","","","","","","","","","","","","","","","","","","","","","","","","","","","","feedback_test","","","","","","","",""
"1005","","f","psychophysics","14","185829","0.0-8.0-1.0-1.0-0.0-0.2","5","4","5","4","5","5","3","4","5","5","5","-1","0","0","1","-2","1","0","0","5","4","5","5","4","4","5","4","5","4","8","7","7","8","8","7","9","7","8","5","4","6","5","4","4","5","1","4","3","5","4","6","4","4","6","5","4","5","4","4","5","5","6","3","6","6","6","6","7","5","6","3","5","5","6","6","5","4","6","730010828753080322","李","117","Female","[""坏她"",""坏我"",""好她"",""好我""]","[""弱她"",""弱我"",""强她"",""强我""]","","","","","","","","nonmatch","","","","","","","","","","key","f","16.670774999999896","683","380","f","true","nonmatch","img/circle.png","强我","弱我","prac_ALT2_ability","practice_ability","","","","","","","",""
"null","<span style='color:GreenYellow; font-size: 70px;'>正确! </span>","null","html-keyboard-response","15","186334","0.0-8.0-1.0-1.0-0.0-1.2","5","4","5","4","5","5","3","4","5","5","5","-1","0","0","1","-2","1","0","0","5","4","5","5","4","4","5","4","5","4","8","7","7","8","8","7","9","7","8","5","4","6","5","4","4","5","1","4","3","5","4","6","4","4","6","5","4","5","4","4","5","5","6","3","6","6","6","6","7","5","6","3","5","5","6","6","5","4","6","730010828753080322","李","117","Female","[""坏她"",""坏我"",""好她"",""好我""]","[""弱她"",""弱我"",""强她"",""强我""]","","","","","","","","","","","","","","","","","","","","","","","","","","","","","","feedback_test","","","","","","","",""
"null","","null","psychophysics","16","188542","0.0-8.0-1.0-1.0-0.0-0.3","5","4","5","4","5","5","3","4","5","5","5","-1","0","0","1","-2","1","0","0","5","4","5","5","4","4","5","4","5","4","8","7","7","8","8","7","9","7","8","5","4","6","5","4","4","5","1","4","3","5","4","6","4","4","6","5","4","5","4","4","5","5","6","3","6","6","6","6","7","5","6","3","5","5","6","6","5","4","6","730010828753080322","李","117","Female","[""坏她"",""坏我"",""好她"",""好我""]","[""弱她"",""弱我"",""强她"",""强我""]","","","","","","","","null","","","","","","","","","","key","null","16.656746153846214","683","380","f","false","nonmatch","img/square.png","弱我","强她","prac_ALT2_ability","practice_ability","","","","","","","",""
"null","<span class='add_' style='color:yellow; font-size: 70px;'> 太慢! </span>","null","html-keyboard-response","17","189046","0.0-8.0-1.0-1.0-0.0-1.3","5","4","5","4","5","5","3","4","5","5","5","-1","0","0","1","-2","1","0","0","5","4","5","5","4","4","5","4","5","4","8","7","7","8","8","7","9","7","8","5","4","6","5","4","4","5","1","4","3","5","4","6","4","4","6","5","4","5","4","4","5","5","6","3","6","6","6","6","7","5","6","3","5","5","6","6","5","4","6","730010828753080322","李","117","Female","[""坏她"",""坏我"",""好她"",""好我""]","[""弱她"",""弱我"",""强她"",""强我""]","","","","","","","","","","","","","","","","","","","","","","","","","","","","","","feedback_test","","","","","","","",""
"896","","j","psychophysics","18","190950","0.0-8.0-1.0-1.0-0.0-0.4","5","4","5","4","5","5","3","4","5","5","5","-1","0","0","1","-2","1","0","0","5","4","5","5","4","4","5","4","5","4","8","7","7","8","8","7","9","7","8","5","4","6","5","4","4","5","1","4","3","5","4","6","4","4","6","5","4","5","4","4","5","5","6","3","6","6","6","6","7","5","6","3","5","5","6","6","5","4","6","730010828753080322","李","117","Female","[""坏她"",""坏我"",""好她"",""好我""]","[""弱她"",""弱我"",""强她"",""强我""]","","","","","","","","match","","","","","","","","","","key","j","16.66415315315333","683","380","j","true","match","img/pentagon.png","强我","强我","prac_ALT2_ability","practice_ability","","","","","","","",""
"null","<span style='color:GreenYellow; font-size: 70px;'>正确! </span>","null","html-keyboard-response","19","191454","0.0-8.0-1.0-1.0-0.0-1.4","5","4","5","4","5","5","3","4","5","5","5","-1","0","0","1","-2","1","0","0","5","4","5","5","4","4","5","4","5","4","8","7","7","8","8","7","9","7","8","5","4","6","5","4","4","5","1","4","3","5","4","6","4","4","6","5","4","5","4","4","5","5","6","3","6","6","6","6","7","5","6","3","5","5","6","6","5","4","6","730010828753080322","李","117","Female","[""坏她"",""坏我"",""好她"",""好我""]","[""弱她"",""弱我"",""强她"",""强我""]","","","","","","","","","","","","","","","","","","","","","","","","","","","","","","feedback_test","","","","","","","",""
"975","","j","psychophysics","20","193438","0.0-8.0-1.0-1.0-0.0-0.5","5","4","5","4","5","5","3","4","5","5","5","-1","0","0","1","-2","1","0","0","5","4","5","5","4","4","5","4","5","4","8","7","7","8","8","7","9","7","8","5","4","6","5","4","4","5","1","4","3","5","4","6","4","4","6","5","4","5","4","4","5","5","6","3","6","6","6","6","7","5","6","3","5","5","6","6","5","4","6","730010828753080322","李","117","Female","[""坏她"",""坏我"",""好她"",""好我""]","[""弱她"",""弱我"",""强她"",""强我""]","","","","","","","","match","","","","","","","","","","key","j","16.664119658119574","683","380","j","true","match","img/circle.png","弱我","弱我","prac_ALT2_ability","practice_ability","","","","","","","",""
"null","<span style='color:GreenYellow; font-size: 70px;'>正确! </span>","null","html-keyboard-response","21","193942","0.0-8.0-1.0-1.0-0.0-1.5","5","4","5","4","5","5","3","4","5","5","5","-1","0","0","1","-2","1","0","0","5","4","5","5","4","4","5","4","5","4","8","7","7","8","8","7","9","7","8","5","4","6","5","4","4","5","1","4","3","5","4","6","4","4","6","5","4","5","4","4","5","5","6","3","6","6","6","6","7","5","6","3","5","5","6","6","5","4","6","730010828753080322","李","117","Female","[""坏她"",""坏我"",""好她"",""好我""]","[""弱她"",""弱我"",""强她"",""强我""]","","","","","","","","","","","","","","","","","","","","","","","","","","","","","","feedback_test","","","","","","","",""
"780","","j","psychophysics","22","195735","0.0-8.0-1.0-1.0-0.0-0.6","5","4","5","4","5","5","3","4","5","5","5","-1","0","0","1","-2","1","0","0","5","4","5","5","4","4","5","4","5","4","8","7","7","8","8","7","9","7","8","5","4","6","5","4","4","5","1","4","3","5","4","6","4","4","6","5","4","5","4","4","5","5","6","3","6","6","6","6","7","5","6","3","5","5","6","6","5","4","6","730010828753080322","李","117","Female","[""坏她"",""坏我"",""好她"",""好我""]","[""弱她"",""弱我"",""强她"",""强我""]","","","","","","","","match","","","","","","","","","","key","j","16.828628571428514","683","380","j","true","match","img/circle.png","弱我","弱我","prac_ALT2_ability","practice_ability","","","","","","","",""
"null","<span style='color:GreenYellow; font-size: 70px;'>正确! </span>","null","html-keyboard-response","23","196238","0.0-8.0-1.0-1.0-0.0-1.6","5","4","5","4","5","5","3","4","5","5","5","-1","0","0","1","-2","1","0","0","5","4","5","5","4","4","5","4","5","4","8","7","7","8","8","7","9","7","8","5","4","6","5","4","4","5","1","4","3","5","4","6","4","4","6","5","4","5","4","4","5","5","6","3","6","6","6","6","7","5","6","3","5","5","6","6","5","4","6","730010828753080322","李","117","Female","[""坏她"",""坏我"",""好她"",""好我""]","[""弱她"",""弱我"",""强她"",""强我""]","","","","","","","","","","","","","","","","","","","","","","","","","","","","","","feedback_test","","","","","","","",""
"1015","","f","psychophysics","24","198261","0.0-8.0-1.0-1.0-0.0-0.7","5","4","5","4","5","5","3","4","5","5","5","-1","0","0","1","-2","1","0","0","5","4","5","5","4","4","5","4","5","4","8","7","7","8","8","7","9","7","8","5","4","6","5","4","4","5","1","4","3","5","4","6","4","4","6","5","4","5","4","4","5","5","6","3","6","6","6","6","7","5","6","3","5","5","6","6","5","4","6","730010828753080322","李","117","Female","[""坏她"",""坏我"",""好她"",""好我""]","[""弱她"",""弱我"",""强她"",""强我""]","","","","","","","","nonmatch","","","","","","","","","","key","f","16.660789915966554","683","380","f","true","nonmatch","img/pentagon.png","弱我","强我","prac_ALT2_ability","practice_ability","","","","","","","",""
"null","<span style='color:GreenYellow; font-size: 70px;'>正确! </span>","null","html-keyboard-response","25","198765","0.0-8.0-1.0-1.0-0.0-1.7","5","4","5","4","5","5","3","4","5","5","5","-1","0","0","1","-2","1","0","0","5","4","5","5","4","4","5","4","5","4","8","7","7","8","8","7","9","7","8","5","4","6","5","4","4","5","1","4","3","5","4","6","4","4","6","5","4","5","4","4","5","5","6","3","6","6","6","6","7","5","6","3","5","5","6","6","5","4","6","730010828753080322","李","117","Female","[""坏她"",""坏我"",""好她"",""好我""]","[""弱她"",""弱我"",""强她"",""强我""]","","","","","","","","","","","","","","","","","","","","","","","","","","","","","","feedback_test","","","","","","","",""
"885","","j","psychophysics","26","200654","0.0-8.0-1.0-1.0-0.0-0.8","5","4","5","4","5","5","3","4","5","5","5","-1","0","0","1","-2","1","0","0","5","4","5","5","4","4","5","4","5","4","8","7","7","8","8","7","9","7","8","5","4","6","5","4","4","5","1","4","3","5","4","6","4","4","6","5","4","5","4","4","5","5","6","3","6","6","6","6","7","5","6","3","5","5","6","6","5","4","6","730010828753080322","李","117","Female","[""坏她"",""坏我"",""好她"",""好我""]","[""弱她"",""弱我"",""强她"",""强我""]","","","","","","","","match","","","","","","","","","","key","j","16.82014414414434","683","380","j","true","match","img/diamond.png","弱她","弱她","prac_ALT2_ability","practice_ability","","","","","","","",""
"null","<span style='color:GreenYellow; font-size: 70px;'>正确! </span>","null","html-keyboard-response","27","201157","0.0-8.0-1.0-1.0-0.0-1.8","5","4","5","4","5","5","3","4","5","5","5","-1","0","0","1","-2","1","0","0","5","4","5","5","4","4","5","4","5","4","8","7","7","8","8","7","9","7","8","5","4","6","5","4","4","5","1","4","3","5","4","6","4","4","6","5","4","5","4","4","5","5","6","3","6","6","6","6","7","5","6","3","5","5","6","6","5","4","6","730010828753080322","李","117","Female","[""坏她"",""坏我"",""好她"",""好我""]","[""弱她"",""弱我"",""强她"",""强我""]","","","","","","","","","","","","","","","","","","","","","","","","","","","","","","feedback_test","","","","","","","",""
"774","","f","psychophysics","28","202940","0.0-8.0-1.0-1.0-0.0-0.9","5","4","5","4","5","5","3","4","5","5","5","-1","0","0","1","-2","1","0","0","5","4","5","5","4","4","5","4","5","4","8","7","7","8","8","7","9","7","8","5","4","6","5","4","4","5","1","4","3","5","4","6","4","4","6","5","4","5","4","4","5","5","6","3","6","6","6","6","7","5","6","3","5","5","6","6","5","4","6","730010828753080322","李","117","Female","[""坏她"",""坏我"",""好她"",""好我""]","[""弱她"",""弱我"",""强她"",""强我""]","","","","","","","","nonmatch","","","","","","","","","","key","f","16.66695192307704","683","380","f","true","nonmatch","img/diamond.png","弱我","弱她","prac_ALT2_ability","practice_ability","","","","","","","",""
"null","<span style='color:GreenYellow; font-size: 70px;'>正确! </span>","null","html-keyboard-response","29","203445","0.0-8.0-1.0-1.0-0.0-1.9","5","4","5","4","5","5","3","4","5","5","5","-1","0","0","1","-2","1","0","0","5","4","5","5","4","4","5","4","5","4","8","7","7","8","8","7","9","7","8","5","4","6","5","4","4","5","1","4","3","5","4","6","4","4","6","5","4","5","4","4","5","5","6","3","6","6","6","6","7","5","6","3","5","5","6","6","5","4","6","730010828753080322","李","117","Female","[""坏她"",""坏我"",""好她"",""好我""]","[""弱她"",""弱我"",""强她"",""强我""]","","","","","","","","","","","","","","","","","","","","","","","","","","","","","","feedback_test","","","","","","","",""
"951","","f","psychophysics","30","205404","0.0-8.0-1.0-1.0-0.0-0.10","5","4","5","4","5","5","3","4","5","5","5","-1","0","0","1","-2","1","0","0","5","4","5","5","4","4","5","4","5","4","8","7","7","8","8","7","9","7","8","5","4","6","5","4","4","5","1","4","3","5","4","6","4","4","6","5","4","5","4","4","5","5","6","3","6","6","6","6","7","5","6","3","5","5","6","6","5","4","6","730010828753080322","李","117","Female","[""坏她"",""坏我"",""好她"",""好我""]","[""弱她"",""弱我"",""强她"",""强我""]","","","","","","","","nonmatch","","","","","","","","","","key","f","16.818035087719245","683","380","f","true","nonmatch","img/pentagon.png","弱她","强我","prac_ALT2_ability","practice_ability","","","","","","","",""
"null","<span style='color:GreenYellow; font-size: 70px;'>正确! </span>","null","html-keyboard-response","31","205910","0.0-8.0-1.0-1.0-0.0-1.10","5","4","5","4","5","5","3","4","5","5","5","-1","0","0","1","-2","1","0","0","5","4","5","5","4","4","5","4","5","4","8","7","7","8","8","7","9","7","8","5","4","6","5","4","4","5","1","4","3","5","4","6","4","4","6","5","4","5","4","4","5","5","6","3","6","6","6","6","7","5","6","3","5","5","6","6","5","4","6","730010828753080322","李","117","Female","[""坏她"",""坏我"",""好她"",""好我""]","[""弱她"",""弱我"",""强她"",""强我""]","","","","","","","","","","","","","","","","","","","","","","","","","","","","","","feedback_test","","","","","","","",""
"1019","","j","psychophysics","32","207935","0.0-8.0-1.0-1.0-0.0-0.11","5","4","5","4","5","5","3","4","5","5","5","-1","0","0","1","-2","1","0","0","5","4","5","5","4","4","5","4","5","4","8","7","7","8","8","7","9","7","8","5","4","6","5","4","4","5","1","4","3","5","4","6","4","4","6","5","4","5","4","4","5","5","6","3","6","6","6","6","7","5","6","3","5","5","6","6","5","4","6","730010828753080322","李","117","Female","[""坏她"",""坏我"",""好她"",""好我""]","[""弱她"",""弱我"",""强她"",""强我""]","","","","","","","","match","","","","","","","","","","key","j","16.664833333333323","683","380","j","true","match","img/pentagon.png","强我","强我","prac_ALT2_ability","practice_ability","","","","","","","",""
"null","<span style='color:GreenYellow; font-size: 70px;'>正确! </span>","null","html-keyboard-response","33","208438","0.0-8.0-1.0-1.0-0.0-1.11","5","4","5","4","5","5","3","4","5","5","5","-1","0","0","1","-2","1","0","0","5","4","5","5","4","4","5","4","5","4","8","7","7","8","8","7","9","7","8","5","4","6","5","4","4","5","1","4","3","5","4","6","4","4","6","5","4","5","4","4","5","5","6","3","6","6","6","6","7","5","6","3","5","5","6","6","5","4","6","730010828753080322","李","117","Female","[""坏她"",""坏我"",""好她"",""好我""]","[""弱她"",""弱我"",""强她"",""强我""]","","","","","","","","","","","","","","","","","","","","","","","","","","","","","","feedback_test","","","","","","","",""
"857","","j","psychophysics","34","210303","0.0-8.0-1.0-1.0-0.0-0.12","5","4","5","4","5","5","3","4","5","5","5","-1","0","0","1","-2","1","0","0","5","4","5","5","4","4","5","4","5","4","8","7","7","8","8","7","9","7","8","5","4","6","5","4","4","5","1","4","3","5","4","6","4","4","6","5","4","5","4","4","5","5","6","3","6","6","6","6","7","5","6","3","5","5","6","6","5","4","6","730010828753080322","李","117","Female","[""坏她"",""坏我"",""好她"",""好我""]","[""弱她"",""弱我"",""强她"",""强我""]","","","","","","","","match","","","","","","","","","","key","j","16.673918181818127","683","380","j","true","match","img/square.png","强她","强她","prac_ALT2_ability","practice_ability","","","","","","","",""
"null","<span style='color:GreenYellow; font-size: 70px;'>正确! </span>","null","html-keyboard-response","35","210806","0.0-8.0-1.0-1.0-0.0-1.12","5","4","5","4","5","5","3","4","5","5","5","-1","0","0","1","-2","1","0","0","5","4","5","5","4","4","5","4","5","4","8","7","7","8","8","7","9","7","8","5","4","6","5","4","4","5","1","4","3","5","4","6","4","4","6","5","4","5","4","4","5","5","6","3","6","6","6","6","7","5","6","3","5","5","6","6","5","4","6","730010828753080322","李","117","Female","[""坏她"",""坏我"",""好她"",""好我""]","[""弱她"",""弱我"",""强她"",""强我""]","","","","","","","","","","","","","","","","","","","","","","","","","","","","","","feedback_test","","","","","","","",""
"1094","","j","psychophysics","36","212908","0.0-8.0-1.0-1.0-0.0-0.13","5","4","5","4","5","5","3","4","5","5","5","-1","0","0","1","-2","1","0","0","5","4","5","5","4","4","5","4","5","4","8","7","7","8","8","7","9","7","8","5","4","6","5","4","4","5","1","4","3","5","4","6","4","4","6","5","4","5","4","4","5","5","6","3","6","6","6","6","7","5","6","3","5","5","6","6","5","4","6","730010828753080322","李","117","Female","[""坏她"",""坏我"",""好她"",""好我""]","[""弱她"",""弱我"",""强她"",""强我""]","","","","","","","","match","","","","","","","","","","key","j","16.66852000000002","683","380","j","true","match","img/square.png","强她","强她","prac_ALT2_ability","practice_ability","","","","","","","",""
"null","<span style='color:GreenYellow; font-size: 70px;'>正确! </span>","null","html-keyboard-response","37","213414","0.0-8.0-1.0-1.0-0.0-1.13","5","4","5","4","5","5","3","4","5","5","5","-1","0","0","1","-2","1","0","0","5","4","5","5","4","4","5","4","5","4","8","7","7","8","8","7","9","7","8","5","4","6","5","4","4","5","1","4","3","5","4","6","4","4","6","5","4","5","4","4","5","5","6","3","6","6","6","6","7","5","6","3","5","5","6","6","5","4","6","730010828753080322","李","117","Female","[""坏她"",""坏我"",""好她"",""好我""]","[""弱她"",""弱我"",""强她"",""强我""]","","","","","","","","","","","","","","","","","","","","","","","","","","","","","","feedback_test","","","","","","","",""
"1074","","j","psychophysics","38","215492","0.0-8.0-1.0-1.0-0.0-0.14","5","4","5","4","5","5","3","4","5","5","5","-1","0","0","1","-2","1","0","0","5","4","5","5","4","4","5","4","5","4","8","7","7","8","8","7","9","7","8","5","4","6","5","4","4","5","1","4","3","5","4","6","4","4","6","5","4","5","4","4","5","5","6","3","6","6","6","6","7","5","6","3","5","5","6","6","5","4","6","730010828753080322","李","117","Female","[""坏她"",""坏我"",""好她"",""好我""]","[""弱她"",""弱我"",""强她"",""强我""]","","","","","","","","match","","","","","","","","","","key","j","17.22653781512616","683","380","j","true","match","img/diamond.png","弱她","弱她","prac_ALT2_ability","practice_ability","","","","","","","",""
"null","<span style='color:GreenYellow; font-size: 70px;'>正确! </span>","null","html-keyboard-response","39","215998","0.0-8.0-1.0-1.0-0.0-1.14","5","4","5","4","5","5","3","4","5","5","5","-1","0","0","1","-2","1","0","0","5","4","5","5","4","4","5","4","5","4","8","7","7","8","8","7","9","7","8","5","4","6","5","4","4","5","1","4","3","5","4","6","4","4","6","5","4","5","4","4","5","5","6","3","6","6","6","6","7","5","6","3","5","5","6","6","5","4","6","730010828753080322","李","117","Female","[""坏她"",""坏我"",""好她"",""好我""]","[""弱她"",""弱我"",""强她"",""强我""]","","","","","","","","","","","","","","","","","","","","","","","","","","","","","","feedback_test","","","","","","","",""
"1019","","f","psychophysics","40","218020","0.0-8.0-1.0-1.0-0.0-0.15","5","4","5","4","5","5","3","4","5","5","5","-1","0","0","1","-2","1","0","0","5","4","5","5","4","4","5","4","5","4","8","7","7","8","8","7","9","7","8","5","4","6","5","4","4","5","1","4","3","5","4","6","4","4","6","5","4","5","4","4","5","5","6","3","6","6","6","6","7","5","6","3","5","5","6","6","5","4","6","730010828753080322","李","117","Female","[""坏她"",""坏我"",""好她"",""好我""]","[""弱她"",""弱我"",""强她"",""强我""]","","","","","","","","nonmatch","","","","","","","","","","key","f","16.670243697478917","683","380","f","true","nonmatch","img/square.png","强我","强她","prac_ALT2_ability","practice_ability","","","","","","","",""
"null","<span style='color:GreenYellow; font-size: 70px;'>正确! </span>","null","html-keyboard-response","41","218526","0.0-8.0-1.0-1.0-0.0-1.15","5","4","5","4","5","5","3","4","5","5","5","-1","0","0","1","-2","1","0","0","5","4","5","5","4","4","5","4","5","4","8","7","7","8","8","7","9","7","8","5","4","6","5","4","4","5","1","4","3","5","4","6","4","4","6","5","4","5","4","4","5","5","6","3","6","6","6","6","7","5","6","3","5","5","6","6","5","4","6","730010828753080322","李","117","Female","[""坏她"",""坏我"",""好她"",""好我""]","[""弱她"",""弱我"",""强她"",""强我""]","","","","","","","","","","","","","","","","","","","","","","","","","","","","","","feedback_test","","","","","","","",""
"919","","f","psychophysics","42","220453","0.0-8.0-1.0-1.0-0.0-0.16","5","4","5","4","5","5","3","4","5","5","5","-1","0","0","1","-2","1","0","0","5","4","5","5","4","4","5","4","5","4","8","7","7","8","8","7","9","7","8","5","4","6","5","4","4","5","1","4","3","5","4","6","4","4","6","5","4","5","4","4","5","5","6","3","6","6","6","6","7","5","6","3","5","5","6","6","5","4","6","730010828753080322","李","117","Female","[""坏她"",""坏我"",""好她"",""好我""]","[""弱她"",""弱我"",""强她"",""强我""]","","","","","","","","nonmatch","","","","","","","","","","key","f","16.66925438596477","683","380","f","true","nonmatch","img/circle.png","强她","弱我","prac_ALT2_ability","practice_ability","","","","","","","",""
"null","<span style='color:GreenYellow; font-size: 70px;'>正确! </span>","null","html-keyboard-response","43","220957","0.0-8.0-1.0-1.0-0.0-1.16","5","4","5","4","5","5","3","4","5","5","5","-1","0","0","1","-2","1","0","0","5","4","5","5","4","4","5","4","5","4","8","7","7","8","8","7","9","7","8","5","4","6","5","4","4","5","1","4","3","5","4","6","4","4","6","5","4","5","4","4","5","5","6","3","6","6","6","6","7","5","6","3","5","5","6","6","5","4","6","730010828753080322","李","117","Female","[""坏她"",""坏我"",""好她"",""好我""]","[""弱她"",""弱我"",""强她"",""强我""]","","","","","","","","","","","","","","","","","","","","","","","","","","","","","","feedback_test","","","","","","","",""
"886","","f","psychophysics","44","222853","0.0-8.0-1.0-1.0-0.0-0.17","5","4","5","4","5","5","3","4","5","5","5","-1","0","0","1","-2","1","0","0","5","4","5","5","4","4","5","4","5","4","8","7","7","8","8","7","9","7","8","5","4","6","5","4","4","5","1","4","3","5","4","6","4","4","6","5","4","5","4","4","5","5","6","3","6","6","6","6","7","5","6","3","5","5","6","6","5","4","6","730010828753080322","李","117","Female","[""坏她"",""坏我"",""好她"",""好我""]","[""弱她"",""弱我"",""强她"",""强我""]","","","","","","","","nonmatch","","","","","","","","","","key","f","16.8194414414413","683","380","f","true","nonmatch","img/pentagon.png","强她","强我","prac_ALT2_ability","practice_ability","","","","","","","",""
"null","<span style='color:GreenYellow; font-size: 70px;'>正确! </span>","null","html-keyboard-response","45","223357","0.0-8.0-1.0-1.0-0.0-1.17","5","4","5","4","5","5","3","4","5","5","5","-1","0","0","1","-2","1","0","0","5","4","5","5","4","4","5","4","5","4","8","7","7","8","8","7","9","7","8","5","4","6","5","4","4","5","1","4","3","5","4","6","4","4","6","5","4","5","4","4","5","5","6","3","6","6","6","6","7","5","6","3","5","5","6","6","5","4","6","730010828753080322","李","117","Female","[""坏她"",""坏我"",""好她"",""好我""]","[""弱她"",""弱我"",""强她"",""强我""]","","","","","","","","","","","","","","","","","","","","","","","","","","","","","","feedback_test","","","","","","","",""
"832","","j","psychophysics","46","225197","0.0-8.0-1.0-1.0-0.0-0.18","5","4","5","4","5","5","3","4","5","5","5","-1","0","0","1","-2","1","0","0","5","4","5","5","4","4","5","4","5","4","8","7","7","8","8","7","9","7","8","5","4","6","5","4","4","5","1","4","3","5","4","6","4","4","6","5","4","5","4","4","5","5","6","3","6","6","6","6","7","5","6","3","5","5","6","6","5","4","6","730010828753080322","李","117","Female","[""坏她"",""坏我"",""好她"",""好我""]","[""弱她"",""弱我"",""强她"",""强我""]","","","","","","","","match","","","","","","","","","","key","j","16.666146788990698","683","380","j","true","match","img/pentagon.png","强我","强我","prac_ALT2_ability","practice_ability","","","","","","","",""
"null","<span style='color:GreenYellow; font-size: 70px;'>正确! </span>","null","html-keyboard-response","47","225701","0.0-8.0-1.0-1.0-0.0-1.18","5","4","5","4","5","5","3","4","5","5","5","-1","0","0","1","-2","1","0","0","5","4","5","5","4","4","5","4","5","4","8","7","7","8","8","7","9","7","8","5","4","6","5","4","4","5","1","4","3","5","4","6","4","4","6","5","4","5","4","4","5","5","6","3","6","6","6","6","7","5","6","3","5","5","6","6","5","4","6","730010828753080322","李","117","Female","[""坏她"",""坏我"",""好她"",""好我""]","[""弱她"",""弱我"",""强她"",""强我""]","","","","","","","","","","","","","","","","","","","","","","","","","","","","","","feedback_test","","","","","","","",""
"878","","f","psychophysics","48","227588","0.0-8.0-1.0-1.0-0.0-0.19","5","4","5","4","5","5","3","4","5","5","5","-1","0","0","1","-2","1","0","0","5","4","5","5","4","4","5","4","5","4","8","7","7","8","8","7","9","7","8","5","4","6","5","4","4","5","1","4","3","5","4","6","4","4","6","5","4","5","4","4","5","5","6","3","6","6","6","6","7","5","6","3","5","5","6","6","5","4","6","730010828753080322","李","117","Female","[""坏她"",""坏我"",""好她"",""好我""]","[""弱她"",""弱我"",""强她"",""强我""]","","","","","","","","nonmatch","","","","","","","","","","key","f","16.667468468468535","683","380","f","true","nonmatch","img/diamond.png","强她","弱她","prac_ALT2_ability","practice_ability","","","","","","","",""
"null","<span style='color:GreenYellow; font-size: 70px;'>正确! </span>","null","html-keyboard-response","49","228093","0.0-8.0-1.0-1.0-0.0-1.19","5","4","5","4","5","5","3","4","5","5","5","-1","0","0","1","-2","1","0","0","5","4","5","5","4","4","5","4","5","4","8","7","7","8","8","7","9","7","8","5","4","6","5","4","4","5","1","4","3","5","4","6","4","4","6","5","4","5","4","4","5","5","6","3","6","6","6","6","7","5","6","3","5","5","6","6","5","4","6","730010828753080322","李","117","Female","[""坏她"",""坏我"",""好她"",""好我""]","[""弱她"",""弱我"",""强她"",""强我""]","","","","","","","","","","","","","","","","","","","","","","","","","","","","","","feedback_test","","","","","","","",""
"1007","","j","psychophysics","50","230108","0.0-8.0-1.0-1.0-0.0-0.20","5","4","5","4","5","5","3","4","5","5","5","-1","0","0","1","-2","1","0","0","5","4","5","5","4","4","5","4","5","4","8","7","7","8","8","7","9","7","8","5","4","6","5","4","4","5","1","4","3","5","4","6","4","4","6","5","4","5","4","4","5","5","6","3","6","6","6","6","7","5","6","3","5","5","6","6","5","4","6","730010828753080322","李","117","Female","[""坏她"",""坏我"",""好她"",""好我""]","[""弱她"",""弱我"",""强她"",""强我""]","","","","","","","","match","","","","","","","","","","key","j","16.672333333333274","683","380","j","true","match","img/diamond.png","弱她","弱她","prac_ALT2_ability","practice_ability","","","","","","","",""
"null","<span style='color:GreenYellow; font-size: 70px;'>正确! </span>","null","html-keyboard-response","51","230614","0.0-8.0-1.0-1.0-0.0-1.20","5","4","5","4","5","5","3","4","5","5","5","-1","0","0","1","-2","1","0","0","5","4","5","5","4","4","5","4","5","4","8","7","7","8","8","7","9","7","8","5","4","6","5","4","4","5","1","4","3","5","4","6","4","4","6","5","4","5","4","4","5","5","6","3","6","6","6","6","7","5","6","3","5","5","6","6","5","4","6","730010828753080322","李","117","Female","[""坏她"",""坏我"",""好她"",""好我""]","[""弱她"",""弱我"",""强她"",""强我""]","","","","","","","","","","","","","","","","","","","","","","","","","","","","","","feedback_test","","","","","","","",""
"1003","","j","psychophysics","52","232620","0.0-8.0-1.0-1.0-0.0-0.21","5","4","5","4","5","5","3","4","5","5","5","-1","0","0","1","-2","1","0","0","5","4","5","5","4","4","5","4","5","4","8","7","7","8","8","7","9","7","8","5","4","6","5","4","4","5","1","4","3","5","4","6","4","4","6","5","4","5","4","4","5","5","6","3","6","6","6","6","7","5","6","3","5","5","6","6","5","4","6","730010828753080322","李","117","Female","[""坏她"",""坏我"",""好她"",""好我""]","[""弱她"",""弱我"",""强她"",""强我""]","","","","","","","","match","","","","","","","","","","key","j","16.662906779661","683","380","j","true","match","img/square.png","强她","强她","prac_ALT2_ability","practice_ability","","","","","","","",""
"null","<span style='color:GreenYellow; font-size: 70px;'>正确! </span>","null","html-keyboard-response","53","233126","0.0-8.0-1.0-1.0-0.0-1.21","5","4","5","4","5","5","3","4","5","5","5","-1","0","0","1","-2","1","0","0","5","4","5","5","4","4","5","4","5","4","8","7","7","8","8","7","9","7","8","5","4","6","5","4","4","5","1","4","3","5","4","6","4","4","6","5","4","5","4","4","5","5","6","3","6","6","6","6","7","5","6","3","5","5","6","6","5","4","6","730010828753080322","李","117","Female","[""坏她"",""坏我"",""好她"",""好我""]","[""弱她"",""弱我"",""强她"",""强我""]","","","","","","","","","","","","","","","","","","","","","","","","","","","","","","feedback_test","","","","","","","",""
"942","","f","psychophysics","54","235076","0.0-8.0-1.0-1.0-0.0-0.22","5","4","5","4","5","5","3","4","5","5","5","-1","0","0","1","-2","1","0","0","5","4","5","5","4","4","5","4","5","4","8","7","7","8","8","7","9","7","8","5","4","6","5","4","4","5","1","4","3","5","4","6","4","4","6","5","4","5","4","4","5","5","6","3","6","6","6","6","7","5","6","3","5","5","6","6","5","4","6","730010828753080322","李","117","Female","[""坏她"",""坏我"",""好她"",""好我""]","[""弱她"",""弱我"",""强她"",""强我""]","","","","","","","","nonmatch","","","","","","","","","","key","f","16.66107826086961","683","380","f","true","nonmatch","img/diamond.png","强我","弱她","prac_ALT2_ability","practice_ability","","","","","","","",""
"null","<span style='color:GreenYellow; font-size: 70px;'>正确! </span>","null","html-keyboard-response","55","235582","0.0-8.0-1.0-1.0-0.0-1.22","5","4","5","4","5","5","3","4","5","5","5","-1","0","0","1","-2","1","0","0","5","4","5","5","4","4","5","4","5","4","8","7","7","8","8","7","9","7","8","5","4","6","5","4","4","5","1","4","3","5","4","6","4","4","6","5","4","5","4","4","5","5","6","3","6","6","6","6","7","5","6","3","5","5","6","6","5","4","6","730010828753080322","李","117","Female","[""坏她"",""坏我"",""好她"",""好我""]","[""弱她"",""弱我"",""强她"",""强我""]","","","","","","","","","","","","","","","","","","","","","","","","","","","","","","feedback_test","","","","","","","",""
"740","","j","psychophysics","56","237325","0.0-8.0-1.0-1.0-0.0-0.23","5","4","5","4","5","5","3","4","5","5","5","-1","0","0","1","-2","1","0","0","5","4","5","5","4","4","5","4","5","4","8","7","7","8","8","7","9","7","8","5","4","6","5","4","4","5","1","4","3","5","4","6","4","4","6","5","4","5","4","4","5","5","6","3","6","6","6","6","7","5","6","3","5","5","6","6","5","4","6","730010828753080322","李","117","Female","[""坏她"",""坏我"",""好她"",""好我""]","[""弱她"",""弱我"",""强她"",""强我""]","","","","","","","","match","","","","","","","","","","key","j","16.672990291262128","683","380","j","true","match","img/circle.png","弱我","弱我","prac_ALT2_ability","practice_ability","","","","","","","",""
"null","<span style='color:GreenYellow; font-size: 70px;'>正确! </span>","null","html-keyboard-response","57","237831","0.0-8.0-1.0-1.0-0.0-1.23","5","4","5","4","5","5","3","4","5","5","5","-1","0","0","1","-2","1","0","0","5","4","5","5","4","4","5","4","5","4","8","7","7","8","8","7","9","7","8","5","4","6","5","4","4","5","1","4","3","5","4","6","4","4","6","5","4","5","4","4","5","5","6","3","6","6","6","6","7","5","6","3","5","5","6","6","5","4","6","730010828753080322","李","117","Female","[""坏她"",""坏我"",""好她"",""好我""]","[""弱她"",""弱我"",""强她"",""强我""]","","","","","","","","","","","","","","","","","","","","","","","","","","","","","","feedback_test","","","","","","","",""
"974","","f","psychophysics","58","239813","0.0-8.0-1.0-1.0-0.0-0.24","5","4","5","4","5","5","3","4","5","5","5","-1","0","0","1","-2","1","0","0","5","4","5","5","4","4","5","4","5","4","8","7","7","8","8","7","9","7","8","5","4","6","5","4","4","5","1","4","3","5","4","6","4","4","6","5","4","5","4","4","5","5","6","3","6","6","6","6","7","5","6","3","5","5","6","6","5","4","6","730010828753080322","李","117","Female","[""坏她"",""坏我"",""好她"",""好我""]","[""弱她"",""弱我"",""强她"",""强我""]","","","","","","","","nonmatch","","","","","","","","","","key","f","16.65650427350416","683","380","f","true","nonmatch","img/diamond.png","弱我","弱她","prac_ALT2_ability","practice_ability","","","","","","","",""
"null","<span style='color:GreenYellow; font-size: 70px;'>正确! </span>","null","html-keyboard-response","59","240319","0.0-8.0-1.0-1.0-0.0-1.24","5","4","5","4","5","5","3","4","5","5","5","-1","0","0","1","-2","1","0","0","5","4","5","5","4","4","5","4","5","4","8","7","7","8","8","7","9","7","8","5","4","6","5","4","4","5","1","4","3","5","4","6","4","4","6","5","4","5","4","4","5","5","6","3","6","6","6","6","7","5","6","3","5","5","6","6","5","4","6","730010828753080322","李","117","Female","[""坏她"",""坏我"",""好她"",""好我""]","[""弱她"",""弱我"",""强她"",""强我""]","","","","","","","","","","","","","","","","","","","","","","","","","","","","","","feedback_test","","","","","","","",""
"1062","","j","psychophysics","60","242389","0.0-8.0-1.0-1.0-0.0-0.25","5","4","5","4","5","5","3","4","5","5","5","-1","0","0","1","-2","1","0","0","5","4","5","5","4","4","5","4","5","4","8","7","7","8","8","7","9","7","8","5","4","6","5","4","4","5","1","4","3","5","4","6","4","4","6","5","4","5","4","4","5","5","6","3","6","6","6","6","7","5","6","3","5","5","6","6","5","4","6","730010828753080322","李","117","Female","[""坏她"",""坏我"",""好她"",""好我""]","[""弱她"",""弱我"",""强她"",""强我""]","","","","","","","","match","","","","","","","","","","key","j","16.667349593495956","683","380","f","false","nonmatch","img/pentagon.png","弱我","强我","prac_ALT2_ability","practice_ability","","","","","","","",""
"null","<span style='color:red; font-size: 70px;'>错误! </span>","null","html-keyboard-response","61","242895","0.0-8.0-1.0-1.0-0.0-1.25","5","4","5","4","5","5","3","4","5","5","5","-1","0","0","1","-2","1","0","0","5","4","5","5","4","4","5","4","5","4","8","7","7","8","8","7","9","7","8","5","4","6","5","4","4","5","1","4","3","5","4","6","4","4","6","5","4","5","4","4","5","5","6","3","6","6","6","6","7","5","6","3","5","5","6","6","5","4","6","730010828753080322","李","117","Female","[""坏她"",""坏我"",""好她"",""好我""]","[""弱她"",""弱我"",""强她"",""强我""]","","","","","","","","","","","","","","","","","","","","","","","","","","","","","","feedback_test","","","","","","","",""
"1050","","j","psychophysics","62","244952","0.0-8.0-1.0-1.0-0.0-0.26","5","4","5","4","5","5","3","4","5","5","5","-1","0","0","1","-2","1","0","0","5","4","5","5","4","4","5","4","5","4","8","7","7","8","8","7","9","7","8","5","4","6","5","4","4","5","1","4","3","5","4","6","4","4","6","5","4","5","4","4","5","5","6","3","6","6","6","6","7","5","6","3","5","5","6","6","5","4","6","730010828753080322","李","117","Female","[""坏她"",""坏我"",""好她"",""好我""]","[""弱她"",""弱我"",""强她"",""强我""]","","","","","","","","match","","","","","","","","","","key","j","16.664652892562064","683","380","j","true","match","img/pentagon.png","强我","强我","prac_ALT2_ability","practice_ability","","","","","","","",""
"null","<span style='color:GreenYellow; font-size: 70px;'>正确! </span>","null","html-keyboard-response","63","245454","0.0-8.0-1.0-1.0-0.0-1.26","5","4","5","4","5","5","3","4","5","5","5","-1","0","0","1","-2","1","0","0","5","4","5","5","4","4","5","4","5","4","8","7","7","8","8","7","9","7","8","5","4","6","5","4","4","5","1","4","3","5","4","6","4","4","6","5","4","5","4","4","5","5","6","3","6","6","6","6","7","5","6","3","5","5","6","6","5","4","6","730010828753080322","李","117","Female","[""坏她"",""坏我"",""好她"",""好我""]","[""弱她"",""弱我"",""强她"",""强我""]","","","","","","","","","","","","","","","","","","","","","","","","","","","","","","feedback_test","","","","","","","",""
"830","","f","psychophysics","64","247293","0.0-8.0-1.0-1.0-0.0-0.27","5","4","5","4","5","5","3","4","5","5","5","-1","0","0","1","-2","1","0","0","5","4","5","5","4","4","5","4","5","4","8","7","7","8","8","7","9","7","8","5","4","6","5","4","4","5","1","4","3","5","4","6","4","4","6","5","4","5","4","4","5","5","6","3","6","6","6","6","7","5","6","3","5","5","6","6","5","4","6","730010828753080322","李","117","Female","[""坏她"",""坏我"",""好她"",""好我""]","[""弱她"",""弱我"",""强她"",""强我""]","","","","","","","","nonmatch","","","","","","","","","","key","f","16.67268518518513","683","380","f","true","nonmatch","img/circle.png","强我","弱我","prac_ALT2_ability","practice_ability","","","","","","","",""
"null","<span style='color:GreenYellow; font-size: 70px;'>正确! </span>","null","html-keyboard-response","65","247798","0.0-8.0-1.0-1.0-0.0-1.27","5","4","5","4","5","5","3","4","5","5","5","-1","0","0","1","-2","1","0","0","5","4","5","5","4","4","5","4","5","4","8","7","7","8","8","7","9","7","8","5","4","6","5","4","4","5","1","4","3","5","4","6","4","4","6","5","4","5","4","4","5","5","6","3","6","6","6","6","7","5","6","3","5","5","6","6","5","4","6","730010828753080322","李","117","Female","[""坏她"",""坏我"",""好她"",""好我""]","[""弱她"",""弱我"",""强她"",""强我""]","","","","","","","","","","","","","","","","","","","","","","","","","","","","","","feedback_test","","","","","","","",""
"999","","f","psychophysics","66","249800","0.0-8.0-1.0-1.0-0.0-0.28","5","4","5","4","5","5","3","4","5","5","5","-1","0","0","1","-2","1","0","0","5","4","5","5","4","4","5","4","5","4","8","7","7","8","8","7","9","7","8","5","4","6","5","4","4","5","1","4","3","5","4","6","4","4","6","5","4","5","4","4","5","5","6","3","6","6","6","6","7","5","6","3","5","5","6","6","5","4","6","730010828753080322","李","117","Female","[""坏她"",""坏我"",""好她"",""好我""]","[""弱她"",""弱我"",""强她"",""强我""]","","","","","","","","nonmatch","","","","","","","","","","key","f","16.668948717948904","683","380","j","false","match","img/diamond.png","弱她","弱她","prac_ALT2_ability","practice_ability","","","","","","","",""
"null","<span style='color:red; font-size: 70px;'>错误! </span>","null","html-keyboard-response","67","250303","0.0-8.0-1.0-1.0-0.0-1.28","5","4","5","4","5","5","3","4","5","5","5","-1","0","0","1","-2","1","0","0","5","4","5","5","4","4","5","4","5","4","8","7","7","8","8","7","9","7","8","5","4","6","5","4","4","5","1","4","3","5","4","6","4","4","6","5","4","5","4","4","5","5","6","3","6","6","6","6","7","5","6","3","5","5","6","6","5","4","6","730010828753080322","李","117","Female","[""坏她"",""坏我"",""好她"",""好我""]","[""弱她"",""弱我"",""强她"",""强我""]","","","","","","","","","","","","","","","","","","","","","","","","","","","","","","feedback_test","","","","","","","",""
"1046","","j","psychophysics","68","252357","0.0-8.0-1.0-1.0-0.0-0.29","5","4","5","4","5","5","3","4","5","5","5","-1","0","0","1","-2","1","0","0","5","4","5","5","4","4","5","4","5","4","8","7","7","8","8","7","9","7","8","5","4","6","5","4","4","5","1","4","3","5","4","6","4","4","6","5","4","5","4","4","5","5","6","3","6","6","6","6","7","5","6","3","5","5","6","6","5","4","6","730010828753080322","李","117","Female","[""坏她"",""坏我"",""好她"",""好我""]","[""弱她"",""弱我"",""强她"",""强我""]","","","","","","","","match","","","","","","","","","","key","j","16.657165289256138","683","380","f","false","nonmatch","img/diamond.png","强她","弱她","prac_ALT2_ability","practice_ability","","","","","","","",""
"null","<span style='color:red; font-size: 70px;'>错误! </span>","null","html-keyboard-response","69","252863","0.0-8.0-1.0-1.0-0.0-1.29","5","4","5","4","5","5","3","4","5","5","5","-1","0","0","1","-2","1","0","0","5","4","5","5","4","4","5","4","5","4","8","7","7","8","8","7","9","7","8","5","4","6","5","4","4","5","1","4","3","5","4","6","4","4","6","5","4","5","4","4","5","5","6","3","6","6","6","6","7","5","6","3","5","5","6","6","5","4","6","730010828753080322","李","117","Female","[""坏她"",""坏我"",""好她"",""好我""]","[""弱她"",""弱我"",""强她"",""强我""]","","","","","","","","","","","","","","","","","","","","","","","","","","","","","","feedback_test","","","","","","","",""
"917","","j","psychophysics","70","254784","0.0-8.0-1.0-1.0-0.0-0.30","5","4","5","4","5","5","3","4","5","5","5","-1","0","0","1","-2","1","0","0","5","4","5","5","4","4","5","4","5","4","8","7","7","8","8","7","9","7","8","5","4","6","5","4","4","5","1","4","3","5","4","6","4","4","6","5","4","5","4","4","5","5","6","3","6","6","6","6","7","5","6","3","5","5","6","6","5","4","6","730010828753080322","李","117","Female","[""坏她"",""坏我"",""好她"",""好我""]","[""弱她"",""弱我"",""强她"",""强我""]","","","","","","","","match","","","","","","","","","","key","j","16.663477876106178","683","380","j","true","match","img/square.png","强她","强她","prac_ALT2_ability","practice_ability","","","","","","","",""
"null","<span style='color:GreenYellow; font-size: 70px;'>正确! </span>","null","html-keyboard-response","71","255287","0.0-8.0-1.0-1.0-0.0-1.30","5","4","5","4","5","5","3","4","5","5","5","-1","0","0","1","-2","1","0","0","5","4","5","5","4","4","5","4","5","4","8","7","7","8","8","7","9","7","8","5","4","6","5","4","4","5","1","4","3","5","4","6","4","4","6","5","4","5","4","4","5","5","6","3","6","6","6","6","7","5","6","3","5","5","6","6","5","4","6","730010828753080322","李","117","Female","[""坏她"",""坏我"",""好她"",""好我""]","[""弱她"",""弱我"",""强她"",""强我""]","","","","","","","","","","","","","","","","","","","","","","","","","","","","","","feedback_test","","","","","","","",""
"1007","","f","psychophysics","72","257302","0.0-8.0-1.0-1.0-0.0-0.31","5","4","5","4","5","5","3","4","5","5","5","-1","0","0","1","-2","1","0","0","5","4","5","5","4","4","5","4","5","4","8","7","7","8","8","7","9","7","8","5","4","6","5","4","4","5","1","4","3","5","4","6","4","4","6","5","4","5","4","4","5","5","6","3","6","6","6","6","7","5","6","3","5","5","6","6","5","4","6","730010828753080322","李","117","Female","[""坏她"",""坏我"",""好她"",""好我""]","[""弱她"",""弱我"",""强她"",""强我""]","","","","","","","","nonmatch","","","","","","","","","","key","f","16.667638655462127","683","380","f","true","nonmatch","img/circle.png","强她","弱我","prac_ALT2_ability","practice_ability","","","","","","","",""
"null","<span style='color:GreenYellow; font-size: 70px;'>正确! </span>","null","html-keyboard-response","73","257807","0.0-8.0-1.0-1.0-0.0-1.31","5","4","5","4","5","5","3","4","5","5","5","-1","0","0","1","-2","1","0","0","5","4","5","5","4","4","5","4","5","4","8","7","7","8","8","7","9","7","8","5","4","6","5","4","4","5","1","4","3","5","4","6","4","4","6","5","4","5","4","4","5","5","6","3","6","6","6","6","7","5","6","3","5","5","6","6","5","4","6","730010828753080322","李","117","Female","[""坏她"",""坏我"",""好她"",""好我""]","[""弱她"",""弱我"",""强她"",""强我""]","","","","","","","","","","","","","","","","","","","","","","","","","","","","","","feedback_test","","","","","","","",""
"1186","","f","psychophysics","74","260001","0.0-8.0-1.0-1.0-0.0-0.32","5","4","5","4","5","5","3","4","5","5","5","-1","0","0","1","-2","1","0","0","5","4","5","5","4","4","5","4","5","4","8","7","7","8","8","7","9","7","8","5","4","6","5","4","4","5","1","4","3","5","4","6","4","4","6","5","4","5","4","4","5","5","6","3","6","6","6","6","7","5","6","3","5","5","6","6","5","4","6","730010828753080322","李","117","Female","[""坏她"",""坏我"",""好她"",""好我""]","[""弱她"",""弱我"",""强她"",""强我""]","","","","","","","","nonmatch","","","","","","","","","","key","f","16.801271317829467","683","380","j","false","match","img/diamond.png","弱她","弱她","prac_ALT2_ability","practice_ability","","","","","","","",""
"null","<span style='color:red; font-size: 70px;'>错误! </span>","null","html-keyboard-response","75","260503","0.0-8.0-1.0-1.0-0.0-1.32","5","4","5","4","5","5","3","4","5","5","5","-1","0","0","1","-2","1","0","0","5","4","5","5","4","4","5","4","5","4","8","7","7","8","8","7","9","7","8","5","4","6","5","4","4","5","1","4","3","5","4","6","4","4","6","5","4","5","4","4","5","5","6","3","6","6","6","6","7","5","6","3","5","5","6","6","5","4","6","730010828753080322","李","117","Female","[""坏她"",""坏我"",""好她"",""好我""]","[""弱她"",""弱我"",""强她"",""强我""]","","","","","","","","","","","","","","","","","","","","","","","","","","","","","","feedback_test","","","","","","","",""
"1030","","f","psychophysics","76","262541","0.0-8.0-1.0-1.0-0.0-0.33","5","4","5","4","5","5","3","4","5","5","5","-1","0","0","1","-2","1","0","0","5","4","5","5","4","4","5","4","5","4","8","7","7","8","8","7","9","7","8","5","4","6","5","4","4","5","1","4","3","5","4","6","4","4","6","5","4","5","4","4","5","5","6","3","6","6","6","6","7","5","6","3","5","5","6","6","5","4","6","730010828753080322","李","117","Female","[""坏她"",""坏我"",""好她"",""好我""]","[""弱她"",""弱我"",""强她"",""强我""]","","","","","","","","nonmatch","","","","","","","","","","key","f","16.66901666666672","683","380","f","true","nonmatch","img/square.png","弱我","强她","prac_ALT2_ability","practice_ability","","","","","","","",""
"null","<span style='color:GreenYellow; font-size: 70px;'>正确! </span>","null","html-keyboard-response","77","263047","0.0-8.0-1.0-1.0-0.0-1.33","5","4","5","4","5","5","3","4","5","5","5","-1","0","0","1","-2","1","0","0","5","4","5","5","4","4","5","4","5","4","8","7","7","8","8","7","9","7","8","5","4","6","5","4","4","5","1","4","3","5","4","6","4","4","6","5","4","5","4","4","5","5","6","3","6","6","6","6","7","5","6","3","5","5","6","6","5","4","6","730010828753080322","李","117","Female","[""坏她"",""坏我"",""好她"",""好我""]","[""弱她"",""弱我"",""强她"",""强我""]","","","","","","","","","","","","","","","","","","","","","","","","","","","","","","feedback_test","","","","","","","",""
"901","","f","psychophysics","78","264950","0.0-8.0-1.0-1.0-0.0-0.34","5","4","5","4","5","5","3","4","5","5","5","-1","0","0","1","-2","1","0","0","5","4","5","5","4","4","5","4","5","4","8","7","7","8","8","7","9","7","8","5","4","6","5","4","4","5","1","4","3","5","4","6","4","4","6","5","4","5","4","4","5","5","6","3","6","6","6","6","7","5","6","3","5","5","6","6","5","4","6","730010828753080322","李","117","Female","[""坏她"",""坏我"",""好她"",""好我""]","[""弱她"",""弱我"",""强她"",""强我""]","","","","","","","","nonmatch","","","","","","","","","","key","f","16.668214285713994","683","380","f","true","nonmatch","img/diamond.png","强我","弱她","prac_ALT2_ability","practice_ability","","","","","","","",""
"null","<span style='color:GreenYellow; font-size: 70px;'>正确! </span>","null","html-keyboard-response","79","265455","0.0-8.0-1.0-1.0-0.0-1.34","5","4","5","4","5","5","3","4","5","5","5","-1","0","0","1","-2","1","0","0","5","4","5","5","4","4","5","4","5","4","8","7","7","8","8","7","9","7","8","5","4","6","5","4","4","5","1","4","3","5","4","6","4","4","6","5","4","5","4","4","5","5","6","3","6","6","6","6","7","5","6","3","5","5","6","6","5","4","6","730010828753080322","李","117","Female","[""坏她"",""坏我"",""好她"",""好我""]","[""弱她"",""弱我"",""强她"",""强我""]","","","","","","","","","","","","","","","","","","","","","","","","","","","","","","feedback_test","","","","","","","",""
"861","","f","psychophysics","80","267325","0.0-8.0-1.0-1.0-0.0-0.35","5","4","5","4","5","5","3","4","5","5","5","-1","0","0","1","-2","1","0","0","5","4","5","5","4","4","5","4","5","4","8","7","7","8","8","7","9","7","8","5","4","6","5","4","4","5","1","4","3","5","4","6","4","4","6","5","4","5","4","4","5","5","6","3","6","6","6","6","7","5","6","3","5","5","6","6","5","4","6","730010828753080322","李","117","Female","[""坏她"",""坏我"",""好她"",""好我""]","[""弱她"",""弱我"",""强她"",""强我""]","","","","","","","","nonmatch","","","","","","","","","","key","f","16.663702702702984","683","380","j","false","match","img/diamond.png","弱她","弱她","prac_ALT2_ability","practice_ability","","","","","","","",""
"null","<span style='color:red; font-size: 70px;'>错误! </span>","null","html-keyboard-response","81","267830","0.0-8.0-1.0-1.0-0.0-1.35","5","4","5","4","5","5","3","4","5","5","5","-1","0","0","1","-2","1","0","0","5","4","5","5","4","4","5","4","5","4","8","7","7","8","8","7","9","7","8","5","4","6","5","4","4","5","1","4","3","5","4","6","4","4","6","5","4","5","4","4","5","5","6","3","6","6","6","6","7","5","6","3","5","5","6","6","5","4","6","730010828753080322","李","117","Female","[""坏她"",""坏我"",""好她"",""好我""]","[""弱她"",""弱我"",""强她"",""强我""]","","","","","","","","","","","","","","","","","","","","","","","","","","","","","","feedback_test","","","","","","","",""
"1144","","f","psychophysics","82","269983","0.0-8.0-1.0-1.0-0.0-0.36","5","4","5","4","5","5","3","4","5","5","5","-1","0","0","1","-2","1","0","0","5","4","5","5","4","4","5","4","5","4","8","7","7","8","8","7","9","7","8","5","4","6","5","4","4","5","1","4","3","5","4","6","4","4","6","5","4","5","4","4","5","5","6","3","6","6","6","6","7","5","6","3","5","5","6","6","5","4","6","730010828753080322","李","117","Female","[""坏她"",""坏我"",""好她"",""好我""]","[""弱她"",""弱我"",""强她"",""强我""]","","","","","","","","nonmatch","","","","","","","","","","key","f","16.675574803149683","683","380","f","true","nonmatch","img/square.png","弱她","强她","prac_ALT2_ability","practice_ability","","","","","","","",""
"null","<span style='color:GreenYellow; font-size: 70px;'>正确! </span>","null","html-keyboard-response","83","270486","0.0-8.0-1.0-1.0-0.0-1.36","5","4","5","4","5","5","3","4","5","5","5","-1","0","0","1","-2","1","0","0","5","4","5","5","4","4","5","4","5","4","8","7","7","8","8","7","9","7","8","5","4","6","5","4","4","5","1","4","3","5","4","6","4","4","6","5","4","5","4","4","5","5","6","3","6","6","6","6","7","5","6","3","5","5","6","6","5","4","6","730010828753080322","李","117","Female","[""坏她"",""坏我"",""好她"",""好我""]","[""弱她"",""弱我"",""强她"",""强我""]","","","","","","","","","","","","","","","","","","","","","","","","","","","","","","feedback_test","","","","","","","",""
"1207","","j","psychophysics","84","272702","0.0-8.0-1.0-1.0-0.0-0.37","5","4","5","4","5","5","3","4","5","5","5","-1","0","0","1","-2","1","0","0","5","4","5","5","4","4","5","4","5","4","8","7","7","8","8","7","9","7","8","5","4","6","5","4","4","5","1","4","3","5","4","6","4","4","6","5","4","5","4","4","5","5","6","3","6","6","6","6","7","5","6","3","5","5","6","6","5","4","6","730010828753080322","李","117","Female","[""坏她"",""坏我"",""好她"",""好我""]","[""弱她"",""弱我"",""强她"",""强我""]","","","","","","","","match","","","","","","","","","","key","j","16.661786259541675","683","380","f","false","nonmatch","img/square.png","强我","强她","prac_ALT2_ability","practice_ability","","","","","","","",""
"null","<span class='add_' style='color:yellow; font-size: 70px;'> 太慢! </span>","null","html-keyboard-response","85","273207","0.0-8.0-1.0-1.0-0.0-1.37","5","4","5","4","5","5","3","4","5","5","5","-1","0","0","1","-2","1","0","0","5","4","5","5","4","4","5","4","5","4","8","7","7","8","8","7","9","7","8","5","4","6","5","4","4","5","1","4","3","5","4","6","4","4","6","5","4","5","4","4","5","5","6","3","6","6","6","6","7","5","6","3","5","5","6","6","5","4","6","730010828753080322","李","117","Female","[""坏她"",""坏我"",""好她"",""好我""]","[""弱她"",""弱我"",""强她"",""强我""]","","","","","","","","","","","","","","","","","","","","","","","","","","","","","","feedback_test","","","","","","","",""
"925","","j","psychophysics","86","275140","0.0-8.0-1.0-1.0-0.0-0.38","5","4","5","4","5","5","3","4","5","5","5","-1","0","0","1","-2","1","0","0","5","4","5","5","4","4","5","4","5","4","8","7","7","8","8","7","9","7","8","5","4","6","5","4","4","5","1","4","3","5","4","6","4","4","6","5","4","5","4","4","5","5","6","3","6","6","6","6","7","5","6","3","5","5","6","6","5","4","6","730010828753080322","李","117","Female","[""坏她"",""坏我"",""好她"",""好我""]","[""弱她"",""弱我"",""强她"",""强我""]","","","","","","","","match","","","","","","","","","","key","j","16.65956140350828","683","380","j","true","match","img/circle.png","弱我","弱我","prac_ALT2_ability","practice_ability","","","","","","","",""
"null","<span style='color:GreenYellow; font-size: 70px;'>正确! </span>","null","html-keyboard-response","87","275647","0.0-8.0-1.0-1.0-0.0-1.38","5","4","5","4","5","5","3","4","5","5","5","-1","0","0","1","-2","1","0","0","5","4","5","5","4","4","5","4","5","4","8","7","7","8","8","7","9","7","8","5","4","6","5","4","4","5","1","4","3","5","4","6","4","4","6","5","4","5","4","4","5","5","6","3","6","6","6","6","7","5","6","3","5","5","6","6","5","4","6","730010828753080322","李","117","Female","[""坏她"",""坏我"",""好她"",""好我""]","[""弱她"",""弱我"",""强她"",""强我""]","","","","","","","","","","","","","","","","","","","","","","","","","","","","","","feedback_test","","","","","","","",""
"917","","j","psychophysics","88","277566","0.0-8.0-1.0-1.0-0.0-0.39","5","4","5","4","5","5","3","4","5","5","5","-1","0","0","1","-2","1","0","0","5","4","5","5","4","4","5","4","5","4","8","7","7","8","8","7","9","7","8","5","4","6","5","4","4","5","1","4","3","5","4","6","4","4","6","5","4","5","4","4","5","5","6","3","6","6","6","6","7","5","6","3","5","5","6","6","5","4","6","730010828753080322","李","117","Female","[""坏她"",""坏我"",""好她"",""好我""]","[""弱她"",""弱我"",""强她"",""强我""]","","","","","","","","match","","","","","","","","","","key","j","16.66867543859693","683","380","j","true","match","img/pentagon.png","强我","强我","prac_ALT2_ability","practice_ability","","","","","","","",""
"null","<span style='color:GreenYellow; font-size: 70px;'>正确! </span>","null","html-keyboard-response","89","278071","0.0-8.0-1.0-1.0-0.0-1.39","5","4","5","4","5","5","3","4","5","5","5","-1","0","0","1","-2","1","0","0","5","4","5","5","4","4","5","4","5","4","8","7","7","8","8","7","9","7","8","5","4","6","5","4","4","5","1","4","3","5","4","6","4","4","6","5","4","5","4","4","5","5","6","3","6","6","6","6","7","5","6","3","5","5","6","6","5","4","6","730010828753080322","李","117","Female","[""坏她"",""坏我"",""好她"",""好我""]","[""弱她"",""弱我"",""强她"",""强我""]","","","","","","","","","","","","","","","","","","","","","","","","","","","","","","feedback_test","","","","","","","",""
"986","","j","psychophysics","90","280068","0.0-8.0-1.0-1.0-0.0-0.40","5","4","5","4","5","5","3","4","5","5","5","-1","0","0","1","-2","1","0","0","5","4","5","5","4","4","5","4","5","4","8","7","7","8","8","7","9","7","8","5","4","6","5","4","4","5","1","4","3","5","4","6","4","4","6","5","4","5","4","4","5","5","6","3","6","6","6","6","7","5","6","3","5","5","6","6","5","4","6","730010828753080322","李","117","Female","[""坏她"",""坏我"",""好她"",""好我""]","[""弱她"",""弱我"",""强她"",""强我""]","","","","","","","","match","","","","","","","","","","key","j","16.665756302520812","683","380","j","true","match","img/circle.png","弱我","弱我","prac_ALT2_ability","practice_ability","","","","","","","",""
"null","<span style='color:GreenYellow; font-size: 70px;'>正确! </span>","null","html-keyboard-response","91","280575","0.0-8.0-1.0-1.0-0.0-1.40","5","4","5","4","5","5","3","4","5","5","5","-1","0","0","1","-2","1","0","0","5","4","5","5","4","4","5","4","5","4","8","7","7","8","8","7","9","7","8","5","4","6","5","4","4","5","1","4","3","5","4","6","4","4","6","5","4","5","4","4","5","5","6","3","6","6","6","6","7","5","6","3","5","5","6","6","5","4","6","730010828753080322","李","117","Female","[""坏她"",""坏我"",""好她"",""好我""]","[""弱她"",""弱我"",""强她"",""强我""]","","","","","","","","","","","","","","","","","","","","","","","","","","","","","","feedback_test","","","","","","","",""
"1074","","f","psychophysics","92","282653","0.0-8.0-1.0-1.0-0.0-0.41","5","4","5","4","5","5","3","4","5","5","5","-1","0","0","1","-2","1","0","0","5","4","5","5","4","4","5","4","5","4","8","7","7","8","8","7","9","7","8","5","4","6","5","4","4","5","1","4","3","5","4","6","4","4","6","5","4","5","4","4","5","5","6","3","6","6","6","6","7","5","6","3","5","5","6","6","5","4","6","730010828753080322","李","117","Female","[""坏她"",""坏我"",""好她"",""好我""]","[""弱她"",""弱我"",""强她"",""强我""]","","","","","","","","nonmatch","","","","","","","","","","key","f","16.79704065040621","683","380","f","true","nonmatch","img/circle.png","弱她","弱我","prac_ALT2_ability","practice_ability","","","","","","","",""
"null","<span style='color:GreenYellow; font-size: 70px;'>正确! </span>","null","html-keyboard-response","93","283159","0.0-8.0-1.0-1.0-0.0-1.41","5","4","5","4","5","5","3","4","5","5","5","-1","0","0","1","-2","1","0","0","5","4","5","5","4","4","5","4","5","4","8","7","7","8","8","7","9","7","8","5","4","6","5","4","4","5","1","4","3","5","4","6","4","4","6","5","4","5","4","4","5","5","6","3","6","6","6","6","7","5","6","3","5","5","6","6","5","4","6","730010828753080322","李","117","Female","[""坏她"",""坏我"",""好她"",""好我""]","[""弱她"",""弱我"",""强她"",""强我""]","","","","","","","","","","","","","","","","","","","","","","","","","","","","","","feedback_test","","","","","","","",""
"1211","","f","psychophysics","94","285373","0.0-8.0-1.0-1.0-0.0-0.42","5","4","5","4","5","5","3","4","5","5","5","-1","0","0","1","-2","1","0","0","5","4","5","5","4","4","5","4","5","4","8","7","7","8","8","7","9","7","8","5","4","6","5","4","4","5","1","4","3","5","4","6","4","4","6","5","4","5","4","4","5","5","6","3","6","6","6","6","7","5","6","3","5","5","6","6","5","4","6","730010828753080322","李","117","Female","[""坏她"",""坏我"",""好她"",""好我""]","[""弱她"",""弱我"",""强她"",""强我""]","","","","","","","","nonmatch","","","","","","","","","","key","f","16.673507692307556","683","380","f","true","nonmatch","img/pentagon.png","弱她","强我","prac_ALT2_ability","practice_ability","","","","","","","",""
"null","<span class='add_' style='color:yellow; font-size: 70px;'> 太慢! </span>","null","html-keyboard-response","95","285879","0.0-8.0-1.0-1.0-0.0-1.42","5","4","5","4","5","5","3","4","5","5","5","-1","0","0","1","-2","1","0","0","5","4","5","5","4","4","5","4","5","4","8","7","7","8","8","7","9","7","8","5","4","6","5","4","4","5","1","4","3","5","4","6","4","4","6","5","4","5","4","4","5","5","6","3","6","6","6","6","7","5","6","3","5","5","6","6","5","4","6","730010828753080322","李","117","Female","[""坏她"",""坏我"",""好她"",""好我""]","[""弱她"",""弱我"",""强她"",""强我""]","","","","","","","","","","","","","","","","","","","","","","","","","","","","","","feedback_test","","","","","","","",""
"null","","null","psychophysics","96","288120","0.0-8.0-1.0-1.0-0.0-0.43","5","4","5","4","5","5","3","4","5","5","5","-1","0","0","1","-2","1","0","0","5","4","5","5","4","4","5","4","5","4","8","7","7","8","8","7","9","7","8","5","4","6","5","4","4","5","1","4","3","5","4","6","4","4","6","5","4","5","4","4","5","5","6","3","6","6","6","6","7","5","6","3","5","5","6","6","5","4","6","730010828753080322","李","117","Female","[""坏她"",""坏我"",""好她"",""好我""]","[""弱她"",""弱我"",""强她"",""强我""]","","","","","","","","null","","","","","","","","","","key","null","16.667606060606143","683","380","j","false","match","img/square.png","强她","强她","prac_ALT2_ability","practice_ability","","","","","","","",""
"null","<span class='add_' style='color:yellow; font-size: 70px;'> 太慢! </span>","null","html-keyboard-response","97","288623","0.0-8.0-1.0-1.0-0.0-1.43","5","4","5","4","5","5","3","4","5","5","5","-1","0","0","1","-2","1","0","0","5","4","5","5","4","4","5","4","5","4","8","7","7","8","8","7","9","7","8","5","4","6","5","4","4","5","1","4","3","5","4","6","4","4","6","5","4","5","4","4","5","5","6","3","6","6","6","6","7","5","6","3","5","5","6","6","5","4","6","730010828753080322","李","117","Female","[""坏她"",""坏我"",""好她"",""好我""]","[""弱她"",""弱我"",""强她"",""强我""]","","","","","","","","","","","","","","","","","","","","","","","","","","","","","","feedback_test","","","","","","","",""
"912","","j","psychophysics","98","290540","0.0-8.0-1.0-1.0-0.0-0.44","5","4","5","4","5","5","3","4","5","5","5","-1","0","0","1","-2","1","0","0","5","4","5","5","4","4","5","4","5","4","8","7","7","8","8","7","9","7","8","5","4","6","5","4","4","5","1","4","3","5","4","6","4","4","6","5","4","5","4","4","5","5","6","3","6","6","6","6","7","5","6","3","5","5","6","6","5","4","6","730010828753080322","李","117","Female","[""坏她"",""坏我"",""好她"",""好我""]","[""弱她"",""弱我"",""强她"",""强我""]","","","","","","","","match","","","","","","","","","","key","j","16.666894736841705","683","380","j","true","match","img/pentagon.png","强我","强我","prac_ALT2_ability","practice_ability","","","","","","","",""
"null","<span style='color:GreenYellow; font-size: 70px;'>正确! </span>","null","html-keyboard-response","99","291046","0.0-8.0-1.0-1.0-0.0-1.44","5","4","5","4","5","5","3","4","5","5","5","-1","0","0","1","-2","1","0","0","5","4","5","5","4","4","5","4","5","4","8","7","7","8","8","7","9","7","8","5","4","6","5","4","4","5","1","4","3","5","4","6","4","4","6","5","4","5","4","4","5","5","6","3","6","6","6","6","7","5","6","3","5","5","6","6","5","4","6","730010828753080322","李","117","Female","[""坏她"",""坏我"",""好她"",""好我""]","[""弱她"",""弱我"",""强她"",""强我""]","","","","","","","","","","","","","","","","","","","","","","","","","","","","","","feedback_test","","","","","","","",""
"988","","j","psychophysics","100","293036","0.0-8.0-1.0-1.0-0.0-0.45","5","4","5","4","5","5","3","4","5","5","5","-1","0","0","1","-2","1","0","0","5","4","5","5","4","4","5","4","5","4","8","7","7","8","8","7","9","7","8","5","4","6","5","4","4","5","1","4","3","5","4","6","4","4","6","5","4","5","4","4","5","5","6","3","6","6","6","6","7","5","6","3","5","5","6","6","5","4","6","730010828753080322","李","117","Female","[""坏她"",""坏我"",""好她"",""好我""]","[""弱她"",""弱我"",""强她"",""强我""]","","","","","","","","match","","","","","","","","","","key","j","16.66833898305086","683","380","j","true","match","img/square.png","强她","强她","prac_ALT2_ability","practice_ability","","","","","","","",""
"null","<span style='color:GreenYellow; font-size: 70px;'>正确! </span>","null","html-keyboard-response","101","293542","0.0-8.0-1.0-1.0-0.0-1.45","5","4","5","4","5","5","3","4","5","5","5","-1","0","0","1","-2","1","0","0","5","4","5","5","4","4","5","4","5","4","8","7","7","8","8","7","9","7","8","5","4","6","5","4","4","5","1","4","3","5","4","6","4","4","6","5","4","5","4","4","5","5","6","3","6","6","6","6","7","5","6","3","5","5","6","6","5","4","6","730010828753080322","李","117","Female","[""坏她"",""坏我"",""好她"",""好我""]","[""弱她"",""弱我"",""强她"",""强我""]","","","","","","","","","","","","","","","","","","","","","","","","","","","","","","feedback_test","","","","","","","",""
"978","","f","psychophysics","102","295525","0.0-8.0-1.0-1.0-0.0-0.46","5","4","5","4","5","5","3","4","5","5","5","-1","0","0","1","-2","1","0","0","5","4","5","5","4","4","5","4","5","4","8","7","7","8","8","7","9","7","8","5","4","6","5","4","4","5","1","4","3","5","4","6","4","4","6","5","4","5","4","4","5","5","6","3","6","6","6","6","7","5","6","3","5","5","6","6","5","4","6","730010828753080322","李","117","Female","[""坏她"",""坏我"",""好她"",""好我""]","[""弱她"",""弱我"",""强她"",""强我""]","","","","","","","","nonmatch","","","","","","","","","","key","f","16.67173275862096","683","380","f","true","nonmatch","img/pentagon.png","强她","强我","prac_ALT2_ability","practice_ability","","","","","","","",""
"null","<span style='color:GreenYellow; font-size: 70px;'>正确! </span>","null","html-keyboard-response","103","296031","0.0-8.0-1.0-1.0-0.0-1.46","5","4","5","4","5","5","3","4","5","5","5","-1","0","0","1","-2","1","0","0","5","4","5","5","4","4","5","4","5","4","8","7","7","8","8","7","9","7","8","5","4","6","5","4","4","5","1","4","3","5","4","6","4","4","6","5","4","5","4","4","5","5","6","3","6","6","6","6","7","5","6","3","5","5","6","6","5","4","6","730010828753080322","李","117","Female","[""坏她"",""坏我"",""好她"",""好我""]","[""弱她"",""弱我"",""强她"",""强我""]","","","","","","","","","","","","","","","","","","","","","","","","","","","","","","feedback_test","","","","","","","",""
"950","","j","psychophysics","104","297989","0.0-8.0-1.0-1.0-0.0-0.47","5","4","5","4","5","5","3","4","5","5","5","-1","0","0","1","-2","1","0","0","5","4","5","5","4","4","5","4","5","4","8","7","7","8","8","7","9","7","8","5","4","6","5","4","4","5","1","4","3","5","4","6","4","4","6","5","4","5","4","4","5","5","6","3","6","6","6","6","7","5","6","3","5","5","6","6","5","4","6","730010828753080322","李","117","Female","[""坏她"",""坏我"",""好她"",""好我""]","[""弱她"",""弱我"",""强她"",""强我""]","","","","","","","","match","","","","","","","","","","key","j","16.661243478260914","683","380","j","true","match","img/circle.png","弱我","弱我","prac_ALT2_ability","practice_ability","","","","","","","",""
"null","<span style='color:GreenYellow; font-size: 70px;'>正确! </span>","null","html-keyboard-response","105","298495","0.0-8.0-1.0-1.0-0.0-1.47","5","4","5","4","5","5","3","4","5","5","5","-1","0","0","1","-2","1","0","0","5","4","5","5","4","4","5","4","5","4","8","7","7","8","8","7","9","7","8","5","4","6","5","4","4","5","1","4","3","5","4","6","4","4","6","5","4","5","4","4","5","5","6","3","6","6","6","6","7","5","6","3","5","5","6","6","5","4","6","730010828753080322","李","117","Female","[""坏她"",""坏我"",""好她"",""好我""]","[""弱她"",""弱我"",""强她"",""强我""]","","","","","","","","","","","","","","","","","","","","","","","","","","","","","","feedback_test","","","","","","","",""
"10135","<style>.context{color:white; font-size: 35px; line-height:40px}</style>                          <div><p class='context'>您正确回答了81% 的试次。</p><p class='context'>您的平均反应时为958毫秒。</p><p class='context'>恭喜您完成练习。按空格键进入正式实验。</p><p class='footer' style='color:white;font-size: 35px; line-height:40px;'>请在进入正式实验实验之前将您的<span style='color: lightgreen;'>食指</span>放在电脑键盘的相应键位上进行按键。</p>"," ","html-keyboard-response","106","308638","0.0-8.0-1.0-2.0","5","4","5","4","5","5","3","4","5","5","5","-1","0","0","1","-2","1","0","0","5","4","5","5","4","4","5","4","5","4","8","7","7","8","8","7","9","7","8","5","4","6","5","4","4","5","1","4","3","5","4","6","4","4","6","5","4","5","4","4","5","5","6","3","6","6","6","6","7","5","6","3","5","5","6","6","5","4","6","730010828753080322","李","117","Female","[""坏她"",""坏我"",""好她"",""好我""]","[""弱她"",""弱我"",""强她"",""强我""]","","","","","","","","","","","","","","","","","","","","","","","","","","","","","","","","","","","","","",""
"713","
  <p style='color: white; font-size: 22px'>请您将手指放在按键上，准备进入正式的匹配任务。</p>
  <p> <div style = ""color: green""><按空格键进入下一阶段的匹配任务></div></p>
  "," ","html-keyboard-response","107","309365","0.0-8.0-1.0-3.0","5","4","5","4","5","5","3","4","5","5","5","-1","0","0","1","-2","1","0","0","5","4","5","5","4","4","5","4","5","4","8","7","7","8","8","7","9","7","8","5","4","6","5","4","4","5","1","4","3","5","4","6","4","4","6","5","4","5","4","4","5","5","6","3","6","6","6","6","7","5","6","3","5","5","6","6","5","4","6","730010828753080322","李","117","Female","[""坏她"",""坏我"",""好她"",""好我""]","[""弱她"",""弱我"",""强她"",""强我""]","","","","","","","","","","","","","","","","","","","","","","","","","","","","","","","","","","","","","",""
"806","","j","psychophysics","108","311182","0.0-8.0-1.0-4.0-0.0-0.0","5","4","5","4","5","5","3","4","5","5","5","-1","0","0","1","-2","1","0","0","5","4","5","5","4","4","5","4","5","4","8","7","7","8","8","7","9","7","8","5","4","6","5","4","4","5","1","4","3","5","4","6","4","4","6","5","4","5","4","4","5","5","6","3","6","6","6","6","7","5","6","3","5","5","6","6","5","4","6","730010828753080322","李","117","Female","[""坏她"",""坏我"",""好她"",""好我""]","[""弱她"",""弱我"",""强她"",""强我""]","","","","","","","","match","","","","","","","","","","key","j","16.833542056074887","683","380","j","true","match","img/square.png","强她","强她","ALT2","ability","","","","","","","",""
"null","<span style='color:GreenYellow; font-size: 70px;'>正确! </span>","null","html-keyboard-response","109","311688","0.0-8.0-1.0-4.0-0.0-1.0","5","4","5","4","5","5","3","4","5","5","5","-1","0","0","1","-2","1","0","0","5","4","5","5","4","4","5","4","5","4","8","7","7","8","8","7","9","7","8","5","4","6","5","4","4","5","1","4","3","5","4","6","4","4","6","5","4","5","4","4","5","5","6","3","6","6","6","6","7","5","6","3","5","5","6","6","5","4","6","730010828753080322","李","117","Female","[""坏她"",""坏我"",""好她"",""好我""]","[""弱她"",""弱我"",""强她"",""强我""]","","","","","","","","","","","","","","","","","","","","","","","","","","","","","","feedback_test","","","","","","","",""
"1012","","f","psychophysics","110","313709","0.0-8.0-1.0-4.0-0.0-0.1","5","4","5","4","5","5","3","4","5","5","5","-1","0","0","1","-2","1","0","0","5","4","5","5","4","4","5","4","5","4","8","7","7","8","8","7","9","7","8","5","4","6","5","4","4","5","1","4","3","5","4","6","4","4","6","5","4","5","4","4","5","5","6","3","6","6","6","6","7","5","6","3","5","5","6","6","5","4","6","730010828753080322","李","117","Female","[""坏她"",""坏我"",""好她"",""好我""]","[""弱她"",""弱我"",""强她"",""强我""]","","","","","","","","nonmatch","","","","","","","","","","key","f","16.66477310924376","683","380","f","true","nonmatch","img/pentagon.png","弱我","强我","ALT2","ability","","","","","","","",""
"null","<span style='color:GreenYellow; font-size: 70px;'>正确! </span>","null","html-keyboard-response","111","314215","0.0-8.0-1.0-4.0-0.0-1.1","5","4","5","4","5","5","3","4","5","5","5","-1","0","0","1","-2","1","0","0","5","4","5","5","4","4","5","4","5","4","8","7","7","8","8","7","9","7","8","5","4","6","5","4","4","5","1","4","3","5","4","6","4","4","6","5","4","5","4","4","5","5","6","3","6","6","6","6","7","5","6","3","5","5","6","6","5","4","6","730010828753080322","李","117","Female","[""坏她"",""坏我"",""好她"",""好我""]","[""弱她"",""弱我"",""强她"",""强我""]","","","","","","","","","","","","","","","","","","","","","","","","","","","","","","feedback_test","","","","","","","",""
"959","","f","psychophysics","112","316182","0.0-8.0-1.0-4.0-0.0-0.2","5","4","5","4","5","5","3","4","5","5","5","-1","0","0","1","-2","1","0","0","5","4","5","5","4","4","5","4","5","4","8","7","7","8","8","7","9","7","8","5","4","6","5","4","4","5","1","4","3","5","4","6","4","4","6","5","4","5","4","4","5","5","6","3","6","6","6","6","7","5","6","3","5","5","6","6","5","4","6","730010828753080322","李","117","Female","[""坏她"",""坏我"",""好她"",""好我""]","[""弱她"",""弱我"",""强她"",""强我""]","","","","","","","","nonmatch","","","","","","","","","","key","f","16.667439655172497","683","380","f","true","nonmatch","img/diamond.png","强我","弱她","ALT2","ability","","","","","","","",""
"null","<span style='color:GreenYellow; font-size: 70px;'>正确! </span>","null","html-keyboard-response","113","316687","0.0-8.0-1.0-4.0-0.0-1.2","5","4","5","4","5","5","3","4","5","5","5","-1","0","0","1","-2","1","0","0","5","4","5","5","4","4","5","4","5","4","8","7","7","8","8","7","9","7","8","5","4","6","5","4","4","5","1","4","3","5","4","6","4","4","6","5","4","5","4","4","5","5","6","3","6","6","6","6","7","5","6","3","5","5","6","6","5","4","6","730010828753080322","李","117","Female","[""坏她"",""坏我"",""好她"",""好我""]","[""弱她"",""弱我"",""强她"",""强我""]","","","","","","","","","","","","","","","","","","","","","","","","","","","","","","feedback_test","","","","","","","",""
"927","","j","psychophysics","114","318621","0.0-8.0-1.0-4.0-0.0-0.3","5","4","5","4","5","5","3","4","5","5","5","-1","0","0","1","-2","1","0","0","5","4","5","5","4","4","5","4","5","4","8","7","7","8","8","7","9","7","8","5","4","6","5","4","4","5","1","4","3","5","4","6","4","4","6","5","4","5","4","4","5","5","6","3","6","6","6","6","7","5","6","3","5","5","6","6","5","4","6","730010828753080322","李","117","Female","[""坏她"",""坏我"",""好她"",""好我""]","[""弱她"",""弱我"",""强她"",""强我""]","","","","","","","","match","","","","","","","","","","key","j","16.658283185840695","683","380","j","true","match","img/pentagon.png","强我","强我","ALT2","ability","","","","","","","",""
"null","<span style='color:GreenYellow; font-size: 70px;'>正确! </span>","null","html-keyboard-response","115","319127","0.0-8.0-1.0-4.0-0.0-1.3","5","4","5","4","5","5","3","4","5","5","5","-1","0","0","1","-2","1","0","0","5","4","5","5","4","4","5","4","5","4","8","7","7","8","8","7","9","7","8","5","4","6","5","4","4","5","1","4","3","5","4","6","4","4","6","5","4","5","4","4","5","5","6","3","6","6","6","6","7","5","6","3","5","5","6","6","5","4","6","730010828753080322","李","117","Female","[""坏她"",""坏我"",""好她"",""好我""]","[""弱她"",""弱我"",""强她"",""强我""]","","","","","","","","","","","","","","","","","","","","","","","","","","","","","","feedback_test","","","","","","","",""
"884","","j","psychophysics","116","321014","0.0-8.0-1.0-4.0-0.0-0.4","5","4","5","4","5","5","3","4","5","5","5","-1","0","0","1","-2","1","0","0","5","4","5","5","4","4","5","4","5","4","8","7","7","8","8","7","9","7","8","5","4","6","5","4","4","5","1","4","3","5","4","6","4","4","6","5","4","5","4","4","5","5","6","3","6","6","6","6","7","5","6","3","5","5","6","6","5","4","6","730010828753080322","李","117","Female","[""坏她"",""坏我"",""好她"",""好我""]","[""弱她"",""弱我"",""强她"",""强我""]","","","","","","","","match","","","","","","","","","","key","j","16.660500000000216","683","380","j","true","match","img/square.png","强她","强她","ALT2","ability","","","","","","","",""
"null","<span style='color:GreenYellow; font-size: 70px;'>正确! </span>","null","html-keyboard-response","117","321519","0.0-8.0-1.0-4.0-0.0-1.4","5","4","5","4","5","5","3","4","5","5","5","-1","0","0","1","-2","1","0","0","5","4","5","5","4","4","5","4","5","4","8","7","7","8","8","7","9","7","8","5","4","6","5","4","4","5","1","4","3","5","4","6","4","4","6","5","4","5","4","4","5","5","6","3","6","6","6","6","7","5","6","3","5","5","6","6","5","4","6","730010828753080322","李","117","Female","[""坏她"",""坏我"",""好她"",""好我""]","[""弱她"",""弱我"",""强她"",""强我""]","","","","","","","","","","","","","","","","","","","","","","","","","","","","","","feedback_test","","","","","","","",""
"1061","","j","psychophysics","118","323589","0.0-8.0-1.0-4.0-0.0-0.5","5","4","5","4","5","5","3","4","5","5","5","-1","0","0","1","-2","1","0","0","5","4","5","5","4","4","5","4","5","4","8","7","7","8","8","7","9","7","8","5","4","6","5","4","4","5","1","4","3","5","4","6","4","4","6","5","4","5","4","4","5","5","6","3","6","6","6","6","7","5","6","3","5","5","6","6","5","4","6","730010828753080322","李","117","Female","[""坏她"",""坏我"",""好她"",""好我""]","[""弱她"",""弱我"",""强她"",""强我""]","","","","","","","","match","","","","","","","","","","key","j","16.812024590163777","683","380","j","true","match","img/diamond.png","弱她","弱她","ALT2","ability","","","","","","","",""
"null","<span style='color:GreenYellow; font-size: 70px;'>正确! </span>","null","html-keyboard-response","119","324096","0.0-8.0-1.0-4.0-0.0-1.5","5","4","5","4","5","5","3","4","5","5","5","-1","0","0","1","-2","1","0","0","5","4","5","5","4","4","5","4","5","4","8","7","7","8","8","7","9","7","8","5","4","6","5","4","4","5","1","4","3","5","4","6","4","4","6","5","4","5","4","4","5","5","6","3","6","6","6","6","7","5","6","3","5","5","6","6","5","4","6","730010828753080322","李","117","Female","[""坏她"",""坏我"",""好她"",""好我""]","[""弱她"",""弱我"",""强她"",""强我""]","","","","","","","","","","","","","","","","","","","","","","","","","","","","","","feedback_test","","","","","","","",""
"992","","j","psychophysics","120","326096","0.0-8.0-1.0-4.0-0.0-0.6","5","4","5","4","5","5","3","4","5","5","5","-1","0","0","1","-2","1","0","0","5","4","5","5","4","4","5","4","5","4","8","7","7","8","8","7","9","7","8","5","4","6","5","4","4","5","1","4","3","5","4","6","4","4","6","5","4","5","4","4","5","5","6","3","6","6","6","6","7","5","6","3","5","5","6","6","5","4","6","730010828753080322","李","117","Female","[""坏她"",""坏我"",""好她"",""好我""]","[""弱她"",""弱我"",""强她"",""强我""]","","","","","","","","match","","","","","","","","","","key","j","16.667042735043186","683","380","j","true","match","img/circle.png","弱我","弱我","ALT2","ability","","","","","","","",""
"null","<span style='color:GreenYellow; font-size: 70px;'>正确! </span>","null","html-keyboard-response","121","326600","0.0-8.0-1.0-4.0-0.0-1.6","5","4","5","4","5","5","3","4","5","5","5","-1","0","0","1","-2","1","0","0","5","4","5","5","4","4","5","4","5","4","8","7","7","8","8","7","9","7","8","5","4","6","5","4","4","5","1","4","3","5","4","6","4","4","6","5","4","5","4","4","5","5","6","3","6","6","6","6","7","5","6","3","5","5","6","6","5","4","6","730010828753080322","李","117","Female","[""坏她"",""坏我"",""好她"",""好我""]","[""弱她"",""弱我"",""强她"",""强我""]","","","","","","","","","","","","","","","","","","","","","","","","","","","","","","feedback_test","","","","","","","",""
"957","","f","psychophysics","122","328565","0.0-8.0-1.0-4.0-0.0-0.7","5","4","5","4","5","5","3","4","5","5","5","-1","0","0","1","-2","1","0","0","5","4","5","5","4","4","5","4","5","4","8","7","7","8","8","7","9","7","8","5","4","6","5","4","4","5","1","4","3","5","4","6","4","4","6","5","4","5","4","4","5","5","6","3","6","6","6","6","7","5","6","3","5","5","6","6","5","4","6","730010828753080322","李","117","Female","[""坏她"",""坏我"",""好她"",""好我""]","[""弱她"",""弱我"",""强她"",""强我""]","","","","","","","","nonmatch","","","","","","","","","","key","f","16.664689655172346","683","380","f","true","nonmatch","img/pentagon.png","强她","强我","ALT2","ability","","","","","","","",""
"null","<span style='color:GreenYellow; font-size: 70px;'>正确! </span>","null","html-keyboard-response","123","329072","0.0-8.0-1.0-4.0-0.0-1.7","5","4","5","4","5","5","3","4","5","5","5","-1","0","0","1","-2","1","0","0","5","4","5","5","4","4","5","4","5","4","8","7","7","8","8","7","9","7","8","5","4","6","5","4","4","5","1","4","3","5","4","6","4","4","6","5","4","5","4","4","5","5","6","3","6","6","6","6","7","5","6","3","5","5","6","6","5","4","6","730010828753080322","李","117","Female","[""坏她"",""坏我"",""好她"",""好我""]","[""弱她"",""弱我"",""强她"",""强我""]","","","","","","","","","","","","","","","","","","","","","","","","","","","","","","feedback_test","","","","","","","",""
"1128","","f","psychophysics","124","331205","0.0-8.0-1.0-4.0-0.0-0.8","5","4","5","4","5","5","3","4","5","5","5","-1","0","0","1","-2","1","0","0","5","4","5","5","4","4","5","4","5","4","8","7","7","8","8","7","9","7","8","5","4","6","5","4","4","5","1","4","3","5","4","6","4","4","6","5","4","5","4","4","5","5","6","3","6","6","6","6","7","5","6","3","5","5","6","6","5","4","6","730010828753080322","李","117","Female","[""坏她"",""坏我"",""好她"",""好我""]","[""弱她"",""弱我"",""强她"",""强我""]","","","","","","","","nonmatch","","","","","","","","","","key","f","16.79155555555536","683","380","f","true","nonmatch","img/pentagon.png","弱她","强我","ALT2","ability","","","","","","","",""
"null","<span style='color:GreenYellow; font-size: 70px;'>正确! </span>","null","html-keyboard-response","125","331712","0.0-8.0-1.0-4.0-0.0-1.8","5","4","5","4","5","5","3","4","5","5","5","-1","0","0","1","-2","1","0","0","5","4","5","5","4","4","5","4","5","4","8","7","7","8","8","7","9","7","8","5","4","6","5","4","4","5","1","4","3","5","4","6","4","4","6","5","4","5","4","4","5","5","6","3","6","6","6","6","7","5","6","3","5","5","6","6","5","4","6","730010828753080322","李","117","Female","[""坏她"",""坏我"",""好她"",""好我""]","[""弱她"",""弱我"",""强她"",""强我""]","","","","","","","","","","","","","","","","","","","","","","","","","","","","","","feedback_test","","","","","","","",""
"1037","","f","psychophysics","126","333757","0.0-8.0-1.0-4.0-0.0-0.9","5","4","5","4","5","5","3","4","5","5","5","-1","0","0","1","-2","1","0","0","5","4","5","5","4","4","5","4","5","4","8","7","7","8","8","7","9","7","8","5","4","6","5","4","4","5","1","4","3","5","4","6","4","4","6","5","4","5","4","4","5","5","6","3","6","6","6","6","7","5","6","3","5","5","6","6","5","4","6","730010828753080322","李","117","Female","[""坏她"",""坏我"",""好她"",""好我""]","[""弱她"",""弱我"",""强她"",""强我""]","","","","","","","","nonmatch","","","","","","","","","","key","f","16.659760330578557","683","380","f","true","nonmatch","img/square.png","弱我","强她","ALT2","ability","","","","","","","",""
"null","<span style='color:GreenYellow; font-size: 70px;'>正确! </span>","null","html-keyboard-response","127","334264","0.0-8.0-1.0-4.0-0.0-1.9","5","4","5","4","5","5","3","4","5","5","5","-1","0","0","1","-2","1","0","0","5","4","5","5","4","4","5","4","5","4","8","7","7","8","8","7","9","7","8","5","4","6","5","4","4","5","1","4","3","5","4","6","4","4","6","5","4","5","4","4","5","5","6","3","6","6","6","6","7","5","6","3","5","5","6","6","5","4","6","730010828753080322","李","117","Female","[""坏她"",""坏我"",""好她"",""好我""]","[""弱她"",""弱我"",""强她"",""强我""]","","","","","","","","","","","","","","","","","","","","","","","","","","","","","","feedback_test","","","","","","","",""
"null","","null","psychophysics","128","336472","0.0-8.0-1.0-4.0-0.0-0.10","5","4","5","4","5","5","3","4","5","5","5","-1","0","0","1","-2","1","0","0","5","4","5","5","4","4","5","4","5","4","8","7","7","8","8","7","9","7","8","5","4","6","5","4","4","5","1","4","3","5","4","6","4","4","6","5","4","5","4","4","5","5","6","3","6","6","6","6","7","5","6","3","5","5","6","6","5","4","6","730010828753080322","李","117","Female","[""坏她"",""坏我"",""好她"",""好我""]","[""弱她"",""弱我"",""强她"",""强我""]","","","","","","","","null","","","","","","","","","","key","null","16.794892307692386","683","380","f","false","nonmatch","img/diamond.png","强她","弱她","ALT2","ability","","","","","","","",""
"null","<span class='add_' style='color:yellow; font-size: 70px;'> 太慢! </span>","null","html-keyboard-response","129","336976","0.0-8.0-1.0-4.0-0.0-1.10","5","4","5","4","5","5","3","4","5","5","5","-1","0","0","1","-2","1","0","0","5","4","5","5","4","4","5","4","5","4","8","7","7","8","8","7","9","7","8","5","4","6","5","4","4","5","1","4","3","5","4","6","4","4","6","5","4","5","4","4","5","5","6","3","6","6","6","6","7","5","6","3","5","5","6","6","5","4","6","730010828753080322","李","117","Female","[""坏她"",""坏我"",""好她"",""好我""]","[""弱她"",""弱我"",""强她"",""强我""]","","","","","","","","","","","","","","","","","","","","","","","","","","","","","","feedback_test","","","","","","","",""
"1074","","f","psychophysics","130","339053","0.0-8.0-1.0-4.0-0.0-0.11","5","4","5","4","5","5","3","4","5","5","5","-1","0","0","1","-2","1","0","0","5","4","5","5","4","4","5","4","5","4","8","7","7","8","8","7","9","7","8","5","4","6","5","4","4","5","1","4","3","5","4","6","4","4","6","5","4","5","4","4","5","5","6","3","6","6","6","6","7","5","6","3","5","5","6","6","5","4","6","730010828753080322","李","117","Female","[""坏她"",""坏我"",""好她"",""好我""]","[""弱她"",""弱我"",""强她"",""强我""]","","","","","","","","nonmatch","","","","","","","","","","key","f","16.668311475409713","683","380","f","true","nonmatch","img/circle.png","强我","弱我","ALT2","ability","","","","","","","",""
"null","<span style='color:GreenYellow; font-size: 70px;'>正确! </span>","null","html-keyboard-response","131","339559","0.0-8.0-1.0-4.0-0.0-1.11","5","4","5","4","5","5","3","4","5","5","5","-1","0","0","1","-2","1","0","0","5","4","5","5","4","4","5","4","5","4","8","7","7","8","8","7","9","7","8","5","4","6","5","4","4","5","1","4","3","5","4","6","4","4","6","5","4","5","4","4","5","5","6","3","6","6","6","6","7","5","6","3","5","5","6","6","5","4","6","730010828753080322","李","117","Female","[""坏她"",""坏我"",""好她"",""好我""]","[""弱她"",""弱我"",""强她"",""强我""]","","","","","","","","","","","","","","","","","","","","","","","","","","","","","","feedback_test","","","","","","","",""
"958","","f","psychophysics","132","341526","0.0-8.0-1.0-4.0-0.0-0.12","5","4","5","4","5","5","3","4","5","5","5","-1","0","0","1","-2","1","0","0","5","4","5","5","4","4","5","4","5","4","8","7","7","8","8","7","9","7","8","5","4","6","5","4","4","5","1","4","3","5","4","6","4","4","6","5","4","5","4","4","5","5","6","3","6","6","6","6","7","5","6","3","5","5","6","6","5","4","6","730010828753080322","李","117","Female","[""坏她"",""坏我"",""好她"",""好我""]","[""弱她"",""弱我"",""强她"",""强我""]","","","","","","","","nonmatch","","","","","","","","","","key","f","16.678086206896516","683","380","f","true","nonmatch","img/circle.png","强她","弱我","ALT2","ability","","","","","","","",""
"null","<span style='color:GreenYellow; font-size: 70px;'>正确! </span>","null","html-keyboard-response","133","342032","0.0-8.0-1.0-4.0-0.0-1.12","5","4","5","4","5","5","3","4","5","5","5","-1","0","0","1","-2","1","0","0","5","4","5","5","4","4","5","4","5","4","8","7","7","8","8","7","9","7","8","5","4","6","5","4","4","5","1","4","3","5","4","6","4","4","6","5","4","5","4","4","5","5","6","3","6","6","6","6","7","5","6","3","5","5","6","6","5","4","6","730010828753080322","李","117","Female","[""坏她"",""坏我"",""好她"",""好我""]","[""弱她"",""弱我"",""强她"",""强我""]","","","","","","","","","","","","","","","","","","","","","","","","","","","","","","feedback_test","","","","","","","",""
"1024","","f","psychophysics","134","344063","0.0-8.0-1.0-4.0-0.0-0.13","5","4","5","4","5","5","3","4","5","5","5","-1","0","0","1","-2","1","0","0","5","4","5","5","4","4","5","4","5","4","8","7","7","8","8","7","9","7","8","5","4","6","5","4","4","5","1","4","3","5","4","6","4","4","6","5","4","5","4","4","5","5","6","3","6","6","6","6","7","5","6","3","5","5","6","6","5","4","6","730010828753080322","李","117","Female","[""坏她"",""坏我"",""好她"",""好我""]","[""弱她"",""弱我"",""强她"",""强我""]","","","","","","","","nonmatch","","","","","","","","","","key","f","16.67271428571392","683","380","f","true","nonmatch","img/square.png","强我","强她","ALT2","ability","","","","","","","",""
"null","<span style='color:GreenYellow; font-size: 70px;'>正确! </span>","null","html-keyboard-response","135","344567","0.0-8.0-1.0-4.0-0.0-1.13","5","4","5","4","5","5","3","4","5","5","5","-1","0","0","1","-2","1","0","0","5","4","5","5","4","4","5","4","5","4","8","7","7","8","8","7","9","7","8","5","4","6","5","4","4","5","1","4","3","5","4","6","4","4","6","5","4","5","4","4","5","5","6","3","6","6","6","6","7","5","6","3","5","5","6","6","5","4","6","730010828753080322","李","117","Female","[""坏她"",""坏我"",""好她"",""好我""]","[""弱她"",""弱我"",""强她"",""强我""]","","","","","","","","","","","","","","","","","","","","","","","","","","","","","","feedback_test","","","","","","","",""
"884","","j","psychophysics","136","346462","0.0-8.0-1.0-4.0-0.0-0.14","5","4","5","4","5","5","3","4","5","5","5","-1","0","0","1","-2","1","0","0","5","4","5","5","4","4","5","4","5","4","8","7","7","8","8","7","9","7","8","5","4","6","5","4","4","5","1","4","3","5","4","6","4","4","6","5","4","5","4","4","5","5","6","3","6","6","6","6","7","5","6","3","5","5","6","6","5","4","6","730010828753080322","李","117","Female","[""坏她"",""坏我"",""好她"",""好我""]","[""弱她"",""弱我"",""强她"",""强我""]","","","","","","","","match","","","","","","","","","","key","j","16.670151785714552","683","380","j","true","match","img/pentagon.png","强我","强我","ALT2","ability","","","","","","","",""
"null","<span style='color:GreenYellow; font-size: 70px;'>正确! </span>","null","html-keyboard-response","137","346967","0.0-8.0-1.0-4.0-0.0-1.14","5","4","5","4","5","5","3","4","5","5","5","-1","0","0","1","-2","1","0","0","5","4","5","5","4","4","5","4","5","4","8","7","7","8","8","7","9","7","8","5","4","6","5","4","4","5","1","4","3","5","4","6","4","4","6","5","4","5","4","4","5","5","6","3","6","6","6","6","7","5","6","3","5","5","6","6","5","4","6","730010828753080322","李","117","Female","[""坏她"",""坏我"",""好她"",""好我""]","[""弱她"",""弱我"",""强她"",""强我""]","","","","","","","","","","","","","","","","","","","","","","","","","","","","","","feedback_test","","","","","","","",""
"1093","","j","psychophysics","138","349068","0.0-8.0-1.0-4.0-0.0-0.15","5","4","5","4","5","5","3","4","5","5","5","-1","0","0","1","-2","1","0","0","5","4","5","5","4","4","5","4","5","4","8","7","7","8","8","7","9","7","8","5","4","6","5","4","4","5","1","4","3","5","4","6","4","4","6","5","4","5","4","4","5","5","6","3","6","6","6","6","7","5","6","3","5","5","6","6","5","4","6","730010828753080322","李","117","Female","[""坏她"",""坏我"",""好她"",""好我""]","[""弱她"",""弱我"",""强她"",""强我""]","","","","","","","","match","","","","","","","","","","key","j","16.66938400000008","683","380","j","true","match","img/circle.png","弱我","弱我","ALT2","ability","","","","","","","",""
"null","<span style='color:GreenYellow; font-size: 70px;'>正确! </span>","null","html-keyboard-response","139","349576","0.0-8.0-1.0-4.0-0.0-1.15","5","4","5","4","5","5","3","4","5","5","5","-1","0","0","1","-2","1","0","0","5","4","5","5","4","4","5","4","5","4","8","7","7","8","8","7","9","7","8","5","4","6","5","4","4","5","1","4","3","5","4","6","4","4","6","5","4","5","4","4","5","5","6","3","6","6","6","6","7","5","6","3","5","5","6","6","5","4","6","730010828753080322","李","117","Female","[""坏她"",""坏我"",""好她"",""好我""]","[""弱她"",""弱我"",""强她"",""强我""]","","","","","","","","","","","","","","","","","","","","","","","","","","","","","","feedback_test","","","","","","","",""
