"rt","stimulus","response","trial_type","trial_index","time_elapsed","internal_node_id","swb_1","swb_2","swb_3","swb_4","swb_5","LOT_1","LOT_2","LOT_3","LOT_4","LOT_5","LOT_6","IPC_1","IPC_2","IPC_3","IPC_4","IPC_5","IPC_6","IPC_7","IPC_8","MorIden_1","MorIden_2","MorIden_3","MorIden_4","MorIden_5","MorIden_6","MorIden_7","MorIden_8","MorIden_9","MorIden_10","moralSeImag_1","moralSeImag_2","moralSeImag_3","moralSeImag_4","moralSeImag_5","moralSeImag_6","moralSeImag_7","moralSeImag_8","moralSeImag_9","sde_1","sde_2","sde_3","sde_4","sde_5","sde_6","sde_7","sde_8","sde_9","sde_10","sde_11","sde_12","sde_13","sde_14","sde_15","sde_16","sde_17","sde_18","sde_19","sde_20","IM_1","IM_2","IM_3","IM_4","IM_5","IM_6","IM_7","IM_8","IM_9","IM_10","IM_11","IM_12","IM_13","IM_14","IM_15","IM_16","IM_17","IM_18","IM_19","IM_20","subj_idx","friend_name","ParticipantID","Sex","Word","Word2","value","success","timeout","failed_images","failed_audio","failed_video","user_agent","responses","item_order","radio_event_ids","radio_event_times","key_event_times","mouse_event_times","straightlining","zigzagging","honeypot","view_history","response_type","key_press","avg_frame_time","center_x","center_y","correct_response","correct","identity","Image","word","condition","task_id","screen_id","time_stamp","person","valence","domain","math","status","duration","question_order"
"1945","
   <p><div style='color:white; font-size: 25px'>您好，欢迎参加本次实验。</div></p>
   <p><div style='color:white; font-size: 25px'>为充分保障您的权利，请确保您已经知晓并同意《参与实验同意书》以及《数据公开知情同意书》。</div></p>
   <p><div style='color:white; font-size: 25px'>如果您未见过上述内容，请咨询实验员。</div></p>
   <p style='color:white; font-size: 25px'>如果您选择继续实验，则表示您已经清楚两份知情同意书的内容并同意。</p>
   <p><div style = ""color: red;font-size:30px;"">请确保您记得day0的实验编号，您将在本次实验输入该编号，若您忘记，请咨询实验员后作答。</div></p>
   <p> <div style = ""color: green""><按空格键至下页></div> </p>
   "," ","html-keyboard-response","0","1948","0.0-0.0","6","5","4","3","3","5","2","4","4","5","4","1","0","0","1","-1","1","2","0","5","5","5","5","5","4","4","5","4","4","8","7","6","8","5","6","8","5","7","6","3","2","7","5","2","5","1","5","2","2","3","6","2","7","7","5","2","3","5","3","6","3","3","2","7","3","6","6","7","7","5","6","6","3","7","3","7","3","6","598907506583928832","刘","443","Male","[""坏我"",""坏他"",""好他"",""好我""]","[""弱我"",""弱他"",""强他"",""强我""]","","","","","","","","","","","","","","","","","","","","","","","","","","","","","","","","","","","","","",""
"","","","call-function","1","1949","0.0-1.0-0.0","6","5","4","3","3","5","2","4","4","5","4","1","0","0","1","-1","1","2","0","5","5","5","5","5","4","4","5","4","4","8","7","6","8","5","6","8","5","7","6","3","2","7","5","2","5","1","5","2","2","3","6","2","7","7","5","2","3","5","3","6","3","3","2","7","3","6","6","7","7","5","6","6","3","7","3","7","3","6","598907506583928832","刘","443","Male","[""坏我"",""坏他"",""好他"",""好我""]","[""弱我"",""弱他"",""强他"",""强我""]","","","","","","","","","","","","","","","","","","","","","","","","","","","","","","","","","","","","","",""
"52185","","[{""name"":""Sex"",""value"":""0""},{""name"":""friend_name"",""value"":""刘""},{""name"":""ParticipantID"",""value"":""443""}]","survey-html-form","2","54135","0.0-1.0-1.0","6","5","4","3","3","5","2","4","4","5","4","1","0","0","1","-1","1","2","0","5","5","5","5","5","4","4","5","4","4","8","7","6","8","5","6","8","5","7","6","3","2","7","5","2","5","1","5","2","2","3","6","2","7","7","5","2","3","5","3","6","3","3","2","7","3","6","6","7","7","5","6","6","3","7","3","7","3","6","598907506583928832","刘","443","Male","[""坏我"",""坏他"",""好他"",""好我""]","[""弱我"",""弱他"",""强他"",""强我""]","","","","","","","","","","","","","","","","","","","","","","","","","","","","","","","","","","","","","",""
"","","","preload","3","55091","0.0-2.0","6","5","4","3","3","5","2","4","4","5","4","1","0","0","1","-1","1","2","0","5","5","5","5","5","4","4","5","4","4","8","7","6","8","5","6","8","5","7","6","3","2","7","5","2","5","1","5","2","2","3","6","2","7","7","5","2","3","5","3","6","3","3","2","7","3","6","6","7","7","5","6","6","3","7","3","7","3","6","598907506583928832","刘","443","Male","[""坏我"",""坏他"",""好他"",""好我""]","[""弱我"",""弱他"",""强他"",""强我""]","","true","false","[]","[]","[]","","","","","","","","","","","","","","","","","","","","","","","","","","","","","","","",""
"","","","fullscreen","4","59172","0.0-3.0","6","5","4","3","3","5","2","4","4","5","4","1","0","0","1","-1","1","2","0","5","5","5","5","5","4","4","5","4","4","8","7","6","8","5","6","8","5","7","6","3","2","7","5","2","5","1","5","2","2","3","6","2","7","7","5","2","3","5","3","6","3","3","2","7","3","6","6","7","7","5","6","6","3","7","3","7","3","6","598907506583928832","刘","443","Male","[""坏我"",""坏他"",""好他"",""好我""]","[""弱我"",""弱他"",""强他"",""强我""]","","true","","","","","{}","","","","","","","","","","","","","","","","","","","","","","","","","","","","","","",""
"10207.5","","{""Q01"":""6"",""Q02"":""5"",""Q03"":""4"",""Q04"":""3"",""Q05"":""3""}","survey-template","5","69384","0.0-4.0","6","5","4","3","3","5","2","4","4","5","4","1","0","0","1","-1","1","2","0","5","5","5","5","5","4","4","5","4","4","8","7","6","8","5","6","8","5","7","6","3","2","7","5","2","5","1","5","2","2","3","6","2","7","7","5","2","3","5","3","6","3","3","2","7","3","6","6","7","7","5","6","6","3","7","3","7","3","6","598907506583928832","刘","443","Male","[""坏我"",""坏他"",""好他"",""好我""]","[""弱我"",""弱他"",""强他"",""强我""]","","","","","","","","{""Q01"":""6"",""Q02"":""5"",""Q03"":""4"",""Q04"":""3"",""Q05"":""3""}","[0,1,2,3,4]","[""Q01"",""Q02"",""Q03"",""Q04"",""Q05""]","[2286.5,3358.399999976158,6190.300000071526,8286.100000023842,9150.100000023842]","[]","[2286.5,3358.399999976158,6190.300000071526,8286.100000023842,9150.100000023842,10206.399999976158]","0.4","0.75","0","","","","","","","","","","","","","","","","","","","","","",""
"9976.799999952316","","{""Q01"":""5"",""Q02"":""2"",""Q03"":""4"",""Q04"":""4"",""Q05"":""5"",""Q06"":""4""}","survey-template","6","79367","0.0-5.0","6","5","4","3","3","5","2","4","4","5","4","1","0","0","1","-1","1","2","0","5","5","5","5","5","4","4","5","4","4","8","7","6","8","5","6","8","5","7","6","3","2","7","5","2","5","1","5","2","2","3","6","2","7","7","5","2","3","5","3","6","3","3","2","7","3","6","6","7","7","5","6","6","3","7","3","7","3","6","598907506583928832","刘","443","Male","[""坏我"",""坏他"",""好他"",""好我""]","[""弱我"",""弱他"",""强他"",""强我""]","","","","","","","","{""Q01"":""5"",""Q02"":""2"",""Q03"":""4"",""Q04"":""4"",""Q05"":""5"",""Q06"":""4""}","[0,1,2,3,4,5]","[""Q01"",""Q02"",""Q03"",""Q04"",""Q05"",""Q06""]","[1640.3999999761581,2944.5,4720.799999952316,6096.299999952316,7480.299999952316,9312.799999952316]","[]","[16.100000023841858,1640.3999999761581,2944.5,4720.799999952316,6096.299999952316,7480.299999952316,8816.399999976158,9312.799999952316,9976]","0.5","0.4","0","","","","","","","","","","","","","","","","","","","","","",""
"21301.399999976158","","{""Q01"":""1"",""Q02"":""0"",""Q03"":""0"",""Q04"":""1"",""Q05"":""-1"",""Q06"":""1"",""Q07"":""2"",""Q08"":""0""}","survey-template","7","100672","0.0-6.0","6","5","4","3","3","5","2","4","4","5","4","1","0","0","1","-1","1","2","0","5","5","5","5","5","4","4","5","4","4","8","7","6","8","5","6","8","5","7","6","3","2","7","5","2","5","1","5","2","2","3","6","2","7","7","5","2","3","5","3","6","3","3","2","7","3","6","6","7","7","5","6","6","3","7","3","7","3","6","598907506583928832","刘","443","Male","[""坏我"",""坏他"",""好他"",""好我""]","[""弱我"",""弱他"",""强他"",""强我""]","","","","","","","","{""Q01"":""1"",""Q02"":""0"",""Q03"":""0"",""Q04"":""1"",""Q05"":""-1"",""Q06"":""1"",""Q07"":""2"",""Q08"":""0""}","[0,1,2,3,4,5,6,7]","[""Q01"",""Q02"",""Q03"",""Q04"",""Q05"",""Q06"",""Q07"",""Q07"",""Q08"",""Q08""]","[3252.1999999284744,4395.699999928474,6572.199999928474,9004.199999928474,11587.899999976158,13123.699999928474,15388.099999904633,16075.899999976158,18780.099999904633,19731.899999976158]","[]","[2948.0999999046326,3252.1999999284744,3956.1999999284744,4395.699999928474,6572.199999928474,7803.799999952316,8244,9004.199999928474,11212.099999904633,11587.899999976158,13123.699999928474,14828.099999904633,15147.699999928474,15171.799999952316,15388.099999904633,16075.899999976158,17811.5,18324.199999928474,18780.099999904633,19731.899999976158,21300.399999976158]","0.375","0.42857142857142855","0","","","","","","","","","","","","","","","","","","","","","",""
"2708","","","instructions","8","103382","0.0-7.0","6","5","4","3","3","5","2","4","4","5","4","1","0","0","1","-1","1","2","0","5","5","5","5","5","4","4","5","4","4","8","7","6","8","5","6","8","5","7","6","3","2","7","5","2","5","1","5","2","2","3","6","2","7","7","5","2","3","5","3","6","3","3","2","7","3","6","6","7","7","5","6","6","3","7","3","7","3","6","598907506583928832","刘","443","Male","[""坏我"",""坏他"",""好他"",""好我""]","[""弱我"",""弱他"",""强他"",""强我""]","","","","","","","","","","","","","","","","","[{""page_index"":0,""viewing_time"":2708}]","","","","","","","","","","","","","","","","","","","","",""
"23796","","","instructions","9","127180","0.0-8.0-1.0-0.0","6","5","4","3","3","5","2","4","4","5","4","1","0","0","1","-1","1","2","0","5","5","5","5","5","4","4","5","4","4","8","7","6","8","5","6","8","5","7","6","3","2","7","5","2","5","1","5","2","2","3","6","2","7","7","5","2","3","5","3","6","3","3","2","7","3","6","6","7","7","5","6","6","3","7","3","7","3","6","598907506583928832","刘","443","Male","[""坏我"",""坏他"",""好他"",""好我""]","[""弱我"",""弱他"",""强他"",""强我""]","","","","","","","","","","","","","","","","","[{""page_index"":0,""viewing_time"":2966},{""page_index"":1,""viewing_time"":19224},{""page_index"":2,""viewing_time"":864},{""page_index"":3,""viewing_time"":742}]","","","","","","","","","","","","","","","","","","","","",""
"1007","","j","psychophysics","10","129192","0.0-8.0-1.0-1.0-0.0-0.0","6","5","4","3","3","5","2","4","4","5","4","1","0","0","1","-1","1","2","0","5","5","5","5","5","4","4","5","4","4","8","7","6","8","5","6","8","5","7","6","3","2","7","5","2","5","1","5","2","2","3","6","2","7","7","5","2","3","5","3","6","3","3","2","7","3","6","6","7","7","5","6","6","3","7","3","7","3","6","598907506583928832","刘","443","Male","[""坏我"",""坏他"",""好他"",""好我""]","[""弱我"",""弱他"",""强他"",""强我""]","","","","","","","","match","","","","","","","","","","key","j","16.67496666666666","758.3333534223067","422.22223340729164","f","false","nonmatch","img/triangle.png","强我","弱他","prac_ALT2_ability","practice_ability","","","","","","","",""
"null","<span style='color:red; font-size: 70px;'>错误! </span>","null","html-keyboard-response","11","129693","0.0-8.0-1.0-1.0-0.0-1.0","6","5","4","3","3","5","2","4","4","5","4","1","0","0","1","-1","1","2","0","5","5","5","5","5","4","4","5","4","4","8","7","6","8","5","6","8","5","7","6","3","2","7","5","2","5","1","5","2","2","3","6","2","7","7","5","2","3","5","3","6","3","3","2","7","3","6","6","7","7","5","6","6","3","7","3","7","3","6","598907506583928832","刘","443","Male","[""坏我"",""坏他"",""好他"",""好我""]","[""弱我"",""弱他"",""强他"",""强我""]","","","","","","","","","","","","","","","","","","","","","","","","","","","","","","feedback_test","","","","","","","",""
"null","","null","psychophysics","12","131896","0.0-8.0-1.0-1.0-0.0-0.1","6","5","4","3","3","5","2","4","4","5","4","1","0","0","1","-1","1","2","0","5","5","5","5","5","4","4","5","4","4","8","7","6","8","5","6","8","5","7","6","3","2","7","5","2","5","1","5","2","2","3","6","2","7","7","5","2","3","5","3","6","3","3","2","7","3","6","6","7","7","5","6","6","3","7","3","7","3","6","598907506583928832","刘","443","Male","[""坏我"",""坏他"",""好他"",""好我""]","[""弱我"",""弱他"",""强他"",""强我""]","","","","","","","","null","","","","","","","","","","key","null","16.675236641221417","758.3333534223067","422.22223340729164","f","false","nonmatch","img/square.png","弱他","弱我","prac_ALT2_ability","practice_ability","","","","","","","",""
"null","<span class='add_' style='color:yellow; font-size: 70px;'> 太慢! </span>","null","html-keyboard-response","13","132397","0.0-8.0-1.0-1.0-0.0-1.1","6","5","4","3","3","5","2","4","4","5","4","1","0","0","1","-1","1","2","0","5","5","5","5","5","4","4","5","4","4","8","7","6","8","5","6","8","5","7","6","3","2","7","5","2","5","1","5","2","2","3","6","2","7","7","5","2","3","5","3","6","3","3","2","7","3","6","6","7","7","5","6","6","3","7","3","7","3","6","598907506583928832","刘","443","Male","[""坏我"",""坏他"",""好他"",""好我""]","[""弱我"",""弱他"",""强他"",""强我""]","","","","","","","","","","","","","","","","","","","","","","","","","","","","","","feedback_test","","","","","","","",""
"817","","j","psychophysics","14","134216","0.0-8.0-1.0-1.0-0.0-0.2","6","5","4","3","3","5","2","4","4","5","4","1","0","0","1","-1","1","2","0","5","5","5","5","5","4","4","5","4","4","8","7","6","8","5","6","8","5","7","6","3","2","7","5","2","5","1","5","2","2","3","6","2","7","7","5","2","3","5","3","6","3","3","2","7","3","6","6","7","7","5","6","6","3","7","3","7","3","6","598907506583928832","刘","443","Male","[""坏我"",""坏他"",""好他"",""好我""]","[""弱我"",""弱他"",""强他"",""强我""]","","","","","","","","match","","","","","","","","","","key","j","16.67450925925934","758.3333534223067","422.22223340729164","j","true","match","img/triangle.png","弱他","弱他","prac_ALT2_ability","practice_ability","","","","","","","",""
"null","<span style='color:GreenYellow; font-size: 70px;'>正确! </span>","null","html-keyboard-response","15","134717","0.0-8.0-1.0-1.0-0.0-1.2","6","5","4","3","3","5","2","4","4","5","4","1","0","0","1","-1","1","2","0","5","5","5","5","5","4","4","5","4","4","8","7","6","8","5","6","8","5","7","6","3","2","7","5","2","5","1","5","2","2","3","6","2","7","7","5","2","3","5","3","6","3","3","2","7","3","6","6","7","7","5","6","6","3","7","3","7","3","6","598907506583928832","刘","443","Male","[""坏我"",""坏他"",""好他"",""好我""]","[""弱我"",""弱他"",""强他"",""强我""]","","","","","","","","","","","","","","","","","","","","","","","","","","","","","","feedback_test","","","","","","","",""
"916","","f","psychophysics","16","136636","0.0-8.0-1.0-1.0-0.0-0.3","6","5","4","3","3","5","2","4","4","5","4","1","0","0","1","-1","1","2","0","5","5","5","5","5","4","4","5","4","4","8","7","6","8","5","6","8","5","7","6","3","2","7","5","2","5","1","5","2","2","3","6","2","7","7","5","2","3","5","3","6","3","3","2","7","3","6","6","7","7","5","6","6","3","7","3","7","3","6","598907506583928832","刘","443","Male","[""坏我"",""坏他"",""好他"",""好我""]","[""弱我"",""弱他"",""强他"",""强我""]","","","","","","","","nonmatch","","","","","","","","","","key","f","16.67466666666651","758.3333534223067","422.22223340729164","j","false","match","img/square.png","弱我","弱我","prac_ALT2_ability","practice_ability","","","","","","","",""
"null","<span style='color:red; font-size: 70px;'>错误! </span>","null","html-keyboard-response","17","137138","0.0-8.0-1.0-1.0-0.0-1.3","6","5","4","3","3","5","2","4","4","5","4","1","0","0","1","-1","1","2","0","5","5","5","5","5","4","4","5","4","4","8","7","6","8","5","6","8","5","7","6","3","2","7","5","2","5","1","5","2","2","3","6","2","7","7","5","2","3","5","3","6","3","3","2","7","3","6","6","7","7","5","6","6","3","7","3","7","3","6","598907506583928832","刘","443","Male","[""坏我"",""坏他"",""好他"",""好我""]","[""弱我"",""弱他"",""强他"",""强我""]","","","","","","","","","","","","","","","","","","","","","","","","","","","","","","feedback_test","","","","","","","",""
"992","","j","psychophysics","18","139133","0.0-8.0-1.0-1.0-0.0-0.4","6","5","4","3","3","5","2","4","4","5","4","1","0","0","1","-1","1","2","0","5","5","5","5","5","4","4","5","4","4","8","7","6","8","5","6","8","5","7","6","3","2","7","5","2","5","1","5","2","2","3","6","2","7","7","5","2","3","5","3","6","3","3","2","7","3","6","6","7","7","5","6","6","3","7","3","7","3","6","598907506583928832","刘","443","Male","[""坏我"",""坏他"",""好他"",""好我""]","[""弱我"",""弱他"",""强他"",""强我""]","","","","","","","","match","","","","","","","","","","key","j","16.674764705882282","758.3333534223067","422.22223340729164","f","false","nonmatch","img/hexagon.png","强他","强我","prac_ALT2_ability","practice_ability","","","","","","","",""
"null","<span style='color:red; font-size: 70px;'>错误! </span>","null","html-keyboard-response","19","139642","0.0-8.0-1.0-1.0-0.0-1.4","6","5","4","3","3","5","2","4","4","5","4","1","0","0","1","-1","1","2","0","5","5","5","5","5","4","4","5","4","4","8","7","6","8","5","6","8","5","7","6","3","2","7","5","2","5","1","5","2","2","3","6","2","7","7","5","2","3","5","3","6","3","3","2","7","3","6","6","7","7","5","6","6","3","7","3","7","3","6","598907506583928832","刘","443","Male","[""坏我"",""坏他"",""好他"",""好我""]","[""弱我"",""弱他"",""强他"",""强我""]","","","","","","","","","","","","","","","","","","","","","","","","","","","","","","feedback_test","","","","","","","",""
"874","","j","psychophysics","20","141517","0.0-8.0-1.0-1.0-0.0-0.5","6","5","4","3","3","5","2","4","4","5","4","1","0","0","1","-1","1","2","0","5","5","5","5","5","4","4","5","4","4","8","7","6","8","5","6","8","5","7","6","3","2","7","5","2","5","1","5","2","2","3","6","2","7","7","5","2","3","5","3","6","3","3","2","7","3","6","6","7","7","5","6","6","3","7","3","7","3","6","598907506583928832","刘","443","Male","[""坏我"",""坏他"",""好他"",""好我""]","[""弱我"",""弱他"",""强他"",""强我""]","","","","","","","","match","","","","","","","","","","key","j","16.674351351351376","758.3333534223067","422.22223340729164","j","true","match","img/ellipse.png","强他","强他","prac_ALT2_ability","practice_ability","","","","","","","",""
"null","<span style='color:GreenYellow; font-size: 70px;'>正确! </span>","null","html-keyboard-response","21","142018","0.0-8.0-1.0-1.0-0.0-1.5","6","5","4","3","3","5","2","4","4","5","4","1","0","0","1","-1","1","2","0","5","5","5","5","5","4","4","5","4","4","8","7","6","8","5","6","8","5","7","6","3","2","7","5","2","5","1","5","2","2","3","6","2","7","7","5","2","3","5","3","6","3","3","2","7","3","6","6","7","7","5","6","6","3","7","3","7","3","6","598907506583928832","刘","443","Male","[""坏我"",""坏他"",""好他"",""好我""]","[""弱我"",""弱他"",""强他"",""强我""]","","","","","","","","","","","","","","","","","","","","","","","","","","","","","","feedback_test","","","","","","","",""
"804","","f","psychophysics","22","143824","0.0-8.0-1.0-1.0-0.0-0.6","6","5","4","3","3","5","2","4","4","5","4","1","0","0","1","-1","1","2","0","5","5","5","5","5","4","4","5","4","4","8","7","6","8","5","6","8","5","7","6","3","2","7","5","2","5","1","5","2","2","3","6","2","7","7","5","2","3","5","3","6","3","3","2","7","3","6","6","7","7","5","6","6","3","7","3","7","3","6","598907506583928832","刘","443","Male","[""坏我"",""坏他"",""好他"",""好我""]","[""弱我"",""弱他"",""强他"",""强我""]","","","","","","","","nonmatch","","","","","","","","","","key","f","16.675000000000054","758.3333534223067","422.22223340729164","f","true","nonmatch","img/triangle.png","强他","弱他","prac_ALT2_ability","practice_ability","","","","","","","",""
"null","<span style='color:GreenYellow; font-size: 70px;'>正确! </span>","null","html-keyboard-response","23","144331","0.0-8.0-1.0-1.0-0.0-1.6","6","5","4","3","3","5","2","4","4","5","4","1","0","0","1","-1","1","2","0","5","5","5","5","5","4","4","5","4","4","8","7","6","8","5","6","8","5","7","6","3","2","7","5","2","5","1","5","2","2","3","6","2","7","7","5","2","3","5","3","6","3","3","2","7","3","6","6","7","7","5","6","6","3","7","3","7","3","6","598907506583928832","刘","443","Male","[""坏我"",""坏他"",""好他"",""好我""]","[""弱我"",""弱他"",""强他"",""强我""]","","","","","","","","","","","","","","","","","","","","","","","","","","","","","","feedback_test","","","","","","","",""
"766","","j","psychophysics","24","146099","0.0-8.0-1.0-1.0-0.0-0.7","6","5","4","3","3","5","2","4","4","5","4","1","0","0","1","-1","1","2","0","5","5","5","5","5","4","4","5","4","4","8","7","6","8","5","6","8","5","7","6","3","2","7","5","2","5","1","5","2","2","3","6","2","7","7","5","2","3","5","3","6","3","3","2","7","3","6","6","7","7","5","6","6","3","7","3","7","3","6","598907506583928832","刘","443","Male","[""坏我"",""坏他"",""好他"",""好我""]","[""弱我"",""弱他"",""强他"",""强我""]","","","","","","","","match","","","","","","","","","","key","j","16.674752380952537","758.3333534223067","422.22223340729164","f","false","nonmatch","img/hexagon.png","弱我","强我","prac_ALT2_ability","practice_ability","","","","","","","",""
"null","<span style='color:red; font-size: 70px;'>错误! </span>","null","html-keyboard-response","25","146601","0.0-8.0-1.0-1.0-0.0-1.7","6","5","4","3","3","5","2","4","4","5","4","1","0","0","1","-1","1","2","0","5","5","5","5","5","4","4","5","4","4","8","7","6","8","5","6","8","5","7","6","3","2","7","5","2","5","1","5","2","2","3","6","2","7","7","5","2","3","5","3","6","3","3","2","7","3","6","6","7","7","5","6","6","3","7","3","7","3","6","598907506583928832","刘","443","Male","[""坏我"",""坏他"",""好他"",""好我""]","[""弱我"",""弱他"",""强他"",""强我""]","","","","","","","","","","","","","","","","","","","","","","","","","","","","","","feedback_test","","","","","","","",""
"664","","f","psychophysics","26","148266","0.0-8.0-1.0-1.0-0.0-0.8","6","5","4","3","3","5","2","4","4","5","4","1","0","0","1","-1","1","2","0","5","5","5","5","5","4","4","5","4","4","8","7","6","8","5","6","8","5","7","6","3","2","7","5","2","5","1","5","2","2","3","6","2","7","7","5","2","3","5","3","6","3","3","2","7","3","6","6","7","7","5","6","6","3","7","3","7","3","6","598907506583928832","刘","443","Male","[""坏我"",""坏他"",""好他"",""好我""]","[""弱我"",""弱他"",""强他"",""强我""]","","","","","","","","nonmatch","","","","","","","","","","key","f","16.67453535353545","758.3333534223067","422.22223340729164","f","true","nonmatch","img/square.png","强我","弱我","prac_ALT2_ability","practice_ability","","","","","","","",""
"null","<span style='color:GreenYellow; font-size: 70px;'>正确! </span>","null","html-keyboard-response","27","148767","0.0-8.0-1.0-1.0-0.0-1.8","6","5","4","3","3","5","2","4","4","5","4","1","0","0","1","-1","1","2","0","5","5","5","5","5","4","4","5","4","4","8","7","6","8","5","6","8","5","7","6","3","2","7","5","2","5","1","5","2","2","3","6","2","7","7","5","2","3","5","3","6","3","3","2","7","3","6","6","7","7","5","6","6","3","7","3","7","3","6","598907506583928832","刘","443","Male","[""坏我"",""坏他"",""好他"",""好我""]","[""弱我"",""弱他"",""强他"",""强我""]","","","","","","","","","","","","","","","","","","","","","","","","","","","","","","feedback_test","","","","","","","",""
"773","","j","psychophysics","28","150542","0.0-8.0-1.0-1.0-0.0-0.9","6","5","4","3","3","5","2","4","4","5","4","1","0","0","1","-1","1","2","0","5","5","5","5","5","4","4","5","4","4","8","7","6","8","5","6","8","5","7","6","3","2","7","5","2","5","1","5","2","2","3","6","2","7","7","5","2","3","5","3","6","3","3","2","7","3","6","6","7","7","5","6","6","3","7","3","7","3","6","598907506583928832","刘","443","Male","[""坏我"",""坏他"",""好他"",""好我""]","[""弱我"",""弱他"",""强他"",""强我""]","","","","","","","","match","","","","","","","","","","key","j","16.6764857142856","758.3333534223067","422.22223340729164","f","false","nonmatch","img/ellipse.png","弱我","强他","prac_ALT2_ability","practice_ability","","","","","","","",""
"null","<span style='color:red; font-size: 70px;'>错误! </span>","null","html-keyboard-response","29","151043","0.0-8.0-1.0-1.0-0.0-1.9","6","5","4","3","3","5","2","4","4","5","4","1","0","0","1","-1","1","2","0","5","5","5","5","5","4","4","5","4","4","8","7","6","8","5","6","8","5","7","6","3","2","7","5","2","5","1","5","2","2","3","6","2","7","7","5","2","3","5","3","6","3","3","2","7","3","6","6","7","7","5","6","6","3","7","3","7","3","6","598907506583928832","刘","443","Male","[""坏我"",""坏他"",""好他"",""好我""]","[""弱我"",""弱他"",""强他"",""强我""]","","","","","","","","","","","","","","","","","","","","","","","","","","","","","","feedback_test","","","","","","","",""
"875","","f","psychophysics","30","152920","0.0-8.0-1.0-1.0-0.0-0.10","6","5","4","3","3","5","2","4","4","5","4","1","0","0","1","-1","1","2","0","5","5","5","5","5","4","4","5","4","4","8","7","6","8","5","6","8","5","7","6","3","2","7","5","2","5","1","5","2","2","3","6","2","7","7","5","2","3","5","3","6","3","3","2","7","3","6","6","7","7","5","6","6","3","7","3","7","3","6","598907506583928832","刘","443","Male","[""坏我"",""坏他"",""好他"",""好我""]","[""弱我"",""弱他"",""强他"",""强我""]","","","","","","","","nonmatch","","","","","","","","","","key","f","16.674607142857244","758.3333534223067","422.22223340729164","f","true","nonmatch","img/square.png","强他","弱我","prac_ALT2_ability","practice_ability","","","","","","","",""
"null","<span style='color:GreenYellow; font-size: 70px;'>正确! </span>","null","html-keyboard-response","31","153421","0.0-8.0-1.0-1.0-0.0-1.10","6","5","4","3","3","5","2","4","4","5","4","1","0","0","1","-1","1","2","0","5","5","5","5","5","4","4","5","4","4","8","7","6","8","5","6","8","5","7","6","3","2","7","5","2","5","1","5","2","2","3","6","2","7","7","5","2","3","5","3","6","3","3","2","7","3","6","6","7","7","5","6","6","3","7","3","7","3","6","598907506583928832","刘","443","Male","[""坏我"",""坏他"",""好他"",""好我""]","[""弱我"",""弱他"",""强他"",""强我""]","","","","","","","","","","","","","","","","","","","","","","","","","","","","","","feedback_test","","","","","","","",""
"871","","j","psychophysics","32","155294","0.0-8.0-1.0-1.0-0.0-0.11","6","5","4","3","3","5","2","4","4","5","4","1","0","0","1","-1","1","2","0","5","5","5","5","5","4","4","5","4","4","8","7","6","8","5","6","8","5","7","6","3","2","7","5","2","5","1","5","2","2","3","6","2","7","7","5","2","3","5","3","6","3","3","2","7","3","6","6","7","7","5","6","6","3","7","3","7","3","6","598907506583928832","刘","443","Male","[""坏我"",""坏他"",""好他"",""好我""]","[""弱我"",""弱他"",""强他"",""强我""]","","","","","","","","match","","","","","","","","","","key","j","16.67453153153146","758.3333534223067","422.22223340729164","j","true","match","img/square.png","弱我","弱我","prac_ALT2_ability","practice_ability","","","","","","","",""
"null","<span style='color:GreenYellow; font-size: 70px;'>正确! </span>","null","html-keyboard-response","33","155797","0.0-8.0-1.0-1.0-0.0-1.11","6","5","4","3","3","5","2","4","4","5","4","1","0","0","1","-1","1","2","0","5","5","5","5","5","4","4","5","4","4","8","7","6","8","5","6","8","5","7","6","3","2","7","5","2","5","1","5","2","2","3","6","2","7","7","5","2","3","5","3","6","3","3","2","7","3","6","6","7","7","5","6","6","3","7","3","7","3","6","598907506583928832","刘","443","Male","[""坏我"",""坏他"",""好他"",""好我""]","[""弱我"",""弱他"",""强他"",""强我""]","","","","","","","","","","","","","","","","","","","","","","","","","","","","","","feedback_test","","","","","","","",""
"845","","j","psychophysics","34","157644","0.0-8.0-1.0-1.0-0.0-0.12","6","5","4","3","3","5","2","4","4","5","4","1","0","0","1","-1","1","2","0","5","5","5","5","5","4","4","5","4","4","8","7","6","8","5","6","8","5","7","6","3","2","7","5","2","5","1","5","2","2","3","6","2","7","7","5","2","3","5","3","6","3","3","2","7","3","6","6","7","7","5","6","6","3","7","3","7","3","6","598907506583928832","刘","443","Male","[""坏我"",""坏他"",""好他"",""好我""]","[""弱我"",""弱他"",""强他"",""强我""]","","","","","","","","match","","","","","","","","","","key","j","16.674809090909285","758.3333534223067","422.22223340729164","f","false","nonmatch","img/triangle.png","弱我","弱他","prac_ALT2_ability","practice_ability","","","","","","","",""
"null","<span style='color:red; font-size: 70px;'>错误! </span>","null","html-keyboard-response","35","158146","0.0-8.0-1.0-1.0-0.0-1.12","6","5","4","3","3","5","2","4","4","5","4","1","0","0","1","-1","1","2","0","5","5","5","5","5","4","4","5","4","4","8","7","6","8","5","6","8","5","7","6","3","2","7","5","2","5","1","5","2","2","3","6","2","7","7","5","2","3","5","3","6","3","3","2","7","3","6","6","7","7","5","6","6","3","7","3","7","3","6","598907506583928832","刘","443","Male","[""坏我"",""坏他"",""好他"",""好我""]","[""弱我"",""弱他"",""强他"",""强我""]","","","","","","","","","","","","","","","","","","","","","","","","","","","","","","feedback_test","","","","","","","",""
"808","","j","psychophysics","36","159955","0.0-8.0-1.0-1.0-0.0-0.13","6","5","4","3","3","5","2","4","4","5","4","1","0","0","1","-1","1","2","0","5","5","5","5","5","4","4","5","4","4","8","7","6","8","5","6","8","5","7","6","3","2","7","5","2","5","1","5","2","2","3","6","2","7","7","5","2","3","5","3","6","3","3","2","7","3","6","6","7","7","5","6","6","3","7","3","7","3","6","598907506583928832","刘","443","Male","[""坏我"",""坏他"",""好他"",""好我""]","[""弱我"",""弱他"",""强他"",""强我""]","","","","","","","","match","","","","","","","","","","key","j","16.674898148148106","758.3333534223067","422.22223340729164","j","true","match","img/triangle.png","弱他","弱他","prac_ALT2_ability","practice_ability","","","","","","","",""
"null","<span style='color:GreenYellow; font-size: 70px;'>正确! </span>","null","html-keyboard-response","37","160456","0.0-8.0-1.0-1.0-0.0-1.13","6","5","4","3","3","5","2","4","4","5","4","1","0","0","1","-1","1","2","0","5","5","5","5","5","4","4","5","4","4","8","7","6","8","5","6","8","5","7","6","3","2","7","5","2","5","1","5","2","2","3","6","2","7","7","5","2","3","5","3","6","3","3","2","7","3","6","6","7","7","5","6","6","3","7","3","7","3","6","598907506583928832","刘","443","Male","[""坏我"",""坏他"",""好他"",""好我""]","[""弱我"",""弱他"",""强他"",""强我""]","","","","","","","","","","","","","","","","","","","","","","","","","","","","","","feedback_test","","","","","","","",""
"770","","f","psychophysics","38","162228","0.0-8.0-1.0-1.0-0.0-0.14","6","5","4","3","3","5","2","4","4","5","4","1","0","0","1","-1","1","2","0","5","5","5","5","5","4","4","5","4","4","8","7","6","8","5","6","8","5","7","6","3","2","7","5","2","5","1","5","2","2","3","6","2","7","7","5","2","3","5","3","6","3","3","2","7","3","6","6","7","7","5","6","6","3","7","3","7","3","6","598907506583928832","刘","443","Male","[""坏我"",""坏他"",""好他"",""好我""]","[""弱我"",""弱他"",""强他"",""强我""]","","","","","","","","nonmatch","","","","","","","","","","key","f","16.677695238095197","758.3333534223067","422.22223340729164","j","false","match","img/ellipse.png","强他","强他","prac_ALT2_ability","practice_ability","","","","","","","",""
"null","<span style='color:red; font-size: 70px;'>错误! </span>","null","html-keyboard-response","39","162730","0.0-8.0-1.0-1.0-0.0-1.14","6","5","4","3","3","5","2","4","4","5","4","1","0","0","1","-1","1","2","0","5","5","5","5","5","4","4","5","4","4","8","7","6","8","5","6","8","5","7","6","3","2","7","5","2","5","1","5","2","2","3","6","2","7","7","5","2","3","5","3","6","3","3","2","7","3","6","6","7","7","5","6","6","3","7","3","7","3","6","598907506583928832","刘","443","Male","[""坏我"",""坏他"",""好他"",""好我""]","[""弱我"",""弱他"",""强他"",""强我""]","","","","","","","","","","","","","","","","","","","","","","","","","","","","","","feedback_test","","","","","","","",""
"827","","f","psychophysics","40","164559","0.0-8.0-1.0-1.0-0.0-0.15","6","5","4","3","3","5","2","4","4","5","4","1","0","0","1","-1","1","2","0","5","5","5","5","5","4","4","5","4","4","8","7","6","8","5","6","8","5","7","6","3","2","7","5","2","5","1","5","2","2","3","6","2","7","7","5","2","3","5","3","6","3","3","2","7","3","6","6","7","7","5","6","6","3","7","3","7","3","6","598907506583928832","刘","443","Male","[""坏我"",""坏他"",""好他"",""好我""]","[""弱我"",""弱他"",""强他"",""强我""]","","","","","","","","nonmatch","","","","","","","","","","key","f","16.677192660550578","758.3333534223067","422.22223340729164","f","true","nonmatch","img/ellipse.png","弱他","强他","prac_ALT2_ability","practice_ability","","","","","","","",""
"null","<span style='color:GreenYellow; font-size: 70px;'>正确! </span>","null","html-keyboard-response","41","165060","0.0-8.0-1.0-1.0-0.0-1.15","6","5","4","3","3","5","2","4","4","5","4","1","0","0","1","-1","1","2","0","5","5","5","5","5","4","4","5","4","4","8","7","6","8","5","6","8","5","7","6","3","2","7","5","2","5","1","5","2","2","3","6","2","7","7","5","2","3","5","3","6","3","3","2","7","3","6","6","7","7","5","6","6","3","7","3","7","3","6","598907506583928832","刘","443","Male","[""坏我"",""坏他"",""好他"",""好我""]","[""弱我"",""弱他"",""强他"",""强我""]","","","","","","","","","","","","","","","","","","","","","","","","","","","","","","feedback_test","","","","","","","",""
"809","","j","psychophysics","42","166872","0.0-8.0-1.0-1.0-0.0-0.16","6","5","4","3","3","5","2","4","4","5","4","1","0","0","1","-1","1","2","0","5","5","5","5","5","4","4","5","4","4","8","7","6","8","5","6","8","5","7","6","3","2","7","5","2","5","1","5","2","2","3","6","2","7","7","5","2","3","5","3","6","3","3","2","7","3","6","6","7","7","5","6","6","3","7","3","7","3","6","598907506583928832","刘","443","Male","[""坏我"",""坏他"",""好他"",""好我""]","[""弱我"",""弱他"",""强他"",""强我""]","","","","","","","","match","","","","","","","","","","key","j","16.674907407407268","758.3333534223067","422.22223340729164","f","false","nonmatch","img/ellipse.png","强我","强他","prac_ALT2_ability","practice_ability","","","","","","","",""
"null","<span style='color:red; font-size: 70px;'>错误! </span>","null","html-keyboard-response","43","167374","0.0-8.0-1.0-1.0-0.0-1.16","6","5","4","3","3","5","2","4","4","5","4","1","0","0","1","-1","1","2","0","5","5","5","5","5","4","4","5","4","4","8","7","6","8","5","6","8","5","7","6","3","2","7","5","2","5","1","5","2","2","3","6","2","7","7","5","2","3","5","3","6","3","3","2","7","3","6","6","7","7","5","6","6","3","7","3","7","3","6","598907506583928832","刘","443","Male","[""坏我"",""坏他"",""好他"",""好我""]","[""弱我"",""弱他"",""强他"",""强我""]","","","","","","","","","","","","","","","","","","","","","","","","","","","","","","feedback_test","","","","","","","",""
"1053","","f","psychophysics","44","169429","0.0-8.0-1.0-1.0-0.0-0.17","6","5","4","3","3","5","2","4","4","5","4","1","0","0","1","-1","1","2","0","5","5","5","5","5","4","4","5","4","4","8","7","6","8","5","6","8","5","7","6","3","2","7","5","2","5","1","5","2","2","3","6","2","7","7","5","2","3","5","3","6","3","3","2","7","3","6","6","7","7","5","6","6","3","7","3","7","3","6","598907506583928832","刘","443","Male","[""坏我"",""坏他"",""好他"",""好我""]","[""弱我"",""弱他"",""强他"",""强我""]","","","","","","","","nonmatch","","","","","","","","","","key","f","16.674475409836006","758.3333534223067","422.22223340729164","j","false","match","img/square.png","弱我","弱我","prac_ALT2_ability","practice_ability","","","","","","","",""
"null","<span style='color:red; font-size: 70px;'>错误! </span>","null","html-keyboard-response","45","169930","0.0-8.0-1.0-1.0-0.0-1.17","6","5","4","3","3","5","2","4","4","5","4","1","0","0","1","-1","1","2","0","5","5","5","5","5","4","4","5","4","4","8","7","6","8","5","6","8","5","7","6","3","2","7","5","2","5","1","5","2","2","3","6","2","7","7","5","2","3","5","3","6","3","3","2","7","3","6","6","7","7","5","6","6","3","7","3","7","3","6","598907506583928832","刘","443","Male","[""坏我"",""坏他"",""好他"",""好我""]","[""弱我"",""弱他"",""强他"",""强我""]","","","","","","","","","","","","","","","","","","","","","","","","","","","","","","feedback_test","","","","","","","",""
"794","","j","psychophysics","46","171727","0.0-8.0-1.0-1.0-0.0-0.18","6","5","4","3","3","5","2","4","4","5","4","1","0","0","1","-1","1","2","0","5","5","5","5","5","4","4","5","4","4","8","7","6","8","5","6","8","5","7","6","3","2","7","5","2","5","1","5","2","2","3","6","2","7","7","5","2","3","5","3","6","3","3","2","7","3","6","6","7","7","5","6","6","3","7","3","7","3","6","598907506583928832","刘","443","Male","[""坏我"",""坏他"",""好他"",""好我""]","[""弱我"",""弱他"",""强他"",""强我""]","","","","","","","","match","","","","","","","","","","key","j","16.675532710280436","758.3333534223067","422.22223340729164","f","false","nonmatch","img/hexagon.png","弱他","强我","prac_ALT2_ability","practice_ability","","","","","","","",""
"null","<span style='color:red; font-size: 70px;'>错误! </span>","null","html-keyboard-response","47","172228","0.0-8.0-1.0-1.0-0.0-1.18","6","5","4","3","3","5","2","4","4","5","4","1","0","0","1","-1","1","2","0","5","5","5","5","5","4","4","5","4","4","8","7","6","8","5","6","8","5","7","6","3","2","7","5","2","5","1","5","2","2","3","6","2","7","7","5","2","3","5","3","6","3","3","2","7","3","6","6","7","7","5","6","6","3","7","3","7","3","6","598907506583928832","刘","443","Male","[""坏我"",""坏他"",""好他"",""好我""]","[""弱我"",""弱他"",""强他"",""强我""]","","","","","","","","","","","","","","","","","","","","","","","","","","","","","","feedback_test","","","","","","","",""
"781","","f","psychophysics","48","174012","0.0-8.0-1.0-1.0-0.0-0.19","6","5","4","3","3","5","2","4","4","5","4","1","0","0","1","-1","1","2","0","5","5","5","5","5","4","4","5","4","4","8","7","6","8","5","6","8","5","7","6","3","2","7","5","2","5","1","5","2","2","3","6","2","7","7","5","2","3","5","3","6","3","3","2","7","3","6","6","7","7","5","6","6","3","7","3","7","3","6","598907506583928832","刘","443","Male","[""坏我"",""坏他"",""好他"",""好我""]","[""弱我"",""弱他"",""强他"",""强我""]","","","","","","","","nonmatch","","","","","","","","","","key","f","16.674754716981177","758.3333534223067","422.22223340729164","j","false","match","img/hexagon.png","强我","强我","prac_ALT2_ability","practice_ability","","","","","","","",""
"null","<span style='color:red; font-size: 70px;'>错误! </span>","null","html-keyboard-response","49","174513","0.0-8.0-1.0-1.0-0.0-1.19","6","5","4","3","3","5","2","4","4","5","4","1","0","0","1","-1","1","2","0","5","5","5","5","5","4","4","5","4","4","8","7","6","8","5","6","8","5","7","6","3","2","7","5","2","5","1","5","2","2","3","6","2","7","7","5","2","3","5","3","6","3","3","2","7","3","6","6","7","7","5","6","6","3","7","3","7","3","6","598907506583928832","刘","443","Male","[""坏我"",""坏他"",""好他"",""好我""]","[""弱我"",""弱他"",""强他"",""强我""]","","","","","","","","","","","","","","","","","","","","","","","","","","","","","","feedback_test","","","","","","","",""
"892","","f","psychophysics","50","176407","0.0-8.0-1.0-1.0-0.0-0.20","6","5","4","3","3","5","2","4","4","5","4","1","0","0","1","-1","1","2","0","5","5","5","5","5","4","4","5","4","4","8","7","6","8","5","6","8","5","7","6","3","2","7","5","2","5","1","5","2","2","3","6","2","7","7","5","2","3","5","3","6","3","3","2","7","3","6","6","7","7","5","6","6","3","7","3","7","3","6","598907506583928832","刘","443","Male","[""坏我"",""坏他"",""好他"",""好我""]","[""弱我"",""弱他"",""强他"",""强我""]","","","","","","","","nonmatch","","","","","","","","","","key","f","16.675107142857087","758.3333534223067","422.22223340729164","j","false","match","img/hexagon.png","强我","强我","prac_ALT2_ability","practice_ability","","","","","","","",""
"null","<span style='color:red; font-size: 70px;'>错误! </span>","null","html-keyboard-response","51","176910","0.0-8.0-1.0-1.0-0.0-1.20","6","5","4","3","3","5","2","4","4","5","4","1","0","0","1","-1","1","2","0","5","5","5","5","5","4","4","5","4","4","8","7","6","8","5","6","8","5","7","6","3","2","7","5","2","5","1","5","2","2","3","6","2","7","7","5","2","3","5","3","6","3","3","2","7","3","6","6","7","7","5","6","6","3","7","3","7","3","6","598907506583928832","刘","443","Male","[""坏我"",""坏他"",""好他"",""好我""]","[""弱我"",""弱他"",""强他"",""强我""]","","","","","","","","","","","","","","","","","","","","","","","","","","","","","","feedback_test","","","","","","","",""
"813","","f","psychophysics","52","178726","0.0-8.0-1.0-1.0-0.0-0.21","6","5","4","3","3","5","2","4","4","5","4","1","0","0","1","-1","1","2","0","5","5","5","5","5","4","4","5","4","4","8","7","6","8","5","6","8","5","7","6","3","2","7","5","2","5","1","5","2","2","3","6","2","7","7","5","2","3","5","3","6","3","3","2","7","3","6","6","7","7","5","6","6","3","7","3","7","3","6","598907506583928832","刘","443","Male","[""坏我"",""坏他"",""好他"",""好我""]","[""弱我"",""弱他"",""强他"",""强我""]","","","","","","","","nonmatch","","","","","","","","","","key","f","16.675093457944065","758.3333534223067","422.22223340729164","j","false","match","img/ellipse.png","强他","强他","prac_ALT2_ability","practice_ability","","","","","","","",""
"null","<span style='color:red; font-size: 70px;'>错误! </span>","null","html-keyboard-response","53","179227","0.0-8.0-1.0-1.0-0.0-1.21","6","5","4","3","3","5","2","4","4","5","4","1","0","0","1","-1","1","2","0","5","5","5","5","5","4","4","5","4","4","8","7","6","8","5","6","8","5","7","6","3","2","7","5","2","5","1","5","2","2","3","6","2","7","7","5","2","3","5","3","6","3","3","2","7","3","6","6","7","7","5","6","6","3","7","3","7","3","6","598907506583928832","刘","443","Male","[""坏我"",""坏他"",""好他"",""好我""]","[""弱我"",""弱他"",""强他"",""强我""]","","","","","","","","","","","","","","","","","","","","","","","","","","","","","","feedback_test","","","","","","","",""
"774","","f","psychophysics","54","181003","0.0-8.0-1.0-1.0-0.0-0.22","6","5","4","3","3","5","2","4","4","5","4","1","0","0","1","-1","1","2","0","5","5","5","5","5","4","4","5","4","4","8","7","6","8","5","6","8","5","7","6","3","2","7","5","2","5","1","5","2","2","3","6","2","7","7","5","2","3","5","3","6","3","3","2","7","3","6","6","7","7","5","6","6","3","7","3","7","3","6","598907506583928832","刘","443","Male","[""坏我"",""坏他"",""好他"",""好我""]","[""弱我"",""弱他"",""强他"",""强我""]","","","","","","","","nonmatch","","","","","","","","","","key","f","16.674676190476056","758.3333534223067","422.22223340729164","j","false","match","img/triangle.png","弱他","弱他","prac_ALT2_ability","practice_ability","","","","","","","",""
"null","<span style='color:red; font-size: 70px;'>错误! </span>","null","html-keyboard-response","55","181504","0.0-8.0-1.0-1.0-0.0-1.22","6","5","4","3","3","5","2","4","4","5","4","1","0","0","1","-1","1","2","0","5","5","5","5","5","4","4","5","4","4","8","7","6","8","5","6","8","5","7","6","3","2","7","5","2","5","1","5","2","2","3","6","2","7","7","5","2","3","5","3","6","3","3","2","7","3","6","6","7","7","5","6","6","3","7","3","7","3","6","598907506583928832","刘","443","Male","[""坏我"",""坏他"",""好他"",""好我""]","[""弱我"",""弱他"",""强他"",""强我""]","","","","","","","","","","","","","","","","","","","","","","","","","","","","","","feedback_test","","","","","","","",""
"729","","f","psychophysics","56","183234","0.0-8.0-1.0-1.0-0.0-0.23","6","5","4","3","3","5","2","4","4","5","4","1","0","0","1","-1","1","2","0","5","5","5","5","5","4","4","5","4","4","8","7","6","8","5","6","8","5","7","6","3","2","7","5","2","5","1","5","2","2","3","6","2","7","7","5","2","3","5","3","6","3","3","2","7","3","6","6","7","7","5","6","6","3","7","3","7","3","6","598907506583928832","刘","443","Male","[""坏我"",""坏他"",""好他"",""好我""]","[""弱我"",""弱他"",""强他"",""强我""]","","","","","","","","nonmatch","","","","","","","","","","key","f","16.671582524271656","758.3333534223067","422.22223340729164","j","false","match","img/hexagon.png","强我","强我","prac_ALT2_ability","practice_ability","","","","","","","",""
"null","<span style='color:red; font-size: 70px;'>错误! </span>","null","html-keyboard-response","57","183736","0.0-8.0-1.0-1.0-0.0-1.23","6","5","4","3","3","5","2","4","4","5","4","1","0","0","1","-1","1","2","0","5","5","5","5","5","4","4","5","4","4","8","7","6","8","5","6","8","5","7","6","3","2","7","5","2","5","1","5","2","2","3","6","2","7","7","5","2","3","5","3","6","3","3","2","7","3","6","6","7","7","5","6","6","3","7","3","7","3","6","598907506583928832","刘","443","Male","[""坏我"",""坏他"",""好他"",""好我""]","[""弱我"",""弱他"",""强他"",""强我""]","","","","","","","","","","","","","","","","","","","","","","","","","","","","","","feedback_test","","","","","","","",""
"802","","f","psychophysics","58","185539","0.0-8.0-1.0-1.0-0.0-0.24","6","5","4","3","3","5","2","4","4","5","4","1","0","0","1","-1","1","2","0","5","5","5","5","5","4","4","5","4","4","8","7","6","8","5","6","8","5","7","6","3","2","7","5","2","5","1","5","2","2","3","6","2","7","7","5","2","3","5","3","6","3","3","2","7","3","6","6","7","7","5","6","6","3","7","3","7","3","6","598907506583928832","刘","443","Male","[""坏我"",""坏他"",""好他"",""好我""]","[""弱我"",""弱他"",""强他"",""强我""]","","","","","","","","nonmatch","","","","","","","","","","key","f","16.675953271027947","758.3333534223067","422.22223340729164","f","true","nonmatch","img/triangle.png","强他","弱他","prac_ALT2_ability","practice_ability","","","","","","","",""
"null","<span style='color:GreenYellow; font-size: 70px;'>正确! </span>","null","html-keyboard-response","59","186040","0.0-8.0-1.0-1.0-0.0-1.24","6","5","4","3","3","5","2","4","4","5","4","1","0","0","1","-1","1","2","0","5","5","5","5","5","4","4","5","4","4","8","7","6","8","5","6","8","5","7","6","3","2","7","5","2","5","1","5","2","2","3","6","2","7","7","5","2","3","5","3","6","3","3","2","7","3","6","6","7","7","5","6","6","3","7","3","7","3","6","598907506583928832","刘","443","Male","[""坏我"",""坏他"",""好他"",""好我""]","[""弱我"",""弱他"",""强他"",""强我""]","","","","","","","","","","","","","","","","","","","","","","","","","","","","","","feedback_test","","","","","","","",""
"898","","f","psychophysics","60","187940","0.0-8.0-1.0-1.0-0.0-0.25","6","5","4","3","3","5","2","4","4","5","4","1","0","0","1","-1","1","2","0","5","5","5","5","5","4","4","5","4","4","8","7","6","8","5","6","8","5","7","6","3","2","7","5","2","5","1","5","2","2","3","6","2","7","7","5","2","3","5","3","6","3","3","2","7","3","6","6","7","7","5","6","6","3","7","3","7","3","6","598907506583928832","刘","443","Male","[""坏我"",""坏他"",""好他"",""好我""]","[""弱我"",""弱他"",""强他"",""强我""]","","","","","","","","nonmatch","","","","","","","","","","key","f","16.67519469026567","758.3333534223067","422.22223340729164","f","true","nonmatch","img/triangle.png","弱我","弱他","prac_ALT2_ability","practice_ability","","","","","","","",""
"null","<span style='color:GreenYellow; font-size: 70px;'>正确! </span>","null","html-keyboard-response","61","188442","0.0-8.0-1.0-1.0-0.0-1.25","6","5","4","3","3","5","2","4","4","5","4","1","0","0","1","-1","1","2","0","5","5","5","5","5","4","4","5","4","4","8","7","6","8","5","6","8","5","7","6","3","2","7","5","2","5","1","5","2","2","3","6","2","7","7","5","2","3","5","3","6","3","3","2","7","3","6","6","7","7","5","6","6","3","7","3","7","3","6","598907506583928832","刘","443","Male","[""坏我"",""坏他"",""好他"",""好我""]","[""弱我"",""弱他"",""强他"",""强我""]","","","","","","","","","","","","","","","","","","","","","","","","","","","","","","feedback_test","","","","","","","",""
"861","","j","psychophysics","62","190305","0.0-8.0-1.0-1.0-0.0-0.26","6","5","4","3","3","5","2","4","4","5","4","1","0","0","1","-1","1","2","0","5","5","5","5","5","4","4","5","4","4","8","7","6","8","5","6","8","5","7","6","3","2","7","5","2","5","1","5","2","2","3","6","2","7","7","5","2","3","5","3","6","3","3","2","7","3","6","6","7","7","5","6","6","3","7","3","7","3","6","598907506583928832","刘","443","Male","[""坏我"",""坏他"",""好他"",""好我""]","[""弱我"",""弱他"",""强他"",""强我""]","","","","","","","","match","","","","","","","","","","key","j","16.677297297297233","758.3333534223067","422.22223340729164","f","false","nonmatch","img/ellipse.png","弱我","强他","prac_ALT2_ability","practice_ability","","","","","","","",""
"null","<span style='color:red; font-size: 70px;'>错误! </span>","null","html-keyboard-response","63","190805","0.0-8.0-1.0-1.0-0.0-1.26","6","5","4","3","3","5","2","4","4","5","4","1","0","0","1","-1","1","2","0","5","5","5","5","5","4","4","5","4","4","8","7","6","8","5","6","8","5","7","6","3","2","7","5","2","5","1","5","2","2","3","6","2","7","7","5","2","3","5","3","6","3","3","2","7","3","6","6","7","7","5","6","6","3","7","3","7","3","6","598907506583928832","刘","443","Male","[""坏我"",""坏他"",""好他"",""好我""]","[""弱我"",""弱他"",""强他"",""强我""]","","","","","","","","","","","","","","","","","","","","","","","","","","","","","","feedback_test","","","","","","","",""
"713","","f","psychophysics","64","192520","0.0-8.0-1.0-1.0-0.0-0.27","6","5","4","3","3","5","2","4","4","5","4","1","0","0","1","-1","1","2","0","5","5","5","5","5","4","4","5","4","4","8","7","6","8","5","6","8","5","7","6","3","2","7","5","2","5","1","5","2","2","3","6","2","7","7","5","2","3","5","3","6","3","3","2","7","3","6","6","7","7","5","6","6","3","7","3","7","3","6","598907506583928832","刘","443","Male","[""坏我"",""坏他"",""好他"",""好我""]","[""弱我"",""弱他"",""强他"",""强我""]","","","","","","","","nonmatch","","","","","","","","","","key","f","16.675176470588113","758.3333534223067","422.22223340729164","j","false","match","img/triangle.png","弱他","弱他","prac_ALT2_ability","practice_ability","","","","","","","",""
"null","<span style='color:red; font-size: 70px;'>错误! </span>","null","html-keyboard-response","65","193022","0.0-8.0-1.0-1.0-0.0-1.27","6","5","4","3","3","5","2","4","4","5","4","1","0","0","1","-1","1","2","0","5","5","5","5","5","4","4","5","4","4","8","7","6","8","5","6","8","5","7","6","3","2","7","5","2","5","1","5","2","2","3","6","2","7","7","5","2","3","5","3","6","3","3","2","7","3","6","6","7","7","5","6","6","3","7","3","7","3","6","598907506583928832","刘","443","Male","[""坏我"",""坏他"",""好他"",""好我""]","[""弱我"",""弱他"",""强他"",""强我""]","","","","","","","","","","","","","","","","","","","","","","","","","","","","","","feedback_test","","","","","","","",""
"621","","j","psychophysics","66","194645","0.0-8.0-1.0-1.0-0.0-0.28","6","5","4","3","3","5","2","4","4","5","4","1","0","0","1","-1","1","2","0","5","5","5","5","5","4","4","5","4","4","8","7","6","8","5","6","8","5","7","6","3","2","7","5","2","5","1","5","2","2","3","6","2","7","7","5","2","3","5","3","6","3","3","2","7","3","6","6","7","7","5","6","6","3","7","3","7","3","6","598907506583928832","刘","443","Male","[""坏我"",""坏他"",""好他"",""好我""]","[""弱我"",""弱他"",""强他"",""强我""]","","","","","","","","match","","","","","","","","","","key","j","16.67491666666653","758.3333534223067","422.22223340729164","f","false","nonmatch","img/triangle.png","强我","弱他","prac_ALT2_ability","practice_ability","","","","","","","",""
"null","<span style='color:red; font-size: 70px;'>错误! </span>","null","html-keyboard-response","67","195146","0.0-8.0-1.0-1.0-0.0-1.28","6","5","4","3","3","5","2","4","4","5","4","1","0","0","1","-1","1","2","0","5","5","5","5","5","4","4","5","4","4","8","7","6","8","5","6","8","5","7","6","3","2","7","5","2","5","1","5","2","2","3","6","2","7","7","5","2","3","5","3","6","3","3","2","7","3","6","6","7","7","5","6","6","3","7","3","7","3","6","598907506583928832","刘","443","Male","[""坏我"",""坏他"",""好他"",""好我""]","[""弱我"",""弱他"",""强他"",""强我""]","","","","","","","","","","","","","","","","","","","","","","","","","","","","","","feedback_test","","","","","","","",""
"723","","f","psychophysics","68","196870","0.0-8.0-1.0-1.0-0.0-0.29","6","5","4","3","3","5","2","4","4","5","4","1","0","0","1","-1","1","2","0","5","5","5","5","5","4","4","5","4","4","8","7","6","8","5","6","8","5","7","6","3","2","7","5","2","5","1","5","2","2","3","6","2","7","7","5","2","3","5","3","6","3","3","2","7","3","6","6","7","7","5","6","6","3","7","3","7","3","6","598907506583928832","刘","443","Male","[""坏我"",""坏他"",""好他"",""好我""]","[""弱我"",""弱他"",""强他"",""强我""]","","","","","","","","nonmatch","","","","","","","","","","key","f","16.675864077669917","758.3333534223067","422.22223340729164","j","false","match","img/hexagon.png","强我","强我","prac_ALT2_ability","practice_ability","","","","","","","",""
"null","<span style='color:red; font-size: 70px;'>错误! </span>","null","html-keyboard-response","69","197387","0.0-8.0-1.0-1.0-0.0-1.29","6","5","4","3","3","5","2","4","4","5","4","1","0","0","1","-1","1","2","0","5","5","5","5","5","4","4","5","4","4","8","7","6","8","5","6","8","5","7","6","3","2","7","5","2","5","1","5","2","2","3","6","2","7","7","5","2","3","5","3","6","3","3","2","7","3","6","6","7","7","5","6","6","3","7","3","7","3","6","598907506583928832","刘","443","Male","[""坏我"",""坏他"",""好他"",""好我""]","[""弱我"",""弱他"",""强他"",""强我""]","","","","","","","","","","","","","","","","","","","","","","","","","","","","","","feedback_test","","","","","","","",""
"850","","f","psychophysics","70","199240","0.0-8.0-1.0-1.0-0.0-0.30","6","5","4","3","3","5","2","4","4","5","4","1","0","0","1","-1","1","2","0","5","5","5","5","5","4","4","5","4","4","8","7","6","8","5","6","8","5","7","6","3","2","7","5","2","5","1","5","2","2","3","6","2","7","7","5","2","3","5","3","6","3","3","2","7","3","6","6","7","7","5","6","6","3","7","3","7","3","6","598907506583928832","刘","443","Male","[""坏我"",""坏他"",""好他"",""好我""]","[""弱我"",""弱他"",""强他"",""强我""]","","","","","","","","nonmatch","","","","","","","","","","key","f","16.674972727272756","758.3333534223067","422.22223340729164","j","false","match","img/ellipse.png","强他","强他","prac_ALT2_ability","practice_ability","","","","","","","",""
"null","<span style='color:red; font-size: 70px;'>错误! </span>","null","html-keyboard-response","71","199742","0.0-8.0-1.0-1.0-0.0-1.30","6","5","4","3","3","5","2","4","4","5","4","1","0","0","1","-1","1","2","0","5","5","5","5","5","4","4","5","4","4","8","7","6","8","5","6","8","5","7","6","3","2","7","5","2","5","1","5","2","2","3","6","2","7","7","5","2","3","5","3","6","3","3","2","7","3","6","6","7","7","5","6","6","3","7","3","7","3","6","598907506583928832","刘","443","Male","[""坏我"",""坏他"",""好他"",""好我""]","[""弱我"",""弱他"",""强他"",""强我""]","","","","","","","","","","","","","","","","","","","","","","","","","","","","","","feedback_test","","","","","","","",""
"841","","f","psychophysics","72","201585","0.0-8.0-1.0-1.0-0.0-0.31","6","5","4","3","3","5","2","4","4","5","4","1","0","0","1","-1","1","2","0","5","5","5","5","5","4","4","5","4","4","8","7","6","8","5","6","8","5","7","6","3","2","7","5","2","5","1","5","2","2","3","6","2","7","7","5","2","3","5","3","6","3","3","2","7","3","6","6","7","7","5","6","6","3","7","3","7","3","6","598907506583928832","刘","443","Male","[""坏我"",""坏他"",""好他"",""好我""]","[""弱我"",""弱他"",""强他"",""强我""]","","","","","","","","nonmatch","","","","","","","","","","key","f","16.673779816513587","758.3333534223067","422.22223340729164","j","false","match","img/square.png","弱我","弱我","prac_ALT2_ability","practice_ability","","","","","","","",""
"null","<span style='color:red; font-size: 70px;'>错误! </span>","null","html-keyboard-response","73","202087","0.0-8.0-1.0-1.0-0.0-1.31","6","5","4","3","3","5","2","4","4","5","4","1","0","0","1","-1","1","2","0","5","5","5","5","5","4","4","5","4","4","8","7","6","8","5","6","8","5","7","6","3","2","7","5","2","5","1","5","2","2","3","6","2","7","7","5","2","3","5","3","6","3","3","2","7","3","6","6","7","7","5","6","6","3","7","3","7","3","6","598907506583928832","刘","443","Male","[""坏我"",""坏他"",""好他"",""好我""]","[""弱我"",""弱他"",""强他"",""强我""]","","","","","","","","","","","","","","","","","","","","","","","","","","","","","","feedback_test","","","","","","","",""
"687","","f","psychophysics","74","203775","0.0-8.0-1.0-1.0-0.0-0.32","6","5","4","3","3","5","2","4","4","5","4","1","0","0","1","-1","1","2","0","5","5","5","5","5","4","4","5","4","4","8","7","6","8","5","6","8","5","7","6","3","2","7","5","2","5","1","5","2","2","3","6","2","7","7","5","2","3","5","3","6","3","3","2","7","3","6","6","7","7","5","6","6","3","7","3","7","3","6","598907506583928832","刘","443","Male","[""坏我"",""坏他"",""好他"",""好我""]","[""弱我"",""弱他"",""强他"",""强我""]","","","","","","","","nonmatch","","","","","","","","","","key","f","16.67707999999984","758.3333534223067","422.22223340729164","f","true","nonmatch","img/ellipse.png","强我","强他","prac_ALT2_ability","practice_ability","","","","","","","",""
"null","<span style='color:GreenYellow; font-size: 70px;'>正确! </span>","null","html-keyboard-response","75","204275","0.0-8.0-1.0-1.0-0.0-1.32","6","5","4","3","3","5","2","4","4","5","4","1","0","0","1","-1","1","2","0","5","5","5","5","5","4","4","5","4","4","8","7","6","8","5","6","8","5","7","6","3","2","7","5","2","5","1","5","2","2","3","6","2","7","7","5","2","3","5","3","6","3","3","2","7","3","6","6","7","7","5","6","6","3","7","3","7","3","6","598907506583928832","刘","443","Male","[""坏我"",""坏他"",""好他"",""好我""]","[""弱我"",""弱他"",""强他"",""强我""]","","","","","","","","","","","","","","","","","","","","","","","","","","","","","","feedback_test","","","","","","","",""
"1009","","j","psychophysics","76","206286","0.0-8.0-1.0-1.0-0.0-0.33","6","5","4","3","3","5","2","4","4","5","4","1","0","0","1","-1","1","2","0","5","5","5","5","5","4","4","5","4","4","8","7","6","8","5","6","8","5","7","6","3","2","7","5","2","5","1","5","2","2","3","6","2","7","7","5","2","3","5","3","6","3","3","2","7","3","6","6","7","7","5","6","6","3","7","3","7","3","6","598907506583928832","刘","443","Male","[""坏我"",""坏他"",""好他"",""好我""]","[""弱我"",""弱他"",""强他"",""强我""]","","","","","","","","match","","","","","","","","","","key","j","16.677268907563036","758.3333534223067","422.22223340729164","f","false","nonmatch","img/square.png","强他","弱我","prac_ALT2_ability","practice_ability","","","","","","","",""
"null","<span style='color:red; font-size: 70px;'>错误! </span>","null","html-keyboard-response","77","206788","0.0-8.0-1.0-1.0-0.0-1.33","6","5","4","3","3","5","2","4","4","5","4","1","0","0","1","-1","1","2","0","5","5","5","5","5","4","4","5","4","4","8","7","6","8","5","6","8","5","7","6","3","2","7","5","2","5","1","5","2","2","3","6","2","7","7","5","2","3","5","3","6","3","3","2","7","3","6","6","7","7","5","6","6","3","7","3","7","3","6","598907506583928832","刘","443","Male","[""坏我"",""坏他"",""好他"",""好我""]","[""弱我"",""弱他"",""强他"",""强我""]","","","","","","","","","","","","","","","","","","","","","","","","","","","","","","feedback_test","","","","","","","",""
"759","","j","psychophysics","78","208549","0.0-8.0-1.0-1.0-0.0-0.34","6","5","4","3","3","5","2","4","4","5","4","1","0","0","1","-1","1","2","0","5","5","5","5","5","4","4","5","4","4","8","7","6","8","5","6","8","5","7","6","3","2","7","5","2","5","1","5","2","2","3","6","2","7","7","5","2","3","5","3","6","3","3","2","7","3","6","6","7","7","5","6","6","3","7","3","7","3","6","598907506583928832","刘","443","Male","[""坏我"",""坏他"",""好他"",""好我""]","[""弱我"",""弱他"",""强他"",""强我""]","","","","","","","","match","","","","","","","","","","key","j","16.675307692307868","758.3333534223067","422.22223340729164","j","true","match","img/hexagon.png","强我","强我","prac_ALT2_ability","practice_ability","","","","","","","",""
"null","<span style='color:GreenYellow; font-size: 70px;'>正确! </span>","null","html-keyboard-response","79","209050","0.0-8.0-1.0-1.0-0.0-1.34","6","5","4","3","3","5","2","4","4","5","4","1","0","0","1","-1","1","2","0","5","5","5","5","5","4","4","5","4","4","8","7","6","8","5","6","8","5","7","6","3","2","7","5","2","5","1","5","2","2","3","6","2","7","7","5","2","3","5","3","6","3","3","2","7","3","6","6","7","7","5","6","6","3","7","3","7","3","6","598907506583928832","刘","443","Male","[""坏我"",""坏他"",""好他"",""好我""]","[""弱我"",""弱他"",""强他"",""强我""]","","","","","","","","","","","","","","","","","","","","","","","","","","","","","","feedback_test","","","","","","","",""
"676","","f","psychophysics","80","210728","0.0-8.0-1.0-1.0-0.0-0.35","6","5","4","3","3","5","2","4","4","5","4","1","0","0","1","-1","1","2","0","5","5","5","5","5","4","4","5","4","4","8","7","6","8","5","6","8","5","7","6","3","2","7","5","2","5","1","5","2","2","3","6","2","7","7","5","2","3","5","3","6","3","3","2","7","3","6","6","7","7","5","6","6","3","7","3","7","3","6","598907506583928832","刘","443","Male","[""坏我"",""坏他"",""好他"",""好我""]","[""弱我"",""弱他"",""强他"",""强我""]","","","","","","","","nonmatch","","","","","","","","","","key","f","16.671630000000004","758.3333534223067","422.22223340729164","f","true","nonmatch","img/square.png","弱他","弱我","prac_ALT2_ability","practice_ability","","","","","","","",""
"null","<span style='color:GreenYellow; font-size: 70px;'>正确! </span>","null","html-keyboard-response","81","211230","0.0-8.0-1.0-1.0-0.0-1.35","6","5","4","3","3","5","2","4","4","5","4","1","0","0","1","-1","1","2","0","5","5","5","5","5","4","4","5","4","4","8","7","6","8","5","6","8","5","7","6","3","2","7","5","2","5","1","5","2","2","3","6","2","7","7","5","2","3","5","3","6","3","3","2","7","3","6","6","7","7","5","6","6","3","7","3","7","3","6","598907506583928832","刘","443","Male","[""坏我"",""坏他"",""好他"",""好我""]","[""弱我"",""弱他"",""强他"",""强我""]","","","","","","","","","","","","","","","","","","","","","","","","","","","","","","feedback_test","","","","","","","",""
"868","","f","psychophysics","82","213099","0.0-8.0-1.0-1.0-0.0-0.36","6","5","4","3","3","5","2","4","4","5","4","1","0","0","1","-1","1","2","0","5","5","5","5","5","4","4","5","4","4","8","7","6","8","5","6","8","5","7","6","3","2","7","5","2","5","1","5","2","2","3","6","2","7","7","5","2","3","5","3","6","3","3","2","7","3","6","6","7","7","5","6","6","3","7","3","7","3","6","598907506583928832","刘","443","Male","[""坏我"",""坏他"",""好他"",""好我""]","[""弱我"",""弱他"",""强他"",""强我""]","","","","","","","","nonmatch","","","","","","","","","","key","f","16.674648648648635","758.3333534223067","422.22223340729164","j","false","match","img/triangle.png","弱他","弱他","prac_ALT2_ability","practice_ability","","","","","","","",""
"null","<span style='color:red; font-size: 70px;'>错误! </span>","null","html-keyboard-response","83","213600","0.0-8.0-1.0-1.0-0.0-1.36","6","5","4","3","3","5","2","4","4","5","4","1","0","0","1","-1","1","2","0","5","5","5","5","5","4","4","5","4","4","8","7","6","8","5","6","8","5","7","6","3","2","7","5","2","5","1","5","2","2","3","6","2","7","7","5","2","3","5","3","6","3","3","2","7","3","6","6","7","7","5","6","6","3","7","3","7","3","6","598907506583928832","刘","443","Male","[""坏我"",""坏他"",""好他"",""好我""]","[""弱我"",""弱他"",""强他"",""强我""]","","","","","","","","","","","","","","","","","","","","","","","","","","","","","","feedback_test","","","","","","","",""
"1025","","f","psychophysics","84","215628","0.0-8.0-1.0-1.0-0.0-0.37","6","5","4","3","3","5","2","4","4","5","4","1","0","0","1","-1","1","2","0","5","5","5","5","5","4","4","5","4","4","8","7","6","8","5","6","8","5","7","6","3","2","7","5","2","5","1","5","2","2","3","6","2","7","7","5","2","3","5","3","6","3","3","2","7","3","6","6","7","7","5","6","6","3","7","3","7","3","6","598907506583928832","刘","443","Male","[""坏我"",""坏他"",""好他"",""好我""]","[""弱我"",""弱他"",""强他"",""强我""]","","","","","","","","nonmatch","","","","","","","","","","key","f","16.676876033057866","758.3333534223067","422.22223340729164","f","true","nonmatch","img/ellipse.png","弱他","强他","prac_ALT2_ability","practice_ability","","","","","","","",""
"null","<span style='color:GreenYellow; font-size: 70px;'>正确! </span>","null","html-keyboard-response","85","216130","0.0-8.0-1.0-1.0-0.0-1.37","6","5","4","3","3","5","2","4","4","5","4","1","0","0","1","-1","1","2","0","5","5","5","5","5","4","4","5","4","4","8","7","6","8","5","6","8","5","7","6","3","2","7","5","2","5","1","5","2","2","3","6","2","7","7","5","2","3","5","3","6","3","3","2","7","3","6","6","7","7","5","6","6","3","7","3","7","3","6","598907506583928832","刘","443","Male","[""坏我"",""坏他"",""好他"",""好我""]","[""弱我"",""弱他"",""强他"",""强我""]","","","","","","","","","","","","","","","","","","","","","","","","","","","","","","feedback_test","","","","","","","",""
"823","","f","psychophysics","86","217956","0.0-8.0-1.0-1.0-0.0-0.38","6","5","4","3","3","5","2","4","4","5","4","1","0","0","1","-1","1","2","0","5","5","5","5","5","4","4","5","4","4","8","7","6","8","5","6","8","5","7","6","3","2","7","5","2","5","1","5","2","2","3","6","2","7","7","5","2","3","5","3","6","3","3","2","7","3","6","6","7","7","5","6","6","3","7","3","7","3","6","598907506583928832","刘","443","Male","[""坏我"",""坏他"",""好他"",""好我""]","[""弱我"",""弱他"",""强他"",""强我""]","","","","","","","","nonmatch","","","","","","","","","","key","f","16.674287037037075","758.3333534223067","422.22223340729164","f","true","nonmatch","img/hexagon.png","弱他","强我","prac_ALT2_ability","practice_ability","","","","","","","",""
"null","<span style='color:GreenYellow; font-size: 70px;'>正确! </span>","null","html-keyboard-response","87","218456","0.0-8.0-1.0-1.0-0.0-1.38","6","5","4","3","3","5","2","4","4","5","4","1","0","0","1","-1","1","2","0","5","5","5","5","5","4","4","5","4","4","8","7","6","8","5","6","8","5","7","6","3","2","7","5","2","5","1","5","2","2","3","6","2","7","7","5","2","3","5","3","6","3","3","2","7","3","6","6","7","7","5","6","6","3","7","3","7","3","6","598907506583928832","刘","443","Male","[""坏我"",""坏他"",""好他"",""好我""]","[""弱我"",""弱他"",""强他"",""强我""]","","","","","","","","","","","","","","","","","","","","","","","","","","","","","","feedback_test","","","","","","","",""
"1129","","j","psychophysics","88","220588","0.0-8.0-1.0-1.0-0.0-0.39","6","5","4","3","3","5","2","4","4","5","4","1","0","0","1","-1","1","2","0","5","5","5","5","5","4","4","5","4","4","8","7","6","8","5","6","8","5","7","6","3","2","7","5","2","5","1","5","2","2","3","6","2","7","7","5","2","3","5","3","6","3","3","2","7","3","6","6","7","7","5","6","6","3","7","3","7","3","6","598907506583928832","刘","443","Male","[""坏我"",""坏他"",""好他"",""好我""]","[""弱我"",""弱他"",""强他"",""强我""]","","","","","","","","match","","","","","","","","","","key","j","16.674700787401616","758.3333534223067","422.22223340729164","j","true","match","img/ellipse.png","强他","强他","prac_ALT2_ability","practice_ability","","","","","","","",""
"null","<span style='color:GreenYellow; font-size: 70px;'>正确! </span>","null","html-keyboard-response","89","221088","0.0-8.0-1.0-1.0-0.0-1.39","6","5","4","3","3","5","2","4","4","5","4","1","0","0","1","-1","1","2","0","5","5","5","5","5","4","4","5","4","4","8","7","6","8","5","6","8","5","7","6","3","2","7","5","2","5","1","5","2","2","3","6","2","7","7","5","2","3","5","3","6","3","3","2","7","3","6","6","7","7","5","6","6","3","7","3","7","3","6","598907506583928832","刘","443","Male","[""坏我"",""坏他"",""好他"",""好我""]","[""弱我"",""弱他"",""强他"",""强我""]","","","","","","","","","","","","","","","","","","","","","","","","","","","","","","feedback_test","","","","","","","",""
"842","","f","psychophysics","90","222933","0.0-8.0-1.0-1.0-0.0-0.40","6","5","4","3","3","5","2","4","4","5","4","1","0","0","1","-1","1","2","0","5","5","5","5","5","4","4","5","4","4","8","7","6","8","5","6","8","5","7","6","3","2","7","5","2","5","1","5","2","2","3","6","2","7","7","5","2","3","5","3","6","3","3","2","7","3","6","6","7","7","5","6","6","3","7","3","7","3","6","598907506583928832","刘","443","Male","[""坏我"",""坏他"",""好他"",""好我""]","[""弱我"",""弱他"",""强他"",""强我""]","","","","","","","","nonmatch","","","","","","","","","","key","f","16.6763000000001","758.3333534223067","422.22223340729164","j","false","match","img/ellipse.png","强他","强他","prac_ALT2_ability","practice_ability","","","","","","","",""
"null","<span style='color:red; font-size: 70px;'>错误! </span>","null","html-keyboard-response","91","223435","0.0-8.0-1.0-1.0-0.0-1.40","6","5","4","3","3","5","2","4","4","5","4","1","0","0","1","-1","1","2","0","5","5","5","5","5","4","4","5","4","4","8","7","6","8","5","6","8","5","7","6","3","2","7","5","2","5","1","5","2","2","3","6","2","7","7","5","2","3","5","3","6","3","3","2","7","3","6","6","7","7","5","6","6","3","7","3","7","3","6","598907506583928832","刘","443","Male","[""坏我"",""坏他"",""好他"",""好我""]","[""弱我"",""弱他"",""强他"",""强我""]","","","","","","","","","","","","","","","","","","","","","","","","","","","","","","feedback_test","","","","","","","",""
"950","","f","psychophysics","92","225386","0.0-8.0-1.0-1.0-0.0-0.41","6","5","4","3","3","5","2","4","4","5","4","1","0","0","1","-1","1","2","0","5","5","5","5","5","4","4","5","4","4","8","7","6","8","5","6","8","5","7","6","3","2","7","5","2","5","1","5","2","2","3","6","2","7","7","5","2","3","5","3","6","3","3","2","7","3","6","6","7","7","5","6","6","3","7","3","7","3","6","598907506583928832","刘","443","Male","[""坏我"",""坏他"",""好他"",""好我""]","[""弱我"",""弱他"",""强他"",""强我""]","","","","","","","","nonmatch","","","","","","","","","","key","f","16.676775862068915","758.3333534223067","422.22223340729164","f","true","nonmatch","img/hexagon.png","强他","强我","prac_ALT2_ability","practice_ability","","","","","","","",""
"null","<span style='color:GreenYellow; font-size: 70px;'>正确! </span>","null","html-keyboard-response","93","225888","0.0-8.0-1.0-1.0-0.0-1.41","6","5","4","3","3","5","2","4","4","5","4","1","0","0","1","-1","1","2","0","5","5","5","5","5","4","4","5","4","4","8","7","6","8","5","6","8","5","7","6","3","2","7","5","2","5","1","5","2","2","3","6","2","7","7","5","2","3","5","3","6","3","3","2","7","3","6","6","7","7","5","6","6","3","7","3","7","3","6","598907506583928832","刘","443","Male","[""坏我"",""坏他"",""好他"",""好我""]","[""弱我"",""弱他"",""强他"",""强我""]","","","","","","","","","","","","","","","","","","","","","","","","","","","","","","feedback_test","","","","","","","",""
"714","","j","psychophysics","94","227602","0.0-8.0-1.0-1.0-0.0-0.42","6","5","4","3","3","5","2","4","4","5","4","1","0","0","1","-1","1","2","0","5","5","5","5","5","4","4","5","4","4","8","7","6","8","5","6","8","5","7","6","3","2","7","5","2","5","1","5","2","2","3","6","2","7","7","5","2","3","5","3","6","3","3","2","7","3","6","6","7","7","5","6","6","3","7","3","7","3","6","598907506583928832","刘","443","Male","[""坏我"",""坏他"",""好他"",""好我""]","[""弱我"",""弱他"",""强他"",""强我""]","","","","","","","","match","","","","","","","","","","key","j","16.674666666666585","758.3333534223067","422.22223340729164","j","true","match","img/hexagon.png","强我","强我","prac_ALT2_ability","practice_ability","","","","","","","",""
"null","<span style='color:GreenYellow; font-size: 70px;'>正确! </span>","null","html-keyboard-response","95","228104","0.0-8.0-1.0-1.0-0.0-1.42","6","5","4","3","3","5","2","4","4","5","4","1","0","0","1","-1","1","2","0","5","5","5","5","5","4","4","5","4","4","8","7","6","8","5","6","8","5","7","6","3","2","7","5","2","5","1","5","2","2","3","6","2","7","7","5","2","3","5","3","6","3","3","2","7","3","6","6","7","7","5","6","6","3","7","3","7","3","6","598907506583928832","刘","443","Male","[""坏我"",""坏他"",""好他"",""好我""]","[""弱我"",""弱他"",""强他"",""强我""]","","","","","","","","","","","","","","","","","","","","","","","","","","","","","","feedback_test","","","","","","","",""
"988","","f","psychophysics","96","230092","0.0-8.0-1.0-1.0-0.0-0.43","6","5","4","3","3","5","2","4","4","5","4","1","0","0","1","-1","1","2","0","5","5","5","5","5","4","4","5","4","4","8","7","6","8","5","6","8","5","7","6","3","2","7","5","2","5","1","5","2","2","3","6","2","7","7","5","2","3","5","3","6","3","3","2","7","3","6","6","7","7","5","6","6","3","7","3","7","3","6","598907506583928832","刘","443","Male","[""坏我"",""坏他"",""好他"",""好我""]","[""弱我"",""弱他"",""强他"",""强我""]","","","","","","","","nonmatch","","","","","","","","","","key","f","16.674440677966125","758.3333534223067","422.22223340729164","j","false","match","img/square.png","弱我","弱我","prac_ALT2_ability","practice_ability","","","","","","","",""
"null","<span style='color:red; font-size: 70px;'>错误! </span>","null","html-keyboard-response","97","230597","0.0-8.0-1.0-1.0-0.0-1.43","6","5","4","3","3","5","2","4","4","5","4","1","0","0","1","-1","1","2","0","5","5","5","5","5","4","4","5","4","4","8","7","6","8","5","6","8","5","7","6","3","2","7","5","2","5","1","5","2","2","3","6","2","7","7","5","2","3","5","3","6","3","3","2","7","3","6","6","7","7","5","6","6","3","7","3","7","3","6","598907506583928832","刘","443","Male","[""坏我"",""坏他"",""好他"",""好我""]","[""弱我"",""弱他"",""强他"",""强我""]","","","","","","","","","","","","","","","","","","","","","","","","","","","","","","feedback_test","","","","","","","",""
"802","","j","psychophysics","98","232400","0.0-8.0-1.0-1.0-0.0-0.44","6","5","4","3","3","5","2","4","4","5","4","1","0","0","1","-1","1","2","0","5","5","5","5","5","4","4","5","4","4","8","7","6","8","5","6","8","5","7","6","3","2","7","5","2","5","1","5","2","2","3","6","2","7","7","5","2","3","5","3","6","3","3","2","7","3","6","6","7","7","5","6","6","3","7","3","7","3","6","598907506583928832","刘","443","Male","[""坏我"",""坏他"",""好他"",""好我""]","[""弱我"",""弱他"",""强他"",""强我""]","","","","","","","","match","","","","","","","","","","key","j","16.675158878504657","758.3333534223067","422.22223340729164","j","true","match","img/square.png","弱我","弱我","prac_ALT2_ability","practice_ability","","","","","","","",""
"null","<span style='color:GreenYellow; font-size: 70px;'>正确! </span>","null","html-keyboard-response","99","232903","0.0-8.0-1.0-1.0-0.0-1.44","6","5","4","3","3","5","2","4","4","5","4","1","0","0","1","-1","1","2","0","5","5","5","5","5","4","4","5","4","4","8","7","6","8","5","6","8","5","7","6","3","2","7","5","2","5","1","5","2","2","3","6","2","7","7","5","2","3","5","3","6","3","3","2","7","3","6","6","7","7","5","6","6","3","7","3","7","3","6","598907506583928832","刘","443","Male","[""坏我"",""坏他"",""好他"",""好我""]","[""弱我"",""弱他"",""强他"",""强我""]","","","","","","","","","","","","","","","","","","","","","","","","","","","","","","feedback_test","","","","","","","",""
"750","","f","psychophysics","100","234656","0.0-8.0-1.0-1.0-0.0-0.45","6","5","4","3","3","5","2","4","4","5","4","1","0","0","1","-1","1","2","0","5","5","5","5","5","4","4","5","4","4","8","7","6","8","5","6","8","5","7","6","3","2","7","5","2","5","1","5","2","2","3","6","2","7","7","5","2","3","5","3","6","3","3","2","7","3","6","6","7","7","5","6","6","3","7","3","7","3","6","598907506583928832","刘","443","Male","[""坏我"",""坏他"",""好他"",""好我""]","[""弱我"",""弱他"",""强他"",""强我""]","","","","","","","","nonmatch","","","","","","","","","","key","f","16.67692307692302","758.3333534223067","422.22223340729164","j","false","match","img/triangle.png","弱他","弱他","prac_ALT2_ability","practice_ability","","","","","","","",""
"null","<span style='color:red; font-size: 70px;'>错误! </span>","null","html-keyboard-response","101","235158","0.0-8.0-1.0-1.0-0.0-1.45","6","5","4","3","3","5","2","4","4","5","4","1","0","0","1","-1","1","2","0","5","5","5","5","5","4","4","5","4","4","8","7","6","8","5","6","8","5","7","6","3","2","7","5","2","5","1","5","2","2","3","6","2","7","7","5","2","3","5","3","6","3","3","2","7","3","6","6","7","7","5","6","6","3","7","3","7","3","6","598907506583928832","刘","443","Male","[""坏我"",""坏他"",""好他"",""好我""]","[""弱我"",""弱他"",""强他"",""强我""]","","","","","","","","","","","","","","","","","","","","","","","","","","","","","","feedback_test","","","","","","","",""
"857","","j","psychophysics","102","237017","0.0-8.0-1.0-1.0-0.0-0.46","6","5","4","3","3","5","2","4","4","5","4","1","0","0","1","-1","1","2","0","5","5","5","5","5","4","4","5","4","4","8","7","6","8","5","6","8","5","7","6","3","2","7","5","2","5","1","5","2","2","3","6","2","7","7","5","2","3","5","3","6","3","3","2","7","3","6","6","7","7","5","6","6","3","7","3","7","3","6","598907506583928832","刘","443","Male","[""坏我"",""坏他"",""好他"",""好我""]","[""弱我"",""弱他"",""强他"",""强我""]","","","","","","","","match","","","","","","","","","","key","j","16.67715454545449","758.3333534223067","422.22223340729164","f","false","nonmatch","img/square.png","强我","弱我","prac_ALT2_ability","practice_ability","","","","","","","",""
"null","<span style='color:red; font-size: 70px;'>错误! </span>","null","html-keyboard-response","103","237518","0.0-8.0-1.0-1.0-0.0-1.46","6","5","4","3","3","5","2","4","4","5","4","1","0","0","1","-1","1","2","0","5","5","5","5","5","4","4","5","4","4","8","7","6","8","5","6","8","5","7","6","3","2","7","5","2","5","1","5","2","2","3","6","2","7","7","5","2","3","5","3","6","3","3","2","7","3","6","6","7","7","5","6","6","3","7","3","7","3","6","598907506583928832","刘","443","Male","[""坏我"",""坏他"",""好他"",""好我""]","[""弱我"",""弱他"",""强他"",""强我""]","","","","","","","","","","","","","","","","","","","","","","","","","","","","","","feedback_test","","","","","","","",""
"826","","f","psychophysics","104","239346","0.0-8.0-1.0-1.0-0.0-0.47","6","5","4","3","3","5","2","4","4","5","4","1","0","0","1","-1","1","2","0","5","5","5","5","5","4","4","5","4","4","8","7","6","8","5","6","8","5","7","6","3","2","7","5","2","5","1","5","2","2","3","6","2","7","7","5","2","3","5","3","6","3","3","2","7","3","6","6","7","7","5","6","6","3","7","3","7","3","6","598907506583928832","刘","443","Male","[""坏我"",""坏他"",""好他"",""好我""]","[""弱我"",""弱他"",""强他"",""强我""]","","","","","","","","nonmatch","","","","","","","","","","key","f","16.665185185185422","758.3333534223067","422.22223340729164","f","true","nonmatch","img/hexagon.png","弱我","强我","prac_ALT2_ability","practice_ability","","","","","","","",""
"null","<span style='color:GreenYellow; font-size: 70px;'>正确! </span>","null","html-keyboard-response","105","239846","0.0-8.0-1.0-1.0-0.0-1.47","6","5","4","3","3","5","2","4","4","5","4","1","0","0","1","-1","1","2","0","5","5","5","5","5","4","4","5","4","4","8","7","6","8","5","6","8","5","7","6","3","2","7","5","2","5","1","5","2","2","3","6","2","7","7","5","2","3","5","3","6","3","3","2","7","3","6","6","7","7","5","6","6","3","7","3","7","3","6","598907506583928832","刘","443","Male","[""坏我"",""坏他"",""好他"",""好我""]","[""弱我"",""弱他"",""强他"",""强我""]","","","","","","","","","","","","","","","","","","","","","","","","","","","","","","feedback_test","","","","","","","",""
"1945","<style>.context{color:white; font-size: 35px; line-height:40px}</style>                          <div><p class='context'>您正确回答了42% 的试次。</p><p class='context'>您的平均反应时为832毫秒。</p><p class='context'>恭喜您完成练习。按空格键继续。</p></div>"," ","html-keyboard-response","106","241794","0.0-8.0-1.0-1.0-1.0-0.0","6","5","4","3","3","5","2","4","4","5","4","1","0","0","1","-1","1","2","0","5","5","5","5","5","4","4","5","4","4","8","7","6","8","5","6","8","5","7","6","3","2","7","5","2","5","1","5","2","2","3","6","2","7","7","5","2","3","5","3","6","3","3","2","7","3","6","6","7","7","5","6","6","3","7","3","7","3","6","598907506583928832","刘","443","Male","[""坏我"",""坏他"",""好他"",""好我""]","[""弱我"",""弱他"",""强他"",""强我""]","","","","","","","","","","","","","","","","","","","","","","","","","","","","","","","","","","","","","",""
"22233","","","instructions","107","264030","0.0-8.0-1.0-1.0-1.0-1.0","6","5","4","3","3","5","2","4","4","5","4","1","0","0","1","-1","1","2","0","5","5","5","5","5","4","4","5","4","4","8","7","6","8","5","6","8","5","7","6","3","2","7","5","2","5","1","5","2","2","3","6","2","7","7","5","2","3","5","3","6","3","3","2","7","3","6","6","7","7","5","6","6","3","7","3","7","3","6","598907506583928832","刘","443","Male","[""坏我"",""坏他"",""好他"",""好我""]","[""弱我"",""弱他"",""强他"",""强我""]","","","","","","","","","","","","","","","","","[{""page_index"":0,""viewing_time"":5033},{""page_index"":1,""viewing_time"":14464},{""page_index"":2,""viewing_time"":2736}]","","","","","","","","","","","","","","","","","","","","",""
"895","","f","psychophysics","108","265928","0.0-8.0-1.0-1.1-0.1-0.48","6","5","4","3","3","5","2","4","4","5","4","1","0","0","1","-1","1","2","0","5","5","5","5","5","4","4","5","4","4","8","7","6","8","5","6","8","5","7","6","3","2","7","5","2","5","1","5","2","2","3","6","2","7","7","5","2","3","5","3","6","3","3","2","7","3","6","6","7","7","5","6","6","3","7","3","7","3","6","598907506583928832","刘","443","Male","[""坏我"",""坏他"",""好他"",""好我""]","[""弱我"",""弱他"",""强他"",""强我""]","","","","","","","","nonmatch","","","","","","","","","","key","f","16.67637500000014","758.3333534223067","422.22223340729164","f","true","nonmatch","img/ellipse.png","强我","强他","prac_ALT2_ability","practice_ability","","","","","","","",""
"null","<span style='color:GreenYellow; font-size: 70px;'>正确! </span>","null","html-keyboard-response","109","266428","0.0-8.0-1.0-1.1-0.1-1.48","6","5","4","3","3","5","2","4","4","5","4","1","0","0","1","-1","1","2","0","5","5","5","5","5","4","4","5","4","4","8","7","6","8","5","6","8","5","7","6","3","2","7","5","2","5","1","5","2","2","3","6","2","7","7","5","2","3","5","3","6","3","3","2","7","3","6","6","7","7","5","6","6","3","7","3","7","3","6","598907506583928832","刘","443","Male","[""坏我"",""坏他"",""好他"",""好我""]","[""弱我"",""弱他"",""强他"",""强我""]","","","","","","","","","","","","","","","","","","","","","","","","","","","","","","feedback_test","","","","","","","",""
"808","","j","psychophysics","110","268239","0.0-8.0-1.0-1.1-0.1-0.49","6","5","4","3","3","5","2","4","4","5","4","1","0","0","1","-1","1","2","0","5","5","5","5","5","4","4","5","4","4","8","7","6","8","5","6","8","5","7","6","3","2","7","5","2","5","1","5","2","2","3","6","2","7","7","5","2","3","5","3","6","3","3","2","7","3","6","6","7","7","5","6","6","3","7","3","7","3","6","598907506583928832","刘","443","Male","[""坏我"",""坏他"",""好他"",""好我""]","[""弱我"",""弱他"",""强他"",""强我""]","","","","","","","","match","","","","","","","","","","key","j","16.675277777778252","758.3333534223067","422.22223340729164","j","true","match","img/hexagon.png","强我","强我","prac_ALT2_ability","practice_ability","","","","","","","",""
"null","<span style='color:GreenYellow; font-size: 70px;'>正确! </span>","null","html-keyboard-response","111","268739","0.0-8.0-1.0-1.1-0.1-1.49","6","5","4","3","3","5","2","4","4","5","4","1","0","0","1","-1","1","2","0","5","5","5","5","5","4","4","5","4","4","8","7","6","8","5","6","8","5","7","6","3","2","7","5","2","5","1","5","2","2","3","6","2","7","7","5","2","3","5","3","6","3","3","2","7","3","6","6","7","7","5","6","6","3","7","3","7","3","6","598907506583928832","刘","443","Male","[""坏我"",""坏他"",""好他"",""好我""]","[""弱我"",""弱他"",""强他"",""强我""]","","","","","","","","","","","","","","","","","","","","","","","","","","","","","","feedback_test","","","","","","","",""
"883","","f","psychophysics","112","270625","0.0-8.0-1.0-1.1-0.1-0.50","6","5","4","3","3","5","2","4","4","5","4","1","0","0","1","-1","1","2","0","5","5","5","5","5","4","4","5","4","4","8","7","6","8","5","6","8","5","7","6","3","2","7","5","2","5","1","5","2","2","3","6","2","7","7","5","2","3","5","3","6","3","3","2","7","3","6","6","7","7","5","6","6","3","7","3","7","3","6","598907506583928832","刘","443","Male","[""坏我"",""坏他"",""好他"",""好我""]","[""弱我"",""弱他"",""强他"",""强我""]","","","","","","","","nonmatch","","","","","","","","","","key","f","16.67258928571391","758.3333534223067","422.22223340729164","f","true","nonmatch","img/square.png","弱他","弱我","prac_ALT2_ability","practice_ability","","","","","","","",""
"null","<span style='color:GreenYellow; font-size: 70px;'>正确! </span>","null","html-keyboard-response","113","271126","0.0-8.0-1.0-1.1-0.1-1.50","6","5","4","3","3","5","2","4","4","5","4","1","0","0","1","-1","1","2","0","5","5","5","5","5","4","4","5","4","4","8","7","6","8","5","6","8","5","7","6","3","2","7","5","2","5","1","5","2","2","3","6","2","7","7","5","2","3","5","3","6","3","3","2","7","3","6","6","7","7","5","6","6","3","7","3","7","3","6","598907506583928832","刘","443","Male","[""坏我"",""坏他"",""好他"",""好我""]","[""弱我"",""弱他"",""强他"",""强我""]","","","","","","","","","","","","","","","","","","","","","","","","","","","","","","feedback_test","","","","","","","",""
"683","","f","psychophysics","114","272811","0.0-8.0-1.0-1.1-0.1-0.51","6","5","4","3","3","5","2","4","4","5","4","1","0","0","1","-1","1","2","0","5","5","5","5","5","4","4","5","4","4","8","7","6","8","5","6","8","5","7","6","3","2","7","5","2","5","1","5","2","2","3","6","2","7","7","5","2","3","5","3","6","3","3","2","7","3","6","6","7","7","5","6","6","3","7","3","7","3","6","598907506583928832","刘","443","Male","[""坏我"",""坏他"",""好他"",""好我""]","[""弱我"",""弱他"",""强他"",""强我""]","","","","","","","","nonmatch","","","","","","","","","","key","f","16.677700000000186","758.3333534223067","422.22223340729164","j","false","match","img/triangle.png","弱他","弱他","prac_ALT2_ability","practice_ability","","","","","","","",""
"null","<span style='color:red; font-size: 70px;'>错误! </span>","null","html-keyboard-response","115","273312","0.0-8.0-1.0-1.1-0.1-1.51","6","5","4","3","3","5","2","4","4","5","4","1","0","0","1","-1","1","2","0","5","5","5","5","5","4","4","5","4","4","8","7","6","8","5","6","8","5","7","6","3","2","7","5","2","5","1","5","2","2","3","6","2","7","7","5","2","3","5","3","6","3","3","2","7","3","6","6","7","7","5","6","6","3","7","3","7","3","6","598907506583928832","刘","443","Male","[""坏我"",""坏他"",""好他"",""好我""]","[""弱我"",""弱他"",""强他"",""强我""]","","","","","","","","","","","","","","","","","","","","","","","","","","","","","","feedback_test","","","","","","","",""
"831","","j","psychophysics","116","275145","0.0-8.0-1.0-1.1-0.1-0.52","6","5","4","3","3","5","2","4","4","5","4","1","0","0","1","-1","1","2","0","5","5","5","5","5","4","4","5","4","4","8","7","6","8","5","6","8","5","7","6","3","2","7","5","2","5","1","5","2","2","3","6","2","7","7","5","2","3","5","3","6","3","3","2","7","3","6","6","7","7","5","6","6","3","7","3","7","3","6","598907506583928832","刘","443","Male","[""坏我"",""坏他"",""好他"",""好我""]","[""弱我"",""弱他"",""强他"",""强我""]","","","","","","","","match","","","","","","","","","","key","j","16.673422018348543","758.3333534223067","422.22223340729164","j","true","match","img/square.png","弱我","弱我","prac_ALT2_ability","practice_ability","","","","","","","",""
"null","<span style='color:GreenYellow; font-size: 70px;'>正确! </span>","null","html-keyboard-response","117","275646","0.0-8.0-1.0-1.1-0.1-1.52","6","5","4","3","3","5","2","4","4","5","4","1","0","0","1","-1","1","2","0","5","5","5","5","5","4","4","5","4","4","8","7","6","8","5","6","8","5","7","6","3","2","7","5","2","5","1","5","2","2","3","6","2","7","7","5","2","3","5","3","6","3","3","2","7","3","6","6","7","7","5","6","6","3","7","3","7","3","6","598907506583928832","刘","443","Male","[""坏我"",""坏他"",""好他"",""好我""]","[""弱我"",""弱他"",""强他"",""强我""]","","","","","","","","","","","","","","","","","","","","","","","","","","","","","","feedback_test","","","","","","","",""
"851","","j","psychophysics","118","277499","0.0-8.0-1.0-1.1-0.1-0.53","6","5","4","3","3","5","2","4","4","5","4","1","0","0","1","-1","1","2","0","5","5","5","5","5","4","4","5","4","4","8","7","6","8","5","6","8","5","7","6","3","2","7","5","2","5","1","5","2","2","3","6","2","7","7","5","2","3","5","3","6","3","3","2","7","3","6","6","7","7","5","6","6","3","7","3","7","3","6","598907506583928832","刘","443","Male","[""坏我"",""坏他"",""好他"",""好我""]","[""弱我"",""弱他"",""强他"",""强我""]","","","","","","","","match","","","","","","","","","","key","j","16.675954545454378","758.3333534223067","422.22223340729164","j","true","match","img/square.png","弱我","弱我","prac_ALT2_ability","practice_ability","","","","","","","",""
"null","<span style='color:GreenYellow; font-size: 70px;'>正确! </span>","null","html-keyboard-response","119","277999","0.0-8.0-1.0-1.1-0.1-1.53","6","5","4","3","3","5","2","4","4","5","4","1","0","0","1","-1","1","2","0","5","5","5","5","5","4","4","5","4","4","8","7","6","8","5","6","8","5","7","6","3","2","7","5","2","5","1","5","2","2","3","6","2","7","7","5","2","3","5","3","6","3","3","2","7","3","6","6","7","7","5","6","6","3","7","3","7","3","6","598907506583928832","刘","443","Male","[""坏我"",""坏他"",""好他"",""好我""]","[""弱我"",""弱他"",""强他"",""强我""]","","","","","","","","","","","","","","","","","","","","","","","","","","","","","","feedback_test","","","","","","","",""
"1090","","j","psychophysics","120","280091","0.0-8.0-1.0-1.1-0.1-0.54","6","5","4","3","3","5","2","4","4","5","4","1","0","0","1","-1","1","2","0","5","5","5","5","5","4","4","5","4","4","8","7","6","8","5","6","8","5","7","6","3","2","7","5","2","5","1","5","2","2","3","6","2","7","7","5","2","3","5","3","6","3","3","2","7","3","6","6","7","7","5","6","6","3","7","3","7","3","6","598907506583928832","刘","443","Male","[""坏我"",""坏他"",""好他"",""好我""]","[""弱我"",""弱他"",""强他"",""强我""]","","","","","","","","match","","","","","","","","","","key","j","16.67756799999997","758.3333534223067","422.22223340729164","f","false","nonmatch","img/hexagon.png","强他","强我","prac_ALT2_ability","practice_ability","","","","","","","",""
"null","<span style='color:red; font-size: 70px;'>错误! </span>","null","html-keyboard-response","121","280592","0.0-8.0-1.0-1.1-0.1-1.54","6","5","4","3","3","5","2","4","4","5","4","1","0","0","1","-1","1","2","0","5","5","5","5","5","4","4","5","4","4","8","7","6","8","5","6","8","5","7","6","3","2","7","5","2","5","1","5","2","2","3","6","2","7","7","5","2","3","5","3","6","3","3","2","7","3","6","6","7","7","5","6","6","3","7","3","7","3","6","598907506583928832","刘","443","Male","[""坏我"",""坏他"",""好他"",""好我""]","[""弱我"",""弱他"",""强他"",""强我""]","","","","","","","","","","","","","","","","","","","","","","","","","","","","","","feedback_test","","","","","","","",""
"813","","j","psychophysics","122","282407","0.0-8.0-1.0-1.1-0.1-0.55","6","5","4","3","3","5","2","4","4","5","4","1","0","0","1","-1","1","2","0","5","5","5","5","5","4","4","5","4","4","8","7","6","8","5","6","8","5","7","6","3","2","7","5","2","5","1","5","2","2","3","6","2","7","7","5","2","3","5","3","6","3","3","2","7","3","6","6","7","7","5","6","6","3","7","3","7","3","6","598907506583928832","刘","443","Male","[""坏我"",""坏他"",""好他"",""好我""]","[""弱我"",""弱他"",""强他"",""强我""]","","","","","","","","match","","","","","","","","","","key","j","16.674361111111164","758.3333534223067","422.22223340729164","f","false","nonmatch","img/triangle.png","强他","弱他","prac_ALT2_ability","practice_ability","","","","","","","",""
"null","<span style='color:red; font-size: 70px;'>错误! </span>","null","html-keyboard-response","123","282909","0.0-8.0-1.0-1.1-0.1-1.55","6","5","4","3","3","5","2","4","4","5","4","1","0","0","1","-1","1","2","0","5","5","5","5","5","4","4","5","4","4","8","7","6","8","5","6","8","5","7","6","3","2","7","5","2","5","1","5","2","2","3","6","2","7","7","5","2","3","5","3","6","3","3","2","7","3","6","6","7","7","5","6","6","3","7","3","7","3","6","598907506583928832","刘","443","Male","[""坏我"",""坏他"",""好他"",""好我""]","[""弱我"",""弱他"",""强他"",""强我""]","","","","","","","","","","","","","","","","","","","","","","","","","","","","","","feedback_test","","","","","","","",""
"760","","j","psychophysics","124","284670","0.0-8.0-1.0-1.1-0.1-0.56","6","5","4","3","3","5","2","4","4","5","4","1","0","0","1","-1","1","2","0","5","5","5","5","5","4","4","5","4","4","8","7","6","8","5","6","8","5","7","6","3","2","7","5","2","5","1","5","2","2","3","6","2","7","7","5","2","3","5","3","6","3","3","2","7","3","6","6","7","7","5","6","6","3","7","3","7","3","6","598907506583928832","刘","443","Male","[""坏我"",""坏他"",""好他"",""好我""]","[""弱我"",""弱他"",""强他"",""强我""]","","","","","","","","match","","","","","","","","","","key","j","16.67441346153814","758.3333534223067","422.22223340729164","j","true","match","img/hexagon.png","强我","强我","prac_ALT2_ability","practice_ability","","","","","","","",""
"null","<span style='color:GreenYellow; font-size: 70px;'>正确! </span>","null","html-keyboard-response","125","285170","0.0-8.0-1.0-1.1-0.1-1.56","6","5","4","3","3","5","2","4","4","5","4","1","0","0","1","-1","1","2","0","5","5","5","5","5","4","4","5","4","4","8","7","6","8","5","6","8","5","7","6","3","2","7","5","2","5","1","5","2","2","3","6","2","7","7","5","2","3","5","3","6","3","3","2","7","3","6","6","7","7","5","6","6","3","7","3","7","3","6","598907506583928832","刘","443","Male","[""坏我"",""坏他"",""好他"",""好我""]","[""弱我"",""弱他"",""强他"",""强我""]","","","","","","","","","","","","","","","","","","","","","","","","","","","","","","feedback_test","","","","","","","",""
"735","","f","psychophysics","126","286907","0.0-8.0-1.0-1.1-0.1-0.57","6","5","4","3","3","5","2","4","4","5","4","1","0","0","1","-1","1","2","0","5","5","5","5","5","4","4","5","4","4","8","7","6","8","5","6","8","5","7","6","3","2","7","5","2","5","1","5","2","2","3","6","2","7","7","5","2","3","5","3","6","3","3","2","7","3","6","6","7","7","5","6","6","3","7","3","7","3","6","598907506583928832","刘","443","Male","[""坏我"",""坏他"",""好他"",""好我""]","[""弱我"",""弱他"",""强他"",""强我""]","","","","","","","","nonmatch","","","","","","","","","","key","f","16.67493203883534","758.3333534223067","422.22223340729164","f","true","nonmatch","img/ellipse.png","弱我","强他","prac_ALT2_ability","practice_ability","","","","","","","",""
"null","<span style='color:GreenYellow; font-size: 70px;'>正确! </span>","null","html-keyboard-response","127","287408","0.0-8.0-1.0-1.1-0.1-1.57","6","5","4","3","3","5","2","4","4","5","4","1","0","0","1","-1","1","2","0","5","5","5","5","5","4","4","5","4","4","8","7","6","8","5","6","8","5","7","6","3","2","7","5","2","5","1","5","2","2","3","6","2","7","7","5","2","3","5","3","6","3","3","2","7","3","6","6","7","7","5","6","6","3","7","3","7","3","6","598907506583928832","刘","443","Male","[""坏我"",""坏他"",""好他"",""好我""]","[""弱我"",""弱他"",""强他"",""强我""]","","","","","","","","","","","","","","","","","","","","","","","","","","","","","","feedback_test","","","","","","","",""
"752","","f","psychophysics","128","289161","0.0-8.0-1.0-1.1-0.1-0.58","6","5","4","3","3","5","2","4","4","5","4","1","0","0","1","-1","1","2","0","5","5","5","5","5","4","4","5","4","4","8","7","6","8","5","6","8","5","7","6","3","2","7","5","2","5","1","5","2","2","3","6","2","7","7","5","2","3","5","3","6","3","3","2","7","3","6","6","7","7","5","6","6","3","7","3","7","3","6","598907506583928832","刘","443","Male","[""坏我"",""坏他"",""好他"",""好我""]","[""弱我"",""弱他"",""强他"",""强我""]","","","","","","","","nonmatch","","","","","","","","","","key","f","16.669663461538082","758.3333534223067","422.22223340729164","f","true","nonmatch","img/hexagon.png","弱我","强我","prac_ALT2_ability","practice_ability","","","","","","","",""
"null","<span style='color:GreenYellow; font-size: 70px;'>正确! </span>","null","html-keyboard-response","129","289662","0.0-8.0-1.0-1.1-0.1-1.58","6","5","4","3","3","5","2","4","4","5","4","1","0","0","1","-1","1","2","0","5","5","5","5","5","4","4","5","4","4","8","7","6","8","5","6","8","5","7","6","3","2","7","5","2","5","1","5","2","2","3","6","2","7","7","5","2","3","5","3","6","3","3","2","7","3","6","6","7","7","5","6","6","3","7","3","7","3","6","598907506583928832","刘","443","Male","[""坏我"",""坏他"",""好他"",""好我""]","[""弱我"",""弱他"",""强他"",""强我""]","","","","","","","","","","","","","","","","","","","","","","","","","","","","","","feedback_test","","","","","","","",""
"827","","j","psychophysics","130","291492","0.0-8.0-1.0-1.1-0.1-0.59","6","5","4","3","3","5","2","4","4","5","4","1","0","0","1","-1","1","2","0","5","5","5","5","5","4","4","5","4","4","8","7","6","8","5","6","8","5","7","6","3","2","7","5","2","5","1","5","2","2","3","6","2","7","7","5","2","3","5","3","6","3","3","2","7","3","6","6","7","7","5","6","6","3","7","3","7","3","6","598907506583928832","刘","443","Male","[""坏我"",""坏他"",""好他"",""好我""]","[""弱我"",""弱他"",""强他"",""强我""]","","","","","","","","match","","","","","","","","","","key","j","16.675990740740584","758.3333534223067","422.22223340729164","j","true","match","img/triangle.png","弱他","弱他","prac_ALT2_ability","practice_ability","","","","","","","",""
"null","<span style='color:GreenYellow; font-size: 70px;'>正确! </span>","null","html-keyboard-response","131","291993","0.0-8.0-1.0-1.1-0.1-1.59","6","5","4","3","3","5","2","4","4","5","4","1","0","0","1","-1","1","2","0","5","5","5","5","5","4","4","5","4","4","8","7","6","8","5","6","8","5","7","6","3","2","7","5","2","5","1","5","2","2","3","6","2","7","7","5","2","3","5","3","6","3","3","2","7","3","6","6","7","7","5","6","6","3","7","3","7","3","6","598907506583928832","刘","443","Male","[""坏我"",""坏他"",""好他"",""好我""]","[""弱我"",""弱他"",""强他"",""强我""]","","","","","","","","","","","","","","","","","","","","","","","","","","","","","","feedback_test","","","","","","","",""
"810","","f","psychophysics","132","293804","0.0-8.0-1.0-1.1-0.1-0.60","6","5","4","3","3","5","2","4","4","5","4","1","0","0","1","-1","1","2","0","5","5","5","5","5","4","4","5","4","4","8","7","6","8","5","6","8","5","7","6","3","2","7","5","2","5","1","5","2","2","3","6","2","7","7","5","2","3","5","3","6","3","3","2","7","3","6","6","7","7","5","6","6","3","7","3","7","3","6","598907506583928832","刘","443","Male","[""坏我"",""坏他"",""好他"",""好我""]","[""弱我"",""弱他"",""强他"",""强我""]","","","","","","","","nonmatch","","","","","","","","","","key","f","16.663121495326813","758.3333534223067","422.22223340729164","f","true","nonmatch","img/square.png","强他","弱我","prac_ALT2_ability","practice_ability","","","","","","","",""
"null","<span style='color:GreenYellow; font-size: 70px;'>正确! </span>","null","html-keyboard-response","133","294305","0.0-8.0-1.0-1.1-0.1-1.60","6","5","4","3","3","5","2","4","4","5","4","1","0","0","1","-1","1","2","0","5","5","5","5","5","4","4","5","4","4","8","7","6","8","5","6","8","5","7","6","3","2","7","5","2","5","1","5","2","2","3","6","2","7","7","5","2","3","5","3","6","3","3","2","7","3","6","6","7","7","5","6","6","3","7","3","7","3","6","598907506583928832","刘","443","Male","[""坏我"",""坏他"",""好他"",""好我""]","[""弱我"",""弱他"",""强他"",""强我""]","","","","","","","","","","","","","","","","","","","","","","","","","","","","","","feedback_test","","","","","","","",""
"856","","j","psychophysics","134","296164","0.0-8.0-1.0-1.1-0.1-0.61","6","5","4","3","3","5","2","4","4","5","4","1","0","0","1","-1","1","2","0","5","5","5","5","5","4","4","5","4","4","8","7","6","8","5","6","8","5","7","6","3","2","7","5","2","5","1","5","2","2","3","6","2","7","7","5","2","3","5","3","6","3","3","2","7","3","6","6","7","7","5","6","6","3","7","3","7","3","6","598907506583928832","刘","443","Male","[""坏我"",""坏他"",""好他"",""好我""]","[""弱我"",""弱他"",""强他"",""强我""]","","","","","","","","match","","","","","","","","","","key","j","16.671783783783514","758.3333534223067","422.22223340729164","j","true","match","img/ellipse.png","强他","强他","prac_ALT2_ability","practice_ability","","","","","","","",""
"null","<span style='color:GreenYellow; font-size: 70px;'>正确! </span>","null","html-keyboard-response","135","296668","0.0-8.0-1.0-1.1-0.1-1.61","6","5","4","3","3","5","2","4","4","5","4","1","0","0","1","-1","1","2","0","5","5","5","5","5","4","4","5","4","4","8","7","6","8","5","6","8","5","7","6","3","2","7","5","2","5","1","5","2","2","3","6","2","7","7","5","2","3","5","3","6","3","3","2","7","3","6","6","7","7","5","6","6","3","7","3","7","3","6","598907506583928832","刘","443","Male","[""坏我"",""坏他"",""好他"",""好我""]","[""弱我"",""弱他"",""强他"",""强我""]","","","","","","","","","","","","","","","","","","","","","","","","","","","","","","feedback_test","","","","","","","",""
"940","","f","psychophysics","136","298610","0.0-8.0-1.0-1.1-0.1-0.62","6","5","4","3","3","5","2","4","4","5","4","1","0","0","1","-1","1","2","0","5","5","5","5","5","4","4","5","4","4","8","7","6","8","5","6","8","5","7","6","3","2","7","5","2","5","1","5","2","2","3","6","2","7","7","5","2","3","5","3","6","3","3","2","7","3","6","6","7","7","5","6","6","3","7","3","7","3","6","598907506583928832","刘","443","Male","[""坏我"",""坏他"",""好他"",""好我""]","[""弱我"",""弱他"",""强他"",""强我""]","","","","","","","","nonmatch","","","","","","","","","","key","f","16.674443478260756","758.3333534223067","422.22223340729164","f","true","nonmatch","img/triangle.png","弱我","弱他","prac_ALT2_ability","practice_ability","","","","","","","",""
