"rt","stimulus","response","trial_type","trial_index","time_elapsed","internal_node_id","swb_1","swb_2","swb_3","swb_4","swb_5","LOT_1","LOT_2","LOT_3","LOT_4","LOT_5","LOT_6","IPC_1","IPC_2","IPC_3","IPC_4","IPC_5","IPC_6","IPC_7","IPC_8","MorIden_1","MorIden_2","MorIden_3","MorIden_4","MorIden_5","MorIden_6","MorIden_7","MorIden_8","MorIden_9","MorIden_10","moralSeImag_1","moralSeImag_2","moralSeImag_3","moralSeImag_4","moralSeImag_5","moralSeImag_6","moralSeImag_7","moralSeImag_8","moralSeImag_9","sde_1","sde_2","sde_3","sde_4","sde_5","sde_6","sde_7","sde_8","sde_9","sde_10","sde_11","sde_12","sde_13","sde_14","sde_15","sde_16","sde_17","sde_18","sde_19","sde_20","IM_1","IM_2","IM_3","IM_4","IM_5","IM_6","IM_7","IM_8","IM_9","IM_10","IM_11","IM_12","IM_13","IM_14","IM_15","IM_16","IM_17","IM_18","IM_19","IM_20","subj_idx","friend_name","ParticipantID","Sex","Word","Word2","value","success","timeout","failed_images","failed_audio","failed_video","user_agent","responses","item_order","radio_event_ids","radio_event_times","key_event_times","mouse_event_times","straightlining","zigzagging","honeypot","view_history","response_type","key_press","avg_frame_time","center_x","center_y","correct_response","correct","identity","Image","word","condition","task_id","screen_id","time_stamp","person","valence","domain","math","status","duration","question_order"
"1830","
   <p><div style='color:white; font-size: 25px'>您好，欢迎参加本次实验。</div></p>
   <p><div style='color:white; font-size: 25px'>为充分保障您的权利，请确保您已经知晓并同意《参与实验同意书》以及《数据公开知情同意书》。</div></p>
   <p><div style='color:white; font-size: 25px'>如果您未见过上述内容，请咨询实验员。</div></p>
   <p style='color:white; font-size: 25px'>如果您选择继续实验，则表示您已经清楚两份知情同意书的内容并同意。</p>
   <p><div style = ""color: red;font-size:30px;"">请确保您记得day0的实验编号，您将在本次实验输入该编号，若您忘记，请咨询实验员后作答。</div></p>
   <p> <div style = ""color: green""><按空格键至下页></div> </p>
   "," ","html-keyboard-response","0","1836","0.0-0.0","5","5","6","5","6","5","3","4","5","5","5","0","1","0","1","-1","1","1","0","5","4","4","5","4","4","5","4","4","5","7","8","7","8","7","8","8","8","9","5","3","6","4","4","3","5","1","4","3","5","4","6","4","4","6","5","4","5","4","5","5","5","6","3","6","6","5","5","5","6","5","4","5","5","5","6","5","4","5","729745091731918850","黄","462","Male","[""坏我"",""好我"",""好他"",""坏他""]","[""弱我"",""强我"",""强他"",""弱他""]","","","","","","","","","","","","","","","","","","","","","","","","","","","","","","","","","","","","","",""
"","","","call-function","1","1838","0.0-1.0-0.0","5","5","6","5","6","5","3","4","5","5","5","0","1","0","1","-1","1","1","0","5","4","4","5","4","4","5","4","4","5","7","8","7","8","7","8","8","8","9","5","3","6","4","4","3","5","1","4","3","5","4","6","4","4","6","5","4","5","4","5","5","5","6","3","6","6","5","5","5","6","5","4","5","5","5","6","5","4","5","729745091731918850","黄","462","Male","[""坏我"",""好我"",""好他"",""坏他""]","[""弱我"",""强我"",""强他"",""弱他""]","","","","","","","","","","","","","","","","","","","","","","","","","","","","","","","","","","","","","",""
"25067","","[{""name"":""Sex"",""value"":""0""},{""name"":""friend_name"",""value"":""黄""},{""name"":""ParticipantID"",""value"":""462""}]","survey-html-form","2","26910","0.0-1.0-1.0","5","5","6","5","6","5","3","4","5","5","5","0","1","0","1","-1","1","1","0","5","4","4","5","4","4","5","4","4","5","7","8","7","8","7","8","8","8","9","5","3","6","4","4","3","5","1","4","3","5","4","6","4","4","6","5","4","5","4","5","5","5","6","3","6","6","5","5","5","6","5","4","5","5","5","6","5","4","5","729745091731918850","黄","462","Male","[""坏我"",""好我"",""好他"",""坏他""]","[""弱我"",""强我"",""强他"",""弱他""]","","","","","","","","","","","","","","","","","","","","","","","","","","","","","","","","","","","","","",""
"","","","preload","3","28182","0.0-2.0","5","5","6","5","6","5","3","4","5","5","5","0","1","0","1","-1","1","1","0","5","4","4","5","4","4","5","4","4","5","7","8","7","8","7","8","8","8","9","5","3","6","4","4","3","5","1","4","3","5","4","6","4","4","6","5","4","5","4","5","5","5","6","3","6","6","5","5","5","6","5","4","5","5","5","6","5","4","5","729745091731918850","黄","462","Male","[""坏我"",""好我"",""好他"",""坏他""]","[""弱我"",""强我"",""强他"",""弱他""]","","true","false","[]","[]","[]","","","","","","","","","","","","","","","","","","","","","","","","","","","","","","","",""
"","","","fullscreen","4","30338","0.0-3.0","5","5","6","5","6","5","3","4","5","5","5","0","1","0","1","-1","1","1","0","5","4","4","5","4","4","5","4","4","5","7","8","7","8","7","8","8","8","9","5","3","6","4","4","3","5","1","4","3","5","4","6","4","4","6","5","4","5","4","5","5","5","6","3","6","6","5","5","5","6","5","4","5","5","5","6","5","4","5","729745091731918850","黄","462","Male","[""坏我"",""好我"",""好他"",""坏他""]","[""弱我"",""强我"",""强他"",""弱他""]","","true","","","","","{}","","","","","","","","","","","","","","","","","","","","","","","","","","","","","","",""
"9904.699999999255","","{""Q01"":""5"",""Q02"":""5"",""Q03"":""6"",""Q04"":""5"",""Q05"":""6""}","survey-template","5","40256","0.0-4.0","5","5","6","5","6","5","3","4","5","5","5","0","1","0","1","-1","1","1","0","5","4","4","5","4","4","5","4","4","5","7","8","7","8","7","8","8","8","9","5","3","6","4","4","3","5","1","4","3","5","4","6","4","4","6","5","4","5","4","5","5","5","6","3","6","6","5","5","5","6","5","4","5","5","5","6","5","4","5","729745091731918850","黄","462","Male","[""坏我"",""好我"",""好他"",""坏他""]","[""弱我"",""强我"",""强他"",""弱他""]","","","","","","","","{""Q01"":""5"",""Q02"":""5"",""Q03"":""6"",""Q04"":""5"",""Q05"":""6""}","[0,1,2,3,4]","[""Q01"",""Q02"",""Q03"",""Q04"",""Q05""]","[2861.699999999255,4933.199999999255,5709.299999998882,7493.4000000003725,9045.199999999255]","[]","[2861.699999999255,4933.199999999255,5709.299999998882,7493.4000000003725,9045.199999999255,9557.299999998882,9901.299999998882]","0.6","0.75","0","","","","","","","","","","","","","","","","","","","","","",""
"12956.599999999627","","{""Q01"":""5"",""Q02"":""3"",""Q03"":""4"",""Q04"":""5"",""Q05"":""5"",""Q06"":""5""}","survey-template","6","53229","0.0-5.0","5","5","6","5","6","5","3","4","5","5","5","0","1","0","1","-1","1","1","0","5","4","4","5","4","4","5","4","4","5","7","8","7","8","7","8","8","8","9","5","3","6","4","4","3","5","1","4","3","5","4","6","4","4","6","5","4","5","4","5","5","5","6","3","6","6","5","5","5","6","5","4","5","5","5","6","5","4","5","729745091731918850","黄","462","Male","[""坏我"",""好我"",""好他"",""坏他""]","[""弱我"",""强我"",""强他"",""弱他""]","","","","","","","","{""Q01"":""5"",""Q02"":""3"",""Q03"":""4"",""Q04"":""5"",""Q05"":""5"",""Q06"":""5""}","[0,1,2,3,4,5]","[""Q01"",""Q02"",""Q03"",""Q04"",""Q05"",""Q06""]","[2338.5,4250.39999999851,5890.299999998882,8330.199999999255,9034.299999998882,12418.299999998882]","[]","[2338.5,4250.39999999851,5442.39999999851,5890.299999998882,8330.199999999255,9034.299999998882,12058.299999998882,12418.299999998882,12954.39999999851]","0.3333333333333333","0.4","0","","","","","","","","","","","","","","","","","","","","","",""
"16930.800000000745","","{""Q01"":""0"",""Q02"":""1"",""Q03"":""0"",""Q04"":""1"",""Q05"":""-1"",""Q06"":""1"",""Q07"":""1"",""Q08"":""0""}","survey-template","7","70177","0.0-6.0","5","5","6","5","6","5","3","4","5","5","5","0","1","0","1","-1","1","1","0","5","4","4","5","4","4","5","4","4","5","7","8","7","8","7","8","8","8","9","5","3","6","4","4","3","5","1","4","3","5","4","6","4","4","6","5","4","5","4","5","5","5","6","3","6","6","5","5","5","6","5","4","5","5","5","6","5","4","5","729745091731918850","黄","462","Male","[""坏我"",""好我"",""好他"",""坏他""]","[""弱我"",""强我"",""强他"",""弱他""]","","","","","","","","{""Q01"":""0"",""Q02"":""1"",""Q03"":""0"",""Q04"":""1"",""Q05"":""-1"",""Q06"":""1"",""Q07"":""1"",""Q08"":""0""}","[0,1,2,3,4,5,6,7]","[""Q01"",""Q02"",""Q03"",""Q04"",""Q05"",""Q06"",""Q07"",""Q08""]","[2383.300000000745,4071.199999999255,5943.0999999996275,7847,9407,11350.900000000373,13950.800000000745,16398.900000000373]","[]","[2383.300000000745,4071.199999999255,5943.0999999996275,7847,9407,11350.900000000373,13527,13950.800000000745,15127.199999999255,15558.900000000373,16006.699999999255,16398.900000000373,16927.099999999627]","0.5","0.5714285714285714","0","","","","","","","","","","","","","","","","","","","","","",""
"1851","","","instructions","8","72044","0.0-7.0","5","5","6","5","6","5","3","4","5","5","5","0","1","0","1","-1","1","1","0","5","4","4","5","4","4","5","4","4","5","7","8","7","8","7","8","8","8","9","5","3","6","4","4","3","5","1","4","3","5","4","6","4","4","6","5","4","5","4","5","5","5","6","3","6","6","5","5","5","6","5","4","5","5","5","6","5","4","5","729745091731918850","黄","462","Male","[""坏我"",""好我"",""好他"",""坏他""]","[""弱我"",""强我"",""强他"",""弱他""]","","","","","","","","","","","","","","","","","[{""page_index"":0,""viewing_time"":1849}]","","","","","","","","","","","","","","","","","","","","",""
"122466","","","instructions","9","194515","0.0-8.0-1.0-0.0","5","5","6","5","6","5","3","4","5","5","5","0","1","0","1","-1","1","1","0","5","4","4","5","4","4","5","4","4","5","7","8","7","8","7","8","8","8","9","5","3","6","4","4","3","5","1","4","3","5","4","6","4","4","6","5","4","5","4","5","5","5","6","3","6","6","5","5","5","6","5","4","5","5","5","6","5","4","5","729745091731918850","黄","462","Male","[""坏我"",""好我"",""好他"",""坏他""]","[""弱我"",""强我"",""强他"",""弱他""]","","","","","","","","","","","","","","","","","[{""page_index"":0,""viewing_time"":1714},{""page_index"":1,""viewing_time"":102687},{""page_index"":2,""viewing_time"":14712},{""page_index"":3,""viewing_time"":3352}]","","","","","","","","","","","","","","","","","","","","",""
"1047","","f","psychophysics","10","196578","0.0-8.0-1.0-1.0-0.0-0.0","5","5","6","5","6","5","3","4","5","5","5","0","1","0","1","-1","1","1","0","5","4","4","5","4","4","5","4","4","5","7","8","7","8","7","8","8","8","9","5","3","6","4","4","3","5","1","4","3","5","4","6","4","4","6","5","4","5","4","5","5","5","6","3","6","6","5","5","5","6","5","4","5","5","5","6","5","4","5","729745091731918850","黄","462","Male","[""坏我"",""好我"",""好他"",""坏他""]","[""弱我"",""强我"",""强他"",""弱他""]","","","","","","","","match","","","","","","","","","","key","f","16.80508264462817","683","380","j","false","nonmatch","img/ellipse.png","弱他","强我","prac_ALT2_ability","practice_ability","","","","","","","",""
"null","<span style='color:red; font-size: 70px;'>错误! </span>","null","html-keyboard-response","11","197082","0.0-8.0-1.0-1.0-0.0-1.0","5","5","6","5","6","5","3","4","5","5","5","0","1","0","1","-1","1","1","0","5","4","4","5","4","4","5","4","4","5","7","8","7","8","7","8","8","8","9","5","3","6","4","4","3","5","1","4","3","5","4","6","4","4","6","5","4","5","4","5","5","5","6","3","6","6","5","5","5","6","5","4","5","5","5","6","5","4","5","729745091731918850","黄","462","Male","[""坏我"",""好我"",""好他"",""坏他""]","[""弱我"",""强我"",""强他"",""弱他""]","","","","","","","","","","","","","","","","","","","","","","","","","","","","","","feedback_test","","","","","","","",""
"904","","f","psychophysics","12","198994","0.0-8.0-1.0-1.0-0.0-0.1","5","5","6","5","6","5","3","4","5","5","5","0","1","0","1","-1","1","1","0","5","4","4","5","4","4","5","4","4","5","7","8","7","8","7","8","8","8","9","5","3","6","4","4","3","5","1","4","3","5","4","6","4","4","6","5","4","5","4","5","5","5","6","3","6","6","5","5","5","6","5","4","5","5","5","6","5","4","5","729745091731918850","黄","462","Male","[""坏我"",""好我"",""好他"",""坏他""]","[""弱我"",""强我"",""强他"",""弱他""]","","","","","","","","match","","","","","","","","","","key","f","16.65775221238939","683","380","f","true","match","img/pentagon.png","弱他","弱他","prac_ALT2_ability","practice_ability","","","","","","","",""
"null","<span style='color:GreenYellow; font-size: 70px;'>正确! </span>","null","html-keyboard-response","13","199498","0.0-8.0-1.0-1.0-0.0-1.1","5","5","6","5","6","5","3","4","5","5","5","0","1","0","1","-1","1","1","0","5","4","4","5","4","4","5","4","4","5","7","8","7","8","7","8","8","8","9","5","3","6","4","4","3","5","1","4","3","5","4","6","4","4","6","5","4","5","4","5","5","5","6","3","6","6","5","5","5","6","5","4","5","5","5","6","5","4","5","729745091731918850","黄","462","Male","[""坏我"",""好我"",""好他"",""坏他""]","[""弱我"",""强我"",""强他"",""弱他""]","","","","","","","","","","","","","","","","","","","","","","","","","","","","","","feedback_test","","","","","","","",""
"1117","","f","psychophysics","14","201619","0.0-8.0-1.0-1.0-0.0-0.2","5","5","6","5","6","5","3","4","5","5","5","0","1","0","1","-1","1","1","0","5","4","4","5","4","4","5","4","4","5","7","8","7","8","7","8","8","8","9","5","3","6","4","4","3","5","1","4","3","5","4","6","4","4","6","5","4","5","4","5","5","5","6","3","6","6","5","5","5","6","5","4","5","5","5","6","5","4","5","729745091731918850","黄","462","Male","[""坏我"",""好我"",""好他"",""坏他""]","[""弱我"",""强我"",""强他"",""弱他""]","","","","","","","","match","","","","","","","","","","key","f","16.660722222222137","683","380","j","false","nonmatch","img/pentagon.png","强他","弱他","prac_ALT2_ability","practice_ability","","","","","","","",""
"null","<span style='color:red; font-size: 70px;'>错误! </span>","null","html-keyboard-response","15","202123","0.0-8.0-1.0-1.0-0.0-1.2","5","5","6","5","6","5","3","4","5","5","5","0","1","0","1","-1","1","1","0","5","4","4","5","4","4","5","4","4","5","7","8","7","8","7","8","8","8","9","5","3","6","4","4","3","5","1","4","3","5","4","6","4","4","6","5","4","5","4","5","5","5","6","3","6","6","5","5","5","6","5","4","5","5","5","6","5","4","5","729745091731918850","黄","462","Male","[""坏我"",""好我"",""好他"",""坏他""]","[""弱我"",""强我"",""强他"",""弱他""]","","","","","","","","","","","","","","","","","","","","","","","","","","","","","","feedback_test","","","","","","","",""
"798","","f","psychophysics","16","203930","0.0-8.0-1.0-1.0-0.0-0.3","5","5","6","5","6","5","3","4","5","5","5","0","1","0","1","-1","1","1","0","5","4","4","5","4","4","5","4","4","5","7","8","7","8","7","8","8","8","9","5","3","6","4","4","3","5","1","4","3","5","4","6","4","4","6","5","4","5","4","5","5","5","6","3","6","6","5","5","5","6","5","4","5","5","5","6","5","4","5","729745091731918850","黄","462","Male","[""坏我"",""好我"",""好他"",""坏他""]","[""弱我"",""强我"",""强他"",""弱他""]","","","","","","","","match","","","","","","","","","","key","f","16.81017924528289","683","380","f","true","match","img/ellipse.png","强我","强我","prac_ALT2_ability","practice_ability","","","","","","","",""
"null","<span style='color:GreenYellow; font-size: 70px;'>正确! </span>","null","html-keyboard-response","17","204435","0.0-8.0-1.0-1.0-0.0-1.3","5","5","6","5","6","5","3","4","5","5","5","0","1","0","1","-1","1","1","0","5","4","4","5","4","4","5","4","4","5","7","8","7","8","7","8","8","8","9","5","3","6","4","4","3","5","1","4","3","5","4","6","4","4","6","5","4","5","4","5","5","5","6","3","6","6","5","5","5","6","5","4","5","5","5","6","5","4","5","729745091731918850","黄","462","Male","[""坏我"",""好我"",""好他"",""坏他""]","[""弱我"",""强我"",""强他"",""弱他""]","","","","","","","","","","","","","","","","","","","","","","","","","","","","","","feedback_test","","","","","","","",""
"927","","j","psychophysics","18","206370","0.0-8.0-1.0-1.0-0.0-0.4","5","5","6","5","6","5","3","4","5","5","5","0","1","0","1","-1","1","1","0","5","4","4","5","4","4","5","4","4","5","7","8","7","8","7","8","8","8","9","5","3","6","4","4","3","5","1","4","3","5","4","6","4","4","6","5","4","5","4","5","5","5","6","3","6","6","5","5","5","6","5","4","5","5","5","6","5","4","5","729745091731918850","黄","462","Male","[""坏我"",""好我"",""好他"",""坏他""]","[""弱我"",""强我"",""强他"",""弱他""]","","","","","","","","nonmatch","","","","","","","","","","key","j","16.809307017543848","683","380","j","true","nonmatch","img/square.png","强我","强他","prac_ALT2_ability","practice_ability","","","","","","","",""
"null","<span style='color:GreenYellow; font-size: 70px;'>正确! </span>","null","html-keyboard-response","19","206875","0.0-8.0-1.0-1.0-0.0-1.4","5","5","6","5","6","5","3","4","5","5","5","0","1","0","1","-1","1","1","0","5","4","4","5","4","4","5","4","4","5","7","8","7","8","7","8","8","8","9","5","3","6","4","4","3","5","1","4","3","5","4","6","4","4","6","5","4","5","4","5","5","5","6","3","6","6","5","5","5","6","5","4","5","5","5","6","5","4","5","729745091731918850","黄","462","Male","[""坏我"",""好我"",""好他"",""坏他""]","[""弱我"",""强我"",""强他"",""弱他""]","","","","","","","","","","","","","","","","","","","","","","","","","","","","","","feedback_test","","","","","","","",""
"1060","","f","psychophysics","20","208945","0.0-8.0-1.0-1.0-0.0-0.5","5","5","6","5","6","5","3","4","5","5","5","0","1","0","1","-1","1","1","0","5","4","4","5","4","4","5","4","4","5","7","8","7","8","7","8","8","8","9","5","3","6","4","4","3","5","1","4","3","5","4","6","4","4","6","5","4","5","4","5","5","5","6","3","6","6","5","5","5","6","5","4","5","5","5","6","5","4","5","729745091731918850","黄","462","Male","[""坏我"",""好我"",""好他"",""坏他""]","[""弱我"",""强我"",""强他"",""弱他""]","","","","","","","","match","","","","","","","","","","key","f","16.66367479674783","683","380","f","true","match","img/square.png","强他","强他","prac_ALT2_ability","practice_ability","","","","","","","",""
"null","<span style='color:GreenYellow; font-size: 70px;'>正确! </span>","null","html-keyboard-response","21","209451","0.0-8.0-1.0-1.0-0.0-1.5","5","5","6","5","6","5","3","4","5","5","5","0","1","0","1","-1","1","1","0","5","4","4","5","4","4","5","4","4","5","7","8","7","8","7","8","8","8","9","5","3","6","4","4","3","5","1","4","3","5","4","6","4","4","6","5","4","5","4","5","5","5","6","3","6","6","5","5","5","6","5","4","5","5","5","6","5","4","5","729745091731918850","黄","462","Male","[""坏我"",""好我"",""好他"",""坏他""]","[""弱我"",""强我"",""强他"",""弱他""]","","","","","","","","","","","","","","","","","","","","","","","","","","","","","","feedback_test","","","","","","","",""
"919","","j","psychophysics","22","211378","0.0-8.0-1.0-1.0-0.0-0.6","5","5","6","5","6","5","3","4","5","5","5","0","1","0","1","-1","1","1","0","5","4","4","5","4","4","5","4","4","5","7","8","7","8","7","8","8","8","9","5","3","6","4","4","3","5","1","4","3","5","4","6","4","4","6","5","4","5","4","5","5","5","6","3","6","6","5","5","5","6","5","4","5","5","5","6","5","4","5","729745091731918850","黄","462","Male","[""坏我"",""好我"",""好他"",""坏他""]","[""弱我"",""强我"",""强他"",""弱他""]","","","","","","","","nonmatch","","","","","","","","","","key","j","16.812646017699098","683","380","j","true","nonmatch","img/square.png","弱他","强他","prac_ALT2_ability","practice_ability","","","","","","","",""
"null","<span style='color:GreenYellow; font-size: 70px;'>正确! </span>","null","html-keyboard-response","23","211883","0.0-8.0-1.0-1.0-0.0-1.6","5","5","6","5","6","5","3","4","5","5","5","0","1","0","1","-1","1","1","0","5","4","4","5","4","4","5","4","4","5","7","8","7","8","7","8","8","8","9","5","3","6","4","4","3","5","1","4","3","5","4","6","4","4","6","5","4","5","4","5","5","5","6","3","6","6","5","5","5","6","5","4","5","5","5","6","5","4","5","729745091731918850","黄","462","Male","[""坏我"",""好我"",""好他"",""坏他""]","[""弱我"",""强我"",""强他"",""弱他""]","","","","","","","","","","","","","","","","","","","","","","","","","","","","","","feedback_test","","","","","","","",""
"847","","f","psychophysics","24","213738","0.0-8.0-1.0-1.0-0.0-0.7","5","5","6","5","6","5","3","4","5","5","5","0","1","0","1","-1","1","1","0","5","4","4","5","4","4","5","4","4","5","7","8","7","8","7","8","8","8","9","5","3","6","4","4","3","5","1","4","3","5","4","6","4","4","6","5","4","5","4","5","5","5","6","3","6","6","5","5","5","6","5","4","5","5","5","6","5","4","5","729745091731918850","黄","462","Male","[""坏我"",""好我"",""好他"",""坏他""]","[""弱我"",""强我"",""强他"",""弱他""]","","","","","","","","match","","","","","","","","","","key","f","16.79933027522916","683","380","f","true","match","img/square.png","强他","强他","prac_ALT2_ability","practice_ability","","","","","","","",""
"null","<span style='color:GreenYellow; font-size: 70px;'>正确! </span>","null","html-keyboard-response","25","214243","0.0-8.0-1.0-1.0-0.0-1.7","5","5","6","5","6","5","3","4","5","5","5","0","1","0","1","-1","1","1","0","5","4","4","5","4","4","5","4","4","5","7","8","7","8","7","8","8","8","9","5","3","6","4","4","3","5","1","4","3","5","4","6","4","4","6","5","4","5","4","5","5","5","6","3","6","6","5","5","5","6","5","4","5","5","5","6","5","4","5","729745091731918850","黄","462","Male","[""坏我"",""好我"",""好他"",""坏他""]","[""弱我"",""强我"",""强他"",""弱他""]","","","","","","","","","","","","","","","","","","","","","","","","","","","","","","feedback_test","","","","","","","",""
"838","","j","psychophysics","26","216089","0.0-8.0-1.0-1.0-0.0-0.8","5","5","6","5","6","5","3","4","5","5","5","0","1","0","1","-1","1","1","0","5","4","4","5","4","4","5","4","4","5","7","8","7","8","7","8","8","8","9","5","3","6","4","4","3","5","1","4","3","5","4","6","4","4","6","5","4","5","4","5","5","5","6","3","6","6","5","5","5","6","5","4","5","5","5","6","5","4","5","729745091731918850","黄","462","Male","[""坏我"",""好我"",""好他"",""坏他""]","[""弱我"",""强我"",""强他"",""弱他""]","","","","","","","","nonmatch","","","","","","","","","","key","j","16.66232727272727","683","380","j","true","nonmatch","img/ellipse.png","强他","强我","prac_ALT2_ability","practice_ability","","","","","","","",""
"null","<span style='color:GreenYellow; font-size: 70px;'>正确! </span>","null","html-keyboard-response","27","216594","0.0-8.0-1.0-1.0-0.0-1.8","5","5","6","5","6","5","3","4","5","5","5","0","1","0","1","-1","1","1","0","5","4","4","5","4","4","5","4","4","5","7","8","7","8","7","8","8","8","9","5","3","6","4","4","3","5","1","4","3","5","4","6","4","4","6","5","4","5","4","5","5","5","6","3","6","6","5","5","5","6","5","4","5","5","5","6","5","4","5","729745091731918850","黄","462","Male","[""坏我"",""好我"",""好他"",""坏他""]","[""弱我"",""强我"",""强他"",""弱他""]","","","","","","","","","","","","","","","","","","","","","","","","","","","","","","feedback_test","","","","","","","",""
"737","","f","psychophysics","28","218338","0.0-8.0-1.0-1.0-0.0-0.9","5","5","6","5","6","5","3","4","5","5","5","0","1","0","1","-1","1","1","0","5","4","4","5","4","4","5","4","4","5","7","8","7","8","7","8","8","8","9","5","3","6","4","4","3","5","1","4","3","5","4","6","4","4","6","5","4","5","4","5","5","5","6","3","6","6","5","5","5","6","5","4","5","5","5","6","5","4","5","729745091731918850","黄","462","Male","[""坏我"",""好我"",""好他"",""坏他""]","[""弱我"",""强我"",""强他"",""弱他""]","","","","","","","","match","","","","","","","","","","key","f","16.657269230769227","683","380","f","true","match","img/ellipse.png","强我","强我","prac_ALT2_ability","practice_ability","","","","","","","",""
"null","<span style='color:GreenYellow; font-size: 70px;'>正确! </span>","null","html-keyboard-response","29","218843","0.0-8.0-1.0-1.0-0.0-1.9","5","5","6","5","6","5","3","4","5","5","5","0","1","0","1","-1","1","1","0","5","4","4","5","4","4","5","4","4","5","7","8","7","8","7","8","8","8","9","5","3","6","4","4","3","5","1","4","3","5","4","6","4","4","6","5","4","5","4","5","5","5","6","3","6","6","5","5","5","6","5","4","5","5","5","6","5","4","5","729745091731918850","黄","462","Male","[""坏我"",""好我"",""好他"",""坏他""]","[""弱我"",""强我"",""强他"",""弱他""]","","","","","","","","","","","","","","","","","","","","","","","","","","","","","","feedback_test","","","","","","","",""
"1048","","j","psychophysics","30","220900","0.0-8.0-1.0-1.0-0.0-0.10","5","5","6","5","6","5","3","4","5","5","5","0","1","0","1","-1","1","1","0","5","4","4","5","4","4","5","4","4","5","7","8","7","8","7","8","8","8","9","5","3","6","4","4","3","5","1","4","3","5","4","6","4","4","6","5","4","5","4","5","5","5","6","3","6","6","5","5","5","6","5","4","5","5","5","6","5","4","5","729745091731918850","黄","462","Male","[""坏我"",""好我"",""好他"",""坏他""]","[""弱我"",""强我"",""强他"",""弱他""]","","","","","","","","nonmatch","","","","","","","","","","key","j","16.780867768594927","683","380","j","true","nonmatch","img/square.png","弱我","强他","prac_ALT2_ability","practice_ability","","","","","","","",""
"null","<span style='color:GreenYellow; font-size: 70px;'>正确! </span>","null","html-keyboard-response","31","221403","0.0-8.0-1.0-1.0-0.0-1.10","5","5","6","5","6","5","3","4","5","5","5","0","1","0","1","-1","1","1","0","5","4","4","5","4","4","5","4","4","5","7","8","7","8","7","8","8","8","9","5","3","6","4","4","3","5","1","4","3","5","4","6","4","4","6","5","4","5","4","5","5","5","6","3","6","6","5","5","5","6","5","4","5","5","5","6","5","4","5","729745091731918850","黄","462","Male","[""坏我"",""好我"",""好他"",""坏他""]","[""弱我"",""强我"",""强他"",""弱他""]","","","","","","","","","","","","","","","","","","","","","","","","","","","","","","feedback_test","","","","","","","",""
"1047","","j","psychophysics","32","223458","0.0-8.0-1.0-1.0-0.0-0.11","5","5","6","5","6","5","3","4","5","5","5","0","1","0","1","-1","1","1","0","5","4","4","5","4","4","5","4","4","5","7","8","7","8","7","8","8","8","9","5","3","6","4","4","3","5","1","4","3","5","4","6","4","4","6","5","4","5","4","5","5","5","6","3","6","6","5","5","5","6","5","4","5","5","5","6","5","4","5","729745091731918850","黄","462","Male","[""坏我"",""好我"",""好他"",""坏他""]","[""弱我"",""强我"",""强他"",""弱他""]","","","","","","","","nonmatch","","","","","","","","","","key","j","16.679040983606743","683","380","j","true","nonmatch","img/pentagon.png","弱我","弱他","prac_ALT2_ability","practice_ability","","","","","","","",""
"null","<span style='color:GreenYellow; font-size: 70px;'>正确! </span>","null","html-keyboard-response","33","223963","0.0-8.0-1.0-1.0-0.0-1.11","5","5","6","5","6","5","3","4","5","5","5","0","1","0","1","-1","1","1","0","5","4","4","5","4","4","5","4","4","5","7","8","7","8","7","8","8","8","9","5","3","6","4","4","3","5","1","4","3","5","4","6","4","4","6","5","4","5","4","5","5","5","6","3","6","6","5","5","5","6","5","4","5","5","5","6","5","4","5","729745091731918850","黄","462","Male","[""坏我"",""好我"",""好他"",""坏他""]","[""弱我"",""强我"",""强他"",""弱他""]","","","","","","","","","","","","","","","","","","","","","","","","","","","","","","feedback_test","","","","","","","",""
"1037","","j","psychophysics","34","226003","0.0-8.0-1.0-1.0-0.0-0.12","5","5","6","5","6","5","3","4","5","5","5","0","1","0","1","-1","1","1","0","5","4","4","5","4","4","5","4","4","5","7","8","7","8","7","8","8","8","9","5","3","6","4","4","3","5","1","4","3","5","4","6","4","4","6","5","4","5","4","5","5","5","6","3","6","6","5","5","5","6","5","4","5","5","5","6","5","4","5","729745091731918850","黄","462","Male","[""坏我"",""好我"",""好他"",""坏他""]","[""弱我"",""强我"",""强他"",""弱他""]","","","","","","","","nonmatch","","","","","","","","","","key","j","16.66705785123973","683","380","j","true","nonmatch","img/pentagon.png","强我","弱他","prac_ALT2_ability","practice_ability","","","","","","","",""
"null","<span style='color:GreenYellow; font-size: 70px;'>正确! </span>","null","html-keyboard-response","35","226507","0.0-8.0-1.0-1.0-0.0-1.12","5","5","6","5","6","5","3","4","5","5","5","0","1","0","1","-1","1","1","0","5","4","4","5","4","4","5","4","4","5","7","8","7","8","7","8","8","8","9","5","3","6","4","4","3","5","1","4","3","5","4","6","4","4","6","5","4","5","4","5","5","5","6","3","6","6","5","5","5","6","5","4","5","5","5","6","5","4","5","729745091731918850","黄","462","Male","[""坏我"",""好我"",""好他"",""坏他""]","[""弱我"",""强我"",""强他"",""弱他""]","","","","","","","","","","","","","","","","","","","","","","","","","","","","","","feedback_test","","","","","","","",""
"1186","","f","psychophysics","36","228700","0.0-8.0-1.0-1.0-0.0-0.13","5","5","6","5","6","5","3","4","5","5","5","0","1","0","1","-1","1","1","0","5","4","4","5","4","4","5","4","4","5","7","8","7","8","7","8","8","8","9","5","3","6","4","4","3","5","1","4","3","5","4","6","4","4","6","5","4","5","4","5","5","5","6","3","6","6","5","5","5","6","5","4","5","5","5","6","5","4","5","729745091731918850","黄","462","Male","[""坏我"",""好我"",""好他"",""坏他""]","[""弱我"",""强我"",""强他"",""弱他""]","","","","","","","","match","","","","","","","","","","key","f","16.789376923076745","683","380","j","false","nonmatch","img/ellipse.png","弱我","强我","prac_ALT2_ability","practice_ability","","","","","","","",""
"null","<span style='color:red; font-size: 70px;'>错误! </span>","null","html-keyboard-response","37","229211","0.0-8.0-1.0-1.0-0.0-1.13","5","5","6","5","6","5","3","4","5","5","5","0","1","0","1","-1","1","1","0","5","4","4","5","4","4","5","4","4","5","7","8","7","8","7","8","8","8","9","5","3","6","4","4","3","5","1","4","3","5","4","6","4","4","6","5","4","5","4","5","5","5","6","3","6","6","5","5","5","6","5","4","5","5","5","6","5","4","5","729745091731918850","黄","462","Male","[""坏我"",""好我"",""好他"",""坏他""]","[""弱我"",""强我"",""强他"",""弱他""]","","","","","","","","","","","","","","","","","","","","","","","","","","","","","","feedback_test","","","","","","","",""
"null","","null","psychophysics","38","231418","0.0-8.0-1.0-1.0-0.0-0.14","5","5","6","5","6","5","3","4","5","5","5","0","1","0","1","-1","1","1","0","5","4","4","5","4","4","5","4","4","5","7","8","7","8","7","8","8","8","9","5","3","6","4","4","3","5","1","4","3","5","4","6","4","4","6","5","4","5","4","5","5","5","6","3","6","6","5","5","5","6","5","4","5","5","5","6","5","4","5","729745091731918850","黄","462","Male","[""坏我"",""好我"",""好他"",""坏他""]","[""弱我"",""强我"",""强他"",""弱他""]","","","","","","","","null","","","","","","","","","","key","null","16.662166666666575","683","380","j","false","nonmatch","img/diamond.png","弱他","弱我","prac_ALT2_ability","practice_ability","","","","","","","",""
"null","<span class='add_' style='color:yellow; font-size: 70px;'> 太慢! </span>","null","html-keyboard-response","39","231923","0.0-8.0-1.0-1.0-0.0-1.14","5","5","6","5","6","5","3","4","5","5","5","0","1","0","1","-1","1","1","0","5","4","4","5","4","4","5","4","4","5","7","8","7","8","7","8","8","8","9","5","3","6","4","4","3","5","1","4","3","5","4","6","4","4","6","5","4","5","4","5","5","5","6","3","6","6","5","5","5","6","5","4","5","5","5","6","5","4","5","729745091731918850","黄","462","Male","[""坏我"",""好我"",""好他"",""坏他""]","[""弱我"",""强我"",""强他"",""弱他""]","","","","","","","","","","","","","","","","","","","","","","","","","","","","","","feedback_test","","","","","","","",""
"987","","f","psychophysics","40","233922","0.0-8.0-1.0-1.0-0.0-0.15","5","5","6","5","6","5","3","4","5","5","5","0","1","0","1","-1","1","1","0","5","4","4","5","4","4","5","4","4","5","7","8","7","8","7","8","8","8","9","5","3","6","4","4","3","5","1","4","3","5","4","6","4","4","6","5","4","5","4","5","5","5","6","3","6","6","5","5","5","6","5","4","5","5","5","6","5","4","5","729745091731918850","黄","462","Male","[""坏我"",""好我"",""好他"",""坏他""]","[""弱我"",""强我"",""强他"",""弱他""]","","","","","","","","match","","","","","","","","","","key","f","16.66876470588222","683","380","f","true","match","img/square.png","强他","强他","prac_ALT2_ability","practice_ability","","","","","","","",""
"null","<span style='color:GreenYellow; font-size: 70px;'>正确! </span>","null","html-keyboard-response","41","234427","0.0-8.0-1.0-1.0-0.0-1.15","5","5","6","5","6","5","3","4","5","5","5","0","1","0","1","-1","1","1","0","5","4","4","5","4","4","5","4","4","5","7","8","7","8","7","8","8","8","9","5","3","6","4","4","3","5","1","4","3","5","4","6","4","4","6","5","4","5","4","5","5","5","6","3","6","6","5","5","5","6","5","4","5","5","5","6","5","4","5","729745091731918850","黄","462","Male","[""坏我"",""好我"",""好他"",""坏他""]","[""弱我"",""强我"",""强他"",""弱他""]","","","","","","","","","","","","","","","","","","","","","","","","","","","","","","feedback_test","","","","","","","",""
"1019","","j","psychophysics","42","236451","0.0-8.0-1.0-1.0-0.0-0.16","5","5","6","5","6","5","3","4","5","5","5","0","1","0","1","-1","1","1","0","5","4","4","5","4","4","5","4","4","5","7","8","7","8","7","8","8","8","9","5","3","6","4","4","3","5","1","4","3","5","4","6","4","4","6","5","4","5","4","5","5","5","6","3","6","6","5","5","5","6","5","4","5","5","5","6","5","4","5","729745091731918850","黄","462","Male","[""坏我"",""好我"",""好他"",""坏他""]","[""弱我"",""强我"",""强他"",""弱他""]","","","","","","","","nonmatch","","","","","","","","","","key","j","16.674025000000015","683","380","f","false","match","img/diamond.png","弱我","弱我","prac_ALT2_ability","practice_ability","","","","","","","",""
"null","<span style='color:red; font-size: 70px;'>错误! </span>","null","html-keyboard-response","43","236954","0.0-8.0-1.0-1.0-0.0-1.16","5","5","6","5","6","5","3","4","5","5","5","0","1","0","1","-1","1","1","0","5","4","4","5","4","4","5","4","4","5","7","8","7","8","7","8","8","8","9","5","3","6","4","4","3","5","1","4","3","5","4","6","4","4","6","5","4","5","4","5","5","5","6","3","6","6","5","5","5","6","5","4","5","5","5","6","5","4","5","729745091731918850","黄","462","Male","[""坏我"",""好我"",""好他"",""坏他""]","[""弱我"",""强我"",""强他"",""弱他""]","","","","","","","","","","","","","","","","","","","","","","","","","","","","","","feedback_test","","","","","","","",""
"989","","f","psychophysics","44","238954","0.0-8.0-1.0-1.0-0.0-0.17","5","5","6","5","6","5","3","4","5","5","5","0","1","0","1","-1","1","1","0","5","4","4","5","4","4","5","4","4","5","7","8","7","8","7","8","8","8","9","5","3","6","4","4","3","5","1","4","3","5","4","6","4","4","6","5","4","5","4","5","5","5","6","3","6","6","5","5","5","6","5","4","5","5","5","6","5","4","5","729745091731918850","黄","462","Male","[""坏我"",""好我"",""好他"",""坏他""]","[""弱我"",""强我"",""强他"",""弱他""]","","","","","","","","match","","","","","","","","","","key","f","16.666201680672195","683","380","f","true","match","img/diamond.png","弱我","弱我","prac_ALT2_ability","practice_ability","","","","","","","",""
"null","<span style='color:GreenYellow; font-size: 70px;'>正确! </span>","null","html-keyboard-response","45","239458","0.0-8.0-1.0-1.0-0.0-1.17","5","5","6","5","6","5","3","4","5","5","5","0","1","0","1","-1","1","1","0","5","4","4","5","4","4","5","4","4","5","7","8","7","8","7","8","8","8","9","5","3","6","4","4","3","5","1","4","3","5","4","6","4","4","6","5","4","5","4","5","5","5","6","3","6","6","5","5","5","6","5","4","5","5","5","6","5","4","5","729745091731918850","黄","462","Male","[""坏我"",""好我"",""好他"",""坏他""]","[""弱我"",""强我"",""强他"",""弱他""]","","","","","","","","","","","","","","","","","","","","","","","","","","","","","","feedback_test","","","","","","","",""
"833","","f","psychophysics","46","241299","0.0-8.0-1.0-1.0-0.0-0.18","5","5","6","5","6","5","3","4","5","5","5","0","1","0","1","-1","1","1","0","5","4","4","5","4","4","5","4","4","5","7","8","7","8","7","8","8","8","9","5","3","6","4","4","3","5","1","4","3","5","4","6","4","4","6","5","4","5","4","5","5","5","6","3","6","6","5","5","5","6","5","4","5","5","5","6","5","4","5","729745091731918850","黄","462","Male","[""坏我"",""好我"",""好他"",""坏他""]","[""弱我"",""强我"",""强他"",""弱他""]","","","","","","","","match","","","","","","","","","","key","f","16.661309090909146","683","380","f","true","match","img/diamond.png","弱我","弱我","prac_ALT2_ability","practice_ability","","","","","","","",""
"null","<span style='color:GreenYellow; font-size: 70px;'>正确! </span>","null","html-keyboard-response","47","241803","0.0-8.0-1.0-1.0-0.0-1.18","5","5","6","5","6","5","3","4","5","5","5","0","1","0","1","-1","1","1","0","5","4","4","5","4","4","5","4","4","5","7","8","7","8","7","8","8","8","9","5","3","6","4","4","3","5","1","4","3","5","4","6","4","4","6","5","4","5","4","5","5","5","6","3","6","6","5","5","5","6","5","4","5","5","5","6","5","4","5","729745091731918850","黄","462","Male","[""坏我"",""好我"",""好他"",""坏他""]","[""弱我"",""强我"",""强他"",""弱他""]","","","","","","","","","","","","","","","","","","","","","","","","","","","","","","feedback_test","","","","","","","",""
"1056","","j","psychophysics","48","243866","0.0-8.0-1.0-1.0-0.0-0.19","5","5","6","5","6","5","3","4","5","5","5","0","1","0","1","-1","1","1","0","5","4","4","5","4","4","5","4","4","5","7","8","7","8","7","8","8","8","9","5","3","6","4","4","3","5","1","4","3","5","4","6","4","4","6","5","4","5","4","5","5","5","6","3","6","6","5","5","5","6","5","4","5","5","5","6","5","4","5","729745091731918850","黄","462","Male","[""坏我"",""好我"",""好他"",""坏他""]","[""弱我"",""强我"",""强他"",""弱他""]","","","","","","","","nonmatch","","","","","","","","","","key","j","16.663073170731863","683","380","f","false","match","img/pentagon.png","弱他","弱他","prac_ALT2_ability","practice_ability","","","","","","","",""
"null","<span style='color:red; font-size: 70px;'>错误! </span>","null","html-keyboard-response","49","244371","0.0-8.0-1.0-1.0-0.0-1.19","5","5","6","5","6","5","3","4","5","5","5","0","1","0","1","-1","1","1","0","5","4","4","5","4","4","5","4","4","5","7","8","7","8","7","8","8","8","9","5","3","6","4","4","3","5","1","4","3","5","4","6","4","4","6","5","4","5","4","5","5","5","6","3","6","6","5","5","5","6","5","4","5","5","5","6","5","4","5","729745091731918850","黄","462","Male","[""坏我"",""好我"",""好他"",""坏他""]","[""弱我"",""强我"",""强他"",""弱他""]","","","","","","","","","","","","","","","","","","","","","","","","","","","","","","feedback_test","","","","","","","",""
"1150","","j","psychophysics","50","246533","0.0-8.0-1.0-1.0-0.0-0.20","5","5","6","5","6","5","3","4","5","5","5","0","1","0","1","-1","1","1","0","5","4","4","5","4","4","5","4","4","5","7","8","7","8","7","8","8","8","9","5","3","6","4","4","3","5","1","4","3","5","4","6","4","4","6","5","4","5","4","5","5","5","6","3","6","6","5","5","5","6","5","4","5","5","5","6","5","4","5","729745091731918850","黄","462","Male","[""坏我"",""好我"",""好他"",""坏他""]","[""弱我"",""强我"",""强他"",""弱他""]","","","","","","","","nonmatch","","","","","","","","","","key","j","16.671078125000122","683","380","j","true","nonmatch","img/diamond.png","强他","弱我","prac_ALT2_ability","practice_ability","","","","","","","",""
"null","<span style='color:GreenYellow; font-size: 70px;'>正确! </span>","null","html-keyboard-response","51","247043","0.0-8.0-1.0-1.0-0.0-1.20","5","5","6","5","6","5","3","4","5","5","5","0","1","0","1","-1","1","1","0","5","4","4","5","4","4","5","4","4","5","7","8","7","8","7","8","8","8","9","5","3","6","4","4","3","5","1","4","3","5","4","6","4","4","6","5","4","5","4","5","5","5","6","3","6","6","5","5","5","6","5","4","5","5","5","6","5","4","5","729745091731918850","黄","462","Male","[""坏我"",""好我"",""好他"",""坏他""]","[""弱我"",""强我"",""强他"",""弱他""]","","","","","","","","","","","","","","","","","","","","","","","","","","","","","","feedback_test","","","","","","","",""
"1104","","j","psychophysics","52","249153","0.0-8.0-1.0-1.0-0.0-0.21","5","5","6","5","6","5","3","4","5","5","5","0","1","0","1","-1","1","1","0","5","4","4","5","4","4","5","4","4","5","7","8","7","8","7","8","8","8","9","5","3","6","4","4","3","5","1","4","3","5","4","6","4","4","6","5","4","5","4","5","5","5","6","3","6","6","5","5","5","6","5","4","5","5","5","6","5","4","5","729745091731918850","黄","462","Male","[""坏我"",""好我"",""好他"",""坏他""]","[""弱我"",""强我"",""强他"",""弱他""]","","","","","","","","nonmatch","","","","","","","","","","key","j","16.66188095238093","683","380","f","false","match","img/pentagon.png","弱他","弱他","prac_ALT2_ability","practice_ability","","","","","","","",""
"null","<span style='color:red; font-size: 70px;'>错误! </span>","null","html-keyboard-response","53","249659","0.0-8.0-1.0-1.0-0.0-1.21","5","5","6","5","6","5","3","4","5","5","5","0","1","0","1","-1","1","1","0","5","4","4","5","4","4","5","4","4","5","7","8","7","8","7","8","8","8","9","5","3","6","4","4","3","5","1","4","3","5","4","6","4","4","6","5","4","5","4","5","5","5","6","3","6","6","5","5","5","6","5","4","5","5","5","6","5","4","5","729745091731918850","黄","462","Male","[""坏我"",""好我"",""好他"",""坏他""]","[""弱我"",""强我"",""强他"",""弱他""]","","","","","","","","","","","","","","","","","","","","","","","","","","","","","","feedback_test","","","","","","","",""
"759","","f","psychophysics","54","251425","0.0-8.0-1.0-1.0-0.0-0.22","5","5","6","5","6","5","3","4","5","5","5","0","1","0","1","-1","1","1","0","5","4","4","5","4","4","5","4","4","5","7","8","7","8","7","8","8","8","9","5","3","6","4","4","3","5","1","4","3","5","4","6","4","4","6","5","4","5","4","5","5","5","6","3","6","6","5","5","5","6","5","4","5","5","5","6","5","4","5","729745091731918850","黄","462","Male","[""坏我"",""好我"",""好他"",""坏他""]","[""弱我"",""强我"",""强他"",""弱他""]","","","","","","","","match","","","","","","","","","","key","f","16.664876190475965","683","380","f","true","match","img/ellipse.png","强我","强我","prac_ALT2_ability","practice_ability","","","","","","","",""
"null","<span style='color:GreenYellow; font-size: 70px;'>正确! </span>","null","html-keyboard-response","55","251931","0.0-8.0-1.0-1.0-0.0-1.22","5","5","6","5","6","5","3","4","5","5","5","0","1","0","1","-1","1","1","0","5","4","4","5","4","4","5","4","4","5","7","8","7","8","7","8","8","8","9","5","3","6","4","4","3","5","1","4","3","5","4","6","4","4","6","5","4","5","4","5","5","5","6","3","6","6","5","5","5","6","5","4","5","5","5","6","5","4","5","729745091731918850","黄","462","Male","[""坏我"",""好我"",""好他"",""坏他""]","[""弱我"",""强我"",""强他"",""弱他""]","","","","","","","","","","","","","","","","","","","","","","","","","","","","","","feedback_test","","","","","","","",""
"1102","","j","psychophysics","56","254041","0.0-8.0-1.0-1.0-0.0-0.23","5","5","6","5","6","5","3","4","5","5","5","0","1","0","1","-1","1","1","0","5","4","4","5","4","4","5","4","4","5","7","8","7","8","7","8","8","8","9","5","3","6","4","4","3","5","1","4","3","5","4","6","4","4","6","5","4","5","4","5","5","5","6","3","6","6","5","5","5","6","5","4","5","5","5","6","5","4","5","729745091731918850","黄","462","Male","[""坏我"",""好我"",""好他"",""坏他""]","[""弱我"",""强我"",""强他"",""弱他""]","","","","","","","","nonmatch","","","","","","","","","","key","j","16.668743999999947","683","380","j","true","nonmatch","img/diamond.png","强我","弱我","prac_ALT2_ability","practice_ability","","","","","","","",""
"null","<span style='color:GreenYellow; font-size: 70px;'>正确! </span>","null","html-keyboard-response","57","254547","0.0-8.0-1.0-1.0-0.0-1.23","5","5","6","5","6","5","3","4","5","5","5","0","1","0","1","-1","1","1","0","5","4","4","5","4","4","5","4","4","5","7","8","7","8","7","8","8","8","9","5","3","6","4","4","3","5","1","4","3","5","4","6","4","4","6","5","4","5","4","5","5","5","6","3","6","6","5","5","5","6","5","4","5","5","5","6","5","4","5","729745091731918850","黄","462","Male","[""坏我"",""好我"",""好他"",""坏他""]","[""弱我"",""强我"",""强他"",""弱他""]","","","","","","","","","","","","","","","","","","","","","","","","","","","","","","feedback_test","","","","","","","",""
"870","","j","psychophysics","58","256425","0.0-8.0-1.0-1.0-0.0-0.24","5","5","6","5","6","5","3","4","5","5","5","0","1","0","1","-1","1","1","0","5","4","4","5","4","4","5","4","4","5","7","8","7","8","7","8","8","8","9","5","3","6","4","4","3","5","1","4","3","5","4","6","4","4","6","5","4","5","4","5","5","5","6","3","6","6","5","5","5","6","5","4","5","5","5","6","5","4","5","729745091731918850","黄","462","Male","[""坏我"",""好我"",""好他"",""坏他""]","[""弱我"",""强我"",""强他"",""弱他""]","","","","","","","","nonmatch","","","","","","","","","","key","j","16.665612612612627","683","380","j","true","nonmatch","img/diamond.png","强我","弱我","prac_ALT2_ability","practice_ability","","","","","","","",""
"null","<span style='color:GreenYellow; font-size: 70px;'>正确! </span>","null","html-keyboard-response","59","256931","0.0-8.0-1.0-1.0-0.0-1.24","5","5","6","5","6","5","3","4","5","5","5","0","1","0","1","-1","1","1","0","5","4","4","5","4","4","5","4","4","5","7","8","7","8","7","8","8","8","9","5","3","6","4","4","3","5","1","4","3","5","4","6","4","4","6","5","4","5","4","5","5","5","6","3","6","6","5","5","5","6","5","4","5","5","5","6","5","4","5","729745091731918850","黄","462","Male","[""坏我"",""好我"",""好他"",""坏他""]","[""弱我"",""强我"",""强他"",""弱他""]","","","","","","","","","","","","","","","","","","","","","","","","","","","","","","feedback_test","","","","","","","",""
"827","","j","psychophysics","60","258765","0.0-8.0-1.0-1.0-0.0-0.25","5","5","6","5","6","5","3","4","5","5","5","0","1","0","1","-1","1","1","0","5","4","4","5","4","4","5","4","4","5","7","8","7","8","7","8","8","8","9","5","3","6","4","4","3","5","1","4","3","5","4","6","4","4","6","5","4","5","4","5","5","5","6","3","6","6","5","5","5","6","5","4","5","5","5","6","5","4","5","729745091731918850","黄","462","Male","[""坏我"",""好我"",""好他"",""坏他""]","[""弱我"",""强我"",""强他"",""弱他""]","","","","","","","","nonmatch","","","","","","","","","","key","j","16.667403669725065","683","380","j","true","nonmatch","img/pentagon.png","弱我","弱他","prac_ALT2_ability","practice_ability","","","","","","","",""
"null","<span style='color:GreenYellow; font-size: 70px;'>正确! </span>","null","html-keyboard-response","61","259274","0.0-8.0-1.0-1.0-0.0-1.25","5","5","6","5","6","5","3","4","5","5","5","0","1","0","1","-1","1","1","0","5","4","4","5","4","4","5","4","4","5","7","8","7","8","7","8","8","8","9","5","3","6","4","4","3","5","1","4","3","5","4","6","4","4","6","5","4","5","4","5","5","5","6","3","6","6","5","5","5","6","5","4","5","5","5","6","5","4","5","729745091731918850","黄","462","Male","[""坏我"",""好我"",""好他"",""坏他""]","[""弱我"",""强我"",""强他"",""弱他""]","","","","","","","","","","","","","","","","","","","","","","","","","","","","","","feedback_test","","","","","","","",""
"1107","","j","psychophysics","62","261385","0.0-8.0-1.0-1.0-0.0-0.26","5","5","6","5","6","5","3","4","5","5","5","0","1","0","1","-1","1","1","0","5","4","4","5","4","4","5","4","4","5","7","8","7","8","7","8","8","8","9","5","3","6","4","4","3","5","1","4","3","5","4","6","4","4","6","5","4","5","4","5","5","5","6","3","6","6","5","5","5","6","5","4","5","5","5","6","5","4","5","729745091731918850","黄","462","Male","[""坏我"",""好我"",""好他"",""坏他""]","[""弱我"",""强我"",""强他"",""弱他""]","","","","","","","","nonmatch","","","","","","","","","","key","j","16.6720564516126","683","380","j","true","nonmatch","img/diamond.png","强他","弱我","prac_ALT2_ability","practice_ability","","","","","","","",""
"null","<span style='color:GreenYellow; font-size: 70px;'>正确! </span>","null","html-keyboard-response","63","261890","0.0-8.0-1.0-1.0-0.0-1.26","5","5","6","5","6","5","3","4","5","5","5","0","1","0","1","-1","1","1","0","5","4","4","5","4","4","5","4","4","5","7","8","7","8","7","8","8","8","9","5","3","6","4","4","3","5","1","4","3","5","4","6","4","4","6","5","4","5","4","5","5","5","6","3","6","6","5","5","5","6","5","4","5","5","5","6","5","4","5","729745091731918850","黄","462","Male","[""坏我"",""好我"",""好他"",""坏他""]","[""弱我"",""强我"",""强他"",""弱他""]","","","","","","","","","","","","","","","","","","","","","","","","","","","","","","feedback_test","","","","","","","",""
"995","","f","psychophysics","64","263890","0.0-8.0-1.0-1.0-0.0-0.27","5","5","6","5","6","5","3","4","5","5","5","0","1","0","1","-1","1","1","0","5","4","4","5","4","4","5","4","4","5","7","8","7","8","7","8","8","8","9","5","3","6","4","4","3","5","1","4","3","5","4","6","4","4","6","5","4","5","4","5","5","5","6","3","6","6","5","5","5","6","5","4","5","5","5","6","5","4","5","729745091731918850","黄","462","Male","[""坏我"",""好我"",""好他"",""坏他""]","[""弱我"",""强我"",""强他"",""弱他""]","","","","","","","","match","","","","","","","","","","key","f","16.663058823529248","683","380","j","false","nonmatch","img/ellipse.png","弱我","强我","prac_ALT2_ability","practice_ability","","","","","","","",""
"null","<span style='color:red; font-size: 70px;'>错误! </span>","null","html-keyboard-response","65","264395","0.0-8.0-1.0-1.0-0.0-1.27","5","5","6","5","6","5","3","4","5","5","5","0","1","0","1","-1","1","1","0","5","4","4","5","4","4","5","4","4","5","7","8","7","8","7","8","8","8","9","5","3","6","4","4","3","5","1","4","3","5","4","6","4","4","6","5","4","5","4","5","5","5","6","3","6","6","5","5","5","6","5","4","5","5","5","6","5","4","5","729745091731918850","黄","462","Male","[""坏我"",""好我"",""好他"",""坏他""]","[""弱我"",""强我"",""强他"",""弱他""]","","","","","","","","","","","","","","","","","","","","","","","","","","","","","","feedback_test","","","","","","","",""
"995","","j","psychophysics","66","266393","0.0-8.0-1.0-1.0-0.0-0.28","5","5","6","5","6","5","3","4","5","5","5","0","1","0","1","-1","1","1","0","5","4","4","5","4","4","5","4","4","5","7","8","7","8","7","8","8","8","9","5","3","6","4","4","3","5","1","4","3","5","4","6","4","4","6","5","4","5","4","5","5","5","6","3","6","6","5","5","5","6","5","4","5","5","5","6","5","4","5","729745091731918850","黄","462","Male","[""坏我"",""好我"",""好他"",""坏他""]","[""弱我"",""强我"",""强他"",""弱他""]","","","","","","","","nonmatch","","","","","","","","","","key","j","16.668059322033944","683","380","f","false","match","img/diamond.png","弱我","弱我","prac_ALT2_ability","practice_ability","","","","","","","",""
"null","<span style='color:red; font-size: 70px;'>错误! </span>","null","html-keyboard-response","67","266899","0.0-8.0-1.0-1.0-0.0-1.28","5","5","6","5","6","5","3","4","5","5","5","0","1","0","1","-1","1","1","0","5","4","4","5","4","4","5","4","4","5","7","8","7","8","7","8","8","8","9","5","3","6","4","4","3","5","1","4","3","5","4","6","4","4","6","5","4","5","4","5","5","5","6","3","6","6","5","5","5","6","5","4","5","5","5","6","5","4","5","729745091731918850","黄","462","Male","[""坏我"",""好我"",""好他"",""坏他""]","[""弱我"",""强我"",""强他"",""弱他""]","","","","","","","","","","","","","","","","","","","","","","","","","","","","","","feedback_test","","","","","","","",""
"919","","j","psychophysics","68","268826","0.0-8.0-1.0-1.0-0.0-0.29","5","5","6","5","6","5","3","4","5","5","5","0","1","0","1","-1","1","1","0","5","4","4","5","4","4","5","4","4","5","7","8","7","8","7","8","8","8","9","5","3","6","4","4","3","5","1","4","3","5","4","6","4","4","6","5","4","5","4","5","5","5","6","3","6","6","5","5","5","6","5","4","5","5","5","6","5","4","5","729745091731918850","黄","462","Male","[""坏我"",""好我"",""好他"",""坏他""]","[""弱我"",""强我"",""强他"",""弱他""]","","","","","","","","nonmatch","","","","","","","","","","key","j","16.658236842105172","683","380","j","true","nonmatch","img/ellipse.png","弱他","强我","prac_ALT2_ability","practice_ability","","","","","","","",""
"null","<span style='color:GreenYellow; font-size: 70px;'>正确! </span>","null","html-keyboard-response","69","269331","0.0-8.0-1.0-1.0-0.0-1.29","5","5","6","5","6","5","3","4","5","5","5","0","1","0","1","-1","1","1","0","5","4","4","5","4","4","5","4","4","5","7","8","7","8","7","8","8","8","9","5","3","6","4","4","3","5","1","4","3","5","4","6","4","4","6","5","4","5","4","5","5","5","6","3","6","6","5","5","5","6","5","4","5","5","5","6","5","4","5","729745091731918850","黄","462","Male","[""坏我"",""好我"",""好他"",""坏他""]","[""弱我"",""强我"",""强他"",""弱他""]","","","","","","","","","","","","","","","","","","","","","","","","","","","","","","feedback_test","","","","","","","",""
"1046","","f","psychophysics","70","271385","0.0-8.0-1.0-1.0-0.0-0.30","5","5","6","5","6","5","3","4","5","5","5","0","1","0","1","-1","1","1","0","5","4","4","5","4","4","5","4","4","5","7","8","7","8","7","8","8","8","9","5","3","6","4","4","3","5","1","4","3","5","4","6","4","4","6","5","4","5","4","5","5","5","6","3","6","6","5","5","5","6","5","4","5","5","5","6","5","4","5","729745091731918850","黄","462","Male","[""坏我"",""好我"",""好他"",""坏他""]","[""弱我"",""强我"",""强他"",""弱他""]","","","","","","","","match","","","","","","","","","","key","f","16.655561983471348","683","380","f","true","match","img/square.png","强他","强他","prac_ALT2_ability","practice_ability","","","","","","","",""
"null","<span style='color:GreenYellow; font-size: 70px;'>正确! </span>","null","html-keyboard-response","71","271891","0.0-8.0-1.0-1.0-0.0-1.30","5","5","6","5","6","5","3","4","5","5","5","0","1","0","1","-1","1","1","0","5","4","4","5","4","4","5","4","4","5","7","8","7","8","7","8","8","8","9","5","3","6","4","4","3","5","1","4","3","5","4","6","4","4","6","5","4","5","4","5","5","5","6","3","6","6","5","5","5","6","5","4","5","5","5","6","5","4","5","729745091731918850","黄","462","Male","[""坏我"",""好我"",""好他"",""坏他""]","[""弱我"",""强我"",""强他"",""弱他""]","","","","","","","","","","","","","","","","","","","","","","","","","","","","","","feedback_test","","","","","","","",""
"970","","f","psychophysics","72","273866","0.0-8.0-1.0-1.0-0.0-0.31","5","5","6","5","6","5","3","4","5","5","5","0","1","0","1","-1","1","1","0","5","4","4","5","4","4","5","4","4","5","7","8","7","8","7","8","8","8","9","5","3","6","4","4","3","5","1","4","3","5","4","6","4","4","6","5","4","5","4","5","5","5","6","3","6","6","5","5","5","6","5","4","5","5","5","6","5","4","5","729745091731918850","黄","462","Male","[""坏我"",""好我"",""好他"",""坏他""]","[""弱我"",""强我"",""强他"",""弱他""]","","","","","","","","match","","","","","","","","","","key","f","16.661732758620676","683","380","f","true","match","img/ellipse.png","强我","强我","prac_ALT2_ability","practice_ability","","","","","","","",""
"null","<span style='color:GreenYellow; font-size: 70px;'>正确! </span>","null","html-keyboard-response","73","274371","0.0-8.0-1.0-1.0-0.0-1.31","5","5","6","5","6","5","3","4","5","5","5","0","1","0","1","-1","1","1","0","5","4","4","5","4","4","5","4","4","5","7","8","7","8","7","8","8","8","9","5","3","6","4","4","3","5","1","4","3","5","4","6","4","4","6","5","4","5","4","5","5","5","6","3","6","6","5","5","5","6","5","4","5","5","5","6","5","4","5","729745091731918850","黄","462","Male","[""坏我"",""好我"",""好他"",""坏他""]","[""弱我"",""强我"",""强他"",""弱他""]","","","","","","","","","","","","","","","","","","","","","","","","","","","","","","feedback_test","","","","","","","",""
"972","","j","psychophysics","74","276353","0.0-8.0-1.0-1.0-0.0-0.32","5","5","6","5","6","5","3","4","5","5","5","0","1","0","1","-1","1","1","0","5","4","4","5","4","4","5","4","4","5","7","8","7","8","7","8","8","8","9","5","3","6","4","4","3","5","1","4","3","5","4","6","4","4","6","5","4","5","4","5","5","5","6","3","6","6","5","5","5","6","5","4","5","5","5","6","5","4","5","729745091731918850","黄","462","Male","[""坏我"",""好我"",""好他"",""坏他""]","[""弱我"",""强我"",""强他"",""弱他""]","","","","","","","","nonmatch","","","","","","","","","","key","j","16.661016949152543","683","380","f","false","match","img/pentagon.png","弱他","弱他","prac_ALT2_ability","practice_ability","","","","","","","",""
"null","<span style='color:red; font-size: 70px;'>错误! </span>","null","html-keyboard-response","75","276859","0.0-8.0-1.0-1.0-0.0-1.32","5","5","6","5","6","5","3","4","5","5","5","0","1","0","1","-1","1","1","0","5","4","4","5","4","4","5","4","4","5","7","8","7","8","7","8","8","8","9","5","3","6","4","4","3","5","1","4","3","5","4","6","4","4","6","5","4","5","4","5","5","5","6","3","6","6","5","5","5","6","5","4","5","5","5","6","5","4","5","729745091731918850","黄","462","Male","[""坏我"",""好我"",""好他"",""坏他""]","[""弱我"",""强我"",""强他"",""弱他""]","","","","","","","","","","","","","","","","","","","","","","","","","","","","","","feedback_test","","","","","","","",""
"1091","","f","psychophysics","76","278954","0.0-8.0-1.0-1.0-0.0-0.33","5","5","6","5","6","5","3","4","5","5","5","0","1","0","1","-1","1","1","0","5","4","4","5","4","4","5","4","4","5","7","8","7","8","7","8","8","8","9","5","3","6","4","4","3","5","1","4","3","5","4","6","4","4","6","5","4","5","4","5","5","5","6","3","6","6","5","5","5","6","5","4","5","5","5","6","5","4","5","729745091731918850","黄","462","Male","[""坏我"",""好我"",""好他"",""坏他""]","[""弱我"",""强我"",""强他"",""弱他""]","","","","","","","","match","","","","","","","","","","key","f","16.673325203252176","683","380","f","true","match","img/pentagon.png","弱他","弱他","prac_ALT2_ability","practice_ability","","","","","","","",""
"null","<span style='color:GreenYellow; font-size: 70px;'>正确! </span>","null","html-keyboard-response","77","279458","0.0-8.0-1.0-1.0-0.0-1.33","5","5","6","5","6","5","3","4","5","5","5","0","1","0","1","-1","1","1","0","5","4","4","5","4","4","5","4","4","5","7","8","7","8","7","8","8","8","9","5","3","6","4","4","3","5","1","4","3","5","4","6","4","4","6","5","4","5","4","5","5","5","6","3","6","6","5","5","5","6","5","4","5","5","5","6","5","4","5","729745091731918850","黄","462","Male","[""坏我"",""好我"",""好他"",""坏他""]","[""弱我"",""强我"",""强他"",""弱他""]","","","","","","","","","","","","","","","","","","","","","","","","","","","","","","feedback_test","","","","","","","",""
"964","","j","psychophysics","78","281425","0.0-8.0-1.0-1.0-0.0-0.34","5","5","6","5","6","5","3","4","5","5","5","0","1","0","1","-1","1","1","0","5","4","4","5","4","4","5","4","4","5","7","8","7","8","7","8","8","8","9","5","3","6","4","4","3","5","1","4","3","5","4","6","4","4","6","5","4","5","4","5","5","5","6","3","6","6","5","5","5","6","5","4","5","5","5","6","5","4","5","729745091731918850","黄","462","Male","[""坏我"",""好我"",""好他"",""坏他""]","[""弱我"",""强我"",""强他"",""弱他""]","","","","","","","","nonmatch","","","","","","","","","","key","j","16.67007758620683","683","380","f","false","match","img/diamond.png","弱我","弱我","prac_ALT2_ability","practice_ability","","","","","","","",""
"null","<span style='color:red; font-size: 70px;'>错误! </span>","null","html-keyboard-response","79","281930","0.0-8.0-1.0-1.0-0.0-1.34","5","5","6","5","6","5","3","4","5","5","5","0","1","0","1","-1","1","1","0","5","4","4","5","4","4","5","4","4","5","7","8","7","8","7","8","8","8","9","5","3","6","4","4","3","5","1","4","3","5","4","6","4","4","6","5","4","5","4","5","5","5","6","3","6","6","5","5","5","6","5","4","5","5","5","6","5","4","5","729745091731918850","黄","462","Male","[""坏我"",""好我"",""好他"",""坏他""]","[""弱我"",""强我"",""强他"",""弱他""]","","","","","","","","","","","","","","","","","","","","","","","","","","","","","","feedback_test","","","","","","","",""
"935","","j","psychophysics","80","283873","0.0-8.0-1.0-1.0-0.0-0.35","5","5","6","5","6","5","3","4","5","5","5","0","1","0","1","-1","1","1","0","5","4","4","5","4","4","5","4","4","5","7","8","7","8","7","8","8","8","9","5","3","6","4","4","3","5","1","4","3","5","4","6","4","4","6","5","4","5","4","5","5","5","6","3","6","6","5","5","5","6","5","4","5","5","5","6","5","4","5","729745091731918850","黄","462","Male","[""坏我"",""好我"",""好他"",""坏他""]","[""弱我"",""强我"",""强他"",""弱他""]","","","","","","","","nonmatch","","","","","","","","","","key","j","16.657739130434905","683","380","j","true","nonmatch","img/ellipse.png","强他","强我","prac_ALT2_ability","practice_ability","","","","","","","",""
"null","<span style='color:GreenYellow; font-size: 70px;'>正确! </span>","null","html-keyboard-response","81","284378","0.0-8.0-1.0-1.0-0.0-1.35","5","5","6","5","6","5","3","4","5","5","5","0","1","0","1","-1","1","1","0","5","4","4","5","4","4","5","4","4","5","7","8","7","8","7","8","8","8","9","5","3","6","4","4","3","5","1","4","3","5","4","6","4","4","6","5","4","5","4","5","5","5","6","3","6","6","5","5","5","6","5","4","5","5","5","6","5","4","5","729745091731918850","黄","462","Male","[""坏我"",""好我"",""好他"",""坏他""]","[""弱我"",""强我"",""强他"",""弱他""]","","","","","","","","","","","","","","","","","","","","","","","","","","","","","","feedback_test","","","","","","","",""
"1060","","j","psychophysics","82","286441","0.0-8.0-1.0-1.0-0.0-0.36","5","5","6","5","6","5","3","4","5","5","5","0","1","0","1","-1","1","1","0","5","4","4","5","4","4","5","4","4","5","7","8","7","8","7","8","8","8","9","5","3","6","4","4","3","5","1","4","3","5","4","6","4","4","6","5","4","5","4","5","5","5","6","3","6","6","5","5","5","6","5","4","5","5","5","6","5","4","5","729745091731918850","黄","462","Male","[""坏我"",""好我"",""好他"",""坏他""]","[""弱我"",""强我"",""强他"",""弱他""]","","","","","","","","nonmatch","","","","","","","","","","key","j","16.662377049180307","683","380","j","true","nonmatch","img/pentagon.png","强他","弱他","prac_ALT2_ability","practice_ability","","","","","","","",""
"null","<span style='color:GreenYellow; font-size: 70px;'>正确! </span>","null","html-keyboard-response","83","286947","0.0-8.0-1.0-1.0-0.0-1.36","5","5","6","5","6","5","3","4","5","5","5","0","1","0","1","-1","1","1","0","5","4","4","5","4","4","5","4","4","5","7","8","7","8","7","8","8","8","9","5","3","6","4","4","3","5","1","4","3","5","4","6","4","4","6","5","4","5","4","5","5","5","6","3","6","6","5","5","5","6","5","4","5","5","5","6","5","4","5","729745091731918850","黄","462","Male","[""坏我"",""好我"",""好他"",""坏他""]","[""弱我"",""强我"",""强他"",""弱他""]","","","","","","","","","","","","","","","","","","","","","","","","","","","","","","feedback_test","","","","","","","",""
"870","","f","psychophysics","84","288826","0.0-8.0-1.0-1.0-0.0-0.37","5","5","6","5","6","5","3","4","5","5","5","0","1","0","1","-1","1","1","0","5","4","4","5","4","4","5","4","4","5","7","8","7","8","7","8","8","8","9","5","3","6","4","4","3","5","1","4","3","5","4","6","4","4","6","5","4","5","4","5","5","5","6","3","6","6","5","5","5","6","5","4","5","5","5","6","5","4","5","729745091731918850","黄","462","Male","[""坏我"",""好我"",""好他"",""坏他""]","[""弱我"",""强我"",""强他"",""弱他""]","","","","","","","","match","","","","","","","","","","key","f","16.655585585585754","683","380","f","true","match","img/pentagon.png","弱他","弱他","prac_ALT2_ability","practice_ability","","","","","","","",""
"null","<span style='color:GreenYellow; font-size: 70px;'>正确! </span>","null","html-keyboard-response","85","289331","0.0-8.0-1.0-1.0-0.0-1.37","5","5","6","5","6","5","3","4","5","5","5","0","1","0","1","-1","1","1","0","5","4","4","5","4","4","5","4","4","5","7","8","7","8","7","8","8","8","9","5","3","6","4","4","3","5","1","4","3","5","4","6","4","4","6","5","4","5","4","5","5","5","6","3","6","6","5","5","5","6","5","4","5","5","5","6","5","4","5","729745091731918850","黄","462","Male","[""坏我"",""好我"",""好他"",""坏他""]","[""弱我"",""强我"",""强他"",""弱他""]","","","","","","","","","","","","","","","","","","","","","","","","","","","","","","feedback_test","","","","","","","",""
"743","","f","psychophysics","86","291082","0.0-8.0-1.0-1.0-0.0-0.38","5","5","6","5","6","5","3","4","5","5","5","0","1","0","1","-1","1","1","0","5","4","4","5","4","4","5","4","4","5","7","8","7","8","7","8","8","8","9","5","3","6","4","4","3","5","1","4","3","5","4","6","4","4","6","5","4","5","4","5","5","5","6","3","6","6","5","5","5","6","5","4","5","5","5","6","5","4","5","729745091731918850","黄","462","Male","[""坏我"",""好我"",""好他"",""坏他""]","[""弱我"",""强我"",""强他"",""弱他""]","","","","","","","","match","","","","","","","","","","key","f","16.67806730769259","683","380","f","true","match","img/square.png","强他","强他","prac_ALT2_ability","practice_ability","","","","","","","",""
"null","<span style='color:GreenYellow; font-size: 70px;'>正确! </span>","null","html-keyboard-response","87","291587","0.0-8.0-1.0-1.0-0.0-1.38","5","5","6","5","6","5","3","4","5","5","5","0","1","0","1","-1","1","1","0","5","4","4","5","4","4","5","4","4","5","7","8","7","8","7","8","8","8","9","5","3","6","4","4","3","5","1","4","3","5","4","6","4","4","6","5","4","5","4","5","5","5","6","3","6","6","5","5","5","6","5","4","5","5","5","6","5","4","5","729745091731918850","黄","462","Male","[""坏我"",""好我"",""好他"",""坏他""]","[""弱我"",""强我"",""强他"",""弱他""]","","","","","","","","","","","","","","","","","","","","","","","","","","","","","","feedback_test","","","","","","","",""
"725","","f","psychophysics","88","293321","0.0-8.0-1.0-1.0-0.0-0.39","5","5","6","5","6","5","3","4","5","5","5","0","1","0","1","-1","1","1","0","5","4","4","5","4","4","5","4","4","5","7","8","7","8","7","8","8","8","9","5","3","6","4","4","3","5","1","4","3","5","4","6","4","4","6","5","4","5","4","5","5","5","6","3","6","6","5","5","5","6","5","4","5","5","5","6","5","4","5","729745091731918850","黄","462","Male","[""坏我"",""好我"",""好他"",""坏他""]","[""弱我"",""强我"",""强他"",""弱他""]","","","","","","","","match","","","","","","","","","","key","f","16.66675728155318","683","380","f","true","match","img/ellipse.png","强我","强我","prac_ALT2_ability","practice_ability","","","","","","","",""
"null","<span style='color:GreenYellow; font-size: 70px;'>正确! </span>","null","html-keyboard-response","89","293827","0.0-8.0-1.0-1.0-0.0-1.39","5","5","6","5","6","5","3","4","5","5","5","0","1","0","1","-1","1","1","0","5","4","4","5","4","4","5","4","4","5","7","8","7","8","7","8","8","8","9","5","3","6","4","4","3","5","1","4","3","5","4","6","4","4","6","5","4","5","4","5","5","5","6","3","6","6","5","5","5","6","5","4","5","5","5","6","5","4","5","729745091731918850","黄","462","Male","[""坏我"",""好我"",""好他"",""坏他""]","[""弱我"",""强我"",""强他"",""弱他""]","","","","","","","","","","","","","","","","","","","","","","","","","","","","","","feedback_test","","","","","","","",""
"806","","j","psychophysics","90","295642","0.0-8.0-1.0-1.0-0.0-0.40","5","5","6","5","6","5","3","4","5","5","5","0","1","0","1","-1","1","1","0","5","4","4","5","4","4","5","4","4","5","7","8","7","8","7","8","8","8","9","5","3","6","4","4","3","5","1","4","3","5","4","6","4","4","6","5","4","5","4","5","5","5","6","3","6","6","5","5","5","6","5","4","5","5","5","6","5","4","5","729745091731918850","黄","462","Male","[""坏我"",""好我"",""好他"",""坏他""]","[""弱我"",""强我"",""强他"",""弱他""]","","","","","","","","nonmatch","","","","","","","","","","key","j","16.820632075471913","683","380","j","true","nonmatch","img/square.png","弱我","强他","prac_ALT2_ability","practice_ability","","","","","","","",""
"null","<span style='color:GreenYellow; font-size: 70px;'>正确! </span>","null","html-keyboard-response","91","296148","0.0-8.0-1.0-1.0-0.0-1.40","5","5","6","5","6","5","3","4","5","5","5","0","1","0","1","-1","1","1","0","5","4","4","5","4","4","5","4","4","5","7","8","7","8","7","8","8","8","9","5","3","6","4","4","3","5","1","4","3","5","4","6","4","4","6","5","4","5","4","5","5","5","6","3","6","6","5","5","5","6","5","4","5","5","5","6","5","4","5","729745091731918850","黄","462","Male","[""坏我"",""好我"",""好他"",""坏他""]","[""弱我"",""强我"",""强他"",""弱他""]","","","","","","","","","","","","","","","","","","","","","","","","","","","","","","feedback_test","","","","","","","",""
"950","","j","psychophysics","92","298106","0.0-8.0-1.0-1.0-0.0-0.41","5","5","6","5","6","5","3","4","5","5","5","0","1","0","1","-1","1","1","0","5","4","4","5","4","4","5","4","4","5","7","8","7","8","7","8","8","8","9","5","3","6","4","4","3","5","1","4","3","5","4","6","4","4","6","5","4","5","4","5","5","5","6","3","6","6","5","5","5","6","5","4","5","5","5","6","5","4","5","729745091731918850","黄","462","Male","[""坏我"",""好我"",""好他"",""坏他""]","[""弱我"",""强我"",""强他"",""弱他""]","","","","","","","","nonmatch","","","","","","","","","","key","j","16.657594827586355","683","380","j","true","nonmatch","img/pentagon.png","强我","弱他","prac_ALT2_ability","practice_ability","","","","","","","",""
"null","<span style='color:GreenYellow; font-size: 70px;'>正确! </span>","null","html-keyboard-response","93","298612","0.0-8.0-1.0-1.0-0.0-1.41","5","5","6","5","6","5","3","4","5","5","5","0","1","0","1","-1","1","1","0","5","4","4","5","4","4","5","4","4","5","7","8","7","8","7","8","8","8","9","5","3","6","4","4","3","5","1","4","3","5","4","6","4","4","6","5","4","5","4","5","5","5","6","3","6","6","5","5","5","6","5","4","5","5","5","6","5","4","5","729745091731918850","黄","462","Male","[""坏我"",""好我"",""好他"",""坏他""]","[""弱我"",""强我"",""强他"",""弱他""]","","","","","","","","","","","","","","","","","","","","","","","","","","","","","","feedback_test","","","","","","","",""
"944","","j","psychophysics","94","300565","0.0-8.0-1.0-1.0-0.0-0.42","5","5","6","5","6","5","3","4","5","5","5","0","1","0","1","-1","1","1","0","5","4","4","5","4","4","5","4","4","5","7","8","7","8","7","8","8","8","9","5","3","6","4","4","3","5","1","4","3","5","4","6","4","4","6","5","4","5","4","5","5","5","6","3","6","6","5","5","5","6","5","4","5","5","5","6","5","4","5","729745091731918850","黄","462","Male","[""坏我"",""好我"",""好他"",""坏他""]","[""弱我"",""强我"",""强他"",""弱他""]","","","","","","","","nonmatch","","","","","","","","","","key","j","16.66368965517252","683","380","j","true","nonmatch","img/square.png","弱他","强他","prac_ALT2_ability","practice_ability","","","","","","","",""
"null","<span style='color:GreenYellow; font-size: 70px;'>正确! </span>","null","html-keyboard-response","95","301067","0.0-8.0-1.0-1.0-0.0-1.42","5","5","6","5","6","5","3","4","5","5","5","0","1","0","1","-1","1","1","0","5","4","4","5","4","4","5","4","4","5","7","8","7","8","7","8","8","8","9","5","3","6","4","4","3","5","1","4","3","5","4","6","4","4","6","5","4","5","4","5","5","5","6","3","6","6","5","5","5","6","5","4","5","5","5","6","5","4","5","729745091731918850","黄","462","Male","[""坏我"",""好我"",""好他"",""坏他""]","[""弱我"",""强我"",""强他"",""弱他""]","","","","","","","","","","","","","","","","","","","","","","","","","","","","","","feedback_test","","","","","","","",""
"840","","j","psychophysics","96","302916","0.0-8.0-1.0-1.0-0.0-0.43","5","5","6","5","6","5","3","4","5","5","5","0","1","0","1","-1","1","1","0","5","4","4","5","4","4","5","4","4","5","7","8","7","8","7","8","8","8","9","5","3","6","4","4","3","5","1","4","3","5","4","6","4","4","6","5","4","5","4","5","5","5","6","3","6","6","5","5","5","6","5","4","5","5","5","6","5","4","5","729745091731918850","黄","462","Male","[""坏我"",""好我"",""好他"",""坏他""]","[""弱我"",""强我"",""强他"",""弱他""]","","","","","","","","nonmatch","","","","","","","","","","key","j","16.655809090908786","683","380","j","true","nonmatch","img/square.png","强我","强他","prac_ALT2_ability","practice_ability","","","","","","","",""
"null","<span style='color:GreenYellow; font-size: 70px;'>正确! </span>","null","html-keyboard-response","97","303420","0.0-8.0-1.0-1.0-0.0-1.43","5","5","6","5","6","5","3","4","5","5","5","0","1","0","1","-1","1","1","0","5","4","4","5","4","4","5","4","4","5","7","8","7","8","7","8","8","8","9","5","3","6","4","4","3","5","1","4","3","5","4","6","4","4","6","5","4","5","4","5","5","5","6","3","6","6","5","5","5","6","5","4","5","5","5","6","5","4","5","729745091731918850","黄","462","Male","[""坏我"",""好我"",""好他"",""坏他""]","[""弱我"",""强我"",""强他"",""弱他""]","","","","","","","","","","","","","","","","","","","","","","","","","","","","","","feedback_test","","","","","","","",""
"723","","f","psychophysics","98","305154","0.0-8.0-1.0-1.0-0.0-0.44","5","5","6","5","6","5","3","4","5","5","5","0","1","0","1","-1","1","1","0","5","4","4","5","4","4","5","4","4","5","7","8","7","8","7","8","8","8","9","5","3","6","4","4","3","5","1","4","3","5","4","6","4","4","6","5","4","5","4","5","5","5","6","3","6","6","5","5","5","6","5","4","5","5","5","6","5","4","5","729745091731918850","黄","462","Male","[""坏我"",""好我"",""好他"",""坏他""]","[""弱我"",""强我"",""强他"",""弱他""]","","","","","","","","match","","","","","","","","","","key","f","16.659980582524298","683","380","f","true","match","img/ellipse.png","强我","强我","prac_ALT2_ability","practice_ability","","","","","","","",""
"null","<span style='color:GreenYellow; font-size: 70px;'>正确! </span>","null","html-keyboard-response","99","305660","0.0-8.0-1.0-1.0-0.0-1.44","5","5","6","5","6","5","3","4","5","5","5","0","1","0","1","-1","1","1","0","5","4","4","5","4","4","5","4","4","5","7","8","7","8","7","8","8","8","9","5","3","6","4","4","3","5","1","4","3","5","4","6","4","4","6","5","4","5","4","5","5","5","6","3","6","6","5","5","5","6","5","4","5","5","5","6","5","4","5","729745091731918850","黄","462","Male","[""坏我"",""好我"",""好他"",""坏他""]","[""弱我"",""强我"",""强他"",""弱他""]","","","","","","","","","","","","","","","","","","","","","","","","","","","","","","feedback_test","","","","","","","",""
"827","","f","psychophysics","100","307490","0.0-8.0-1.0-1.0-0.0-0.45","5","5","6","5","6","5","3","4","5","5","5","0","1","0","1","-1","1","1","0","5","4","4","5","4","4","5","4","4","5","7","8","7","8","7","8","8","8","9","5","3","6","4","4","3","5","1","4","3","5","4","6","4","4","6","5","4","5","4","5","5","5","6","3","6","6","5","5","5","6","5","4","5","5","5","6","5","4","5","729745091731918850","黄","462","Male","[""坏我"",""好我"",""好他"",""坏他""]","[""弱我"",""强我"",""强他"",""弱他""]","","","","","","","","match","","","","","","","","","","key","f","16.64769724770684","683","380","f","true","match","img/diamond.png","弱我","弱我","prac_ALT2_ability","practice_ability","","","","","","","",""
"null","<span style='color:GreenYellow; font-size: 70px;'>正确! </span>","null","html-keyboard-response","101","307996","0.0-8.0-1.0-1.0-0.0-1.45","5","5","6","5","6","5","3","4","5","5","5","0","1","0","1","-1","1","1","0","5","4","4","5","4","4","5","4","4","5","7","8","7","8","7","8","8","8","9","5","3","6","4","4","3","5","1","4","3","5","4","6","4","4","6","5","4","5","4","5","5","5","6","3","6","6","5","5","5","6","5","4","5","5","5","6","5","4","5","729745091731918850","黄","462","Male","[""坏我"",""好我"",""好他"",""坏他""]","[""弱我"",""强我"",""强他"",""弱他""]","","","","","","","","","","","","","","","","","","","","","","","","","","","","","","feedback_test","","","","","","","",""
"911","","f","psychophysics","102","309915","0.0-8.0-1.0-1.0-0.0-0.46","5","5","6","5","6","5","3","4","5","5","5","0","1","0","1","-1","1","1","0","5","4","4","5","4","4","5","4","4","5","7","8","7","8","7","8","8","8","9","5","3","6","4","4","3","5","1","4","3","5","4","6","4","4","6","5","4","5","4","5","5","5","6","3","6","6","5","5","5","6","5","4","5","5","5","6","5","4","5","729745091731918850","黄","462","Male","[""坏我"",""好我"",""好他"",""坏他""]","[""弱我"",""强我"",""强他"",""弱他""]","","","","","","","","match","","","","","","","","","","key","f","16.659859649122698","683","380","f","true","match","img/square.png","强他","强他","prac_ALT2_ability","practice_ability","","","","","","","",""
"null","<span style='color:GreenYellow; font-size: 70px;'>正确! </span>","null","html-keyboard-response","103","310420","0.0-8.0-1.0-1.0-0.0-1.46","5","5","6","5","6","5","3","4","5","5","5","0","1","0","1","-1","1","1","0","5","4","4","5","4","4","5","4","4","5","7","8","7","8","7","8","8","8","9","5","3","6","4","4","3","5","1","4","3","5","4","6","4","4","6","5","4","5","4","5","5","5","6","3","6","6","5","5","5","6","5","4","5","5","5","6","5","4","5","729745091731918850","黄","462","Male","[""坏我"",""好我"",""好他"",""坏他""]","[""弱我"",""强我"",""强他"",""弱他""]","","","","","","","","","","","","","","","","","","","","","","","","","","","","","","feedback_test","","","","","","","",""
"1156","","j","psychophysics","104","312585","0.0-8.0-1.0-1.0-0.0-0.47","5","5","6","5","6","5","3","4","5","5","5","0","1","0","1","-1","1","1","0","5","4","4","5","4","4","5","4","4","5","7","8","7","8","7","8","8","8","9","5","3","6","4","4","3","5","1","4","3","5","4","6","4","4","6","5","4","5","4","5","5","5","6","3","6","6","5","5","5","6","5","4","5","5","5","6","5","4","5","729745091731918850","黄","462","Male","[""坏我"",""好我"",""好他"",""坏他""]","[""弱我"",""强我"",""强他"",""弱他""]","","","","","","","","nonmatch","","","","","","","","","","key","j","16.656898437499876","683","380","j","true","nonmatch","img/diamond.png","弱他","弱我","prac_ALT2_ability","practice_ability","","","","","","","",""
"null","<span style='color:GreenYellow; font-size: 70px;'>正确! </span>","null","html-keyboard-response","105","313092","0.0-8.0-1.0-1.0-0.0-1.47","5","5","6","5","6","5","3","4","5","5","5","0","1","0","1","-1","1","1","0","5","4","4","5","4","4","5","4","4","5","7","8","7","8","7","8","8","8","9","5","3","6","4","4","3","5","1","4","3","5","4","6","4","4","6","5","4","5","4","5","5","5","6","3","6","6","5","5","5","6","5","4","5","5","5","6","5","4","5","729745091731918850","黄","462","Male","[""坏我"",""好我"",""好他"",""坏他""]","[""弱我"",""强我"",""强他"",""弱他""]","","","","","","","","","","","","","","","","","","","","","","","","","","","","","","feedback_test","","","","","","","",""
"1360","<style>.context{color:white; font-size: 35px; line-height:40px}</style>                          <div><p class='context'>您正确回答了77% 的试次。</p><p class='context'>您的平均反应时为927毫秒。</p><p class='context'>恭喜您完成练习。按空格键进入正式实验。</p><p class='footer' style='color:white;font-size: 35px; line-height:40px;'>请在进入正式实验实验之前将您的<span style='color: lightgreen;'>食指</span>放在电脑键盘的相应键位上进行按键。</p>"," ","html-keyboard-response","106","314459","0.0-8.0-1.0-2.0","5","5","6","5","6","5","3","4","5","5","5","0","1","0","1","-1","1","1","0","5","4","4","5","4","4","5","4","4","5","7","8","7","8","7","8","8","8","9","5","3","6","4","4","3","5","1","4","3","5","4","6","4","4","6","5","4","5","4","5","5","5","6","3","6","6","5","5","5","6","5","4","5","5","5","6","5","4","5","729745091731918850","黄","462","Male","[""坏我"",""好我"",""好他"",""坏他""]","[""弱我"",""强我"",""强他"",""弱他""]","","","","","","","","","","","","","","","","","","","","","","","","","","","","","","","","","","","","","",""
"600","
  <p style='color: white; font-size: 22px'>请您将手指放在按键上，准备进入正式的匹配任务。</p>
  <p> <div style = ""color: green""><按空格键进入下一阶段的匹配任务></div></p>
  "," ","html-keyboard-response","107","315074","0.0-8.0-1.0-3.0","5","5","6","5","6","5","3","4","5","5","5","0","1","0","1","-1","1","1","0","5","4","4","5","4","4","5","4","4","5","7","8","7","8","7","8","8","8","9","5","3","6","4","4","3","5","1","4","3","5","4","6","4","4","6","5","4","5","4","5","5","5","6","3","6","6","5","5","5","6","5","4","5","5","5","6","5","4","5","729745091731918850","黄","462","Male","[""坏我"",""好我"",""好他"",""坏他""]","[""弱我"",""强我"",""强他"",""弱他""]","","","","","","","","","","","","","","","","","","","","","","","","","","","","","","","","","","","","","",""
"1107","","j","psychophysics","108","317186","0.0-8.0-1.0-4.0-0.0-0.0","5","5","6","5","6","5","3","4","5","5","5","0","1","0","1","-1","1","1","0","5","4","4","5","4","4","5","4","4","5","7","8","7","8","7","8","8","8","9","5","3","6","4","4","3","5","1","4","3","5","4","6","4","4","6","5","4","5","4","5","5","5","6","3","6","6","5","5","5","6","5","4","5","5","5","6","5","4","5","729745091731918850","黄","462","Male","[""坏我"",""好我"",""好他"",""坏他""]","[""弱我"",""强我"",""强他"",""弱他""]","","","","","","","","nonmatch","","","","","","","","","","key","j","16.66843200000003","683","380","j","true","nonmatch","img/ellipse.png","强他","强我","ALT2","ability","","","","","","","",""
"null","<span style='color:GreenYellow; font-size: 70px;'>正确! </span>","null","html-keyboard-response","109","317692","0.0-8.0-1.0-4.0-0.0-1.0","5","5","6","5","6","5","3","4","5","5","5","0","1","0","1","-1","1","1","0","5","4","4","5","4","4","5","4","4","5","7","8","7","8","7","8","8","8","9","5","3","6","4","4","3","5","1","4","3","5","4","6","4","4","6","5","4","5","4","5","5","5","6","3","6","6","5","5","5","6","5","4","5","5","5","6","5","4","5","729745091731918850","黄","462","Male","[""坏我"",""好我"",""好他"",""坏他""]","[""弱我"",""强我"",""强他"",""弱他""]","","","","","","","","","","","","","","","","","","","","","","","","","","","","","","feedback_test","","","","","","","",""
"810","","f","psychophysics","110","319506","0.0-8.0-1.0-4.0-0.0-0.1","5","5","6","5","6","5","3","4","5","5","5","0","1","0","1","-1","1","1","0","5","4","4","5","4","4","5","4","4","5","7","8","7","8","7","8","8","8","9","5","3","6","4","4","3","5","1","4","3","5","4","6","4","4","6","5","4","5","4","5","5","5","6","3","6","6","5","5","5","6","5","4","5","5","5","6","5","4","5","729745091731918850","黄","462","Male","[""坏我"",""好我"",""好他"",""坏他""]","[""弱我"",""强我"",""强他"",""弱他""]","","","","","","","","match","","","","","","","","","","key","f","16.824219047619096","683","380","f","true","match","img/square.png","强他","强他","ALT2","ability","","","","","","","",""
"null","<span style='color:GreenYellow; font-size: 70px;'>正确! </span>","null","html-keyboard-response","111","320011","0.0-8.0-1.0-4.0-0.0-1.1","5","5","6","5","6","5","3","4","5","5","5","0","1","0","1","-1","1","1","0","5","4","4","5","4","4","5","4","4","5","7","8","7","8","7","8","8","8","9","5","3","6","4","4","3","5","1","4","3","5","4","6","4","4","6","5","4","5","4","5","5","5","6","3","6","6","5","5","5","6","5","4","5","5","5","6","5","4","5","729745091731918850","黄","462","Male","[""坏我"",""好我"",""好他"",""坏他""]","[""弱我"",""强我"",""强他"",""弱他""]","","","","","","","","","","","","","","","","","","","","","","","","","","","","","","feedback_test","","","","","","","",""
"879","","f","psychophysics","112","321898","0.0-8.0-1.0-4.0-0.0-0.2","5","5","6","5","6","5","3","4","5","5","5","0","1","0","1","-1","1","1","0","5","4","4","5","4","4","5","4","4","5","7","8","7","8","7","8","8","8","9","5","3","6","4","4","3","5","1","4","3","5","4","6","4","4","6","5","4","5","4","5","5","5","6","3","6","6","5","5","5","6","5","4","5","5","5","6","5","4","5","729745091731918850","黄","462","Male","[""坏我"",""好我"",""好他"",""坏他""]","[""弱我"",""强我"",""强他"",""弱他""]","","","","","","","","match","","","","","","","","","","key","f","16.665026785714353","683","380","f","true","match","img/square.png","强他","强他","ALT2","ability","","","","","","","",""
"null","<span style='color:GreenYellow; font-size: 70px;'>正确! </span>","null","html-keyboard-response","113","322404","0.0-8.0-1.0-4.0-0.0-1.2","5","5","6","5","6","5","3","4","5","5","5","0","1","0","1","-1","1","1","0","5","4","4","5","4","4","5","4","4","5","7","8","7","8","7","8","8","8","9","5","3","6","4","4","3","5","1","4","3","5","4","6","4","4","6","5","4","5","4","5","5","5","6","3","6","6","5","5","5","6","5","4","5","5","5","6","5","4","5","729745091731918850","黄","462","Male","[""坏我"",""好我"",""好他"",""坏他""]","[""弱我"",""强我"",""强他"",""弱他""]","","","","","","","","","","","","","","","","","","","","","","","","","","","","","","feedback_test","","","","","","","",""
"956","","j","psychophysics","114","324370","0.0-8.0-1.0-4.0-0.0-0.3","5","5","6","5","6","5","3","4","5","5","5","0","1","0","1","-1","1","1","0","5","4","4","5","4","4","5","4","4","5","7","8","7","8","7","8","8","8","9","5","3","6","4","4","3","5","1","4","3","5","4","6","4","4","6","5","4","5","4","5","5","5","6","3","6","6","5","5","5","6","5","4","5","5","5","6","5","4","5","729745091731918850","黄","462","Male","[""坏我"",""好我"",""好他"",""坏他""]","[""弱我"",""强我"",""强他"",""弱他""]","","","","","","","","nonmatch","","","","","","","","","","key","j","16.668085470085696","683","380","j","true","nonmatch","img/diamond.png","强我","弱我","ALT2","ability","","","","","","","",""
"null","<span style='color:GreenYellow; font-size: 70px;'>正确! </span>","null","html-keyboard-response","115","324876","0.0-8.0-1.0-4.0-0.0-1.3","5","5","6","5","6","5","3","4","5","5","5","0","1","0","1","-1","1","1","0","5","4","4","5","4","4","5","4","4","5","7","8","7","8","7","8","8","8","9","5","3","6","4","4","3","5","1","4","3","5","4","6","4","4","6","5","4","5","4","5","5","5","6","3","6","6","5","5","5","6","5","4","5","5","5","6","5","4","5","729745091731918850","黄","462","Male","[""坏我"",""好我"",""好他"",""坏他""]","[""弱我"",""强我"",""强他"",""弱他""]","","","","","","","","","","","","","","","","","","","","","","","","","","","","","","feedback_test","","","","","","","",""
"868","","j","psychophysics","116","326747","0.0-8.0-1.0-4.0-0.0-0.4","5","5","6","5","6","5","3","4","5","5","5","0","1","0","1","-1","1","1","0","5","4","4","5","4","4","5","4","4","5","7","8","7","8","7","8","8","8","9","5","3","6","4","4","3","5","1","4","3","5","4","6","4","4","6","5","4","5","4","5","5","5","6","3","6","6","5","5","5","6","5","4","5","5","5","6","5","4","5","729745091731918850","黄","462","Male","[""坏我"",""好我"",""好他"",""坏他""]","[""弱我"",""强我"",""强他"",""弱他""]","","","","","","","","nonmatch","","","","","","","","","","key","j","16.675072072072243","683","380","j","true","nonmatch","img/pentagon.png","强我","弱他","ALT2","ability","","","","","","","",""
"null","<span style='color:GreenYellow; font-size: 70px;'>正确! </span>","null","html-keyboard-response","117","327252","0.0-8.0-1.0-4.0-0.0-1.4","5","5","6","5","6","5","3","4","5","5","5","0","1","0","1","-1","1","1","0","5","4","4","5","4","4","5","4","4","5","7","8","7","8","7","8","8","8","9","5","3","6","4","4","3","5","1","4","3","5","4","6","4","4","6","5","4","5","4","5","5","5","6","3","6","6","5","5","5","6","5","4","5","5","5","6","5","4","5","729745091731918850","黄","462","Male","[""坏我"",""好我"",""好他"",""坏他""]","[""弱我"",""强我"",""强他"",""弱他""]","","","","","","","","","","","","","","","","","","","","","","","","","","","","","","feedback_test","","","","","","","",""
"890","","j","psychophysics","118","329154","0.0-8.0-1.0-4.0-0.0-0.5","5","5","6","5","6","5","3","4","5","5","5","0","1","0","1","-1","1","1","0","5","4","4","5","4","4","5","4","4","5","7","8","7","8","7","8","8","8","9","5","3","6","4","4","3","5","1","4","3","5","4","6","4","4","6","5","4","5","4","5","5","5","6","3","6","6","5","5","5","6","5","4","5","5","5","6","5","4","5","729745091731918850","黄","462","Male","[""坏我"",""好我"",""好他"",""坏他""]","[""弱我"",""强我"",""强他"",""弱他""]","","","","","","","","nonmatch","","","","","","","","","","key","j","16.66929203539827","683","380","j","true","nonmatch","img/pentagon.png","强他","弱他","ALT2","ability","","","","","","","",""
"null","<span style='color:GreenYellow; font-size: 70px;'>正确! </span>","null","html-keyboard-response","119","329660","0.0-8.0-1.0-4.0-0.0-1.5","5","5","6","5","6","5","3","4","5","5","5","0","1","0","1","-1","1","1","0","5","4","4","5","4","4","5","4","4","5","7","8","7","8","7","8","8","8","9","5","3","6","4","4","3","5","1","4","3","5","4","6","4","4","6","5","4","5","4","5","5","5","6","3","6","6","5","5","5","6","5","4","5","5","5","6","5","4","5","729745091731918850","黄","462","Male","[""坏我"",""好我"",""好他"",""坏他""]","[""弱我"",""强我"",""强他"",""弱他""]","","","","","","","","","","","","","","","","","","","","","","","","","","","","","","feedback_test","","","","","","","",""
"783","","f","psychophysics","120","331445","0.0-8.0-1.0-4.0-0.0-0.6","5","5","6","5","6","5","3","4","5","5","5","0","1","0","1","-1","1","1","0","5","4","4","5","4","4","5","4","4","5","7","8","7","8","7","8","8","8","9","5","3","6","4","4","3","5","1","4","3","5","4","6","4","4","6","5","4","5","4","5","5","5","6","3","6","6","5","5","5","6","5","4","5","5","5","6","5","4","5","729745091731918850","黄","462","Male","[""坏我"",""好我"",""好他"",""坏他""]","[""弱我"",""强我"",""强他"",""弱他""]","","","","","","","","match","","","","","","","","","","key","f","16.66739622641515","683","380","f","true","match","img/ellipse.png","强我","强我","ALT2","ability","","","","","","","",""
"null","<span style='color:GreenYellow; font-size: 70px;'>正确! </span>","null","html-keyboard-response","121","331948","0.0-8.0-1.0-4.0-0.0-1.6","5","5","6","5","6","5","3","4","5","5","5","0","1","0","1","-1","1","1","0","5","4","4","5","4","4","5","4","4","5","7","8","7","8","7","8","8","8","9","5","3","6","4","4","3","5","1","4","3","5","4","6","4","4","6","5","4","5","4","5","5","5","6","3","6","6","5","5","5","6","5","4","5","5","5","6","5","4","5","729745091731918850","黄","462","Male","[""坏我"",""好我"",""好他"",""坏他""]","[""弱我"",""强我"",""强他"",""弱他""]","","","","","","","","","","","","","","","","","","","","","","","","","","","","","","feedback_test","","","","","","","",""
"1175","","j","psychophysics","122","334131","0.0-8.0-1.0-4.0-0.0-0.7","5","5","6","5","6","5","3","4","5","5","5","0","1","0","1","-1","1","1","0","5","4","4","5","4","4","5","4","4","5","7","8","7","8","7","8","8","8","9","5","3","6","4","4","3","5","1","4","3","5","4","6","4","4","6","5","4","5","4","5","5","5","6","3","6","6","5","5","5","6","5","4","5","5","5","6","5","4","5","729745091731918850","黄","462","Male","[""坏我"",""好我"",""好他"",""坏他""]","[""弱我"",""强我"",""强他"",""弱他""]","","","","","","","","nonmatch","","","","","","","","","","key","j","16.66466923076928","683","380","j","true","nonmatch","img/diamond.png","弱他","弱我","ALT2","ability","","","","","","","",""
"null","<span style='color:GreenYellow; font-size: 70px;'>正确! </span>","null","html-keyboard-response","123","334636","0.0-8.0-1.0-4.0-0.0-1.7","5","5","6","5","6","5","3","4","5","5","5","0","1","0","1","-1","1","1","0","5","4","4","5","4","4","5","4","4","5","7","8","7","8","7","8","8","8","9","5","3","6","4","4","3","5","1","4","3","5","4","6","4","4","6","5","4","5","4","5","5","5","6","3","6","6","5","5","5","6","5","4","5","5","5","6","5","4","5","729745091731918850","黄","462","Male","[""坏我"",""好我"",""好他"",""坏他""]","[""弱我"",""强我"",""强他"",""弱他""]","","","","","","","","","","","","","","","","","","","","","","","","","","","","","","feedback_test","","","","","","","",""
"940","","j","psychophysics","124","336585","0.0-8.0-1.0-4.0-0.0-0.8","5","5","6","5","6","5","3","4","5","5","5","0","1","0","1","-1","1","1","0","5","4","4","5","4","4","5","4","4","5","7","8","7","8","7","8","8","8","9","5","3","6","4","4","3","5","1","4","3","5","4","6","4","4","6","5","4","5","4","5","5","5","6","3","6","6","5","5","5","6","5","4","5","5","5","6","5","4","5","729745091731918850","黄","462","Male","[""坏我"",""好我"",""好他"",""坏他""]","[""弱我"",""强我"",""强他"",""弱他""]","","","","","","","","nonmatch","","","","","","","","","","key","j","16.66543103448278","683","380","f","false","match","img/diamond.png","弱我","弱我","ALT2","ability","","","","","","","",""
"null","<span style='color:red; font-size: 70px;'>错误! </span>","null","html-keyboard-response","125","337093","0.0-8.0-1.0-4.0-0.0-1.8","5","5","6","5","6","5","3","4","5","5","5","0","1","0","1","-1","1","1","0","5","4","4","5","4","4","5","4","4","5","7","8","7","8","7","8","8","8","9","5","3","6","4","4","3","5","1","4","3","5","4","6","4","4","6","5","4","5","4","5","5","5","6","3","6","6","5","5","5","6","5","4","5","5","5","6","5","4","5","729745091731918850","黄","462","Male","[""坏我"",""好我"",""好他"",""坏他""]","[""弱我"",""强我"",""强他"",""弱他""]","","","","","","","","","","","","","","","","","","","","","","","","","","","","","","feedback_test","","","","","","","",""
"1108","","f","psychophysics","126","339202","0.0-8.0-1.0-4.0-0.0-0.9","5","5","6","5","6","5","3","4","5","5","5","0","1","0","1","-1","1","1","0","5","4","4","5","4","4","5","4","4","5","7","8","7","8","7","8","8","8","9","5","3","6","4","4","3","5","1","4","3","5","4","6","4","4","6","5","4","5","4","5","5","5","6","3","6","6","5","5","5","6","5","4","5","5","5","6","5","4","5","729745091731918850","黄","462","Male","[""坏我"",""好我"",""好他"",""坏他""]","[""弱我"",""强我"",""强他"",""弱他""]","","","","","","","","match","","","","","","","","","","key","f","16.66618399999989","683","380","f","true","match","img/pentagon.png","弱他","弱他","ALT2","ability","","","","","","","",""
"null","<span style='color:GreenYellow; font-size: 70px;'>正确! </span>","null","html-keyboard-response","127","339708","0.0-8.0-1.0-4.0-0.0-1.9","5","5","6","5","6","5","3","4","5","5","5","0","1","0","1","-1","1","1","0","5","4","4","5","4","4","5","4","4","5","7","8","7","8","7","8","8","8","9","5","3","6","4","4","3","5","1","4","3","5","4","6","4","4","6","5","4","5","4","5","5","5","6","3","6","6","5","5","5","6","5","4","5","5","5","6","5","4","5","729745091731918850","黄","462","Male","[""坏我"",""好我"",""好他"",""坏他""]","[""弱我"",""强我"",""强他"",""弱他""]","","","","","","","","","","","","","","","","","","","","","","","","","","","","","","feedback_test","","","","","","","",""
"923","","j","psychophysics","128","341633","0.0-8.0-1.0-4.0-0.0-0.10","5","5","6","5","6","5","3","4","5","5","5","0","1","0","1","-1","1","1","0","5","4","4","5","4","4","5","4","4","5","7","8","7","8","7","8","8","8","9","5","3","6","4","4","3","5","1","4","3","5","4","6","4","4","6","5","4","5","4","5","5","5","6","3","6","6","5","5","5","6","5","4","5","5","5","6","5","4","5","729745091731918850","黄","462","Male","[""坏我"",""好我"",""好他"",""坏他""]","[""弱我"",""强我"",""强他"",""弱他""]","","","","","","","","nonmatch","","","","","","","","","","key","j","16.654289473684017","683","380","j","true","nonmatch","img/pentagon.png","弱我","弱他","ALT2","ability","","","","","","","",""
"null","<span style='color:GreenYellow; font-size: 70px;'>正确! </span>","null","html-keyboard-response","129","342139","0.0-8.0-1.0-4.0-0.0-1.10","5","5","6","5","6","5","3","4","5","5","5","0","1","0","1","-1","1","1","0","5","4","4","5","4","4","5","4","4","5","7","8","7","8","7","8","8","8","9","5","3","6","4","4","3","5","1","4","3","5","4","6","4","4","6","5","4","5","4","5","5","5","6","3","6","6","5","5","5","6","5","4","5","5","5","6","5","4","5","729745091731918850","黄","462","Male","[""坏我"",""好我"",""好他"",""坏他""]","[""弱我"",""强我"",""强他"",""弱他""]","","","","","","","","","","","","","","","","","","","","","","","","","","","","","","feedback_test","","","","","","","",""
"1009","","f","psychophysics","130","344154","0.0-8.0-1.0-4.0-0.0-0.11","5","5","6","5","6","5","3","4","5","5","5","0","1","0","1","-1","1","1","0","5","4","4","5","4","4","5","4","4","5","7","8","7","8","7","8","8","8","9","5","3","6","4","4","3","5","1","4","3","5","4","6","4","4","6","5","4","5","4","5","5","5","6","3","6","6","5","5","5","6","5","4","5","5","5","6","5","4","5","729745091731918850","黄","462","Male","[""坏我"",""好我"",""好他"",""坏他""]","[""弱我"",""强我"",""强他"",""弱他""]","","","","","","","","match","","","","","","","","","","key","f","16.660899999999675","683","380","f","true","match","img/pentagon.png","弱他","弱他","ALT2","ability","","","","","","","",""
"null","<span style='color:GreenYellow; font-size: 70px;'>正确! </span>","null","html-keyboard-response","131","344659","0.0-8.0-1.0-4.0-0.0-1.11","5","5","6","5","6","5","3","4","5","5","5","0","1","0","1","-1","1","1","0","5","4","4","5","4","4","5","4","4","5","7","8","7","8","7","8","8","8","9","5","3","6","4","4","3","5","1","4","3","5","4","6","4","4","6","5","4","5","4","5","5","5","6","3","6","6","5","5","5","6","5","4","5","5","5","6","5","4","5","729745091731918850","黄","462","Male","[""坏我"",""好我"",""好他"",""坏他""]","[""弱我"",""强我"",""强他"",""弱他""]","","","","","","","","","","","","","","","","","","","","","","","","","","","","","","feedback_test","","","","","","","",""
"892","","j","psychophysics","132","346554","0.0-8.0-1.0-4.0-0.0-0.12","5","5","6","5","6","5","3","4","5","5","5","0","1","0","1","-1","1","1","0","5","4","4","5","4","4","5","4","4","5","7","8","7","8","7","8","8","8","9","5","3","6","4","4","3","5","1","4","3","5","4","6","4","4","6","5","4","5","4","5","5","5","6","3","6","6","5","5","5","6","5","4","5","5","5","6","5","4","5","729745091731918850","黄","462","Male","[""坏我"",""好我"",""好他"",""坏他""]","[""弱我"",""强我"",""强他"",""弱他""]","","","","","","","","nonmatch","","","","","","","","","","key","j","16.67447321428543","683","380","j","true","nonmatch","img/square.png","强我","强他","ALT2","ability","","","","","","","",""
"null","<span style='color:GreenYellow; font-size: 70px;'>正确! </span>","null","html-keyboard-response","133","347060","0.0-8.0-1.0-4.0-0.0-1.12","5","5","6","5","6","5","3","4","5","5","5","0","1","0","1","-1","1","1","0","5","4","4","5","4","4","5","4","4","5","7","8","7","8","7","8","8","8","9","5","3","6","4","4","3","5","1","4","3","5","4","6","4","4","6","5","4","5","4","5","5","5","6","3","6","6","5","5","5","6","5","4","5","5","5","6","5","4","5","729745091731918850","黄","462","Male","[""坏我"",""好我"",""好他"",""坏他""]","[""弱我"",""强我"",""强他"",""弱他""]","","","","","","","","","","","","","","","","","","","","","","","","","","","","","","feedback_test","","","","","","","",""
"862","","j","psychophysics","134","348930","0.0-8.0-1.0-4.0-0.0-0.13","5","5","6","5","6","5","3","4","5","5","5","0","1","0","1","-1","1","1","0","5","4","4","5","4","4","5","4","4","5","7","8","7","8","7","8","8","8","9","5","3","6","4","4","3","5","1","4","3","5","4","6","4","4","6","5","4","5","4","5","5","5","6","3","6","6","5","5","5","6","5","4","5","5","5","6","5","4","5","729745091731918850","黄","462","Male","[""坏我"",""好我"",""好他"",""坏他""]","[""弱我"",""强我"",""强他"",""弱他""]","","","","","","","","nonmatch","","","","","","","","","","key","j","16.66663963963993","683","380","j","true","nonmatch","img/square.png","弱我","强他","ALT2","ability","","","","","","","",""
"null","<span style='color:GreenYellow; font-size: 70px;'>正确! </span>","null","html-keyboard-response","135","349436","0.0-8.0-1.0-4.0-0.0-1.13","5","5","6","5","6","5","3","4","5","5","5","0","1","0","1","-1","1","1","0","5","4","4","5","4","4","5","4","4","5","7","8","7","8","7","8","8","8","9","5","3","6","4","4","3","5","1","4","3","5","4","6","4","4","6","5","4","5","4","5","5","5","6","3","6","6","5","5","5","6","5","4","5","5","5","6","5","4","5","729745091731918850","黄","462","Male","[""坏我"",""好我"",""好他"",""坏他""]","[""弱我"",""强我"",""强他"",""弱他""]","","","","","","","","","","","","","","","","","","","","","","","","","","","","","","feedback_test","","","","","","","",""
"770","","f","psychophysics","136","351212","0.0-8.0-1.0-4.0-0.0-0.14","5","5","6","5","6","5","3","4","5","5","5","0","1","0","1","-1","1","1","0","5","4","4","5","4","4","5","4","4","5","7","8","7","8","7","8","8","8","9","5","3","6","4","4","3","5","1","4","3","5","4","6","4","4","6","5","4","5","4","5","5","5","6","3","6","6","5","5","5","6","5","4","5","5","5","6","5","4","5","729745091731918850","黄","462","Male","[""坏我"",""好我"",""好他"",""坏他""]","[""弱我"",""强我"",""强他"",""弱他""]","","","","","","","","match","","","","","","","","","","key","f","16.66201886792452","683","380","f","true","match","img/ellipse.png","强我","强我","ALT2","ability","","","","","","","",""
"null","<span style='color:GreenYellow; font-size: 70px;'>正确! </span>","null","html-keyboard-response","137","351716","0.0-8.0-1.0-4.0-0.0-1.14","5","5","6","5","6","5","3","4","5","5","5","0","1","0","1","-1","1","1","0","5","4","4","5","4","4","5","4","4","5","7","8","7","8","7","8","8","8","9","5","3","6","4","4","3","5","1","4","3","5","4","6","4","4","6","5","4","5","4","5","5","5","6","3","6","6","5","5","5","6","5","4","5","5","5","6","5","4","5","729745091731918850","黄","462","Male","[""坏我"",""好我"",""好他"",""坏他""]","[""弱我"",""强我"",""强他"",""弱他""]","","","","","","","","","","","","","","","","","","","","","","","","","","","","","","feedback_test","","","","","","","",""
"1043","","j","psychophysics","138","353770","0.0-8.0-1.0-4.0-0.0-0.15","5","5","6","5","6","5","3","4","5","5","5","0","1","0","1","-1","1","1","0","5","4","4","5","4","4","5","4","4","5","7","8","7","8","7","8","8","8","9","5","3","6","4","4","3","5","1","4","3","5","4","6","4","4","6","5","4","5","4","5","5","5","6","3","6","6","5","5","5","6","5","4","5","5","5","6","5","4","5","729745091731918850","黄","462","Male","[""坏我"",""好我"",""好他"",""坏他""]","[""弱我"",""强我"",""强他"",""弱他""]","","","","","","","","nonmatch","","","","","","","","","","key","j","16.66240983606568","683","380","j","true","nonmatch","img/square.png","弱他","强他","ALT2","ability","","","","","","","",""
"null","<span style='color:GreenYellow; font-size: 70px;'>正确! </span>","null","html-keyboard-response","139","354276","0.0-8.0-1.0-4.0-0.0-1.15","5","5","6","5","6","5","3","4","5","5","5","0","1","0","1","-1","1","1","0","5","4","4","5","4","4","5","4","4","5","7","8","7","8","7","8","8","8","9","5","3","6","4","4","3","5","1","4","3","5","4","6","4","4","6","5","4","5","4","5","5","5","6","3","6","6","5","5","5","6","5","4","5","5","5","6","5","4","5","729745091731918850","黄","462","Male","[""坏我"",""好我"",""好他"",""坏他""]","[""弱我"",""强我"",""强他"",""弱他""]","","","","","","","","","","","","","","","","","","","","","","","","","","","","","","feedback_test","","","","","","","",""
