"rt","stimulus","response","trial_type","trial_index","time_elapsed","internal_node_id","swb_1","swb_2","swb_3","swb_4","swb_5","LOT_1","LOT_2","LOT_3","LOT_4","LOT_5","LOT_6","IPC_1","IPC_2","IPC_3","IPC_4","IPC_5","IPC_6","IPC_7","IPC_8","MorIden_1","MorIden_2","MorIden_3","MorIden_4","MorIden_5","MorIden_6","MorIden_7","MorIden_8","MorIden_9","MorIden_10","moralSeImag_1","moralSeImag_2","moralSeImag_3","moralSeImag_4","moralSeImag_5","moralSeImag_6","moralSeImag_7","moralSeImag_8","moralSeImag_9","sde_1","sde_2","sde_3","sde_4","sde_5","sde_6","sde_7","sde_8","sde_9","sde_10","sde_11","sde_12","sde_13","sde_14","sde_15","sde_16","sde_17","sde_18","sde_19","sde_20","IM_1","IM_2","IM_3","IM_4","IM_5","IM_6","IM_7","IM_8","IM_9","IM_10","IM_11","IM_12","IM_13","IM_14","IM_15","IM_16","IM_17","IM_18","IM_19","IM_20","subj_idx","friend_name","ParticipantID","Sex","Word","Word2","value","success","timeout","failed_images","failed_audio","failed_video","user_agent","responses","item_order","radio_event_ids","radio_event_times","key_event_times","mouse_event_times","straightlining","zigzagging","honeypot","view_history","response_type","key_press","avg_frame_time","center_x","center_y","correct_response","correct","identity","Image","word","condition","task_id","screen_id","time_stamp","person","valence","domain","math","status","duration","question_order"
"11039","
   <p><div style='color:white; font-size: 25px'>您好，欢迎参加本次实验。</div></p>
   <p><div style='color:white; font-size: 25px'>为充分保障您的权利，请确保您已经知晓并同意《参与实验同意书》以及《数据公开知情同意书》。</div></p>
   <p><div style='color:white; font-size: 25px'>如果您未见过上述内容，请咨询实验员。</div></p>
   <p style='color:white; font-size: 25px'>如果您选择继续实验，则表示您已经清楚两份知情同意书的内容并同意。</p>
   <p><div style = ""color: red;font-size:30px;"">请确保您记得day0的实验编号，您将在本次实验输入该编号，若您忘记，请咨询实验员后作答。</div></p>
   <p> <div style = ""color: green""><按空格键至下页></div> </p>
   "," ","html-keyboard-response","0","11046","0.0-0.0","6","5","6","4","4","5","3","5","5","5","5","2","1","0","2","0","1","2","1","5","5","5","5","4","4","4","3","4","4","7","7","6","7","5","8","6","6","8","5","5","4","6","5","4","4","7","5","4","4","3","4","3","5","4","5","4","2","7","3","4","3","5","6","6","5","7","7","7","7","6","6","6","4","6","7","6","5","6","734083981330616322","邓","667","Male","[""坏他"",""好我"",""好他"",""坏我""]","[""弱他"",""强我"",""强他"",""弱我""]","","","","","","","","","","","","","","","","","","","","","","","","","","","","","","","","","","","","","",""
"","","","call-function","1","11056","0.0-1.0-0.0","6","5","6","4","4","5","3","5","5","5","5","2","1","0","2","0","1","2","1","5","5","5","5","4","4","4","3","4","4","7","7","6","7","5","8","6","6","8","5","5","4","6","5","4","4","7","5","4","4","3","4","3","5","4","5","4","2","7","3","4","3","5","6","6","5","7","7","7","7","6","6","6","4","6","7","6","5","6","734083981330616322","邓","667","Male","[""坏他"",""好我"",""好他"",""坏我""]","[""弱他"",""强我"",""强他"",""弱我""]","","","","","","","","","","","","","","","","","","","","","","","","","","","","","","","","","","","","","",""
"48389","","[{""name"":""Sex"",""value"":""0""},{""name"":""friend_name"",""value"":""邓""},{""name"":""ParticipantID"",""value"":""667""}]","survey-html-form","2","59446","0.0-1.0-1.0","6","5","6","4","4","5","3","5","5","5","5","2","1","0","2","0","1","2","1","5","5","5","5","4","4","4","3","4","4","7","7","6","7","5","8","6","6","8","5","5","4","6","5","4","4","7","5","4","4","3","4","3","5","4","5","4","2","7","3","4","3","5","6","6","5","7","7","7","7","6","6","6","4","6","7","6","5","6","734083981330616322","邓","667","Male","[""坏他"",""好我"",""好他"",""坏我""]","[""弱他"",""强我"",""强他"",""弱我""]","","","","","","","","","","","","","","","","","","","","","","","","","","","","","","","","","","","","","",""
"","","","preload","3","59859","0.0-2.0","6","5","6","4","4","5","3","5","5","5","5","2","1","0","2","0","1","2","1","5","5","5","5","4","4","4","3","4","4","7","7","6","7","5","8","6","6","8","5","5","4","6","5","4","4","7","5","4","4","3","4","3","5","4","5","4","2","7","3","4","3","5","6","6","5","7","7","7","7","6","6","6","4","6","7","6","5","6","734083981330616322","邓","667","Male","[""坏他"",""好我"",""好他"",""坏我""]","[""弱他"",""强我"",""强他"",""弱我""]","","true","false","[]","[]","[]","","","","","","","","","","","","","","","","","","","","","","","","","","","","","","","",""
"","","","fullscreen","4","72908","0.0-3.0","6","5","6","4","4","5","3","5","5","5","5","2","1","0","2","0","1","2","1","5","5","5","5","4","4","4","3","4","4","7","7","6","7","5","8","6","6","8","5","5","4","6","5","4","4","7","5","4","4","3","4","3","5","4","5","4","2","7","3","4","3","5","6","6","5","7","7","7","7","6","6","6","4","6","7","6","5","6","734083981330616322","邓","667","Male","[""坏他"",""好我"",""好他"",""坏我""]","[""弱他"",""强我"",""强他"",""弱我""]","","true","","","","","{}","","","","","","","","","","","","","","","","","","","","","","","","","","","","","","",""
"49251.80000001192","","{""Q01"":""6"",""Q02"":""5"",""Q03"":""6"",""Q04"":""4"",""Q05"":""4""}","survey-template","5","122167","0.0-4.0","6","5","6","4","4","5","3","5","5","5","5","2","1","0","2","0","1","2","1","5","5","5","5","4","4","4","3","4","4","7","7","6","7","5","8","6","6","8","5","5","4","6","5","4","4","7","5","4","4","3","4","3","5","4","5","4","2","7","3","4","3","5","6","6","5","7","7","7","7","6","6","6","4","6","7","6","5","6","734083981330616322","邓","667","Male","[""坏他"",""好我"",""好他"",""坏我""]","[""弱他"",""强我"",""强他"",""弱我""]","","","","","","","","{""Q01"":""6"",""Q02"":""5"",""Q03"":""6"",""Q04"":""4"",""Q05"":""4""}","[0,1,2,3,4]","[""Q01"",""Q01"",""Q02"",""Q03"",""Q04"",""Q04"",""Q05""]","[9326.200000017881,15170.300000011921,18480.40000000596,21973.5,29414.40000000596,31422.100000023842,46773.5]","[]","[9326.200000017881,15170.300000011921,18480.40000000596,21973.5,29414.40000000596,31422.100000023842,46773.5,49250.40000000596]","0.4","0.5","0","","","","","","","","","","","","","","","","","","","","","",""
"71732.20000001788","","{""Q01"":""5"",""Q02"":""3"",""Q03"":""5"",""Q04"":""5"",""Q05"":""5"",""Q06"":""5""}","survey-template","6","193904","0.0-5.0","6","5","6","4","4","5","3","5","5","5","5","2","1","0","2","0","1","2","1","5","5","5","5","4","4","4","3","4","4","7","7","6","7","5","8","6","6","8","5","5","4","6","5","4","4","7","5","4","4","3","4","3","5","4","5","4","2","7","3","4","3","5","6","6","5","7","7","7","7","6","6","6","4","6","7","6","5","6","734083981330616322","邓","667","Male","[""坏他"",""好我"",""好他"",""坏我""]","[""弱他"",""强我"",""强他"",""弱我""]","","","","","","","","{""Q01"":""5"",""Q02"":""3"",""Q03"":""5"",""Q04"":""5"",""Q05"":""5"",""Q06"":""5""}","[0,1,2,3,4,5]","[""Q01"",""Q02"",""Q03"",""Q03"",""Q04"",""Q05"",""Q06""]","[9867,30029.30000001192,38583.40000000596,40015.20000001788,59900.40000000596,64249,70372.80000001192]","[]","[9867,30029.30000001192,38583.40000000596,40015.20000001788,59900.40000000596,64249,70372.80000001192,71731.30000001192]","0.5","0.4","0","","","","","","","","","","","","","","","","","","","","","",""
"64558.39999997616","","{""Q01"":""2"",""Q02"":""1"",""Q03"":""0"",""Q04"":""2"",""Q05"":""0"",""Q06"":""1"",""Q07"":""2"",""Q08"":""1""}","survey-template","7","258467","0.0-6.0","6","5","6","4","4","5","3","5","5","5","5","2","1","0","2","0","1","2","1","5","5","5","5","4","4","4","3","4","4","7","7","6","7","5","8","6","6","8","5","5","4","6","5","4","4","7","5","4","4","3","4","3","5","4","5","4","2","7","3","4","3","5","6","6","5","7","7","7","7","6","6","6","4","6","7","6","5","6","734083981330616322","邓","667","Male","[""坏他"",""好我"",""好他"",""坏我""]","[""弱他"",""强我"",""强他"",""弱我""]","","","","","","","","{""Q01"":""2"",""Q02"":""1"",""Q03"":""0"",""Q04"":""2"",""Q05"":""0"",""Q06"":""1"",""Q07"":""2"",""Q08"":""1""}","[0,1,2,3,4,5,6,7]","[""Q01"",""Q02"",""Q03"",""Q04"",""Q05"",""Q06"",""Q07"",""Q08""]","[11948.799999982119,18423.19999998808,30005,36646.79999998212,43424.5,47928.59999999404,58022.89999997616,62921]","[]","[11948.799999982119,18423.19999998808,30005,36646.79999998212,43424.5,47928.59999999404,58022.89999997616,62921,64557.19999998808]","0.375","0.7142857142857143","0","","","","","","","","","","","","","","","","","","","","","",""
"12991","","","instructions","8","271461","0.0-7.0","6","5","6","4","4","5","3","5","5","5","5","2","1","0","2","0","1","2","1","5","5","5","5","4","4","4","3","4","4","7","7","6","7","5","8","6","6","8","5","5","4","6","5","4","4","7","5","4","4","3","4","3","5","4","5","4","2","7","3","4","3","5","6","6","5","7","7","7","7","6","6","6","4","6","7","6","5","6","734083981330616322","邓","667","Male","[""坏他"",""好我"",""好他"",""坏我""]","[""弱他"",""强我"",""强他"",""弱我""]","","","","","","","","","","","","","","","","","[{""page_index"":0,""viewing_time"":12991}]","","","","","","","","","","","","","","","","","","","","",""
"119058","","","instructions","9","390520","0.0-8.0-0.0-0.0","6","5","6","4","4","5","3","5","5","5","5","2","1","0","2","0","1","2","1","5","5","5","5","4","4","4","3","4","4","7","7","6","7","5","8","6","6","8","5","5","4","6","5","4","4","7","5","4","4","3","4","3","5","4","5","4","2","7","3","4","3","5","6","6","5","7","7","7","7","6","6","6","4","6","7","6","5","6","734083981330616322","邓","667","Male","[""坏他"",""好我"",""好他"",""坏我""]","[""弱他"",""强我"",""强他"",""弱我""]","","","","","","","","","","","","","","","","","[{""page_index"":0,""viewing_time"":30632},{""page_index"":1,""viewing_time"":64724},{""page_index"":2,""viewing_time"":14131},{""page_index"":3,""viewing_time"":9571}]","","","","","","","","","","","","","","","","","","","","",""
"822","","f","psychophysics","10","392349","0.0-8.0-0.0-1.0-0.0-0.0","6","5","6","4","4","5","3","5","5","5","5","2","1","0","2","0","1","2","1","5","5","5","5","4","4","4","3","4","4","7","7","6","7","5","8","6","6","8","5","5","4","6","5","4","4","7","5","4","4","3","4","3","5","4","5","4","2","7","3","4","3","5","6","6","5","7","7","7","7","6","6","6","4","6","7","6","5","6","734083981330616322","邓","667","Male","[""坏他"",""好我"",""好他"",""坏我""]","[""弱他"",""强我"",""强他"",""弱我""]","","","","","","","","nonmatch","","","","","","","","","","key","f","16.667675925925895","768","428","j","false","match","img/pentagon.png","坏我","坏我","prac_ALT2_moral","practice_moral","","","","","","","",""
"null","<span style='color:red; font-size: 70px;'>错误! </span>","null","html-keyboard-response","11","392852","0.0-8.0-0.0-1.0-0.0-1.0","6","5","6","4","4","5","3","5","5","5","5","2","1","0","2","0","1","2","1","5","5","5","5","4","4","4","3","4","4","7","7","6","7","5","8","6","6","8","5","5","4","6","5","4","4","7","5","4","4","3","4","3","5","4","5","4","2","7","3","4","3","5","6","6","5","7","7","7","7","6","6","6","4","6","7","6","5","6","734083981330616322","邓","667","Male","[""坏他"",""好我"",""好他"",""坏我""]","[""弱他"",""强我"",""强他"",""弱我""]","","","","","","","","","","","","","","","","","","","","","","","","","","","","","","feedback_test","","","","","","","",""
"797","","f","psychophysics","12","394655","0.0-8.0-0.0-1.0-0.0-0.1","6","5","6","4","4","5","3","5","5","5","5","2","1","0","2","0","1","2","1","5","5","5","5","4","4","4","3","4","4","7","7","6","7","5","8","6","6","8","5","5","4","6","5","4","4","7","5","4","4","3","4","3","5","4","5","4","2","7","3","4","3","5","6","6","5","7","7","7","7","6","6","6","4","6","7","6","5","6","734083981330616322","邓","667","Male","[""坏他"",""好我"",""好他"",""坏我""]","[""弱他"",""强我"",""强他"",""弱我""]","","","","","","","","nonmatch","","","","","","","","","","key","f","16.665364485981474","768","428","f","true","nonmatch","img/pentagon.png","好他","坏我","prac_ALT2_moral","practice_moral","","","","","","","",""
"null","<span style='color:GreenYellow; font-size: 70px;'>正确! </span>","null","html-keyboard-response","13","395157","0.0-8.0-0.0-1.0-0.0-1.1","6","5","6","4","4","5","3","5","5","5","5","2","1","0","2","0","1","2","1","5","5","5","5","4","4","4","3","4","4","7","7","6","7","5","8","6","6","8","5","5","4","6","5","4","4","7","5","4","4","3","4","3","5","4","5","4","2","7","3","4","3","5","6","6","5","7","7","7","7","6","6","6","4","6","7","6","5","6","734083981330616322","邓","667","Male","[""坏他"",""好我"",""好他"",""坏我""]","[""弱他"",""强我"",""强他"",""弱我""]","","","","","","","","","","","","","","","","","","","","","","","","","","","","","","feedback_test","","","","","","","",""
"751","","f","psychophysics","14","396913","0.0-8.0-0.0-1.0-0.0-0.2","6","5","6","4","4","5","3","5","5","5","5","2","1","0","2","0","1","2","1","5","5","5","5","4","4","4","3","4","4","7","7","6","7","5","8","6","6","8","5","5","4","6","5","4","4","7","5","4","4","3","4","3","5","4","5","4","2","7","3","4","3","5","6","6","5","7","7","7","7","6","6","6","4","6","7","6","5","6","734083981330616322","邓","667","Male","[""坏他"",""好我"",""好他"",""坏我""]","[""弱他"",""强我"",""强他"",""弱我""]","","","","","","","","nonmatch","","","","","","","","","","key","f","16.66535576923119","768","428","f","true","nonmatch","img/trapezoid.png","好他","坏他","prac_ALT2_moral","practice_moral","","","","","","","",""
"null","<span style='color:GreenYellow; font-size: 70px;'>正确! </span>","null","html-keyboard-response","15","397417","0.0-8.0-0.0-1.0-0.0-1.2","6","5","6","4","4","5","3","5","5","5","5","2","1","0","2","0","1","2","1","5","5","5","5","4","4","4","3","4","4","7","7","6","7","5","8","6","6","8","5","5","4","6","5","4","4","7","5","4","4","3","4","3","5","4","5","4","2","7","3","4","3","5","6","6","5","7","7","7","7","6","6","6","4","6","7","6","5","6","734083981330616322","邓","667","Male","[""坏他"",""好我"",""好他"",""坏我""]","[""弱他"",""强我"",""强他"",""弱我""]","","","","","","","","","","","","","","","","","","","","","","","","","","","","","","feedback_test","","","","","","","",""
"629","","f","psychophysics","16","399050","0.0-8.0-0.0-1.0-0.0-0.3","6","5","6","4","4","5","3","5","5","5","5","2","1","0","2","0","1","2","1","5","5","5","5","4","4","4","3","4","4","7","7","6","7","5","8","6","6","8","5","5","4","6","5","4","4","7","5","4","4","3","4","3","5","4","5","4","2","7","3","4","3","5","6","6","5","7","7","7","7","6","6","6","4","6","7","6","5","6","734083981330616322","邓","667","Male","[""坏他"",""好我"",""好他"",""坏我""]","[""弱他"",""强我"",""强他"",""弱我""]","","","","","","","","nonmatch","","","","","","","","","","key","f","16.667278350515115","768","428","f","true","nonmatch","img/trapezoid.png","好我","坏他","prac_ALT2_moral","practice_moral","","","","","","","",""
"null","<span style='color:GreenYellow; font-size: 70px;'>正确! </span>","null","html-keyboard-response","17","399554","0.0-8.0-0.0-1.0-0.0-1.3","6","5","6","4","4","5","3","5","5","5","5","2","1","0","2","0","1","2","1","5","5","5","5","4","4","4","3","4","4","7","7","6","7","5","8","6","6","8","5","5","4","6","5","4","4","7","5","4","4","3","4","3","5","4","5","4","2","7","3","4","3","5","6","6","5","7","7","7","7","6","6","6","4","6","7","6","5","6","734083981330616322","邓","667","Male","[""坏他"",""好我"",""好他"",""坏我""]","[""弱他"",""强我"",""强他"",""弱我""]","","","","","","","","","","","","","","","","","","","","","","","","","","","","","","feedback_test","","","","","","","",""
"502","","f","psychophysics","18","401063","0.0-8.0-0.0-1.0-0.0-0.4","6","5","6","4","4","5","3","5","5","5","5","2","1","0","2","0","1","2","1","5","5","5","5","4","4","4","3","4","4","7","7","6","7","5","8","6","6","8","5","5","4","6","5","4","4","7","5","4","4","3","4","3","5","4","5","4","2","7","3","4","3","5","6","6","5","7","7","7","7","6","6","6","4","6","7","6","5","6","734083981330616322","邓","667","Male","[""坏他"",""好我"",""好他"",""坏我""]","[""弱他"",""强我"",""强他"",""弱我""]","","","","","","","","nonmatch","","","","","","","","","","key","f","16.668550561797634","768","428","j","false","match","img/triangle.png","好他","好他","prac_ALT2_moral","practice_moral","","","","","","","",""
"null","<span style='color:red; font-size: 70px;'>错误! </span>","null","html-keyboard-response","19","401567","0.0-8.0-0.0-1.0-0.0-1.4","6","5","6","4","4","5","3","5","5","5","5","2","1","0","2","0","1","2","1","5","5","5","5","4","4","4","3","4","4","7","7","6","7","5","8","6","6","8","5","5","4","6","5","4","4","7","5","4","4","3","4","3","5","4","5","4","2","7","3","4","3","5","6","6","5","7","7","7","7","6","6","6","4","6","7","6","5","6","734083981330616322","邓","667","Male","[""坏他"",""好我"",""好他"",""坏我""]","[""弱他"",""强我"",""强他"",""弱我""]","","","","","","","","","","","","","","","","","","","","","","","","","","","","","","feedback_test","","","","","","","",""
"620","","f","psychophysics","20","403192","0.0-8.0-0.0-1.0-0.0-0.5","6","5","6","4","4","5","3","5","5","5","5","2","1","0","2","0","1","2","1","5","5","5","5","4","4","4","3","4","4","7","7","6","7","5","8","6","6","8","5","5","4","6","5","4","4","7","5","4","4","3","4","3","5","4","5","4","2","7","3","4","3","5","6","6","5","7","7","7","7","6","6","6","4","6","7","6","5","6","734083981330616322","邓","667","Male","[""坏他"",""好我"",""好他"",""坏我""]","[""弱他"",""强我"",""强他"",""弱我""]","","","","","","","","nonmatch","","","","","","","","","","key","f","16.668041666666493","768","428","j","false","match","img/pentagon.png","坏我","坏我","prac_ALT2_moral","practice_moral","","","","","","","",""
"null","<span style='color:red; font-size: 70px;'>错误! </span>","null","html-keyboard-response","21","403696","0.0-8.0-0.0-1.0-0.0-1.5","6","5","6","4","4","5","3","5","5","5","5","2","1","0","2","0","1","2","1","5","5","5","5","4","4","4","3","4","4","7","7","6","7","5","8","6","6","8","5","5","4","6","5","4","4","7","5","4","4","3","4","3","5","4","5","4","2","7","3","4","3","5","6","6","5","7","7","7","7","6","6","6","4","6","7","6","5","6","734083981330616322","邓","667","Male","[""坏他"",""好我"",""好他"",""坏我""]","[""弱他"",""强我"",""强他"",""弱我""]","","","","","","","","","","","","","","","","","","","","","","","","","","","","","","feedback_test","","","","","","","",""
"698","","j","psychophysics","22","405398","0.0-8.0-0.0-1.0-0.0-0.6","6","5","6","4","4","5","3","5","5","5","5","2","1","0","2","0","1","2","1","5","5","5","5","4","4","4","3","4","4","7","7","6","7","5","8","6","6","8","5","5","4","6","5","4","4","7","5","4","4","3","4","3","5","4","5","4","2","7","3","4","3","5","6","6","5","7","7","7","7","6","6","6","4","6","7","6","5","6","734083981330616322","邓","667","Male","[""坏他"",""好我"",""好他"",""坏我""]","[""弱他"",""强我"",""强他"",""弱我""]","","","","","","","","match","","","","","","","","","","key","j","16.666277227722716","768","428","f","false","nonmatch","img/ellipse.png","坏他","好我","prac_ALT2_moral","practice_moral","","","","","","","",""
"null","<span style='color:red; font-size: 70px;'>错误! </span>","null","html-keyboard-response","23","405900","0.0-8.0-0.0-1.0-0.0-1.6","6","5","6","4","4","5","3","5","5","5","5","2","1","0","2","0","1","2","1","5","5","5","5","4","4","4","3","4","4","7","7","6","7","5","8","6","6","8","5","5","4","6","5","4","4","7","5","4","4","3","4","3","5","4","5","4","2","7","3","4","3","5","6","6","5","7","7","7","7","6","6","6","4","6","7","6","5","6","734083981330616322","邓","667","Male","[""坏他"",""好我"",""好他"",""坏我""]","[""弱他"",""强我"",""强他"",""弱我""]","","","","","","","","","","","","","","","","","","","","","","","","","","","","","","feedback_test","","","","","","","",""
"1069","","j","psychophysics","24","407972","0.0-8.0-0.0-1.0-0.0-0.7","6","5","6","4","4","5","3","5","5","5","5","2","1","0","2","0","1","2","1","5","5","5","5","4","4","4","3","4","4","7","7","6","7","5","8","6","6","8","5","5","4","6","5","4","4","7","5","4","4","3","4","3","5","4","5","4","2","7","3","4","3","5","6","6","5","7","7","7","7","6","6","6","4","6","7","6","5","6","734083981330616322","邓","667","Male","[""坏他"",""好我"",""好他"",""坏我""]","[""弱他"",""强我"",""强他"",""弱我""]","","","","","","","","match","","","","","","","","","","key","j","16.66835772357758","768","428","f","false","nonmatch","img/ellipse.png","好他","好我","prac_ALT2_moral","practice_moral","","","","","","","",""
"null","<span style='color:red; font-size: 70px;'>错误! </span>","null","html-keyboard-response","25","408477","0.0-8.0-0.0-1.0-0.0-1.7","6","5","6","4","4","5","3","5","5","5","5","2","1","0","2","0","1","2","1","5","5","5","5","4","4","4","3","4","4","7","7","6","7","5","8","6","6","8","5","5","4","6","5","4","4","7","5","4","4","3","4","3","5","4","5","4","2","7","3","4","3","5","6","6","5","7","7","7","7","6","6","6","4","6","7","6","5","6","734083981330616322","邓","667","Male","[""坏他"",""好我"",""好他"",""坏我""]","[""弱他"",""强我"",""强他"",""弱我""]","","","","","","","","","","","","","","","","","","","","","","","","","","","","","","feedback_test","","","","","","","",""
"1029","","f","psychophysics","26","410520","0.0-8.0-0.0-1.0-0.0-0.8","6","5","6","4","4","5","3","5","5","5","5","2","1","0","2","0","1","2","1","5","5","5","5","4","4","4","3","4","4","7","7","6","7","5","8","6","6","8","5","5","4","6","5","4","4","7","5","4","4","3","4","3","5","4","5","4","2","7","3","4","3","5","6","6","5","7","7","7","7","6","6","6","4","6","7","6","5","6","734083981330616322","邓","667","Male","[""坏他"",""好我"",""好他"",""坏我""]","[""弱他"",""强我"",""强他"",""弱我""]","","","","","","","","nonmatch","","","","","","","","","","key","f","16.66571074380195","768","428","f","true","nonmatch","img/triangle.png","坏我","好他","prac_ALT2_moral","practice_moral","","","","","","","",""
"null","<span style='color:GreenYellow; font-size: 70px;'>正确! </span>","null","html-keyboard-response","27","411022","0.0-8.0-0.0-1.0-0.0-1.8","6","5","6","4","4","5","3","5","5","5","5","2","1","0","2","0","1","2","1","5","5","5","5","4","4","4","3","4","4","7","7","6","7","5","8","6","6","8","5","5","4","6","5","4","4","7","5","4","4","3","4","3","5","4","5","4","2","7","3","4","3","5","6","6","5","7","7","7","7","6","6","6","4","6","7","6","5","6","734083981330616322","邓","667","Male","[""坏他"",""好我"",""好他"",""坏我""]","[""弱他"",""强我"",""强他"",""弱我""]","","","","","","","","","","","","","","","","","","","","","","","","","","","","","","feedback_test","","","","","","","",""
"1018","","f","psychophysics","28","413045","0.0-8.0-0.0-1.0-0.0-0.9","6","5","6","4","4","5","3","5","5","5","5","2","1","0","2","0","1","2","1","5","5","5","5","4","4","4","3","4","4","7","7","6","7","5","8","6","6","8","5","5","4","6","5","4","4","7","5","4","4","3","4","3","5","4","5","4","2","7","3","4","3","5","6","6","5","7","7","7","7","6","6","6","4","6","7","6","5","6","734083981330616322","邓","667","Male","[""坏他"",""好我"",""好他"",""坏我""]","[""弱他"",""强我"",""强他"",""弱我""]","","","","","","","","nonmatch","","","","","","","","","","key","f","16.668741666666754","768","428","f","true","nonmatch","img/trapezoid.png","坏我","坏他","prac_ALT2_moral","practice_moral","","","","","","","",""
"null","<span style='color:GreenYellow; font-size: 70px;'>正确! </span>","null","html-keyboard-response","29","413549","0.0-8.0-0.0-1.0-0.0-1.9","6","5","6","4","4","5","3","5","5","5","5","2","1","0","2","0","1","2","1","5","5","5","5","4","4","4","3","4","4","7","7","6","7","5","8","6","6","8","5","5","4","6","5","4","4","7","5","4","4","3","4","3","5","4","5","4","2","7","3","4","3","5","6","6","5","7","7","7","7","6","6","6","4","6","7","6","5","6","734083981330616322","邓","667","Male","[""坏他"",""好我"",""好他"",""坏我""]","[""弱他"",""强我"",""强他"",""弱我""]","","","","","","","","","","","","","","","","","","","","","","","","","","","","","","feedback_test","","","","","","","",""
"853","","f","psychophysics","30","415406","0.0-8.0-0.0-1.0-0.0-0.10","6","5","6","4","4","5","3","5","5","5","5","2","1","0","2","0","1","2","1","5","5","5","5","4","4","4","3","4","4","7","7","6","7","5","8","6","6","8","5","5","4","6","5","4","4","7","5","4","4","3","4","3","5","4","5","4","2","7","3","4","3","5","6","6","5","7","7","7","7","6","6","6","4","6","7","6","5","6","734083981330616322","邓","667","Male","[""坏他"",""好我"",""好他"",""坏我""]","[""弱他"",""强我"",""强他"",""弱我""]","","","","","","","","nonmatch","","","","","","","","","","key","f","16.66722727272691","768","428","j","false","match","img/trapezoid.png","坏他","坏他","prac_ALT2_moral","practice_moral","","","","","","","",""
"null","<span style='color:red; font-size: 70px;'>错误! </span>","null","html-keyboard-response","31","415909","0.0-8.0-0.0-1.0-0.0-1.10","6","5","6","4","4","5","3","5","5","5","5","2","1","0","2","0","1","2","1","5","5","5","5","4","4","4","3","4","4","7","7","6","7","5","8","6","6","8","5","5","4","6","5","4","4","7","5","4","4","3","4","3","5","4","5","4","2","7","3","4","3","5","6","6","5","7","7","7","7","6","6","6","4","6","7","6","5","6","734083981330616322","邓","667","Male","[""坏他"",""好我"",""好他"",""坏我""]","[""弱他"",""强我"",""强他"",""弱我""]","","","","","","","","","","","","","","","","","","","","","","","","","","","","","","feedback_test","","","","","","","",""
"1052","","j","psychophysics","32","417965","0.0-8.0-0.0-1.0-0.0-0.11","6","5","6","4","4","5","3","5","5","5","5","2","1","0","2","0","1","2","1","5","5","5","5","4","4","4","3","4","4","7","7","6","7","5","8","6","6","8","5","5","4","6","5","4","4","7","5","4","4","3","4","3","5","4","5","4","2","7","3","4","3","5","6","6","5","7","7","7","7","6","6","6","4","6","7","6","5","6","734083981330616322","邓","667","Male","[""坏他"",""好我"",""好他"",""坏我""]","[""弱他"",""强我"",""强他"",""弱我""]","","","","","","","","match","","","","","","","","","","key","j","16.667377049180196","768","428","f","false","nonmatch","img/triangle.png","好我","好他","prac_ALT2_moral","practice_moral","","","","","","","",""
"null","<span style='color:red; font-size: 70px;'>错误! </span>","null","html-keyboard-response","33","418469","0.0-8.0-0.0-1.0-0.0-1.11","6","5","6","4","4","5","3","5","5","5","5","2","1","0","2","0","1","2","1","5","5","5","5","4","4","4","3","4","4","7","7","6","7","5","8","6","6","8","5","5","4","6","5","4","4","7","5","4","4","3","4","3","5","4","5","4","2","7","3","4","3","5","6","6","5","7","7","7","7","6","6","6","4","6","7","6","5","6","734083981330616322","邓","667","Male","[""坏他"",""好我"",""好他"",""坏我""]","[""弱他"",""强我"",""强他"",""弱我""]","","","","","","","","","","","","","","","","","","","","","","","","","","","","","","feedback_test","","","","","","","",""
"null","","null","psychophysics","34","420680","0.0-8.0-0.0-1.0-0.0-0.12","6","5","6","4","4","5","3","5","5","5","5","2","1","0","2","0","1","2","1","5","5","5","5","4","4","4","3","4","4","7","7","6","7","5","8","6","6","8","5","5","4","6","5","4","4","7","5","4","4","3","4","3","5","4","5","4","2","7","3","4","3","5","6","6","5","7","7","7","7","6","6","6","4","6","7","6","5","6","734083981330616322","邓","667","Male","[""坏他"",""好我"",""好他"",""坏我""]","[""弱他"",""强我"",""强他"",""弱我""]","","","","","","","","null","","","","","","","","","","key","null","16.666795454545397","768","428","j","false","match","img/pentagon.png","坏我","坏我","prac_ALT2_moral","practice_moral","","","","","","","",""
"null","<span class='add_' style='color:yellow; font-size: 70px;'> 太慢! </span>","null","html-keyboard-response","35","421183","0.0-8.0-0.0-1.0-0.0-1.12","6","5","6","4","4","5","3","5","5","5","5","2","1","0","2","0","1","2","1","5","5","5","5","4","4","4","3","4","4","7","7","6","7","5","8","6","6","8","5","5","4","6","5","4","4","7","5","4","4","3","4","3","5","4","5","4","2","7","3","4","3","5","6","6","5","7","7","7","7","6","6","6","4","6","7","6","5","6","734083981330616322","邓","667","Male","[""坏他"",""好我"",""好他"",""坏我""]","[""弱他"",""强我"",""强他"",""弱我""]","","","","","","","","","","","","","","","","","","","","","","","","","","","","","","feedback_test","","","","","","","",""
"925","","f","psychophysics","36","423110","0.0-8.0-0.0-1.0-0.0-0.13","6","5","6","4","4","5","3","5","5","5","5","2","1","0","2","0","1","2","1","5","5","5","5","4","4","4","3","4","4","7","7","6","7","5","8","6","6","8","5","5","4","6","5","4","4","7","5","4","4","3","4","3","5","4","5","4","2","7","3","4","3","5","6","6","5","7","7","7","7","6","6","6","4","6","7","6","5","6","734083981330616322","邓","667","Male","[""坏他"",""好我"",""好他"",""坏我""]","[""弱他"",""强我"",""强他"",""弱我""]","","","","","","","","nonmatch","","","","","","","","","","key","f","16.667113043478203","768","428","f","true","nonmatch","img/pentagon.png","坏他","坏我","prac_ALT2_moral","practice_moral","","","","","","","",""
"null","<span style='color:GreenYellow; font-size: 70px;'>正确! </span>","null","html-keyboard-response","37","423614","0.0-8.0-0.0-1.0-0.0-1.13","6","5","6","4","4","5","3","5","5","5","5","2","1","0","2","0","1","2","1","5","5","5","5","4","4","4","3","4","4","7","7","6","7","5","8","6","6","8","5","5","4","6","5","4","4","7","5","4","4","3","4","3","5","4","5","4","2","7","3","4","3","5","6","6","5","7","7","7","7","6","6","6","4","6","7","6","5","6","734083981330616322","邓","667","Male","[""坏他"",""好我"",""好他"",""坏我""]","[""弱他"",""强我"",""强他"",""弱我""]","","","","","","","","","","","","","","","","","","","","","","","","","","","","","","feedback_test","","","","","","","",""
"909","","j","psychophysics","38","425529","0.0-8.0-0.0-1.0-0.0-0.14","6","5","6","4","4","5","3","5","5","5","5","2","1","0","2","0","1","2","1","5","5","5","5","4","4","4","3","4","4","7","7","6","7","5","8","6","6","8","5","5","4","6","5","4","4","7","5","4","4","3","4","3","5","4","5","4","2","7","3","4","3","5","6","6","5","7","7","7","7","6","6","6","4","6","7","6","5","6","734083981330616322","邓","667","Male","[""坏他"",""好我"",""好他"",""坏我""]","[""弱他"",""强我"",""强他"",""弱我""]","","","","","","","","match","","","","","","","","","","key","j","16.666298245613895","768","428","j","true","match","img/ellipse.png","好我","好我","prac_ALT2_moral","practice_moral","","","","","","","",""
"null","<span style='color:GreenYellow; font-size: 70px;'>正确! </span>","null","html-keyboard-response","39","426033","0.0-8.0-0.0-1.0-0.0-1.14","6","5","6","4","4","5","3","5","5","5","5","2","1","0","2","0","1","2","1","5","5","5","5","4","4","4","3","4","4","7","7","6","7","5","8","6","6","8","5","5","4","6","5","4","4","7","5","4","4","3","4","3","5","4","5","4","2","7","3","4","3","5","6","6","5","7","7","7","7","6","6","6","4","6","7","6","5","6","734083981330616322","邓","667","Male","[""坏他"",""好我"",""好他"",""坏我""]","[""弱他"",""强我"",""强他"",""弱我""]","","","","","","","","","","","","","","","","","","","","","","","","","","","","","","feedback_test","","","","","","","",""
"1058","","f","psychophysics","40","428097","0.0-8.0-0.0-1.0-0.0-0.15","6","5","6","4","4","5","3","5","5","5","5","2","1","0","2","0","1","2","1","5","5","5","5","4","4","4","3","4","4","7","7","6","7","5","8","6","6","8","5","5","4","6","5","4","4","7","5","4","4","3","4","3","5","4","5","4","2","7","3","4","3","5","6","6","5","7","7","7","7","6","6","6","4","6","7","6","5","6","734083981330616322","邓","667","Male","[""坏他"",""好我"",""好他"",""坏我""]","[""弱他"",""强我"",""强他"",""弱我""]","","","","","","","","nonmatch","","","","","","","","","","key","f","16.667325203252076","768","428","j","false","match","img/trapezoid.png","坏他","坏他","prac_ALT2_moral","practice_moral","","","","","","","",""
"null","<span style='color:red; font-size: 70px;'>错误! </span>","null","html-keyboard-response","41","428600","0.0-8.0-0.0-1.0-0.0-1.15","6","5","6","4","4","5","3","5","5","5","5","2","1","0","2","0","1","2","1","5","5","5","5","4","4","4","3","4","4","7","7","6","7","5","8","6","6","8","5","5","4","6","5","4","4","7","5","4","4","3","4","3","5","4","5","4","2","7","3","4","3","5","6","6","5","7","7","7","7","6","6","6","4","6","7","6","5","6","734083981330616322","邓","667","Male","[""坏他"",""好我"",""好他"",""坏我""]","[""弱他"",""强我"",""强他"",""弱我""]","","","","","","","","","","","","","","","","","","","","","","","","","","","","","","feedback_test","","","","","","","",""
"null","","null","psychophysics","42","430809","0.0-8.0-0.0-1.0-0.0-0.16","6","5","6","4","4","5","3","5","5","5","5","2","1","0","2","0","1","2","1","5","5","5","5","4","4","4","3","4","4","7","7","6","7","5","8","6","6","8","5","5","4","6","5","4","4","7","5","4","4","3","4","3","5","4","5","4","2","7","3","4","3","5","6","6","5","7","7","7","7","6","6","6","4","6","7","6","5","6","734083981330616322","邓","667","Male","[""坏他"",""好我"",""好他"",""坏我""]","[""弱他"",""强我"",""强他"",""弱我""]","","","","","","","","null","","","","","","","","","","key","null","16.667272727272852","768","428","f","false","nonmatch","img/ellipse.png","坏我","好我","prac_ALT2_moral","practice_moral","","","","","","","",""
"null","<span class='add_' style='color:yellow; font-size: 70px;'> 太慢! </span>","null","html-keyboard-response","43","431314","0.0-8.0-0.0-1.0-0.0-1.16","6","5","6","4","4","5","3","5","5","5","5","2","1","0","2","0","1","2","1","5","5","5","5","4","4","4","3","4","4","7","7","6","7","5","8","6","6","8","5","5","4","6","5","4","4","7","5","4","4","3","4","3","5","4","5","4","2","7","3","4","3","5","6","6","5","7","7","7","7","6","6","6","4","6","7","6","5","6","734083981330616322","邓","667","Male","[""坏他"",""好我"",""好他"",""坏我""]","[""弱他"",""强我"",""强他"",""弱我""]","","","","","","","","","","","","","","","","","","","","","","","","","","","","","","feedback_test","","","","","","","",""
"1116","","j","psychophysics","44","433434","0.0-8.0-0.0-1.0-0.0-0.17","6","5","6","4","4","5","3","5","5","5","5","2","1","0","2","0","1","2","1","5","5","5","5","4","4","4","3","4","4","7","7","6","7","5","8","6","6","8","5","5","4","6","5","4","4","7","5","4","4","3","4","3","5","4","5","4","2","7","3","4","3","5","6","6","5","7","7","7","7","6","6","6","4","6","7","6","5","6","734083981330616322","邓","667","Male","[""坏他"",""好我"",""好他"",""坏我""]","[""弱他"",""强我"",""强他"",""弱我""]","","","","","","","","match","","","","","","","","","","key","j","16.668104838709922","768","428","f","false","nonmatch","img/triangle.png","坏他","好他","prac_ALT2_moral","practice_moral","","","","","","","",""
"null","<span style='color:red; font-size: 70px;'>错误! </span>","null","html-keyboard-response","45","433937","0.0-8.0-0.0-1.0-0.0-1.17","6","5","6","4","4","5","3","5","5","5","5","2","1","0","2","0","1","2","1","5","5","5","5","4","4","4","3","4","4","7","7","6","7","5","8","6","6","8","5","5","4","6","5","4","4","7","5","4","4","3","4","3","5","4","5","4","2","7","3","4","3","5","6","6","5","7","7","7","7","6","6","6","4","6","7","6","5","6","734083981330616322","邓","667","Male","[""坏他"",""好我"",""好他"",""坏我""]","[""弱他"",""强我"",""强他"",""弱我""]","","","","","","","","","","","","","","","","","","","","","","","","","","","","","","feedback_test","","","","","","","",""
"977","","j","psychophysics","46","435919","0.0-8.0-0.0-1.0-0.0-0.18","6","5","6","4","4","5","3","5","5","5","5","2","1","0","2","0","1","2","1","5","5","5","5","4","4","4","3","4","4","7","7","6","7","5","8","6","6","8","5","5","4","6","5","4","4","7","5","4","4","3","4","3","5","4","5","4","2","7","3","4","3","5","6","6","5","7","7","7","7","6","6","6","4","6","7","6","5","6","734083981330616322","邓","667","Male","[""坏他"",""好我"",""好他"",""坏我""]","[""弱他"",""强我"",""强他"",""弱我""]","","","","","","","","match","","","","","","","","","","key","j","16.666350427350828","768","428","j","true","match","img/triangle.png","好他","好他","prac_ALT2_moral","practice_moral","","","","","","","",""
"null","<span style='color:GreenYellow; font-size: 70px;'>正确! </span>","null","html-keyboard-response","47","436423","0.0-8.0-0.0-1.0-0.0-1.18","6","5","6","4","4","5","3","5","5","5","5","2","1","0","2","0","1","2","1","5","5","5","5","4","4","4","3","4","4","7","7","6","7","5","8","6","6","8","5","5","4","6","5","4","4","7","5","4","4","3","4","3","5","4","5","4","2","7","3","4","3","5","6","6","5","7","7","7","7","6","6","6","4","6","7","6","5","6","734083981330616322","邓","667","Male","[""坏他"",""好我"",""好他"",""坏我""]","[""弱他"",""强我"",""强他"",""弱我""]","","","","","","","","","","","","","","","","","","","","","","","","","","","","","","feedback_test","","","","","","","",""
"823","","j","psychophysics","48","438250","0.0-8.0-0.0-1.0-0.0-0.19","6","5","6","4","4","5","3","5","5","5","5","2","1","0","2","0","1","2","1","5","5","5","5","4","4","4","3","4","4","7","7","6","7","5","8","6","6","8","5","5","4","6","5","4","4","7","5","4","4","3","4","3","5","4","5","4","2","7","3","4","3","5","6","6","5","7","7","7","7","6","6","6","4","6","7","6","5","6","734083981330616322","邓","667","Male","[""坏他"",""好我"",""好他"",""坏我""]","[""弱他"",""强我"",""强他"",""弱我""]","","","","","","","","match","","","","","","","","","","key","j","16.666240740740452","768","428","j","true","match","img/ellipse.png","好我","好我","prac_ALT2_moral","practice_moral","","","","","","","",""
"null","<span style='color:GreenYellow; font-size: 70px;'>正确! </span>","null","html-keyboard-response","49","438753","0.0-8.0-0.0-1.0-0.0-1.19","6","5","6","4","4","5","3","5","5","5","5","2","1","0","2","0","1","2","1","5","5","5","5","4","4","4","3","4","4","7","7","6","7","5","8","6","6","8","5","5","4","6","5","4","4","7","5","4","4","3","4","3","5","4","5","4","2","7","3","4","3","5","6","6","5","7","7","7","7","6","6","6","4","6","7","6","5","6","734083981330616322","邓","667","Male","[""坏他"",""好我"",""好他"",""坏我""]","[""弱他"",""强我"",""强他"",""弱我""]","","","","","","","","","","","","","","","","","","","","","","","","","","","","","","feedback_test","","","","","","","",""
"null","","null","psychophysics","50","440963","0.0-8.0-0.0-1.0-0.0-0.20","6","5","6","4","4","5","3","5","5","5","5","2","1","0","2","0","1","2","1","5","5","5","5","4","4","4","3","4","4","7","7","6","7","5","8","6","6","8","5","5","4","6","5","4","4","7","5","4","4","3","4","3","5","4","5","4","2","7","3","4","3","5","6","6","5","7","7","7","7","6","6","6","4","6","7","6","5","6","734083981330616322","邓","667","Male","[""坏他"",""好我"",""好他"",""坏我""]","[""弱他"",""强我"",""强他"",""弱我""]","","","","","","","","null","","","","","","","","","","key","null","16.66667938931314","768","428","f","false","nonmatch","img/pentagon.png","好我","坏我","prac_ALT2_moral","practice_moral","","","","","","","",""
"null","<span class='add_' style='color:yellow; font-size: 70px;'> 太慢! </span>","null","html-keyboard-response","51","441465","0.0-8.0-0.0-1.0-0.0-1.20","6","5","6","4","4","5","3","5","5","5","5","2","1","0","2","0","1","2","1","5","5","5","5","4","4","4","3","4","4","7","7","6","7","5","8","6","6","8","5","5","4","6","5","4","4","7","5","4","4","3","4","3","5","4","5","4","2","7","3","4","3","5","6","6","5","7","7","7","7","6","6","6","4","6","7","6","5","6","734083981330616322","邓","667","Male","[""坏他"",""好我"",""好他"",""坏我""]","[""弱他"",""强我"",""强他"",""弱我""]","","","","","","","","","","","","","","","","","","","","","","","","","","","","","","feedback_test","","","","","","","",""
"1100","","j","psychophysics","52","443569","0.0-8.0-0.0-1.0-0.0-0.21","6","5","6","4","4","5","3","5","5","5","5","2","1","0","2","0","1","2","1","5","5","5","5","4","4","4","3","4","4","7","7","6","7","5","8","6","6","8","5","5","4","6","5","4","4","7","5","4","4","3","4","3","5","4","5","4","2","7","3","4","3","5","6","6","5","7","7","7","7","6","6","6","4","6","7","6","5","6","734083981330616322","邓","667","Male","[""坏他"",""好我"",""好他"",""坏我""]","[""弱他"",""强我"",""强他"",""弱我""]","","","","","","","","match","","","","","","","","","","key","j","16.66691200000001","768","428","j","true","match","img/triangle.png","好他","好他","prac_ALT2_moral","practice_moral","","","","","","","",""
"null","<span style='color:GreenYellow; font-size: 70px;'>正确! </span>","null","html-keyboard-response","53","444074","0.0-8.0-0.0-1.0-0.0-1.21","6","5","6","4","4","5","3","5","5","5","5","2","1","0","2","0","1","2","1","5","5","5","5","4","4","4","3","4","4","7","7","6","7","5","8","6","6","8","5","5","4","6","5","4","4","7","5","4","4","3","4","3","5","4","5","4","2","7","3","4","3","5","6","6","5","7","7","7","7","6","6","6","4","6","7","6","5","6","734083981330616322","邓","667","Male","[""坏他"",""好我"",""好他"",""坏我""]","[""弱他"",""强我"",""强他"",""弱我""]","","","","","","","","","","","","","","","","","","","","","","","","","","","","","","feedback_test","","","","","","","",""
"869","","j","psychophysics","54","445946","0.0-8.0-0.0-1.0-0.0-0.22","6","5","6","4","4","5","3","5","5","5","5","2","1","0","2","0","1","2","1","5","5","5","5","4","4","4","3","4","4","7","7","6","7","5","8","6","6","8","5","5","4","6","5","4","4","7","5","4","4","3","4","3","5","4","5","4","2","7","3","4","3","5","6","6","5","7","7","7","7","6","6","6","4","6","7","6","5","6","734083981330616322","邓","667","Male","[""坏他"",""好我"",""好他"",""坏我""]","[""弱他"",""强我"",""强他"",""弱我""]","","","","","","","","match","","","","","","","","","","key","j","16.666954954954488","768","428","j","true","match","img/ellipse.png","好我","好我","prac_ALT2_moral","practice_moral","","","","","","","",""
"null","<span style='color:GreenYellow; font-size: 70px;'>正确! </span>","null","html-keyboard-response","55","446449","0.0-8.0-0.0-1.0-0.0-1.22","6","5","6","4","4","5","3","5","5","5","5","2","1","0","2","0","1","2","1","5","5","5","5","4","4","4","3","4","4","7","7","6","7","5","8","6","6","8","5","5","4","6","5","4","4","7","5","4","4","3","4","3","5","4","5","4","2","7","3","4","3","5","6","6","5","7","7","7","7","6","6","6","4","6","7","6","5","6","734083981330616322","邓","667","Male","[""坏他"",""好我"",""好他"",""坏我""]","[""弱他"",""强我"",""强他"",""弱我""]","","","","","","","","","","","","","","","","","","","","","","","","","","","","","","feedback_test","","","","","","","",""
"848","","f","psychophysics","56","448301","0.0-8.0-0.0-1.0-0.0-0.23","6","5","6","4","4","5","3","5","5","5","5","2","1","0","2","0","1","2","1","5","5","5","5","4","4","4","3","4","4","7","7","6","7","5","8","6","6","8","5","5","4","6","5","4","4","7","5","4","4","3","4","3","5","4","5","4","2","7","3","4","3","5","6","6","5","7","7","7","7","6","6","6","4","6","7","6","5","6","734083981330616322","邓","667","Male","[""坏他"",""好我"",""好他"",""坏我""]","[""弱他"",""强我"",""强他"",""弱我""]","","","","","","","","nonmatch","","","","","","","","","","key","f","16.6667363636365","768","428","j","false","match","img/trapezoid.png","坏他","坏他","prac_ALT2_moral","practice_moral","","","","","","","",""
"null","<span style='color:red; font-size: 70px;'>错误! </span>","null","html-keyboard-response","57","448805","0.0-8.0-0.0-1.0-0.0-1.23","6","5","6","4","4","5","3","5","5","5","5","2","1","0","2","0","1","2","1","5","5","5","5","4","4","4","3","4","4","7","7","6","7","5","8","6","6","8","5","5","4","6","5","4","4","7","5","4","4","3","4","3","5","4","5","4","2","7","3","4","3","5","6","6","5","7","7","7","7","6","6","6","4","6","7","6","5","6","734083981330616322","邓","667","Male","[""坏他"",""好我"",""好他"",""坏我""]","[""弱他"",""强我"",""强他"",""弱我""]","","","","","","","","","","","","","","","","","","","","","","","","","","","","","","feedback_test","","","","","","","",""
"1113","","f","psychophysics","58","450925","0.0-8.0-0.0-1.0-0.0-0.24","6","5","6","4","4","5","3","5","5","5","5","2","1","0","2","0","1","2","1","5","5","5","5","4","4","4","3","4","4","7","7","6","7","5","8","6","6","8","5","5","4","6","5","4","4","7","5","4","4","3","4","3","5","4","5","4","2","7","3","4","3","5","6","6","5","7","7","7","7","6","6","6","4","6","7","6","5","6","734083981330616322","邓","667","Male","[""坏他"",""好我"",""好他"",""坏我""]","[""弱他"",""强我"",""强他"",""弱我""]","","","","","","","","nonmatch","","","","","","","","","","key","f","16.668738095238083","768","428","j","false","match","img/pentagon.png","坏我","坏我","prac_ALT2_moral","practice_moral","","","","","","","",""
"null","<span style='color:red; font-size: 70px;'>错误! </span>","null","html-keyboard-response","59","451428","0.0-8.0-0.0-1.0-0.0-1.24","6","5","6","4","4","5","3","5","5","5","5","2","1","0","2","0","1","2","1","5","5","5","5","4","4","4","3","4","4","7","7","6","7","5","8","6","6","8","5","5","4","6","5","4","4","7","5","4","4","3","4","3","5","4","5","4","2","7","3","4","3","5","6","6","5","7","7","7","7","6","6","6","4","6","7","6","5","6","734083981330616322","邓","667","Male","[""坏他"",""好我"",""好他"",""坏我""]","[""弱他"",""强我"",""强他"",""弱我""]","","","","","","","","","","","","","","","","","","","","","","","","","","","","","","feedback_test","","","","","","","",""
"790","","j","psychophysics","60","453227","0.0-8.0-0.0-1.0-0.0-0.25","6","5","6","4","4","5","3","5","5","5","5","2","1","0","2","0","1","2","1","5","5","5","5","4","4","4","3","4","4","7","7","6","7","5","8","6","6","8","5","5","4","6","5","4","4","7","5","4","4","3","4","3","5","4","5","4","2","7","3","4","3","5","6","6","5","7","7","7","7","6","6","6","4","6","7","6","5","6","734083981330616322","邓","667","Male","[""坏他"",""好我"",""好他"",""坏我""]","[""弱他"",""强我"",""强他"",""弱我""]","","","","","","","","match","","","","","","","","","","key","j","16.667261682242966","768","428","f","false","nonmatch","img/ellipse.png","好他","好我","prac_ALT2_moral","practice_moral","","","","","","","",""
"null","<span style='color:red; font-size: 70px;'>错误! </span>","null","html-keyboard-response","61","453730","0.0-8.0-0.0-1.0-0.0-1.25","6","5","6","4","4","5","3","5","5","5","5","2","1","0","2","0","1","2","1","5","5","5","5","4","4","4","3","4","4","7","7","6","7","5","8","6","6","8","5","5","4","6","5","4","4","7","5","4","4","3","4","3","5","4","5","4","2","7","3","4","3","5","6","6","5","7","7","7","7","6","6","6","4","6","7","6","5","6","734083981330616322","邓","667","Male","[""坏他"",""好我"",""好他"",""坏我""]","[""弱他"",""强我"",""强他"",""弱我""]","","","","","","","","","","","","","","","","","","","","","","","","","","","","","","feedback_test","","","","","","","",""
"881","","j","psychophysics","62","455615","0.0-8.0-0.0-1.0-0.0-0.26","6","5","6","4","4","5","3","5","5","5","5","2","1","0","2","0","1","2","1","5","5","5","5","4","4","4","3","4","4","7","7","6","7","5","8","6","6","8","5","5","4","6","5","4","4","7","5","4","4","3","4","3","5","4","5","4","2","7","3","4","3","5","6","6","5","7","7","7","7","6","6","6","4","6","7","6","5","6","734083981330616322","邓","667","Male","[""坏他"",""好我"",""好他"",""坏我""]","[""弱他"",""强我"",""强他"",""弱我""]","","","","","","","","match","","","","","","","","","","key","j","16.66659821428558","768","428","j","true","match","img/triangle.png","好他","好他","prac_ALT2_moral","practice_moral","","","","","","","",""
"null","<span style='color:GreenYellow; font-size: 70px;'>正确! </span>","null","html-keyboard-response","63","456118","0.0-8.0-0.0-1.0-0.0-1.26","6","5","6","4","4","5","3","5","5","5","5","2","1","0","2","0","1","2","1","5","5","5","5","4","4","4","3","4","4","7","7","6","7","5","8","6","6","8","5","5","4","6","5","4","4","7","5","4","4","3","4","3","5","4","5","4","2","7","3","4","3","5","6","6","5","7","7","7","7","6","6","6","4","6","7","6","5","6","734083981330616322","邓","667","Male","[""坏他"",""好我"",""好他"",""坏我""]","[""弱他"",""强我"",""强他"",""弱我""]","","","","","","","","","","","","","","","","","","","","","","","","","","","","","","feedback_test","","","","","","","",""
"1068","","f","psychophysics","64","458192","0.0-8.0-0.0-1.0-0.0-0.27","6","5","6","4","4","5","3","5","5","5","5","2","1","0","2","0","1","2","1","5","5","5","5","4","4","4","3","4","4","7","7","6","7","5","8","6","6","8","5","5","4","6","5","4","4","7","5","4","4","3","4","3","5","4","5","4","2","7","3","4","3","5","6","6","5","7","7","7","7","6","6","6","4","6","7","6","5","6","734083981330616322","邓","667","Male","[""坏他"",""好我"",""好他"",""坏我""]","[""弱他"",""强我"",""强他"",""弱我""]","","","","","","","","nonmatch","","","","","","","","","","key","f","16.661975609756176","768","428","f","true","nonmatch","img/trapezoid.png","好我","坏他","prac_ALT2_moral","practice_moral","","","","","","","",""
"null","<span style='color:GreenYellow; font-size: 70px;'>正确! </span>","null","html-keyboard-response","65","458695","0.0-8.0-0.0-1.0-0.0-1.27","6","5","6","4","4","5","3","5","5","5","5","2","1","0","2","0","1","2","1","5","5","5","5","4","4","4","3","4","4","7","7","6","7","5","8","6","6","8","5","5","4","6","5","4","4","7","5","4","4","3","4","3","5","4","5","4","2","7","3","4","3","5","6","6","5","7","7","7","7","6","6","6","4","6","7","6","5","6","734083981330616322","邓","667","Male","[""坏他"",""好我"",""好他"",""坏我""]","[""弱他"",""强我"",""强他"",""弱我""]","","","","","","","","","","","","","","","","","","","","","","","","","","","","","","feedback_test","","","","","","","",""
"null","","null","psychophysics","66","460909","0.0-8.0-0.0-1.0-0.0-0.28","6","5","6","4","4","5","3","5","5","5","5","2","1","0","2","0","1","2","1","5","5","5","5","4","4","4","3","4","4","7","7","6","7","5","8","6","6","8","5","5","4","6","5","4","4","7","5","4","4","3","4","3","5","4","5","4","2","7","3","4","3","5","6","6","5","7","7","7","7","6","6","6","4","6","7","6","5","6","734083981330616322","邓","667","Male","[""坏他"",""好我"",""好他"",""坏我""]","[""弱他"",""强我"",""强他"",""弱我""]","","","","","","","","null","","","","","","","","","","key","null","16.666318181818387","768","428","f","false","nonmatch","img/pentagon.png","坏他","坏我","prac_ALT2_moral","practice_moral","","","","","","","",""
"null","<span class='add_' style='color:yellow; font-size: 70px;'> 太慢! </span>","null","html-keyboard-response","67","461411","0.0-8.0-0.0-1.0-0.0-1.28","6","5","6","4","4","5","3","5","5","5","5","2","1","0","2","0","1","2","1","5","5","5","5","4","4","4","3","4","4","7","7","6","7","5","8","6","6","8","5","5","4","6","5","4","4","7","5","4","4","3","4","3","5","4","5","4","2","7","3","4","3","5","6","6","5","7","7","7","7","6","6","6","4","6","7","6","5","6","734083981330616322","邓","667","Male","[""坏他"",""好我"",""好他"",""坏我""]","[""弱他"",""强我"",""强他"",""弱我""]","","","","","","","","","","","","","","","","","","","","","","","","","","","","","","feedback_test","","","","","","","",""
"962","","f","psychophysics","68","463378","0.0-8.0-0.0-1.0-0.0-0.29","6","5","6","4","4","5","3","5","5","5","5","2","1","0","2","0","1","2","1","5","5","5","5","4","4","4","3","4","4","7","7","6","7","5","8","6","6","8","5","5","4","6","5","4","4","7","5","4","4","3","4","3","5","4","5","4","2","7","3","4","3","5","6","6","5","7","7","7","7","6","6","6","4","6","7","6","5","6","734083981330616322","邓","667","Male","[""坏他"",""好我"",""好他"",""坏我""]","[""弱他"",""强我"",""强他"",""弱我""]","","","","","","","","nonmatch","","","","","","","","","","key","f","16.668051282051376","768","428","j","false","match","img/trapezoid.png","坏他","坏他","prac_ALT2_moral","practice_moral","","","","","","","",""
"null","<span style='color:red; font-size: 70px;'>错误! </span>","null","html-keyboard-response","69","463880","0.0-8.0-0.0-1.0-0.0-1.29","6","5","6","4","4","5","3","5","5","5","5","2","1","0","2","0","1","2","1","5","5","5","5","4","4","4","3","4","4","7","7","6","7","5","8","6","6","8","5","5","4","6","5","4","4","7","5","4","4","3","4","3","5","4","5","4","2","7","3","4","3","5","6","6","5","7","7","7","7","6","6","6","4","6","7","6","5","6","734083981330616322","邓","667","Male","[""坏他"",""好我"",""好他"",""坏我""]","[""弱他"",""强我"",""强他"",""弱我""]","","","","","","","","","","","","","","","","","","","","","","","","","","","","","","feedback_test","","","","","","","",""
"null","","null","psychophysics","70","466093","0.0-8.0-0.0-1.0-0.0-0.30","6","5","6","4","4","5","3","5","5","5","5","2","1","0","2","0","1","2","1","5","5","5","5","4","4","4","3","4","4","7","7","6","7","5","8","6","6","8","5","5","4","6","5","4","4","7","5","4","4","3","4","3","5","4","5","4","2","7","3","4","3","5","6","6","5","7","7","7","7","6","6","6","4","6","7","6","5","6","734083981330616322","邓","667","Male","[""坏他"",""好我"",""好他"",""坏我""]","[""弱他"",""强我"",""强他"",""弱我""]","","","","","","","","null","","","","","","","","","","key","null","16.66706818181785","768","428","j","false","match","img/trapezoid.png","坏他","坏他","prac_ALT2_moral","practice_moral","","","","","","","",""
"null","<span class='add_' style='color:yellow; font-size: 70px;'> 太慢! </span>","null","html-keyboard-response","71","466596","0.0-8.0-0.0-1.0-0.0-1.30","6","5","6","4","4","5","3","5","5","5","5","2","1","0","2","0","1","2","1","5","5","5","5","4","4","4","3","4","4","7","7","6","7","5","8","6","6","8","5","5","4","6","5","4","4","7","5","4","4","3","4","3","5","4","5","4","2","7","3","4","3","5","6","6","5","7","7","7","7","6","6","6","4","6","7","6","5","6","734083981330616322","邓","667","Male","[""坏他"",""好我"",""好他"",""坏我""]","[""弱他"",""强我"",""强他"",""弱我""]","","","","","","","","","","","","","","","","","","","","","","","","","","","","","","feedback_test","","","","","","","",""
"964","","f","psychophysics","72","468564","0.0-8.0-0.0-1.0-0.0-0.31","6","5","6","4","4","5","3","5","5","5","5","2","1","0","2","0","1","2","1","5","5","5","5","4","4","4","3","4","4","7","7","6","7","5","8","6","6","8","5","5","4","6","5","4","4","7","5","4","4","3","4","3","5","4","5","4","2","7","3","4","3","5","6","6","5","7","7","7","7","6","6","6","4","6","7","6","5","6","734083981330616322","邓","667","Male","[""坏他"",""好我"",""好他"",""坏我""]","[""弱他"",""强我"",""强他"",""弱我""]","","","","","","","","nonmatch","","","","","","","","","","key","f","16.666777777777583","768","428","f","true","nonmatch","img/trapezoid.png","好他","坏他","prac_ALT2_moral","practice_moral","","","","","","","",""
"null","<span style='color:GreenYellow; font-size: 70px;'>正确! </span>","null","html-keyboard-response","73","469066","0.0-8.0-0.0-1.0-0.0-1.31","6","5","6","4","4","5","3","5","5","5","5","2","1","0","2","0","1","2","1","5","5","5","5","4","4","4","3","4","4","7","7","6","7","5","8","6","6","8","5","5","4","6","5","4","4","7","5","4","4","3","4","3","5","4","5","4","2","7","3","4","3","5","6","6","5","7","7","7","7","6","6","6","4","6","7","6","5","6","734083981330616322","邓","667","Male","[""坏他"",""好我"",""好他"",""坏我""]","[""弱他"",""强我"",""强他"",""弱我""]","","","","","","","","","","","","","","","","","","","","","","","","","","","","","","feedback_test","","","","","","","",""
"975","","f","psychophysics","74","471050","0.0-8.0-0.0-1.0-0.0-0.32","6","5","6","4","4","5","3","5","5","5","5","2","1","0","2","0","1","2","1","5","5","5","5","4","4","4","3","4","4","7","7","6","7","5","8","6","6","8","5","5","4","6","5","4","4","7","5","4","4","3","4","3","5","4","5","4","2","7","3","4","3","5","6","6","5","7","7","7","7","6","6","6","4","6","7","6","5","6","734083981330616322","邓","667","Male","[""坏他"",""好我"",""好他"",""坏我""]","[""弱他"",""强我"",""强他"",""弱我""]","","","","","","","","nonmatch","","","","","","","","","","key","f","16.66777118644036","768","428","j","false","match","img/pentagon.png","坏我","坏我","prac_ALT2_moral","practice_moral","","","","","","","",""
"null","<span style='color:red; font-size: 70px;'>错误! </span>","null","html-keyboard-response","75","471554","0.0-8.0-0.0-1.0-0.0-1.32","6","5","6","4","4","5","3","5","5","5","5","2","1","0","2","0","1","2","1","5","5","5","5","4","4","4","3","4","4","7","7","6","7","5","8","6","6","8","5","5","4","6","5","4","4","7","5","4","4","3","4","3","5","4","5","4","2","7","3","4","3","5","6","6","5","7","7","7","7","6","6","6","4","6","7","6","5","6","734083981330616322","邓","667","Male","[""坏他"",""好我"",""好他"",""坏我""]","[""弱他"",""强我"",""强他"",""弱我""]","","","","","","","","","","","","","","","","","","","","","","","","","","","","","","feedback_test","","","","","","","",""
"1123","","f","psychophysics","76","473683","0.0-8.0-0.0-1.0-0.0-0.33","6","5","6","4","4","5","3","5","5","5","5","2","1","0","2","0","1","2","1","5","5","5","5","4","4","4","3","4","4","7","7","6","7","5","8","6","6","8","5","5","4","6","5","4","4","7","5","4","4","3","4","3","5","4","5","4","2","7","3","4","3","5","6","6","5","7","7","7","7","6","6","6","4","6","7","6","5","6","734083981330616322","邓","667","Male","[""坏他"",""好我"",""好他"",""坏我""]","[""弱他"",""强我"",""强他"",""弱我""]","","","","","","","","nonmatch","","","","","","","","","","key","f","16.66745238095228","768","428","f","true","nonmatch","img/pentagon.png","好他","坏我","prac_ALT2_moral","practice_moral","","","","","","","",""
"null","<span style='color:GreenYellow; font-size: 70px;'>正确! </span>","null","html-keyboard-response","77","474187","0.0-8.0-0.0-1.0-0.0-1.33","6","5","6","4","4","5","3","5","5","5","5","2","1","0","2","0","1","2","1","5","5","5","5","4","4","4","3","4","4","7","7","6","7","5","8","6","6","8","5","5","4","6","5","4","4","7","5","4","4","3","4","3","5","4","5","4","2","7","3","4","3","5","6","6","5","7","7","7","7","6","6","6","4","6","7","6","5","6","734083981330616322","邓","667","Male","[""坏他"",""好我"",""好他"",""坏我""]","[""弱他"",""强我"",""强他"",""弱我""]","","","","","","","","","","","","","","","","","","","","","","","","","","","","","","feedback_test","","","","","","","",""
"1030","","f","psychophysics","78","476221","0.0-8.0-0.0-1.0-0.0-0.34","6","5","6","4","4","5","3","5","5","5","5","2","1","0","2","0","1","2","1","5","5","5","5","4","4","4","3","4","4","7","7","6","7","5","8","6","6","8","5","5","4","6","5","4","4","7","5","4","4","3","4","3","5","4","5","4","2","7","3","4","3","5","6","6","5","7","7","7","7","6","6","6","4","6","7","6","5","6","734083981330616322","邓","667","Male","[""坏他"",""好我"",""好他"",""坏我""]","[""弱他"",""强我"",""强他"",""弱我""]","","","","","","","","nonmatch","","","","","","","","","","key","f","16.666899999999927","768","428","f","true","nonmatch","img/trapezoid.png","坏我","坏他","prac_ALT2_moral","practice_moral","","","","","","","",""
"null","<span style='color:GreenYellow; font-size: 70px;'>正确! </span>","null","html-keyboard-response","79","476723","0.0-8.0-0.0-1.0-0.0-1.34","6","5","6","4","4","5","3","5","5","5","5","2","1","0","2","0","1","2","1","5","5","5","5","4","4","4","3","4","4","7","7","6","7","5","8","6","6","8","5","5","4","6","5","4","4","7","5","4","4","3","4","3","5","4","5","4","2","7","3","4","3","5","6","6","5","7","7","7","7","6","6","6","4","6","7","6","5","6","734083981330616322","邓","667","Male","[""坏他"",""好我"",""好他"",""坏我""]","[""弱他"",""强我"",""强他"",""弱我""]","","","","","","","","","","","","","","","","","","","","","","","","","","","","","","feedback_test","","","","","","","",""
"1191","","j","psychophysics","80","478918","0.0-8.0-0.0-1.0-0.0-0.35","6","5","6","4","4","5","3","5","5","5","5","2","1","0","2","0","1","2","1","5","5","5","5","4","4","4","3","4","4","7","7","6","7","5","8","6","6","8","5","5","4","6","5","4","4","7","5","4","4","3","4","3","5","4","5","4","2","7","3","4","3","5","6","6","5","7","7","7","7","6","6","6","4","6","7","6","5","6","734083981330616322","邓","667","Male","[""坏他"",""好我"",""好他"",""坏我""]","[""弱他"",""强我"",""强他"",""弱我""]","","","","","","","","match","","","","","","","","","","key","j","16.66679999999962","768","428","j","true","match","img/trapezoid.png","坏他","坏他","prac_ALT2_moral","practice_moral","","","","","","","",""
"null","<span style='color:GreenYellow; font-size: 70px;'>正确! </span>","null","html-keyboard-response","81","479422","0.0-8.0-0.0-1.0-0.0-1.35","6","5","6","4","4","5","3","5","5","5","5","2","1","0","2","0","1","2","1","5","5","5","5","4","4","4","3","4","4","7","7","6","7","5","8","6","6","8","5","5","4","6","5","4","4","7","5","4","4","3","4","3","5","4","5","4","2","7","3","4","3","5","6","6","5","7","7","7","7","6","6","6","4","6","7","6","5","6","734083981330616322","邓","667","Male","[""坏他"",""好我"",""好他"",""坏我""]","[""弱他"",""强我"",""强他"",""弱我""]","","","","","","","","","","","","","","","","","","","","","","","","","","","","","","feedback_test","","","","","","","",""
"903","","j","psychophysics","82","481329","0.0-8.0-0.0-1.0-0.0-0.36","6","5","6","4","4","5","3","5","5","5","5","2","1","0","2","0","1","2","1","5","5","5","5","4","4","4","3","4","4","7","7","6","7","5","8","6","6","8","5","5","4","6","5","4","4","7","5","4","4","3","4","3","5","4","5","4","2","7","3","4","3","5","6","6","5","7","7","7","7","6","6","6","4","6","7","6","5","6","734083981330616322","邓","667","Male","[""坏他"",""好我"",""好他"",""坏我""]","[""弱他"",""强我"",""强他"",""弱我""]","","","","","","","","match","","","","","","","","","","key","j","16.66685840707948","768","428","j","true","match","img/ellipse.png","好我","好我","prac_ALT2_moral","practice_moral","","","","","","","",""
"null","<span style='color:GreenYellow; font-size: 70px;'>正确! </span>","null","html-keyboard-response","83","481832","0.0-8.0-0.0-1.0-0.0-1.36","6","5","6","4","4","5","3","5","5","5","5","2","1","0","2","0","1","2","1","5","5","5","5","4","4","4","3","4","4","7","7","6","7","5","8","6","6","8","5","5","4","6","5","4","4","7","5","4","4","3","4","3","5","4","5","4","2","7","3","4","3","5","6","6","5","7","7","7","7","6","6","6","4","6","7","6","5","6","734083981330616322","邓","667","Male","[""坏他"",""好我"",""好他"",""坏我""]","[""弱他"",""强我"",""强他"",""弱我""]","","","","","","","","","","","","","","","","","","","","","","","","","","","","","","feedback_test","","","","","","","",""
"null","","null","psychophysics","84","484044","0.0-8.0-0.0-1.0-0.0-0.37","6","5","6","4","4","5","3","5","5","5","5","2","1","0","2","0","1","2","1","5","5","5","5","4","4","4","3","4","4","7","7","6","7","5","8","6","6","8","5","5","4","6","5","4","4","7","5","4","4","3","4","3","5","4","5","4","2","7","3","4","3","5","6","6","5","7","7","7","7","6","6","6","4","6","7","6","5","6","734083981330616322","邓","667","Male","[""坏他"",""好我"",""好他"",""坏我""]","[""弱他"",""强我"",""强他"",""弱我""]","","","","","","","","null","","","","","","","","","","key","null","16.66699999999996","768","428","f","false","nonmatch","img/triangle.png","好我","好他","prac_ALT2_moral","practice_moral","","","","","","","",""
"null","<span class='add_' style='color:yellow; font-size: 70px;'> 太慢! </span>","null","html-keyboard-response","85","484546","0.0-8.0-0.0-1.0-0.0-1.37","6","5","6","4","4","5","3","5","5","5","5","2","1","0","2","0","1","2","1","5","5","5","5","4","4","4","3","4","4","7","7","6","7","5","8","6","6","8","5","5","4","6","5","4","4","7","5","4","4","3","4","3","5","4","5","4","2","7","3","4","3","5","6","6","5","7","7","7","7","6","6","6","4","6","7","6","5","6","734083981330616322","邓","667","Male","[""坏他"",""好我"",""好他"",""坏我""]","[""弱他"",""强我"",""强他"",""弱我""]","","","","","","","","","","","","","","","","","","","","","","","","","","","","","","feedback_test","","","","","","","",""
"null","","null","psychophysics","86","486757","0.0-8.0-0.0-1.0-0.0-0.38","6","5","6","4","4","5","3","5","5","5","5","2","1","0","2","0","1","2","1","5","5","5","5","4","4","4","3","4","4","7","7","6","7","5","8","6","6","8","5","5","4","6","5","4","4","7","5","4","4","3","4","3","5","4","5","4","2","7","3","4","3","5","6","6","5","7","7","7","7","6","6","6","4","6","7","6","5","6","734083981330616322","邓","667","Male","[""坏他"",""好我"",""好他"",""坏我""]","[""弱他"",""强我"",""强他"",""弱我""]","","","","","","","","null","","","","","","","","","","key","null","16.66653030303044","768","428","f","false","nonmatch","img/ellipse.png","坏我","好我","prac_ALT2_moral","practice_moral","","","","","","","",""
"null","<span class='add_' style='color:yellow; font-size: 70px;'> 太慢! </span>","null","html-keyboard-response","87","487262","0.0-8.0-0.0-1.0-0.0-1.38","6","5","6","4","4","5","3","5","5","5","5","2","1","0","2","0","1","2","1","5","5","5","5","4","4","4","3","4","4","7","7","6","7","5","8","6","6","8","5","5","4","6","5","4","4","7","5","4","4","3","4","3","5","4","5","4","2","7","3","4","3","5","6","6","5","7","7","7","7","6","6","6","4","6","7","6","5","6","734083981330616322","邓","667","Male","[""坏他"",""好我"",""好他"",""坏我""]","[""弱他"",""强我"",""强他"",""弱我""]","","","","","","","","","","","","","","","","","","","","","","","","","","","","","","feedback_test","","","","","","","",""
"null","","null","psychophysics","88","489468","0.0-8.0-0.0-1.0-0.0-0.39","6","5","6","4","4","5","3","5","5","5","5","2","1","0","2","0","1","2","1","5","5","5","5","4","4","4","3","4","4","7","7","6","7","5","8","6","6","8","5","5","4","6","5","4","4","7","5","4","4","3","4","3","5","4","5","4","2","7","3","4","3","5","6","6","5","7","7","7","7","6","6","6","4","6","7","6","5","6","734083981330616322","邓","667","Male","[""坏他"",""好我"",""好他"",""坏我""]","[""弱他"",""强我"",""强他"",""弱我""]","","","","","","","","null","","","","","","","","","","key","null","16.666931297709606","768","428","f","false","nonmatch","img/pentagon.png","好我","坏我","prac_ALT2_moral","practice_moral","","","","","","","",""
"null","<span class='add_' style='color:yellow; font-size: 70px;'> 太慢! </span>","null","html-keyboard-response","89","489972","0.0-8.0-0.0-1.0-0.0-1.39","6","5","6","4","4","5","3","5","5","5","5","2","1","0","2","0","1","2","1","5","5","5","5","4","4","4","3","4","4","7","7","6","7","5","8","6","6","8","5","5","4","6","5","4","4","7","5","4","4","3","4","3","5","4","5","4","2","7","3","4","3","5","6","6","5","7","7","7","7","6","6","6","4","6","7","6","5","6","734083981330616322","邓","667","Male","[""坏他"",""好我"",""好他"",""坏我""]","[""弱他"",""强我"",""强他"",""弱我""]","","","","","","","","","","","","","","","","","","","","","","","","","","","","","","feedback_test","","","","","","","",""
"null","","null","psychophysics","90","492180","0.0-8.0-0.0-1.0-0.0-0.40","6","5","6","4","4","5","3","5","5","5","5","2","1","0","2","0","1","2","1","5","5","5","5","4","4","4","3","4","4","7","7","6","7","5","8","6","6","8","5","5","4","6","5","4","4","7","5","4","4","3","4","3","5","4","5","4","2","7","3","4","3","5","6","6","5","7","7","7","7","6","6","6","4","6","7","6","5","6","734083981330616322","邓","667","Male","[""坏他"",""好我"",""好他"",""坏我""]","[""弱他"",""强我"",""强他"",""弱我""]","","","","","","","","null","","","","","","","","","","key","null","16.66690076335879","768","428","j","false","match","img/triangle.png","好他","好他","prac_ALT2_moral","practice_moral","","","","","","","",""
"null","<span class='add_' style='color:yellow; font-size: 70px;'> 太慢! </span>","null","html-keyboard-response","91","492684","0.0-8.0-0.0-1.0-0.0-1.40","6","5","6","4","4","5","3","5","5","5","5","2","1","0","2","0","1","2","1","5","5","5","5","4","4","4","3","4","4","7","7","6","7","5","8","6","6","8","5","5","4","6","5","4","4","7","5","4","4","3","4","3","5","4","5","4","2","7","3","4","3","5","6","6","5","7","7","7","7","6","6","6","4","6","7","6","5","6","734083981330616322","邓","667","Male","[""坏他"",""好我"",""好他"",""坏我""]","[""弱他"",""强我"",""强他"",""弱我""]","","","","","","","","","","","","","","","","","","","","","","","","","","","","","","feedback_test","","","","","","","",""
"767","","f","psychophysics","92","494455","0.0-8.0-0.0-1.0-0.0-0.41","6","5","6","4","4","5","3","5","5","5","5","2","1","0","2","0","1","2","1","5","5","5","5","4","4","4","3","4","4","7","7","6","7","5","8","6","6","8","5","5","4","6","5","4","4","7","5","4","4","3","4","3","5","4","5","4","2","7","3","4","3","5","6","6","5","7","7","7","7","6","6","6","4","6","7","6","5","6","734083981330616322","邓","667","Male","[""坏他"",""好我"",""好他"",""坏我""]","[""弱他"",""强我"",""强他"",""弱我""]","","","","","","","","nonmatch","","","","","","","","","","key","f","16.657336538461657","768","428","f","true","nonmatch","img/triangle.png","坏他","好他","prac_ALT2_moral","practice_moral","","","","","","","",""
"null","<span style='color:GreenYellow; font-size: 70px;'>正确! </span>","null","html-keyboard-response","93","494959","0.0-8.0-0.0-1.0-0.0-1.41","6","5","6","4","4","5","3","5","5","5","5","2","1","0","2","0","1","2","1","5","5","5","5","4","4","4","3","4","4","7","7","6","7","5","8","6","6","8","5","5","4","6","5","4","4","7","5","4","4","3","4","3","5","4","5","4","2","7","3","4","3","5","6","6","5","7","7","7","7","6","6","6","4","6","7","6","5","6","734083981330616322","邓","667","Male","[""坏他"",""好我"",""好他"",""坏我""]","[""弱他"",""强我"",""强他"",""弱我""]","","","","","","","","","","","","","","","","","","","","","","","","","","","","","","feedback_test","","","","","","","",""
"1028","","f","psychophysics","94","496992","0.0-8.0-0.0-1.0-0.0-0.42","6","5","6","4","4","5","3","5","5","5","5","2","1","0","2","0","1","2","1","5","5","5","5","4","4","4","3","4","4","7","7","6","7","5","8","6","6","8","5","5","4","6","5","4","4","7","5","4","4","3","4","3","5","4","5","4","2","7","3","4","3","5","6","6","5","7","7","7","7","6","6","6","4","6","7","6","5","6","734083981330616322","邓","667","Male","[""坏他"",""好我"",""好他"",""坏我""]","[""弱他"",""强我"",""强他"",""弱我""]","","","","","","","","nonmatch","","","","","","","","","","key","f","16.670239669421864","768","428","f","true","nonmatch","img/ellipse.png","坏他","好我","prac_ALT2_moral","practice_moral","","","","","","","",""
"null","<span style='color:GreenYellow; font-size: 70px;'>正确! </span>","null","html-keyboard-response","95","497496","0.0-8.0-0.0-1.0-0.0-1.42","6","5","6","4","4","5","3","5","5","5","5","2","1","0","2","0","1","2","1","5","5","5","5","4","4","4","3","4","4","7","7","6","7","5","8","6","6","8","5","5","4","6","5","4","4","7","5","4","4","3","4","3","5","4","5","4","2","7","3","4","3","5","6","6","5","7","7","7","7","6","6","6","4","6","7","6","5","6","734083981330616322","邓","667","Male","[""坏他"",""好我"",""好他"",""坏我""]","[""弱他"",""强我"",""强他"",""弱我""]","","","","","","","","","","","","","","","","","","","","","","","","","","","","","","feedback_test","","","","","","","",""
"null","","null","psychophysics","96","499708","0.0-8.0-0.0-1.0-0.0-0.43","6","5","6","4","4","5","3","5","5","5","5","2","1","0","2","0","1","2","1","5","5","5","5","4","4","4","3","4","4","7","7","6","7","5","8","6","6","8","5","5","4","6","5","4","4","7","5","4","4","3","4","3","5","4","5","4","2","7","3","4","3","5","6","6","5","7","7","7","7","6","6","6","4","6","7","6","5","6","734083981330616322","邓","667","Male","[""坏他"",""好我"",""好他"",""坏我""]","[""弱他"",""强我"",""强他"",""弱我""]","","","","","","","","null","","","","","","","","","","key","null","16.667045454545367","768","428","j","false","match","img/pentagon.png","坏我","坏我","prac_ALT2_moral","practice_moral","","","","","","","",""
"null","<span class='add_' style='color:yellow; font-size: 70px;'> 太慢! </span>","null","html-keyboard-response","97","500213","0.0-8.0-0.0-1.0-0.0-1.43","6","5","6","4","4","5","3","5","5","5","5","2","1","0","2","0","1","2","1","5","5","5","5","4","4","4","3","4","4","7","7","6","7","5","8","6","6","8","5","5","4","6","5","4","4","7","5","4","4","3","4","3","5","4","5","4","2","7","3","4","3","5","6","6","5","7","7","7","7","6","6","6","4","6","7","6","5","6","734083981330616322","邓","667","Male","[""坏他"",""好我"",""好他"",""坏我""]","[""弱他"",""强我"",""强他"",""弱我""]","","","","","","","","","","","","","","","","","","","","","","","","","","","","","","feedback_test","","","","","","","",""
"1048","","f","psychophysics","98","502265","0.0-8.0-0.0-1.0-0.0-0.44","6","5","6","4","4","5","3","5","5","5","5","2","1","0","2","0","1","2","1","5","5","5","5","4","4","4","3","4","4","7","7","6","7","5","8","6","6","8","5","5","4","6","5","4","4","7","5","4","4","3","4","3","5","4","5","4","2","7","3","4","3","5","6","6","5","7","7","7","7","6","6","6","4","6","7","6","5","6","734083981330616322","邓","667","Male","[""坏他"",""好我"",""好他"",""坏我""]","[""弱他"",""强我"",""强他"",""弱我""]","","","","","","","","nonmatch","","","","","","","","","","key","f","16.666188524589877","768","428","j","false","match","img/triangle.png","好他","好他","prac_ALT2_moral","practice_moral","","","","","","","",""
"null","<span style='color:red; font-size: 70px;'>错误! </span>","null","html-keyboard-response","99","502770","0.0-8.0-0.0-1.0-0.0-1.44","6","5","6","4","4","5","3","5","5","5","5","2","1","0","2","0","1","2","1","5","5","5","5","4","4","4","3","4","4","7","7","6","7","5","8","6","6","8","5","5","4","6","5","4","4","7","5","4","4","3","4","3","5","4","5","4","2","7","3","4","3","5","6","6","5","7","7","7","7","6","6","6","4","6","7","6","5","6","734083981330616322","邓","667","Male","[""坏他"",""好我"",""好他"",""坏我""]","[""弱他"",""强我"",""强他"",""弱我""]","","","","","","","","","","","","","","","","","","","","","","","","","","","","","","feedback_test","","","","","","","",""
"864","","j","psychophysics","100","504638","0.0-8.0-0.0-1.0-0.0-0.45","6","5","6","4","4","5","3","5","5","5","5","2","1","0","2","0","1","2","1","5","5","5","5","4","4","4","3","4","4","7","7","6","7","5","8","6","6","8","5","5","4","6","5","4","4","7","5","4","4","3","4","3","5","4","5","4","2","7","3","4","3","5","6","6","5","7","7","7","7","6","6","6","4","6","7","6","5","6","734083981330616322","邓","667","Male","[""坏他"",""好我"",""好他"",""坏我""]","[""弱他"",""强我"",""强他"",""弱我""]","","","","","","","","match","","","","","","","","","","key","j","16.66521621621602","768","428","j","true","match","img/ellipse.png","好我","好我","prac_ALT2_moral","practice_moral","","","","","","","",""
"null","<span style='color:GreenYellow; font-size: 70px;'>正确! </span>","null","html-keyboard-response","101","505139","0.0-8.0-0.0-1.0-0.0-1.45","6","5","6","4","4","5","3","5","5","5","5","2","1","0","2","0","1","2","1","5","5","5","5","4","4","4","3","4","4","7","7","6","7","5","8","6","6","8","5","5","4","6","5","4","4","7","5","4","4","3","4","3","5","4","5","4","2","7","3","4","3","5","6","6","5","7","7","7","7","6","6","6","4","6","7","6","5","6","734083981330616322","邓","667","Male","[""坏他"",""好我"",""好他"",""坏我""]","[""弱他"",""强我"",""强他"",""弱我""]","","","","","","","","","","","","","","","","","","","","","","","","","","","","","","feedback_test","","","","","","","",""
"1057","","f","psychophysics","102","507202","0.0-8.0-0.0-1.0-0.0-0.46","6","5","6","4","4","5","3","5","5","5","5","2","1","0","2","0","1","2","1","5","5","5","5","4","4","4","3","4","4","7","7","6","7","5","8","6","6","8","5","5","4","6","5","4","4","7","5","4","4","3","4","3","5","4","5","4","2","7","3","4","3","5","6","6","5","7","7","7","7","6","6","6","4","6","7","6","5","6","734083981330616322","邓","667","Male","[""坏他"",""好我"",""好他"",""坏我""]","[""弱他"",""强我"",""强他"",""弱我""]","","","","","","","","nonmatch","","","","","","","","","","key","f","16.667040983606682","768","428","f","true","nonmatch","img/triangle.png","坏我","好他","prac_ALT2_moral","practice_moral","","","","","","","",""
"null","<span style='color:GreenYellow; font-size: 70px;'>正确! </span>","null","html-keyboard-response","103","507706","0.0-8.0-0.0-1.0-0.0-1.46","6","5","6","4","4","5","3","5","5","5","5","2","1","0","2","0","1","2","1","5","5","5","5","4","4","4","3","4","4","7","7","6","7","5","8","6","6","8","5","5","4","6","5","4","4","7","5","4","4","3","4","3","5","4","5","4","2","7","3","4","3","5","6","6","5","7","7","7","7","6","6","6","4","6","7","6","5","6","734083981330616322","邓","667","Male","[""坏他"",""好我"",""好他"",""坏我""]","[""弱他"",""强我"",""强他"",""弱我""]","","","","","","","","","","","","","","","","","","","","","","","","","","","","","","feedback_test","","","","","","","",""
"899","","j","psychophysics","104","509609","0.0-8.0-0.0-1.0-0.0-0.47","6","5","6","4","4","5","3","5","5","5","5","2","1","0","2","0","1","2","1","5","5","5","5","4","4","4","3","4","4","7","7","6","7","5","8","6","6","8","5","5","4","6","5","4","4","7","5","4","4","3","4","3","5","4","5","4","2","7","3","4","3","5","6","6","5","7","7","7","7","6","6","6","4","6","7","6","5","6","734083981330616322","邓","667","Male","[""坏他"",""好我"",""好他"",""坏我""]","[""弱他"",""强我"",""强他"",""弱我""]","","","","","","","","match","","","","","","","","","","key","j","16.66556637168118","768","428","j","true","match","img/ellipse.png","好我","好我","prac_ALT2_moral","practice_moral","","","","","","","",""
"null","<span style='color:GreenYellow; font-size: 70px;'>正确! </span>","null","html-keyboard-response","105","510110","0.0-8.0-0.0-1.0-0.0-1.47","6","5","6","4","4","5","3","5","5","5","5","2","1","0","2","0","1","2","1","5","5","5","5","4","4","4","3","4","4","7","7","6","7","5","8","6","6","8","5","5","4","6","5","4","4","7","5","4","4","3","4","3","5","4","5","4","2","7","3","4","3","5","6","6","5","7","7","7","7","6","6","6","4","6","7","6","5","6","734083981330616322","邓","667","Male","[""坏他"",""好我"",""好他"",""坏我""]","[""弱他"",""强我"",""强他"",""弱我""]","","","","","","","","","","","","","","","","","","","","","","","","","","","","","","feedback_test","","","","","","","",""
"13710","<style>.context{color:white; font-size: 35px; line-height:40px}</style>                            <div><p class='context'>您正确回答了48% 的试次。</p><p class='context'>您的平均反应时为939毫秒。</p><p class='context'>按空格键继续。</p></div>"," ","html-keyboard-response","106","523830","0.0-8.0-0.0-1.0-1.0-0.0","6","5","6","4","4","5","3","5","5","5","5","2","1","0","2","0","1","2","1","5","5","5","5","4","4","4","3","4","4","7","7","6","7","5","8","6","6","8","5","5","4","6","5","4","4","7","5","4","4","3","4","3","5","4","5","4","2","7","3","4","3","5","6","6","5","7","7","7","7","6","6","6","4","6","7","6","5","6","734083981330616322","邓","667","Male","[""坏他"",""好我"",""好他"",""坏我""]","[""弱他"",""强我"",""强他"",""弱我""]","","","","","","","","","","","","","","","","","","","","","","","","","","","","","","","","","","","","","",""
"66509","","","instructions","107","590354","0.0-8.0-0.0-1.0-1.0-1.0","6","5","6","4","4","5","3","5","5","5","5","2","1","0","2","0","1","2","1","5","5","5","5","4","4","4","3","4","4","7","7","6","7","5","8","6","6","8","5","5","4","6","5","4","4","7","5","4","4","3","4","3","5","4","5","4","2","7","3","4","3","5","6","6","5","7","7","7","7","6","6","6","4","6","7","6","5","6","734083981330616322","邓","667","Male","[""坏他"",""好我"",""好他"",""坏我""]","[""弱他"",""强我"",""强他"",""弱我""]","","","","","","","","","","","","","","","","","[{""page_index"":0,""viewing_time"":3051},{""page_index"":1,""viewing_time"":61922},{""page_index"":2,""viewing_time"":1536}]","","","","","","","","","","","","","","","","","","","","",""
"818","","j","psychophysics","108","592175","0.0-8.0-0.0-1.1-0.1-0.48","6","5","6","4","4","5","3","5","5","5","5","2","1","0","2","0","1","2","1","5","5","5","5","4","4","4","3","4","4","7","7","6","7","5","8","6","6","8","5","5","4","6","5","4","4","7","5","4","4","3","4","3","5","4","5","4","2","7","3","4","3","5","6","6","5","7","7","7","7","6","6","6","4","6","7","6","5","6","734083981330616322","邓","667","Male","[""坏他"",""好我"",""好他"",""坏我""]","[""弱他"",""强我"",""强他"",""弱我""]","","","","","","","","match","","","","","","","","","","key","j","16.667027777777683","768","428","j","true","match","img/ellipse.png","好我","好我","prac_ALT2_moral","practice_moral","","","","","","","",""
"null","<span style='color:GreenYellow; font-size: 70px;'>正确! </span>","null","html-keyboard-response","109","592678","0.0-8.0-0.0-1.1-0.1-1.48","6","5","6","4","4","5","3","5","5","5","5","2","1","0","2","0","1","2","1","5","5","5","5","4","4","4","3","4","4","7","7","6","7","5","8","6","6","8","5","5","4","6","5","4","4","7","5","4","4","3","4","3","5","4","5","4","2","7","3","4","3","5","6","6","5","7","7","7","7","6","6","6","4","6","7","6","5","6","734083981330616322","邓","667","Male","[""坏他"",""好我"",""好他"",""坏我""]","[""弱他"",""强我"",""强他"",""弱我""]","","","","","","","","","","","","","","","","","","","","","","","","","","","","","","feedback_test","","","","","","","",""
"769","","j","psychophysics","110","594456","0.0-8.0-0.0-1.1-0.1-0.49","6","5","6","4","4","5","3","5","5","5","5","2","1","0","2","0","1","2","1","5","5","5","5","4","4","4","3","4","4","7","7","6","7","5","8","6","6","8","5","5","4","6","5","4","4","7","5","4","4","3","4","3","5","4","5","4","2","7","3","4","3","5","6","6","5","7","7","7","7","6","6","6","4","6","7","6","5","6","734083981330616322","邓","667","Male","[""坏他"",""好我"",""好他"",""坏我""]","[""弱他"",""强我"",""强他"",""弱我""]","","","","","","","","match","","","","","","","","","","key","j","16.66745283018868","768","428","j","true","match","img/ellipse.png","好我","好我","prac_ALT2_moral","practice_moral","","","","","","","",""
"null","<span style='color:GreenYellow; font-size: 70px;'>正确! </span>","null","html-keyboard-response","111","594957","0.0-8.0-0.0-1.1-0.1-1.49","6","5","6","4","4","5","3","5","5","5","5","2","1","0","2","0","1","2","1","5","5","5","5","4","4","4","3","4","4","7","7","6","7","5","8","6","6","8","5","5","4","6","5","4","4","7","5","4","4","3","4","3","5","4","5","4","2","7","3","4","3","5","6","6","5","7","7","7","7","6","6","6","4","6","7","6","5","6","734083981330616322","邓","667","Male","[""坏他"",""好我"",""好他"",""坏我""]","[""弱他"",""强我"",""强他"",""弱我""]","","","","","","","","","","","","","","","","","","","","","","","","","","","","","","feedback_test","","","","","","","",""
"905","","f","psychophysics","112","596865","0.0-8.0-0.0-1.1-0.1-0.50","6","5","6","4","4","5","3","5","5","5","5","2","1","0","2","0","1","2","1","5","5","5","5","4","4","4","3","4","4","7","7","6","7","5","8","6","6","8","5","5","4","6","5","4","4","7","5","4","4","3","4","3","5","4","5","4","2","7","3","4","3","5","6","6","5","7","7","7","7","6","6","6","4","6","7","6","5","6","734083981330616322","邓","667","Male","[""坏他"",""好我"",""好他"",""坏我""]","[""弱他"",""强我"",""强他"",""弱我""]","","","","","","","","nonmatch","","","","","","","","","","key","f","16.66692982456165","768","428","f","true","nonmatch","img/ellipse.png","坏我","好我","prac_ALT2_moral","practice_moral","","","","","","","",""
"null","<span style='color:GreenYellow; font-size: 70px;'>正确! </span>","null","html-keyboard-response","113","597368","0.0-8.0-0.0-1.1-0.1-1.50","6","5","6","4","4","5","3","5","5","5","5","2","1","0","2","0","1","2","1","5","5","5","5","4","4","4","3","4","4","7","7","6","7","5","8","6","6","8","5","5","4","6","5","4","4","7","5","4","4","3","4","3","5","4","5","4","2","7","3","4","3","5","6","6","5","7","7","7","7","6","6","6","4","6","7","6","5","6","734083981330616322","邓","667","Male","[""坏他"",""好我"",""好他"",""坏我""]","[""弱他"",""强我"",""强他"",""弱我""]","","","","","","","","","","","","","","","","","","","","","","","","","","","","","","feedback_test","","","","","","","",""
"967","","f","psychophysics","114","599339","0.0-8.0-0.0-1.1-0.1-0.51","6","5","6","4","4","5","3","5","5","5","5","2","1","0","2","0","1","2","1","5","5","5","5","4","4","4","3","4","4","7","7","6","7","5","8","6","6","8","5","5","4","6","5","4","4","7","5","4","4","3","4","3","5","4","5","4","2","7","3","4","3","5","6","6","5","7","7","7","7","6","6","6","4","6","7","6","5","6","734083981330616322","邓","667","Male","[""坏他"",""好我"",""好他"",""坏我""]","[""弱他"",""强我"",""强他"",""弱我""]","","","","","","","","nonmatch","","","","","","","","","","key","f","16.66583760683803","768","428","f","true","nonmatch","img/pentagon.png","坏他","坏我","prac_ALT2_moral","practice_moral","","","","","","","",""
"null","<span style='color:GreenYellow; font-size: 70px;'>正确! </span>","null","html-keyboard-response","115","599840","0.0-8.0-0.0-1.1-0.1-1.51","6","5","6","4","4","5","3","5","5","5","5","2","1","0","2","0","1","2","1","5","5","5","5","4","4","4","3","4","4","7","7","6","7","5","8","6","6","8","5","5","4","6","5","4","4","7","5","4","4","3","4","3","5","4","5","4","2","7","3","4","3","5","6","6","5","7","7","7","7","6","6","6","4","6","7","6","5","6","734083981330616322","邓","667","Male","[""坏他"",""好我"",""好他"",""坏我""]","[""弱他"",""强我"",""强他"",""弱我""]","","","","","","","","","","","","","","","","","","","","","","","","","","","","","","feedback_test","","","","","","","",""
"860","","f","psychophysics","116","601704","0.0-8.0-0.0-1.1-0.1-0.52","6","5","6","4","4","5","3","5","5","5","5","2","1","0","2","0","1","2","1","5","5","5","5","4","4","4","3","4","4","7","7","6","7","5","8","6","6","8","5","5","4","6","5","4","4","7","5","4","4","3","4","3","5","4","5","4","2","7","3","4","3","5","6","6","5","7","7","7","7","6","6","6","4","6","7","6","5","6","734083981330616322","邓","667","Male","[""坏他"",""好我"",""好他"",""坏我""]","[""弱他"",""强我"",""强他"",""弱我""]","","","","","","","","nonmatch","","","","","","","","","","key","f","16.665558558558367","768","428","j","false","match","img/pentagon.png","坏我","坏我","prac_ALT2_moral","practice_moral","","","","","","","",""
"null","<span style='color:red; font-size: 70px;'>错误! </span>","null","html-keyboard-response","117","602206","0.0-8.0-0.0-1.1-0.1-1.52","6","5","6","4","4","5","3","5","5","5","5","2","1","0","2","0","1","2","1","5","5","5","5","4","4","4","3","4","4","7","7","6","7","5","8","6","6","8","5","5","4","6","5","4","4","7","5","4","4","3","4","3","5","4","5","4","2","7","3","4","3","5","6","6","5","7","7","7","7","6","6","6","4","6","7","6","5","6","734083981330616322","邓","667","Male","[""坏他"",""好我"",""好他"",""坏我""]","[""弱他"",""强我"",""强他"",""弱我""]","","","","","","","","","","","","","","","","","","","","","","","","","","","","","","feedback_test","","","","","","","",""
"1010","","f","psychophysics","118","604220","0.0-8.0-0.0-1.1-0.1-0.53","6","5","6","4","4","5","3","5","5","5","5","2","1","0","2","0","1","2","1","5","5","5","5","4","4","4","3","4","4","7","7","6","7","5","8","6","6","8","5","5","4","6","5","4","4","7","5","4","4","3","4","3","5","4","5","4","2","7","3","4","3","5","6","6","5","7","7","7","7","6","6","6","4","6","7","6","5","6","734083981330616322","邓","667","Male","[""坏他"",""好我"",""好他"",""坏我""]","[""弱他"",""强我"",""强他"",""弱我""]","","","","","","","","nonmatch","","","","","","","","","","key","f","16.665216666666673","768","428","j","false","match","img/trapezoid.png","坏他","坏他","prac_ALT2_moral","practice_moral","","","","","","","",""
"null","<span style='color:red; font-size: 70px;'>错误! </span>","null","html-keyboard-response","119","604721","0.0-8.0-0.0-1.1-0.1-1.53","6","5","6","4","4","5","3","5","5","5","5","2","1","0","2","0","1","2","1","5","5","5","5","4","4","4","3","4","4","7","7","6","7","5","8","6","6","8","5","5","4","6","5","4","4","7","5","4","4","3","4","3","5","4","5","4","2","7","3","4","3","5","6","6","5","7","7","7","7","6","6","6","4","6","7","6","5","6","734083981330616322","邓","667","Male","[""坏他"",""好我"",""好他"",""坏我""]","[""弱他"",""强我"",""强他"",""弱我""]","","","","","","","","","","","","","","","","","","","","","","","","","","","","","","feedback_test","","","","","","","",""
"866","","f","psychophysics","120","606596","0.0-8.0-0.0-1.1-0.1-0.54","6","5","6","4","4","5","3","5","5","5","5","2","1","0","2","0","1","2","1","5","5","5","5","4","4","4","3","4","4","7","7","6","7","5","8","6","6","8","5","5","4","6","5","4","4","7","5","4","4","3","4","3","5","4","5","4","2","7","3","4","3","5","6","6","5","7","7","7","7","6","6","6","4","6","7","6","5","6","734083981330616322","邓","667","Male","[""坏他"",""好我"",""好他"",""坏我""]","[""弱他"",""强我"",""强他"",""弱我""]","","","","","","","","nonmatch","","","","","","","","","","key","f","16.667855855855706","768","428","f","true","nonmatch","img/triangle.png","坏我","好他","prac_ALT2_moral","practice_moral","","","","","","","",""
"null","<span style='color:GreenYellow; font-size: 70px;'>正确! </span>","null","html-keyboard-response","121","607099","0.0-8.0-0.0-1.1-0.1-1.54","6","5","6","4","4","5","3","5","5","5","5","2","1","0","2","0","1","2","1","5","5","5","5","4","4","4","3","4","4","7","7","6","7","5","8","6","6","8","5","5","4","6","5","4","4","7","5","4","4","3","4","3","5","4","5","4","2","7","3","4","3","5","6","6","5","7","7","7","7","6","6","6","4","6","7","6","5","6","734083981330616322","邓","667","Male","[""坏他"",""好我"",""好他"",""坏我""]","[""弱他"",""强我"",""强他"",""弱我""]","","","","","","","","","","","","","","","","","","","","","","","","","","","","","","feedback_test","","","","","","","",""
"1160","","f","psychophysics","122","609265","0.0-8.0-0.0-1.1-0.1-0.55","6","5","6","4","4","5","3","5","5","5","5","2","1","0","2","0","1","2","1","5","5","5","5","4","4","4","3","4","4","7","7","6","7","5","8","6","6","8","5","5","4","6","5","4","4","7","5","4","4","3","4","3","5","4","5","4","2","7","3","4","3","5","6","6","5","7","7","7","7","6","6","6","4","6","7","6","5","6","734083981330616322","邓","667","Male","[""坏他"",""好我"",""好他"",""坏我""]","[""弱他"",""强我"",""强他"",""弱我""]","","","","","","","","nonmatch","","","","","","","","","","key","f","16.667921874999593","768","428","j","false","match","img/pentagon.png","坏我","坏我","prac_ALT2_moral","practice_moral","","","","","","","",""
"null","<span style='color:red; font-size: 70px;'>错误! </span>","null","html-keyboard-response","123","609781","0.0-8.0-0.0-1.1-0.1-1.55","6","5","6","4","4","5","3","5","5","5","5","2","1","0","2","0","1","2","1","5","5","5","5","4","4","4","3","4","4","7","7","6","7","5","8","6","6","8","5","5","4","6","5","4","4","7","5","4","4","3","4","3","5","4","5","4","2","7","3","4","3","5","6","6","5","7","7","7","7","6","6","6","4","6","7","6","5","6","734083981330616322","邓","667","Male","[""坏他"",""好我"",""好他"",""坏我""]","[""弱他"",""强我"",""强他"",""弱我""]","","","","","","","","","","","","","","","","","","","","","","","","","","","","","","feedback_test","","","","","","","",""
"869","","f","psychophysics","124","611653","0.0-8.0-0.0-1.1-0.1-0.56","6","5","6","4","4","5","3","5","5","5","5","2","1","0","2","0","1","2","1","5","5","5","5","4","4","4","3","4","4","7","7","6","7","5","8","6","6","8","5","5","4","6","5","4","4","7","5","4","4","3","4","3","5","4","5","4","2","7","3","4","3","5","6","6","5","7","7","7","7","6","6","6","4","6","7","6","5","6","734083981330616322","邓","667","Male","[""坏他"",""好我"",""好他"",""坏我""]","[""弱他"",""强我"",""强他"",""弱我""]","","","","","","","","nonmatch","","","","","","","","","","key","f","16.66735135135136","768","428","j","false","match","img/trapezoid.png","坏他","坏他","prac_ALT2_moral","practice_moral","","","","","","","",""
"null","<span style='color:red; font-size: 70px;'>错误! </span>","null","html-keyboard-response","125","612158","0.0-8.0-0.0-1.1-0.1-1.56","6","5","6","4","4","5","3","5","5","5","5","2","1","0","2","0","1","2","1","5","5","5","5","4","4","4","3","4","4","7","7","6","7","5","8","6","6","8","5","5","4","6","5","4","4","7","5","4","4","3","4","3","5","4","5","4","2","7","3","4","3","5","6","6","5","7","7","7","7","6","6","6","4","6","7","6","5","6","734083981330616322","邓","667","Male","[""坏他"",""好我"",""好他"",""坏我""]","[""弱他"",""强我"",""强他"",""弱我""]","","","","","","","","","","","","","","","","","","","","","","","","","","","","","","feedback_test","","","","","","","",""
"null","","null","psychophysics","126","614385","0.0-8.0-0.0-1.1-0.1-0.57","6","5","6","4","4","5","3","5","5","5","5","2","1","0","2","0","1","2","1","5","5","5","5","4","4","4","3","4","4","7","7","6","7","5","8","6","6","8","5","5","4","6","5","4","4","7","5","4","4","3","4","3","5","4","5","4","2","7","3","4","3","5","6","6","5","7","7","7","7","6","6","6","4","6","7","6","5","6","734083981330616322","邓","667","Male","[""坏他"",""好我"",""好他"",""坏我""]","[""弱他"",""强我"",""强他"",""弱我""]","","","","","","","","null","","","","","","","","","","key","null","16.66674999999955","768","428","j","false","match","img/trapezoid.png","坏他","坏他","prac_ALT2_moral","practice_moral","","","","","","","",""
"null","<span class='add_' style='color:yellow; font-size: 70px;'> 太慢! </span>","null","html-keyboard-response","127","614888","0.0-8.0-0.0-1.1-0.1-1.57","6","5","6","4","4","5","3","5","5","5","5","2","1","0","2","0","1","2","1","5","5","5","5","4","4","4","3","4","4","7","7","6","7","5","8","6","6","8","5","5","4","6","5","4","4","7","5","4","4","3","4","3","5","4","5","4","2","7","3","4","3","5","6","6","5","7","7","7","7","6","6","6","4","6","7","6","5","6","734083981330616322","邓","667","Male","[""坏他"",""好我"",""好他"",""坏我""]","[""弱他"",""强我"",""强他"",""弱我""]","","","","","","","","","","","","","","","","","","","","","","","","","","","","","","feedback_test","","","","","","","",""
"1130","","f","psychophysics","128","617022","0.0-8.0-0.0-1.1-0.1-0.58","6","5","6","4","4","5","3","5","5","5","5","2","1","0","2","0","1","2","1","5","5","5","5","4","4","4","3","4","4","7","7","6","7","5","8","6","6","8","5","5","4","6","5","4","4","7","5","4","4","3","4","3","5","4","5","4","2","7","3","4","3","5","6","6","5","7","7","7","7","6","6","6","4","6","7","6","5","6","734083981330616322","邓","667","Male","[""坏他"",""好我"",""好他"",""坏我""]","[""弱他"",""强我"",""强他"",""弱我""]","","","","","","","","nonmatch","","","","","","","","","","key","f","16.667259842519442","768","428","j","false","match","img/triangle.png","好他","好他","prac_ALT2_moral","practice_moral","","","","","","","",""
"null","<span style='color:red; font-size: 70px;'>错误! </span>","null","html-keyboard-response","129","617525","0.0-8.0-0.0-1.1-0.1-1.58","6","5","6","4","4","5","3","5","5","5","5","2","1","0","2","0","1","2","1","5","5","5","5","4","4","4","3","4","4","7","7","6","7","5","8","6","6","8","5","5","4","6","5","4","4","7","5","4","4","3","4","3","5","4","5","4","2","7","3","4","3","5","6","6","5","7","7","7","7","6","6","6","4","6","7","6","5","6","734083981330616322","邓","667","Male","[""坏他"",""好我"",""好他"",""坏我""]","[""弱他"",""强我"",""强他"",""弱我""]","","","","","","","","","","","","","","","","","","","","","","","","","","","","","","feedback_test","","","","","","","",""
"987","","j","psychophysics","130","619518","0.0-8.0-0.0-1.1-0.1-0.59","6","5","6","4","4","5","3","5","5","5","5","2","1","0","2","0","1","2","1","5","5","5","5","4","4","4","3","4","4","7","7","6","7","5","8","6","6","8","5","5","4","6","5","4","4","7","5","4","4","3","4","3","5","4","5","4","2","7","3","4","3","5","6","6","5","7","7","7","7","6","6","6","4","6","7","6","5","6","734083981330616322","邓","667","Male","[""坏他"",""好我"",""好他"",""坏我""]","[""弱他"",""强我"",""强他"",""弱我""]","","","","","","","","match","","","","","","","","","","key","j","16.66676470588212","768","428","j","true","match","img/triangle.png","好他","好他","prac_ALT2_moral","practice_moral","","","","","","","",""
"null","<span style='color:GreenYellow; font-size: 70px;'>正确! </span>","null","html-keyboard-response","131","620022","0.0-8.0-0.0-1.1-0.1-1.59","6","5","6","4","4","5","3","5","5","5","5","2","1","0","2","0","1","2","1","5","5","5","5","4","4","4","3","4","4","7","7","6","7","5","8","6","6","8","5","5","4","6","5","4","4","7","5","4","4","3","4","3","5","4","5","4","2","7","3","4","3","5","6","6","5","7","7","7","7","6","6","6","4","6","7","6","5","6","734083981330616322","邓","667","Male","[""坏他"",""好我"",""好他"",""坏我""]","[""弱他"",""强我"",""强他"",""弱我""]","","","","","","","","","","","","","","","","","","","","","","","","","","","","","","feedback_test","","","","","","","",""
"1001","","f","psychophysics","132","622027","0.0-8.0-0.0-1.1-0.1-0.60","6","5","6","4","4","5","3","5","5","5","5","2","1","0","2","0","1","2","1","5","5","5","5","4","4","4","3","4","4","7","7","6","7","5","8","6","6","8","5","5","4","6","5","4","4","7","5","4","4","3","4","3","5","4","5","4","2","7","3","4","3","5","6","6","5","7","7","7","7","6","6","6","4","6","7","6","5","6","734083981330616322","邓","667","Male","[""坏他"",""好我"",""好他"",""坏我""]","[""弱他"",""强我"",""强他"",""弱我""]","","","","","","","","nonmatch","","","","","","","","","","key","f","16.66705882352945","768","428","f","true","nonmatch","img/trapezoid.png","坏我","坏他","prac_ALT2_moral","practice_moral","","","","","","","",""
"null","<span style='color:GreenYellow; font-size: 70px;'>正确! </span>","null","html-keyboard-response","133","622530","0.0-8.0-0.0-1.1-0.1-1.60","6","5","6","4","4","5","3","5","5","5","5","2","1","0","2","0","1","2","1","5","5","5","5","4","4","4","3","4","4","7","7","6","7","5","8","6","6","8","5","5","4","6","5","4","4","7","5","4","4","3","4","3","5","4","5","4","2","7","3","4","3","5","6","6","5","7","7","7","7","6","6","6","4","6","7","6","5","6","734083981330616322","邓","667","Male","[""坏他"",""好我"",""好他"",""坏我""]","[""弱他"",""强我"",""强他"",""弱我""]","","","","","","","","","","","","","","","","","","","","","","","","","","","","","","feedback_test","","","","","","","",""
"null","","null","psychophysics","134","624737","0.0-8.0-0.0-1.1-0.1-0.61","6","5","6","4","4","5","3","5","5","5","5","2","1","0","2","0","1","2","1","5","5","5","5","4","4","4","3","4","4","7","7","6","7","5","8","6","6","8","5","5","4","6","5","4","4","7","5","4","4","3","4","3","5","4","5","4","2","7","3","4","3","5","6","6","5","7","7","7","7","6","6","6","4","6","7","6","5","6","734083981330616322","邓","667","Male","[""坏他"",""好我"",""好他"",""坏我""]","[""弱他"",""强我"",""强他"",""弱我""]","","","","","","","","null","","","","","","","","","","key","null","16.66558778625984","768","428","f","false","nonmatch","img/pentagon.png","好我","坏我","prac_ALT2_moral","practice_moral","","","","","","","",""
"null","<span class='add_' style='color:yellow; font-size: 70px;'> 太慢! </span>","null","html-keyboard-response","135","625239","0.0-8.0-0.0-1.1-0.1-1.61","6","5","6","4","4","5","3","5","5","5","5","2","1","0","2","0","1","2","1","5","5","5","5","4","4","4","3","4","4","7","7","6","7","5","8","6","6","8","5","5","4","6","5","4","4","7","5","4","4","3","4","3","5","4","5","4","2","7","3","4","3","5","6","6","5","7","7","7","7","6","6","6","4","6","7","6","5","6","734083981330616322","邓","667","Male","[""坏他"",""好我"",""好他"",""坏我""]","[""弱他"",""强我"",""强他"",""弱我""]","","","","","","","","","","","","","","","","","","","","","","","","","","","","","","feedback_test","","","","","","","",""
"1086","","f","psychophysics","136","627330","0.0-8.0-0.0-1.1-0.1-0.62","6","5","6","4","4","5","3","5","5","5","5","2","1","0","2","0","1","2","1","5","5","5","5","4","4","4","3","4","4","7","7","6","7","5","8","6","6","8","5","5","4","6","5","4","4","7","5","4","4","3","4","3","5","4","5","4","2","7","3","4","3","5","6","6","5","7","7","7","7","6","6","6","4","6","7","6","5","6","734083981330616322","邓","667","Male","[""坏他"",""好我"",""好他"",""坏我""]","[""弱他"",""强我"",""强他"",""弱我""]","","","","","","","","nonmatch","","","","","","","","","","key","f","16.66724193548397","768","428","f","true","nonmatch","img/pentagon.png","好他","坏我","prac_ALT2_moral","practice_moral","","","","","","","",""
"null","<span style='color:GreenYellow; font-size: 70px;'>正确! </span>","null","html-keyboard-response","137","627833","0.0-8.0-0.0-1.1-0.1-1.62","6","5","6","4","4","5","3","5","5","5","5","2","1","0","2","0","1","2","1","5","5","5","5","4","4","4","3","4","4","7","7","6","7","5","8","6","6","8","5","5","4","6","5","4","4","7","5","4","4","3","4","3","5","4","5","4","2","7","3","4","3","5","6","6","5","7","7","7","7","6","6","6","4","6","7","6","5","6","734083981330616322","邓","667","Male","[""坏他"",""好我"",""好他"",""坏我""]","[""弱他"",""强我"",""强他"",""弱我""]","","","","","","","","","","","","","","","","","","","","","","","","","","","","","","feedback_test","","","","","","","",""
"1055","","j","psychophysics","138","629894","0.0-8.0-0.0-1.1-0.1-0.63","6","5","6","4","4","5","3","5","5","5","5","2","1","0","2","0","1","2","1","5","5","5","5","4","4","4","3","4","4","7","7","6","7","5","8","6","6","8","5","5","4","6","5","4","4","7","5","4","4","3","4","3","5","4","5","4","2","7","3","4","3","5","6","6","5","7","7","7","7","6","6","6","4","6","7","6","5","6","734083981330616322","邓","667","Male","[""坏他"",""好我"",""好他"",""坏我""]","[""弱他"",""强我"",""强他"",""弱我""]","","","","","","","","match","","","","","","","","","","key","j","16.666860655737377","768","428","j","true","match","img/triangle.png","好他","好他","prac_ALT2_moral","practice_moral","","","","","","","",""
"null","<span style='color:GreenYellow; font-size: 70px;'>正确! </span>","null","html-keyboard-response","139","630398","0.0-8.0-0.0-1.1-0.1-1.63","6","5","6","4","4","5","3","5","5","5","5","2","1","0","2","0","1","2","1","5","5","5","5","4","4","4","3","4","4","7","7","6","7","5","8","6","6","8","5","5","4","6","5","4","4","7","5","4","4","3","4","3","5","4","5","4","2","7","3","4","3","5","6","6","5","7","7","7","7","6","6","6","4","6","7","6","5","6","734083981330616322","邓","667","Male","[""坏他"",""好我"",""好他"",""坏我""]","[""弱他"",""强我"",""强他"",""弱我""]","","","","","","","","","","","","","","","","","","","","","","","","","","","","","","feedback_test","","","","","","","",""
