"rt","stimulus","response","trial_type","trial_index","time_elapsed","internal_node_id","swb_1","swb_2","swb_3","swb_4","swb_5","LOT_1","LOT_2","LOT_3","LOT_4","LOT_5","LOT_6","IPC_1","IPC_2","IPC_3","IPC_4","IPC_5","IPC_6","IPC_7","IPC_8","MorIden_1","MorIden_2","MorIden_3","MorIden_4","MorIden_5","MorIden_6","MorIden_7","MorIden_8","MorIden_9","MorIden_10","moralSeImag_1","moralSeImag_2","moralSeImag_3","moralSeImag_4","moralSeImag_5","moralSeImag_6","moralSeImag_7","moralSeImag_8","moralSeImag_9","sde_1","sde_2","sde_3","sde_4","sde_5","sde_6","sde_7","sde_8","sde_9","sde_10","sde_11","sde_12","sde_13","sde_14","sde_15","sde_16","sde_17","sde_18","sde_19","sde_20","IM_1","IM_2","IM_3","IM_4","IM_5","IM_6","IM_7","IM_8","IM_9","IM_10","IM_11","IM_12","IM_13","IM_14","IM_15","IM_16","IM_17","IM_18","IM_19","IM_20","subj_idx","friend_name","ParticipantID","Sex","Word","Word2","value","success","timeout","failed_images","failed_audio","failed_video","user_agent","responses","item_order","radio_event_ids","radio_event_times","key_event_times","mouse_event_times","straightlining","zigzagging","honeypot","task_id","screen_id","time_stamp","response_type","key_press","avg_frame_time","center_x","center_y","person","word","valence","domain","math","correct_response","correct","status","identity","view_history","duration","Image","condition","question_order"
"1789","
   <p><div style='color:white; font-size: 25px'>您好，欢迎参加本次实验。</div></p>
   <p><div style='color:white; font-size: 25px'>为充分保障您的权利，请确保您已经知晓并同意《参与实验同意书》以及《数据公开知情同意书》。</div></p>
   <p><div style='color:white; font-size: 25px'>如果您未见过上述内容，请咨询实验员。</div></p>
   <p style='color:white; font-size: 25px'>如果您选择继续实验，则表示您已经清楚两份知情同意书的内容并同意。</p>
   <p><div style = ""color: red;font-size:30px;"">请确保您记得day0的实验编号，您将在本次实验输入该编号，若您忘记，请咨询实验员后作答。</div></p>
   <p> <div style = ""color: green""><按空格键至下页></div> </p>
   "," ","html-keyboard-response","0","1797","0.0-0.0","5","6","5","2","3","5","2","5","4","5","5","2","0","0","1","0","1","2","0","5","5","5","5","5","4","5","5","4","4","8","7","6","7","5","8","8","6","7","6","5","5","6","6","5","6","1","5","2","5","2","7","3","6","6","5","2","5","4","2","5","3","3","2","7","6","6","5","7","7","6","6","7","3","6","3","7","5","6","598932304420667392","刘","416","Male","[""坏我"",""好他"",""好我"",""坏他""]","[""弱我"",""强他"",""强我"",""弱他""]","","","","","","","","","","","","","","","","","","","","","","","","","","","","","","","","","","","","","",""
"","","","call-function","1","1799","0.0-1.0-0.0","5","6","5","2","3","5","2","5","4","5","5","2","0","0","1","0","1","2","0","5","5","5","5","5","4","5","5","4","4","8","7","6","7","5","8","8","6","7","6","5","5","6","6","5","6","1","5","2","5","2","7","3","6","6","5","2","5","4","2","5","3","3","2","7","6","6","5","7","7","6","6","7","3","6","3","7","5","6","598932304420667392","刘","416","Male","[""坏我"",""好他"",""好我"",""坏他""]","[""弱我"",""强他"",""强我"",""弱他""]","","","","","","","","","","","","","","","","","","","","","","","","","","","","","","","","","","","","","",""
"21201","","[{""name"":""Sex"",""value"":""0""},{""name"":""friend_name"",""value"":""刘""},{""name"":""ParticipantID"",""value"":""416""}]","survey-html-form","2","23001","0.0-1.0-1.0","5","6","5","2","3","5","2","5","4","5","5","2","0","0","1","0","1","2","0","5","5","5","5","5","4","5","5","4","4","8","7","6","7","5","8","8","6","7","6","5","5","6","6","5","6","1","5","2","5","2","7","3","6","6","5","2","5","4","2","5","3","3","2","7","6","6","5","7","7","6","6","7","3","6","3","7","5","6","598932304420667392","刘","416","Male","[""坏我"",""好他"",""好我"",""坏他""]","[""弱我"",""强他"",""强我"",""弱他""]","","","","","","","","","","","","","","","","","","","","","","","","","","","","","","","","","","","","","",""
"","","","preload","3","24180","0.0-2.0","5","6","5","2","3","5","2","5","4","5","5","2","0","0","1","0","1","2","0","5","5","5","5","5","4","5","5","4","4","8","7","6","7","5","8","8","6","7","6","5","5","6","6","5","6","1","5","2","5","2","7","3","6","6","5","2","5","4","2","5","3","3","2","7","6","6","5","7","7","6","6","7","3","6","3","7","5","6","598932304420667392","刘","416","Male","[""坏我"",""好他"",""好我"",""坏他""]","[""弱我"",""强他"",""强我"",""弱他""]","","true","false","[]","[]","[]","","","","","","","","","","","","","","","","","","","","","","","","","","","","","","","",""
"","","","fullscreen","4","28989","0.0-3.0","5","6","5","2","3","5","2","5","4","5","5","2","0","0","1","0","1","2","0","5","5","5","5","5","4","5","5","4","4","8","7","6","7","5","8","8","6","7","6","5","5","6","6","5","6","1","5","2","5","2","7","3","6","6","5","2","5","4","2","5","3","3","2","7","6","6","5","7","7","6","6","7","3","6","3","7","5","6","598932304420667392","刘","416","Male","[""坏我"",""好他"",""好我"",""坏他""]","[""弱我"",""强他"",""强我"",""弱他""]","","true","","","","","{}","","","","","","","","","","","","","","","","","","","","","","","","","","","","","","",""
"10822.899999976158","","{""Q01"":""5"",""Q02"":""6"",""Q03"":""5"",""Q04"":""2"",""Q05"":""3""}","survey-template","5","39825","0.0-4.0","5","6","5","2","3","5","2","5","4","5","5","2","0","0","1","0","1","2","0","5","5","5","5","5","4","5","5","4","4","8","7","6","7","5","8","8","6","7","6","5","5","6","6","5","6","1","5","2","5","2","7","3","6","6","5","2","5","4","2","5","3","3","2","7","6","6","5","7","7","6","6","7","3","6","3","7","5","6","598932304420667392","刘","416","Male","[""坏我"",""好他"",""好我"",""坏他""]","[""弱我"",""强他"",""强我"",""弱他""]","","","","","","","","{""Q01"":""5"",""Q02"":""6"",""Q03"":""5"",""Q04"":""2"",""Q05"":""3""}","[0,1,2,3,4]","[""Q01"",""Q02"",""Q03"",""Q04"",""Q05""]","[3747.5,4587.099999904633,6451.199999928474,8763.5,9739.299999952316]","[]","[3747.5,4587.099999904633,6451.199999928474,8763.5,9739.299999952316,10821.199999928474]","0.4","0.75","0","","","","","","","","","","","","","","","","","","","","","",""
"22034.799999952316","","{""Q01"":""5"",""Q02"":""2"",""Q03"":""5"",""Q04"":""4"",""Q05"":""5"",""Q06"":""5""}","survey-template","6","61866","0.0-5.0","5","6","5","2","3","5","2","5","4","5","5","2","0","0","1","0","1","2","0","5","5","5","5","5","4","5","5","4","4","8","7","6","7","5","8","8","6","7","6","5","5","6","6","5","6","1","5","2","5","2","7","3","6","6","5","2","5","4","2","5","3","3","2","7","6","6","5","7","7","6","6","7","3","6","3","7","5","6","598932304420667392","刘","416","Male","[""坏我"",""好他"",""好我"",""坏他""]","[""弱我"",""强他"",""强我"",""弱他""]","","","","","","","","{""Q01"":""5"",""Q02"":""2"",""Q03"":""5"",""Q04"":""4"",""Q05"":""5"",""Q06"":""5""}","[0,1,2,3,4,5]","[""Q01"",""Q02"",""Q03"",""Q04"",""Q05"",""Q05"",""Q06""]","[1769.6999999284744,13018.399999976158,14369.5,16345.5,18593.399999976158,19698.100000023842,21258]","[]","[1769.6999999284744,12201.5,12633.5,13018.399999976158,14369.5,16345.5,18593.399999976158,19698.100000023842,20905.100000023842,21258,22033.600000023842]","0.5","0.8","0","","","","","","","","","","","","","","","","","","","","","",""
"24699.600000023842","","{""Q01"":""2"",""Q02"":""0"",""Q03"":""0"",""Q04"":""1"",""Q05"":""0"",""Q06"":""1"",""Q07"":""2"",""Q08"":""0""}","survey-template","7","86571","0.0-6.0","5","6","5","2","3","5","2","5","4","5","5","2","0","0","1","0","1","2","0","5","5","5","5","5","4","5","5","4","4","8","7","6","7","5","8","8","6","7","6","5","5","6","6","5","6","1","5","2","5","2","7","3","6","6","5","2","5","4","2","5","3","3","2","7","6","6","5","7","7","6","6","7","3","6","3","7","5","6","598932304420667392","刘","416","Male","[""坏我"",""好他"",""好我"",""坏他""]","[""弱我"",""强他"",""强我"",""弱他""]","","","","","","","","{""Q01"":""2"",""Q02"":""0"",""Q03"":""0"",""Q04"":""1"",""Q05"":""0"",""Q06"":""1"",""Q07"":""2"",""Q08"":""0""}","[0,1,2,3,4,5,6,7]","[""Q01"",""Q02"",""Q03"",""Q04"",""Q05"",""Q06"",""Q07"",""Q08""]","[10026.100000023842,11970,14946.100000023842,16626.199999928474,18322,20001.899999976158,21881.699999928474,23682.100000023842]","[]","[10026.100000023842,11970,13818.199999928474,14257.899999976158,14946.100000023842,16626.199999928474,18322,20001.899999976158,21434,21881.699999928474,23369.899999976158,23682.100000023842,24697.799999952316]","0.5","0.5714285714285714","0","","","","","","","","","","","","","","","","","","","","","",""
"5409","
    <p><div style='color:white;font-size:35px; line-height:20px;'>词汇评估任务</div></p><br>
    <p><div style='color:white;font-size:25px; line-height:20px;'>请再次回忆该亲密的朋友，你们至少2年前就认识了，并且最近2年经常见面。</div></p>
    <p><div style='color:white;font-size:25px; line-height:20px;'>在本实验中，您将会看到一些形容词。</div></p>
    <p><div style='color:yellow;font-size:25px; line-height:20px;'>您的任务是判断这些形容词是否符合对您自己或您的朋友的描述。</div></p><p style='font-size:35px'>符合按<span style=""color:lightgreen""> f 键</span>，不符合按<span style=""color:red""> j 键</span></p>","0","html-button-response","8","91985","0.0-7.0-0.0","5","6","5","2","3","5","2","5","4","5","5","2","0","0","1","0","1","2","0","5","5","5","5","5","4","5","5","4","4","8","7","6","7","5","8","8","6","7","6","5","5","6","6","5","6","1","5","2","5","2","7","3","6","6","5","2","5","4","2","5","3","3","2","7","6","6","5","7","7","6","6","7","3","6","3","7","5","6","598932304420667392","刘","416","Male","[""坏我"",""好他"",""好我"",""坏他""]","[""弱我"",""强他"",""强我"",""弱他""]","","","","","","","","","","","","","","","","","SRET_EW","EW_instructions","Thu Nov 16 2023 09:51:10 GMT+0800 (中国标准时间)","","","","","","","","","","","","","","","","","","",""
"1815","","f","psychophysics","9","94847","0.0-7.0-1.0-0.0","5","6","5","2","3","5","2","5","4","5","5","2","0","0","1","0","1","2","0","5","5","5","5","5","4","5","5","4","4","8","7","6","7","5","8","8","6","7","6","5","5","6","6","5","6","1","5","2","5","2","7","3","6","6","5","2","5","4","2","5","3","3","2","7","6","6","5","7","7","6","6","7","3","6","3","7","5","6","598932304420667392","刘","416","Male","[""坏我"",""好他"",""好我"",""坏他""]","[""弱我"",""强他"",""强我"",""弱他""]","","","","","","","","yes","","","","","","","","","SRET_EW","EW_practice","","key","f","16.642662790697678","802.9411539486954","447.0588109897498","自己","严谨","Positive","ability","","","","","","","","","",""
"1289","","f","psychophysics","10","97143","0.0-7.0-1.0-0.1","5","6","5","2","3","5","2","5","4","5","5","2","0","0","1","0","1","2","0","5","5","5","5","5","4","5","5","4","4","8","7","6","7","5","8","8","6","7","6","5","5","6","6","5","6","1","5","2","5","2","7","3","6","6","5","2","5","4","2","5","3","3","2","7","6","6","5","7","7","6","6","7","3","6","3","7","5","6","598932304420667392","刘","416","Male","[""坏我"",""好他"",""好我"",""坏他""]","[""弱我"",""强他"",""强我"",""弱他""]","","","","","","","","yes","","","","","","","","","SRET_EW","EW_practice","","key","f","16.674257352941126","802.9411539486954","447.0588109897498","朋友","忠实","Positive","morality","","","","","","","","","",""
"1676","","j","psychophysics","11","99836","0.0-7.0-1.0-0.2","5","6","5","2","3","5","2","5","4","5","5","2","0","0","1","0","1","2","0","5","5","5","5","5","4","5","5","4","4","8","7","6","7","5","8","8","6","7","6","5","5","6","6","5","6","1","5","2","5","2","7","3","6","6","5","2","5","4","2","5","3","3","2","7","6","6","5","7","7","6","6","7","3","6","3","7","5","6","598932304420667392","刘","416","Male","[""坏我"",""好他"",""好我"",""坏他""]","[""弱我"",""强他"",""强我"",""弱他""]","","","","","","","","no","","","","","","","","","SRET_EW","EW_practice","","key","j","16.674366459627354","802.9411539486954","447.0588109897498","朋友","徇私","Negative","morality","","","","","","","","","",""
"1807","","j","psychophysics","12","102654","0.0-7.0-1.0-0.3","5","6","5","2","3","5","2","5","4","5","5","2","0","0","1","0","1","2","0","5","5","5","5","5","4","5","5","4","4","8","7","6","7","5","8","8","6","7","6","5","5","6","6","5","6","1","5","2","5","2","7","3","6","6","5","2","5","4","2","5","3","3","2","7","6","6","5","7","7","6","6","7","3","6","3","7","5","6","598932304420667392","刘","416","Male","[""坏我"",""好他"",""好我"",""坏他""]","[""弱我"",""强他"",""强我"",""弱他""]","","","","","","","","no","","","","","","","","","SRET_EW","EW_practice","","key","j","16.673559523809498","802.9411539486954","447.0588109897498","自己","刻板","Negative","ability","","","","","","","","","",""
"3869","
    <p><div style='color:white;font-size:35px; line-height:20px;'>请您再次阅读实验要求</div></p><br>
    <p><div style='color:white;font-size:25px; line-height:20px;'>请回忆某一个亲密的朋友，你们至少2年前就认识了，并且最近2年经常见面。</div></p>
    <p><div style='color:white;font-size:25px; line-height:20px;'>在本实验中，您将会看到一些形容词。</div></p>
    <p><div style='color:yellow;font-size:25px; line-height:20px;'>您的任务是判断这些形容词是否符合对您自己或您的朋友的描述。</div></p>
    <p><div class='footer' style='font-size:25px; line-height:20px;'>如果对本实验还有不清楚之处，请立即向实验员咨询。</p><p style='font-size:25px; line-height:20px;'>如果您明白了规则：</p><p style='font-size:22px; line-height:20px;'>请按 继续 进入正式实验</p>
    </div>
    <p style='font-size:35px'>符合按<span style=""color:lightgreen""> f 键</span>，不符合按<span style=""color:red""> j 键</span></p>","0","html-button-response","13","106530","0.0-7.0-2.0","5","6","5","2","3","5","2","5","4","5","5","2","0","0","1","0","1","2","0","5","5","5","5","5","4","5","5","4","4","8","7","6","7","5","8","8","6","7","6","5","5","6","6","5","6","1","5","2","5","2","7","3","6","6","5","2","5","4","2","5","3","3","2","7","6","6","5","7","7","6","6","7","3","6","3","7","5","6","598932304420667392","刘","416","Male","[""坏我"",""好他"",""好我"",""坏他""]","[""弱我"",""强他"",""强我"",""弱他""]","","","","","","","","","","","","","","","","","SRET_EW","prac_instructions","Thu Nov 16 2023 09:51:10 GMT+0800 (中国标准时间)","","","","","","","","","","","","","","","","","","",""
"1160","","f","psychophysics","14","108698","0.0-7.0-3.0-0.0","5","6","5","2","3","5","2","5","4","5","5","2","0","0","1","0","1","2","0","5","5","5","5","5","4","5","5","4","4","8","7","6","7","5","8","8","6","7","6","5","5","6","6","5","6","1","5","2","5","2","7","3","6","6","5","2","5","4","2","5","3","3","2","7","6","6","5","7","7","6","6","7","3","6","3","7","5","6","598932304420667392","刘","416","Male","[""坏我"",""好他"",""好我"",""坏他""]","[""弱我"",""强他"",""强我"",""弱他""]","","","","","","","","yes","","","","","","","","","SRET","EW_formal","","key","f","16.716030769230787","802.9411539486954","447.0588109897498","自己","坚贞","Positive","morality","","","","","","","","","",""
"1319","","j","psychophysics","15","111052","0.0-7.0-3.0-0.1","5","6","5","2","3","5","2","5","4","5","5","2","0","0","1","0","1","2","0","5","5","5","5","5","4","5","5","4","4","8","7","6","7","5","8","8","6","7","6","5","5","6","6","5","6","1","5","2","5","2","7","3","6","6","5","2","5","4","2","5","3","3","2","7","6","6","5","7","7","6","6","7","3","6","3","7","5","6","598932304420667392","刘","416","Male","[""坏我"",""好他"",""好我"",""坏他""]","[""弱我"",""强他"",""强我"",""弱他""]","","","","","","","","no","","","","","","","","","SRET","EW_formal","","key","j","16.67317142857147","802.9411539486954","447.0588109897498","自己","说谎","Negative","morality","","","","","","","","","",""
"1382","","j","psychophysics","16","113437","0.0-7.0-3.0-0.2","5","6","5","2","3","5","2","5","4","5","5","2","0","0","1","0","1","2","0","5","5","5","5","5","4","5","5","4","4","8","7","6","7","5","8","8","6","7","6","5","5","6","6","5","6","1","5","2","5","2","7","3","6","6","5","2","5","4","2","5","3","3","2","7","6","6","5","7","7","6","6","7","3","6","3","7","5","6","598932304420667392","刘","416","Male","[""坏我"",""好他"",""好我"",""坏他""]","[""弱我"",""强他"",""强我"",""弱他""]","","","","","","","","no","","","","","","","","","SRET","EW_formal","","key","j","16.67757446808511","802.9411539486954","447.0588109897498","朋友","迷糊","Negative","ability","","","","","","","","","",""
"1162","","f","psychophysics","17","115606","0.0-7.0-3.0-0.3","5","6","5","2","3","5","2","5","4","5","5","2","0","0","1","0","1","2","0","5","5","5","5","5","4","5","5","4","4","8","7","6","7","5","8","8","6","7","6","5","5","6","6","5","6","1","5","2","5","2","7","3","6","6","5","2","5","4","2","5","3","3","2","7","6","6","5","7","7","6","6","7","3","6","3","7","5","6","598932304420667392","刘","416","Male","[""坏我"",""好他"",""好我"",""坏他""]","[""弱我"",""强他"",""强我"",""弱他""]","","","","","","","","yes","","","","","","","","","SRET","EW_formal","","key","f","16.674384615384604","802.9411539486954","447.0588109897498","朋友","务实","Positive","ability","","","","","","","","","",""
"1754","","f","psychophysics","18","118380","0.0-7.0-3.0-0.4","5","6","5","2","3","5","2","5","4","5","5","2","0","0","1","0","1","2","0","5","5","5","5","5","4","5","5","4","4","8","7","6","7","5","8","8","6","7","6","5","5","6","6","5","6","1","5","2","5","2","7","3","6","6","5","2","5","4","2","5","3","3","2","7","6","6","5","7","7","6","6","7","3","6","3","7","5","6","598932304420667392","刘","416","Male","[""坏我"",""好他"",""好我"",""坏他""]","[""弱我"",""强他"",""强我"",""弱他""]","","","","","","","","yes","","","","","","","","","SRET","EW_formal","","key","f","17.088670807453404","802.9411539486954","447.0588109897498","自己","中用","Positive","ability","","","","","","","","","",""
"1104","","f","psychophysics","19","120498","0.0-7.0-3.0-0.5","5","6","5","2","3","5","2","5","4","5","5","2","0","0","1","0","1","2","0","5","5","5","5","5","4","5","5","4","4","8","7","6","7","5","8","8","6","7","6","5","5","6","6","5","6","1","5","2","5","2","7","3","6","6","5","2","5","4","2","5","3","3","2","7","6","6","5","7","7","6","6","7","3","6","3","7","5","6","598932304420667392","刘","416","Male","[""坏我"",""好他"",""好我"",""坏他""]","[""弱我"",""强他"",""强我"",""弱他""]","","","","","","","","yes","","","","","","","","","SRET","EW_formal","","key","f","16.674904761904767","802.9411539486954","447.0588109897498","朋友","忠义","Positive","morality","","","","","","","","","",""
"1161","","j","psychophysics","20","122674","0.0-7.0-3.0-0.6","5","6","5","2","3","5","2","5","4","5","5","2","0","0","1","0","1","2","0","5","5","5","5","5","4","5","5","4","4","8","7","6","7","5","8","8","6","7","6","5","5","6","6","5","6","1","5","2","5","2","7","3","6","6","5","2","5","4","2","5","3","3","2","7","6","6","5","7","7","6","6","7","3","6","3","7","5","6","598932304420667392","刘","416","Male","[""坏我"",""好他"",""好我"",""坏他""]","[""弱我"",""强他"",""强我"",""弱他""]","","","","","","","","no","","","","","","","","","SRET","EW_formal","","key","j","16.934734375000062","802.9411539486954","447.0588109897498","朋友","狡诈","Negative","morality","","","","","","","","","",""
"1084","","j","psychophysics","21","124763","0.0-7.0-3.0-0.7","5","6","5","2","3","5","2","5","4","5","5","2","0","0","1","0","1","2","0","5","5","5","5","5","4","5","5","4","4","8","7","6","7","5","8","8","6","7","6","5","5","6","6","5","6","1","5","2","5","2","7","3","6","6","5","2","5","4","2","5","3","3","2","7","6","6","5","7","7","6","6","7","3","6","3","7","5","6","598932304420667392","刘","416","Male","[""坏我"",""好他"",""好我"",""坏他""]","[""弱我"",""强他"",""强我"",""弱他""]","","","","","","","","no","","","","","","","","","SRET","EW_formal","","key","j","16.67398387096769","802.9411539486954","447.0588109897498","自己","势利","Negative","morality","","","","","","","","","",""
"929","","f","psychophysics","22","126695","0.0-7.0-3.0-0.8","5","6","5","2","3","5","2","5","4","5","5","2","0","0","1","0","1","2","0","5","5","5","5","5","4","5","5","4","4","8","7","6","7","5","8","8","6","7","6","5","5","6","6","5","6","1","5","2","5","2","7","3","6","6","5","2","5","4","2","5","3","3","2","7","6","6","5","7","7","6","6","7","3","6","3","7","5","6","598932304420667392","刘","416","Male","[""坏我"",""好他"",""好我"",""坏他""]","[""弱我"",""强他"",""强我"",""弱他""]","","","","","","","","yes","","","","","","","","","SRET","EW_formal","","key","f","16.67494782608701","802.9411539486954","447.0588109897498","朋友","善良","Positive","morality","","","","","","","","","",""
"895","","f","psychophysics","23","128595","0.0-7.0-3.0-0.9","5","6","5","2","3","5","2","5","4","5","5","2","0","0","1","0","1","2","0","5","5","5","5","5","4","5","5","4","4","8","7","6","7","5","8","8","6","7","6","5","5","6","6","5","6","1","5","2","5","2","7","3","6","6","5","2","5","4","2","5","3","3","2","7","6","6","5","7","7","6","6","7","3","6","3","7","5","6","598932304420667392","刘","416","Male","[""坏我"",""好他"",""好我"",""坏他""]","[""弱我"",""强他"",""强我"",""弱他""]","","","","","","","","yes","","","","","","","","","SRET","EW_formal","","key","f","16.67437168141591","802.9411539486954","447.0588109897498","自己","清廉","Positive","morality","","","","","","","","","",""
"782","","f","psychophysics","24","130382","0.0-7.0-3.0-0.10","5","6","5","2","3","5","2","5","4","5","5","2","0","0","1","0","1","2","0","5","5","5","5","5","4","5","5","4","4","8","7","6","7","5","8","8","6","7","6","5","5","6","6","5","6","1","5","2","5","2","7","3","6","6","5","2","5","4","2","5","3","3","2","7","6","6","5","7","7","6","6","7","3","6","3","7","5","6","598932304420667392","刘","416","Male","[""坏我"",""好他"",""好我"",""坏他""]","[""弱我"",""强他"",""强我"",""弱他""]","","","","","","","","yes","","","","","","","","","SRET","EW_formal","","key","f","16.675905660377158","802.9411539486954","447.0588109897498","朋友","智慧","Positive","ability","","","","","","","","","",""
"1049","","f","psychophysics","25","132435","0.0-7.0-3.0-0.11","5","6","5","2","3","5","2","5","4","5","5","2","0","0","1","0","1","2","0","5","5","5","5","5","4","5","5","4","4","8","7","6","7","5","8","8","6","7","6","5","5","6","6","5","6","1","5","2","5","2","7","3","6","6","5","2","5","4","2","5","3","3","2","7","6","6","5","7","7","6","6","7","3","6","3","7","5","6","598932304420667392","刘","416","Male","[""坏我"",""好他"",""好我"",""坏他""]","[""弱我"",""强他"",""强我"",""弱他""]","","","","","","","","yes","","","","","","","","","SRET","EW_formal","","key","f","16.67395901639343","802.9411539486954","447.0588109897498","朋友","短视","Negative","ability","","","","","","","","","",""
"919","","f","psychophysics","26","134360","0.0-7.0-3.0-0.12","5","6","5","2","3","5","2","5","4","5","5","2","0","0","1","0","1","2","0","5","5","5","5","5","4","5","5","4","4","8","7","6","7","5","8","8","6","7","6","5","5","6","6","5","6","1","5","2","5","2","7","3","6","6","5","2","5","4","2","5","3","3","2","7","6","6","5","7","7","6","6","7","3","6","3","7","5","6","598932304420667392","刘","416","Male","[""坏我"",""好他"",""好我"",""坏他""]","[""弱我"",""强他"",""强我"",""弱他""]","","","","","","","","yes","","","","","","","","","SRET","EW_formal","","key","f","16.674771929824555","802.9411539486954","447.0588109897498","自己","守信","Positive","morality","","","","","","","","","",""
"819","","f","psychophysics","27","136187","0.0-7.0-3.0-0.13","5","6","5","2","3","5","2","5","4","5","5","2","0","0","1","0","1","2","0","5","5","5","5","5","4","5","5","4","4","8","7","6","7","5","8","8","6","7","6","5","5","6","6","5","6","1","5","2","5","2","7","3","6","6","5","2","5","4","2","5","3","3","2","7","6","6","5","7","7","6","6","7","3","6","3","7","5","6","598932304420667392","刘","416","Male","[""坏我"",""好他"",""好我"",""坏他""]","[""弱我"",""强他"",""强我"",""弱他""]","","","","","","","","yes","","","","","","","","","SRET","EW_formal","","key","f","16.82819444444451","802.9411539486954","447.0588109897498","朋友","仁厚","Positive","morality","","","","","","","","","",""
"1421","","f","psychophysics","28","138625","0.0-7.0-3.0-0.14","5","6","5","2","3","5","2","5","4","5","5","2","0","0","1","0","1","2","0","5","5","5","5","5","4","5","5","4","4","8","7","6","7","5","8","8","6","7","6","5","5","6","6","5","6","1","5","2","5","2","7","3","6","6","5","2","5","4","2","5","3","3","2","7","6","6","5","7","7","6","6","7","3","6","3","7","5","6","598932304420667392","刘","416","Male","[""坏我"",""好他"",""好我"",""坏他""]","[""弱我"",""强他"",""强我"",""弱他""]","","","","","","","","yes","","","","","","","","","SRET","EW_formal","","key","f","16.674179310344986","802.9411539486954","447.0588109897498","朋友","新手","Negative","ability","","","","","","","","","",""
"780","","j","psychophysics","29","140431","0.0-7.0-3.0-0.15","5","6","5","2","3","5","2","5","4","5","5","2","0","0","1","0","1","2","0","5","5","5","5","5","4","5","5","4","4","8","7","6","7","5","8","8","6","7","6","5","5","6","6","5","6","1","5","2","5","2","7","3","6","6","5","2","5","4","2","5","3","3","2","7","6","6","5","7","7","6","6","7","3","6","3","7","5","6","598932304420667392","刘","416","Male","[""坏我"",""好他"",""好我"",""坏他""]","[""弱我"",""强他"",""强我"",""弱他""]","","","","","","","","no","","","","","","","","","SRET","EW_formal","","key","j","16.67551401869158","802.9411539486954","447.0588109897498","自己","缺德","Negative","morality","","","","","","","","","",""
"1365","","j","psychophysics","30","142801","0.0-7.0-3.0-0.16","5","6","5","2","3","5","2","5","4","5","5","2","0","0","1","0","1","2","0","5","5","5","5","5","4","5","5","4","4","8","7","6","7","5","8","8","6","7","6","5","5","6","6","5","6","1","5","2","5","2","7","3","6","6","5","2","5","4","2","5","3","3","2","7","6","6","5","7","7","6","6","7","3","6","3","7","5","6","598932304420667392","刘","416","Male","[""坏我"",""好他"",""好我"",""坏他""]","[""弱我"",""强他"",""强我"",""弱他""]","","","","","","","","no","","","","","","","","","SRET","EW_formal","","key","j","16.674253521126804","802.9411539486954","447.0588109897498","自己","浅薄","Negative","ability","","","","","","","","","",""
"965","","j","psychophysics","31","144770","0.0-7.0-3.0-0.17","5","6","5","2","3","5","2","5","4","5","5","2","0","0","1","0","1","2","0","5","5","5","5","5","4","5","5","4","4","8","7","6","7","5","8","8","6","7","6","5","5","6","6","5","6","1","5","2","5","2","7","3","6","6","5","2","5","4","2","5","3","3","2","7","6","6","5","7","7","6","6","7","3","6","3","7","5","6","598932304420667392","刘","416","Male","[""坏我"",""好他"",""好我"",""坏他""]","[""弱我"",""强他"",""强我"",""弱他""]","","","","","","","","no","","","","","","","","","SRET","EW_formal","","key","j","16.67496581196573","802.9411539486954","447.0588109897498","朋友","拜金","Negative","morality","","","","","","","","","",""
"1078","","f","psychophysics","32","146853","0.0-7.0-3.0-0.18","5","6","5","2","3","5","2","5","4","5","5","2","0","0","1","0","1","2","0","5","5","5","5","5","4","5","5","4","4","8","7","6","7","5","8","8","6","7","6","5","5","6","6","5","6","1","5","2","5","2","7","3","6","6","5","2","5","4","2","5","3","3","2","7","6","6","5","7","7","6","6","7","3","6","3","7","5","6","598932304420667392","刘","416","Male","[""坏我"",""好他"",""好我"",""坏他""]","[""弱我"",""强他"",""强我"",""弱他""]","","","","","","","","yes","","","","","","","","","SRET","EW_formal","","key","f","16.674508064516093","802.9411539486954","447.0588109897498","自己","娴熟","Positive","ability","","","","","","","","","",""
"896","","j","psychophysics","33","148752","0.0-7.0-3.0-0.19","5","6","5","2","3","5","2","5","4","5","5","2","0","0","1","0","1","2","0","5","5","5","5","5","4","5","5","4","4","8","7","6","7","5","8","8","6","7","6","5","5","6","6","5","6","1","5","2","5","2","7","3","6","6","5","2","5","4","2","5","3","3","2","7","6","6","5","7","7","6","6","7","3","6","3","7","5","6","598932304420667392","刘","416","Male","[""坏我"",""好他"",""好我"",""坏他""]","[""弱我"",""强他"",""强我"",""弱他""]","","","","","","","","no","","","","","","","","","SRET","EW_formal","","key","j","16.67412389380537","802.9411539486954","447.0588109897498","朋友","无赖","Negative","morality","","","","","","","","","",""
"946","","j","psychophysics","34","150704","0.0-7.0-3.0-0.20","5","6","5","2","3","5","2","5","4","5","5","2","0","0","1","0","1","2","0","5","5","5","5","5","4","5","5","4","4","8","7","6","7","5","8","8","6","7","6","5","5","6","6","5","6","1","5","2","5","2","7","3","6","6","5","2","5","4","2","5","3","3","2","7","6","6","5","7","7","6","6","7","3","6","3","7","5","6","598932304420667392","刘","416","Male","[""坏我"",""好他"",""好我"",""坏他""]","[""弱我"",""强他"",""强我"",""弱他""]","","","","","","","","no","","","","","","","","","SRET","EW_formal","","key","j","16.674172413793084","802.9411539486954","447.0588109897498","自己","弱智","Negative","ability","","","","","","","","","",""
"1036","","j","psychophysics","35","152743","0.0-7.0-3.0-0.21","5","6","5","2","3","5","2","5","4","5","5","2","0","0","1","0","1","2","0","5","5","5","5","5","4","5","5","4","4","8","7","6","7","5","8","8","6","7","6","5","5","6","6","5","6","1","5","2","5","2","7","3","6","6","5","2","5","4","2","5","3","3","2","7","6","6","5","7","7","6","6","7","3","6","3","7","5","6","598932304420667392","刘","416","Male","[""坏我"",""好他"",""好我"",""坏他""]","[""弱我"",""强他"",""强我"",""弱他""]","","","","","","","","no","","","","","","","","","SRET","EW_formal","","key","j","16.674611570247908","802.9411539486954","447.0588109897498","朋友","诡诈","Negative","morality","","","","","","","","","",""
"1048","","j","psychophysics","36","154795","0.0-7.0-3.0-0.22","5","6","5","2","3","5","2","5","4","5","5","2","0","0","1","0","1","2","0","5","5","5","5","5","4","5","5","4","4","8","7","6","7","5","8","8","6","7","6","5","5","6","6","5","6","1","5","2","5","2","7","3","6","6","5","2","5","4","2","5","3","3","2","7","6","6","5","7","7","6","6","7","3","6","3","7","5","6","598932304420667392","刘","416","Male","[""坏我"",""好他"",""好我"",""坏他""]","[""弱我"",""强他"",""强我"",""弱他""]","","","","","","","","no","","","","","","","","","SRET","EW_formal","","key","j","16.675918032786882","802.9411539486954","447.0588109897498","自己","黑心","Negative","morality","","","","","","","","","",""
"1171","","f","psychophysics","37","156978","0.0-7.0-3.0-0.23","5","6","5","2","3","5","2","5","4","5","5","2","0","0","1","0","1","2","0","5","5","5","5","5","4","5","5","4","4","8","7","6","7","5","8","8","6","7","6","5","5","6","6","5","6","1","5","2","5","2","7","3","6","6","5","2","5","4","2","5","3","3","2","7","6","6","5","7","7","6","6","7","3","6","3","7","5","6","598932304420667392","刘","416","Male","[""坏我"",""好他"",""好我"",""坏他""]","[""弱我"",""强他"",""强我"",""弱他""]","","","","","","","","yes","","","","","","","","","SRET","EW_formal","","key","f","16.673938461538413","802.9411539486954","447.0588109897498","自己","刻薄","Negative","morality","","","","","","","","","",""
"1246","","j","psychophysics","38","159227","0.0-7.0-3.0-0.24","5","6","5","2","3","5","2","5","4","5","5","2","0","0","1","0","1","2","0","5","5","5","5","5","4","5","5","4","4","8","7","6","7","5","8","8","6","7","6","5","5","6","6","5","6","1","5","2","5","2","7","3","6","6","5","2","5","4","2","5","3","3","2","7","6","6","5","7","7","6","6","7","3","6","3","7","5","6","598932304420667392","刘","416","Male","[""坏我"",""好他"",""好我"",""坏他""]","[""弱我"",""强他"",""强我"",""弱他""]","","","","","","","","no","","","","","","","","","SRET","EW_formal","","key","j","16.674634328358085","802.9411539486954","447.0588109897498","自己","拙笨","Negative","ability","","","","","","","","","",""
"2085","","f","psychophysics","39","162316","0.0-7.0-3.0-0.25","5","6","5","2","3","5","2","5","4","5","5","2","0","0","1","0","1","2","0","5","5","5","5","5","4","5","5","4","4","8","7","6","7","5","8","8","6","7","6","5","5","6","6","5","6","1","5","2","5","2","7","3","6","6","5","2","5","4","2","5","3","3","2","7","6","6","5","7","7","6","6","7","3","6","3","7","5","6","598932304420667392","刘","416","Male","[""坏我"",""好他"",""好我"",""坏他""]","[""弱我"",""强他"",""强我"",""弱他""]","","","","","","","","yes","","","","","","","","","SRET","EW_formal","","key","f","16.67510326086947","802.9411539486954","447.0588109897498","自己","君子","Positive","morality","","","","","","","","","",""
"1329","","j","psychophysics","40","164659","0.0-7.0-3.0-0.26","5","6","5","2","3","5","2","5","4","5","5","2","0","0","1","0","1","2","0","5","5","5","5","5","4","5","5","4","4","8","7","6","7","5","8","8","6","7","6","5","5","6","6","5","6","1","5","2","5","2","7","3","6","6","5","2","5","4","2","5","3","3","2","7","6","6","5","7","7","6","6","7","3","6","3","7","5","6","598932304420667392","刘","416","Male","[""坏我"",""好他"",""好我"",""坏他""]","[""弱我"",""强他"",""强我"",""弱他""]","","","","","","","","no","","","","","","","","","SRET","EW_formal","","key","j","16.674453237410148","802.9411539486954","447.0588109897498","朋友","廉明","Positive","morality","","","","","","","","","",""
"1078","","j","psychophysics","41","166741","0.0-7.0-3.0-0.27","5","6","5","2","3","5","2","5","4","5","5","2","0","0","1","0","1","2","0","5","5","5","5","5","4","5","5","4","4","8","7","6","7","5","8","8","6","7","6","5","5","6","6","5","6","1","5","2","5","2","7","3","6","6","5","2","5","4","2","5","3","3","2","7","6","6","5","7","7","6","6","7","3","6","3","7","5","6","598932304420667392","刘","416","Male","[""坏我"",""好他"",""好我"",""坏他""]","[""弱我"",""强他"",""强我"",""弱他""]","","","","","","","","no","","","","","","","","","SRET","EW_formal","","key","j","16.8090894308944","802.9411539486954","447.0588109897498","朋友","马虎","Negative","ability","","","","","","","","","",""
"1060","","f","psychophysics","42","168808","0.0-7.0-3.0-0.28","5","6","5","2","3","5","2","5","4","5","5","2","0","0","1","0","1","2","0","5","5","5","5","5","4","5","5","4","4","8","7","6","7","5","8","8","6","7","6","5","5","6","6","5","6","1","5","2","5","2","7","3","6","6","5","2","5","4","2","5","3","3","2","7","6","6","5","7","7","6","6","7","3","6","3","7","5","6","598932304420667392","刘","416","Male","[""坏我"",""好他"",""好我"",""坏他""]","[""弱我"",""强他"",""强我"",""弱他""]","","","","","","","","yes","","","","","","","","","SRET","EW_formal","","key","f","16.673756097561","802.9411539486954","447.0588109897498","朋友","坚持","Positive","ability","","","","","","","","","",""
"1134","","f","psychophysics","43","170960","0.0-7.0-3.0-0.29","5","6","5","2","3","5","2","5","4","5","5","2","0","0","1","0","1","2","0","5","5","5","5","5","4","5","5","4","4","8","7","6","7","5","8","8","6","7","6","5","5","6","6","5","6","1","5","2","5","2","7","3","6","6","5","2","5","4","2","5","3","3","2","7","6","6","5","7","7","6","6","7","3","6","3","7","5","6","598932304420667392","刘","416","Male","[""坏我"",""好他"",""好我"",""坏他""]","[""弱我"",""强他"",""强我"",""弱他""]","","","","","","","","yes","","","","","","","","","SRET","EW_formal","","key","f","16.672310077519402","802.9411539486954","447.0588109897498","自己","自律","Positive","ability","","","","","","","","","",""
"2158","","f","psychophysics","44","174122","0.0-7.0-3.0-0.30","5","6","5","2","3","5","2","5","4","5","5","2","0","0","1","0","1","2","0","5","5","5","5","5","4","5","5","4","4","8","7","6","7","5","8","8","6","7","6","5","5","6","6","5","6","1","5","2","5","2","7","3","6","6","5","2","5","4","2","5","3","3","2","7","6","6","5","7","7","6","6","7","3","6","3","7","5","6","598932304420667392","刘","416","Male","[""坏我"",""好他"",""好我"",""坏他""]","[""弱我"",""强他"",""强我"",""弱他""]","","","","","","","","yes","","","","","","","","","SRET","EW_formal","","key","f","16.675957446808596","802.9411539486954","447.0588109897498","朋友","能干","Positive","ability","","","","","","","","","",""
"933","","j","psychophysics","45","176064","0.0-7.0-3.0-0.31","5","6","5","2","3","5","2","5","4","5","5","2","0","0","1","0","1","2","0","5","5","5","5","5","4","5","5","4","4","8","7","6","7","5","8","8","6","7","6","5","5","6","6","5","6","1","5","2","5","2","7","3","6","6","5","2","5","4","2","5","3","3","2","7","6","6","5","7","7","6","6","7","3","6","3","7","5","6","598932304420667392","刘","416","Male","[""坏我"",""好他"",""好我"",""坏他""]","[""弱我"",""强他"",""强我"",""弱他""]","","","","","","","","no","","","","","","","","","SRET","EW_formal","","key","j","16.820391304347837","802.9411539486954","447.0588109897498","朋友","奸诈","Negative","morality","","","","","","","","","",""
"2085","","f","psychophysics","46","179154","0.0-7.0-3.0-0.32","5","6","5","2","3","5","2","5","4","5","5","2","0","0","1","0","1","2","0","5","5","5","5","5","4","5","5","4","4","8","7","6","7","5","8","8","6","7","6","5","5","6","6","5","6","1","5","2","5","2","7","3","6","6","5","2","5","4","2","5","3","3","2","7","6","6","5","7","7","6","6","7","3","6","3","7","5","6","598932304420667392","刘","416","Male","[""坏我"",""好他"",""好我"",""坏他""]","[""弱我"",""强他"",""强我"",""弱他""]","","","","","","","","yes","","","","","","","","","SRET","EW_formal","","key","f","16.67538043478255","802.9411539486954","447.0588109897498","自己","全才","Positive","ability","","","","","","","","","",""
"10933","","f","psychophysics","47","191090","0.0-7.0-3.0-0.33","5","6","5","2","3","5","2","5","4","5","5","2","0","0","1","0","1","2","0","5","5","5","5","5","4","5","5","4","4","8","7","6","7","5","8","8","6","7","6","5","5","6","6","5","6","1","5","2","5","2","7","3","6","6","5","2","5","4","2","5","3","3","2","7","6","6","5","7","7","6","6","7","3","6","3","7","5","6","598932304420667392","刘","416","Male","[""坏我"",""好他"",""好我"",""坏他""]","[""弱我"",""强他"",""强我"",""弱他""]","","","","","","","","yes","","","","","","","","","SRET","EW_formal","","key","f","16.674163636363637","802.9411539486954","447.0588109897498","朋友","远见","Positive","ability","","","","","","","","","",""
"965","","j","psychophysics","48","193059","0.0-7.0-3.0-0.34","5","6","5","2","3","5","2","5","4","5","5","2","0","0","1","0","1","2","0","5","5","5","5","5","4","5","5","4","4","8","7","6","7","5","8","8","6","7","6","5","5","6","6","5","6","1","5","2","5","2","7","3","6","6","5","2","5","4","2","5","3","3","2","7","6","6","5","7","7","6","6","7","3","6","3","7","5","6","598932304420667392","刘","416","Male","[""坏我"",""好他"",""好我"",""坏他""]","[""弱我"",""强他"",""强我"",""弱他""]","","","","","","","","no","","","","","","","","","SRET","EW_formal","","key","j","16.67654700854691","802.9411539486954","447.0588109897498","自己","废物","Negative","ability","","","","","","","","","",""
"1051","","f","psychophysics","49","195115","0.0-7.0-3.0-0.35","5","6","5","2","3","5","2","5","4","5","5","2","0","0","1","0","1","2","0","5","5","5","5","5","4","5","5","4","4","8","7","6","7","5","8","8","6","7","6","5","5","6","6","5","6","1","5","2","5","2","7","3","6","6","5","2","5","4","2","5","3","3","2","7","6","6","5","7","7","6","6","7","3","6","3","7","5","6","598932304420667392","刘","416","Male","[""坏我"",""好他"",""好我"",""坏他""]","[""弱我"",""强他"",""强我"",""弱他""]","","","","","","","","yes","","","","","","","","","SRET","EW_formal","","key","f","16.674893442622945","802.9411539486954","447.0588109897498","自己","外行","Negative","ability","","","","","","","","","",""
"958","","j","psychophysics","50","197085","0.0-7.0-3.0-0.36","5","6","5","2","3","5","2","5","4","5","5","2","0","0","1","0","1","2","0","5","5","5","5","5","4","5","5","4","4","8","7","6","7","5","8","8","6","7","6","5","5","6","6","5","6","1","5","2","5","2","7","3","6","6","5","2","5","4","2","5","3","3","2","7","6","6","5","7","7","6","6","7","3","6","3","7","5","6","598932304420667392","刘","416","Male","[""坏我"",""好他"",""好我"",""坏他""]","[""弱我"",""强他"",""强我"",""弱他""]","","","","","","","","no","","","","","","","","","SRET","EW_formal","","key","j","16.674222222222394","802.9411539486954","447.0588109897498","自己","文明","Positive","morality","","","","","","","","","",""
"1214","","f","psychophysics","51","199308","0.0-7.0-3.0-0.37","5","6","5","2","3","5","2","5","4","5","5","2","0","0","1","0","1","2","0","5","5","5","5","5","4","5","5","4","4","8","7","6","7","5","8","8","6","7","6","5","5","6","6","5","6","1","5","2","5","2","7","3","6","6","5","2","5","4","2","5","3","3","2","7","6","6","5","7","7","6","6","7","3","6","3","7","5","6","598932304420667392","刘","416","Male","[""坏我"",""好他"",""好我"",""坏他""]","[""弱我"",""强他"",""强我"",""弱他""]","","","","","","","","yes","","","","","","","","","SRET","EW_formal","","key","f","16.67363909774445","802.9411539486954","447.0588109897498","自己","廉正","Positive","morality","","","","","","","","","",""
"1417","","f","psychophysics","52","201730","0.0-7.0-3.0-0.38","5","6","5","2","3","5","2","5","4","5","5","2","0","0","1","0","1","2","0","5","5","5","5","5","4","5","5","4","4","8","7","6","7","5","8","8","6","7","6","5","5","6","6","5","6","1","5","2","5","2","7","3","6","6","5","2","5","4","2","5","3","3","2","7","6","6","5","7","7","6","6","7","3","6","3","7","5","6","598932304420667392","刘","416","Male","[""坏我"",""好他"",""好我"",""坏他""]","[""弱我"",""强他"",""强我"",""弱他""]","","","","","","","","yes","","","","","","","","","SRET","EW_formal","","key","f","16.67440972222216","802.9411539486954","447.0588109897498","自己","迟钝","Negative","ability","","","","","","","","","",""
"1176","","j","psychophysics","53","203911","0.0-7.0-3.0-0.39","5","6","5","2","3","5","2","5","4","5","5","2","0","0","1","0","1","2","0","5","5","5","5","5","4","5","5","4","4","8","7","6","7","5","8","8","6","7","6","5","5","6","6","5","6","1","5","2","5","2","7","3","6","6","5","2","5","4","2","5","3","3","2","7","6","6","5","7","7","6","6","7","3","6","3","7","5","6","598932304420667392","刘","416","Male","[""坏我"",""好他"",""好我"",""坏他""]","[""弱我"",""强他"",""强我"",""弱他""]","","","","","","","","no","","","","","","","","","SRET","EW_formal","","key","j","16.6758692307691","802.9411539486954","447.0588109897498","朋友","愚痴","Negative","ability","","","","","","","","","",""
"1089","","f","psychophysics","54","206003","0.0-7.0-3.0-0.40","5","6","5","2","3","5","2","5","4","5","5","2","0","0","1","0","1","2","0","5","5","5","5","5","4","5","5","4","4","8","7","6","7","5","8","8","6","7","6","5","5","6","6","5","6","1","5","2","5","2","7","3","6","6","5","2","5","4","2","5","3","3","2","7","6","6","5","7","7","6","6","7","3","6","3","7","5","6","598932304420667392","刘","416","Male","[""坏我"",""好他"",""好我"",""坏他""]","[""弱我"",""强他"",""强我"",""弱他""]","","","","","","","","yes","","","","","","","","","SRET","EW_formal","","key","f","16.672620967741928","802.9411539486954","447.0588109897498","朋友","干练","Positive","ability","","","","","","","","","",""
"4519","","f","psychophysics","55","211533","0.0-7.0-3.0-0.41","5","6","5","2","3","5","2","5","4","5","5","2","0","0","1","0","1","2","0","5","5","5","5","5","4","5","5","4","4","8","7","6","7","5","8","8","6","7","6","5","5","6","6","5","6","1","5","2","5","2","7","3","6","6","5","2","5","4","2","5","3","3","2","7","6","6","5","7","7","6","6","7","3","6","3","7","5","6","598932304420667392","刘","416","Male","[""坏我"",""好他"",""好我"",""坏他""]","[""弱我"",""强他"",""强我"",""弱他""]","","","","","","","","yes","","","","","","","","","SRET","EW_formal","","key","f","16.826545731707373","802.9411539486954","447.0588109897498","朋友","义气","Positive","morality","","","","","","","","","",""
"1334","","j","psychophysics","56","213870","0.0-7.0-3.0-0.42","5","6","5","2","3","5","2","5","4","5","5","2","0","0","1","0","1","2","0","5","5","5","5","5","4","5","5","4","4","8","7","6","7","5","8","8","6","7","6","5","5","6","6","5","6","1","5","2","5","2","7","3","6","6","5","2","5","4","2","5","3","3","2","7","6","6","5","7","7","6","6","7","3","6","3","7","5","6","598932304420667392","刘","416","Male","[""坏我"",""好他"",""好我"",""坏他""]","[""弱我"",""强他"",""强我"",""弱他""]","","","","","","","","no","","","","","","","","","SRET","EW_formal","","key","j","16.675776978417193","802.9411539486954","447.0588109897498","自己","业余","Negative","ability","","","","","","","","","",""
"793","","f","psychophysics","57","215666","0.0-7.0-3.0-0.43","5","6","5","2","3","5","2","5","4","5","5","2","0","0","1","0","1","2","0","5","5","5","5","5","4","5","5","4","4","8","7","6","7","5","8","8","6","7","6","5","5","6","6","5","6","1","5","2","5","2","7","3","6","6","5","2","5","4","2","5","3","3","2","7","6","6","5","7","7","6","6","7","3","6","3","7","5","6","598932304420667392","刘","416","Male","[""坏我"",""好他"",""好我"",""坏他""]","[""弱我"",""强他"",""强我"",""弱他""]","","","","","","","","yes","","","","","","","","","SRET","EW_formal","","key","f","16.672841121495384","802.9411539486954","447.0588109897498","朋友","专注","Positive","ability","","","","","","","","","",""
"863","","j","psychophysics","58","217537","0.0-7.0-3.0-0.44","5","6","5","2","3","5","2","5","4","5","5","2","0","0","1","0","1","2","0","5","5","5","5","5","4","5","5","4","4","8","7","6","7","5","8","8","6","7","6","5","5","6","6","5","6","1","5","2","5","2","7","3","6","6","5","2","5","4","2","5","3","3","2","7","6","6","5","7","7","6","6","7","3","6","3","7","5","6","598932304420667392","刘","416","Male","[""坏我"",""好他"",""好我"",""坏他""]","[""弱我"",""强他"",""强我"",""弱他""]","","","","","","","","no","","","","","","","","","SRET","EW_formal","","key","j","16.675288288288243","802.9411539486954","447.0588109897498","朋友","不仁","Negative","morality","","","","","","","","","",""
"9810","","f","psychophysics","59","228351","0.0-7.0-3.0-0.45","5","6","5","2","3","5","2","5","4","5","5","2","0","0","1","0","1","2","0","5","5","5","5","5","4","5","5","4","4","8","7","6","7","5","8","8","6","7","6","5","5","6","6","5","6","1","5","2","5","2","7","3","6","6","5","2","5","4","2","5","3","3","2","7","6","6","5","7","7","6","6","7","3","6","3","7","5","6","598932304420667392","刘","416","Male","[""坏我"",""好他"",""好我"",""坏他""]","[""弱我"",""强他"",""强我"",""弱他""]","","","","","","","","yes","","","","","","","","","SRET","EW_formal","","key","f","16.962455974842772","802.9411539486954","447.0588109897498","自己","毅力","Positive","ability","","","","","","","","","",""
"707","","f","psychophysics","60","230061","0.0-7.0-3.0-0.46","5","6","5","2","3","5","2","5","4","5","5","2","0","0","1","0","1","2","0","5","5","5","5","5","4","5","5","4","4","8","7","6","7","5","8","8","6","7","6","5","5","6","6","5","6","1","5","2","5","2","7","3","6","6","5","2","5","4","2","5","3","3","2","7","6","6","5","7","7","6","6","7","3","6","3","7","5","6","598932304420667392","刘","416","Male","[""坏我"",""好他"",""好我"",""坏他""]","[""弱我"",""强他"",""强我"",""弱他""]","","","","","","","","yes","","","","","","","","","SRET","EW_formal","","key","f","16.67460784313723","802.9411539486954","447.0588109897498","朋友","忠勇","Positive","morality","","","","","","","","","",""
"1110","","j","psychophysics","61","232172","0.0-7.0-3.0-0.47","5","6","5","2","3","5","2","5","4","5","5","2","0","0","1","0","1","2","0","5","5","5","5","5","4","5","5","4","4","8","7","6","7","5","8","8","6","7","6","5","5","6","6","5","6","1","5","2","5","2","7","3","6","6","5","2","5","4","2","5","3","3","2","7","6","6","5","7","7","6","6","7","3","6","3","7","5","6","598932304420667392","刘","416","Male","[""坏我"",""好他"",""好我"",""坏他""]","[""弱我"",""强他"",""强我"",""弱他""]","","","","","","","","no","","","","","","","","","SRET","EW_formal","","key","j","16.67589682539683","802.9411539486954","447.0588109897498","自己","刻苦","Positive","ability","","","","","","","","","",""
"651","","f","psychophysics","62","233840","0.0-7.0-3.0-0.48","5","6","5","2","3","5","2","5","4","5","5","2","0","0","1","0","1","2","0","5","5","5","5","5","4","5","5","4","4","8","7","6","7","5","8","8","6","7","6","5","5","6","6","5","6","1","5","2","5","2","7","3","6","6","5","2","5","4","2","5","3","3","2","7","6","6","5","7","7","6","6","7","3","6","3","7","5","6","598932304420667392","刘","416","Male","[""坏我"",""好他"",""好我"",""坏他""]","[""弱我"",""强他"",""强我"",""弱他""]","","","","","","","","yes","","","","","","","","","SRET","EW_formal","","key","f","16.843350515464145","802.9411539486954","447.0588109897498","自己","忠诚","Positive","morality","","","","","","","","","",""
"707","","j","psychophysics","63","235555","0.0-7.0-3.0-0.49","5","6","5","2","3","5","2","5","4","5","5","2","0","0","1","0","1","2","0","5","5","5","5","5","4","5","5","4","4","8","7","6","7","5","8","8","6","7","6","5","5","6","6","5","6","1","5","2","5","2","7","3","6","6","5","2","5","4","2","5","3","3","2","7","6","6","5","7","7","6","6","7","3","6","3","7","5","6","598932304420667392","刘","416","Male","[""坏我"",""好他"",""好我"",""坏他""]","[""弱我"",""强他"",""强我"",""弱他""]","","","","","","","","no","","","","","","","","","SRET","EW_formal","","key","j","17.171779999999853","802.9411539486954","447.0588109897498","自己","贪腐","Negative","morality","","","","","","","","","",""
"700","","f","psychophysics","64","237258","0.0-7.0-3.0-0.50","5","6","5","2","3","5","2","5","4","5","5","2","0","0","1","0","1","2","0","5","5","5","5","5","4","5","5","4","4","8","7","6","7","5","8","8","6","7","6","5","5","6","6","5","6","1","5","2","5","2","7","3","6","6","5","2","5","4","2","5","3","3","2","7","6","6","5","7","7","6","6","7","3","6","3","7","5","6","598932304420667392","刘","416","Male","[""坏我"",""好他"",""好我"",""坏他""]","[""弱我"",""强他"",""强我"",""弱他""]","","","","","","","","yes","","","","","","","","","SRET","EW_formal","","key","f","16.677178217821968","802.9411539486954","447.0588109897498","自己","细心","Positive","ability","","","","","","","","","",""
"663","","f","psychophysics","65","238924","0.0-7.0-3.0-0.51","5","6","5","2","3","5","2","5","4","5","5","2","0","0","1","0","1","2","0","5","5","5","5","5","4","5","5","4","4","8","7","6","7","5","8","8","6","7","6","5","5","6","6","5","6","1","5","2","5","2","7","3","6","6","5","2","5","4","2","5","3","3","2","7","6","6","5","7","7","6","6","7","3","6","3","7","5","6","598932304420667392","刘","416","Male","[""坏我"",""好他"",""好我"",""坏他""]","[""弱我"",""强他"",""强我"",""弱他""]","","","","","","","","yes","","","","","","","","","SRET","EW_formal","","key","f","16.674868686868447","802.9411539486954","447.0588109897498","朋友","学霸","Positive","ability","","","","","","","","","",""
"718","","f","psychophysics","66","240648","0.0-7.0-3.0-0.52","5","6","5","2","3","5","2","5","4","5","5","2","0","0","1","0","1","2","0","5","5","5","5","5","4","5","5","4","4","8","7","6","7","5","8","8","6","7","6","5","5","6","6","5","6","1","5","2","5","2","7","3","6","6","5","2","5","4","2","5","3","3","2","7","6","6","5","7","7","6","6","7","3","6","3","7","5","6","598932304420667392","刘","416","Male","[""坏我"",""好他"",""好我"",""坏他""]","[""弱我"",""强他"",""强我"",""弱他""]","","","","","","","","yes","","","","","","","","","SRET","EW_formal","","key","f","16.673598039215637","802.9411539486954","447.0588109897498","自己","高尚","Positive","morality","","","","","","","","","",""
"1357","","f","psychophysics","67","243009","0.0-7.0-3.0-0.53","5","6","5","2","3","5","2","5","4","5","5","2","0","0","1","0","1","2","0","5","5","5","5","5","4","5","5","4","4","8","7","6","7","5","8","8","6","7","6","5","5","6","6","5","6","1","5","2","5","2","7","3","6","6","5","2","5","4","2","5","3","3","2","7","6","6","5","7","7","6","6","7","3","6","3","7","5","6","598932304420667392","刘","416","Male","[""坏我"",""好他"",""好我"",""坏他""]","[""弱我"",""强他"",""强我"",""弱他""]","","","","","","","","yes","","","","","","","","","SRET","EW_formal","","key","f","16.67422695035455","802.9411539486954","447.0588109897498","朋友","淡泊","Positive","morality","","","","","","","","","",""
"781","","f","psychophysics","68","244793","0.0-7.0-3.0-0.54","5","6","5","2","3","5","2","5","4","5","5","2","0","0","1","0","1","2","0","5","5","5","5","5","4","5","5","4","4","8","7","6","7","5","8","8","6","7","6","5","5","6","6","5","6","1","5","2","5","2","7","3","6","6","5","2","5","4","2","5","3","3","2","7","6","6","5","7","7","6","6","7","3","6","3","7","5","6","598932304420667392","刘","416","Male","[""坏我"",""好他"",""好我"",""坏他""]","[""弱我"",""强他"",""强我"",""弱他""]","","","","","","","","yes","","","","","","","","","SRET","EW_formal","","key","f","19.007827956989278","802.9411539486954","447.0588109897498","自己","屈才","Negative","ability","","","","","","","","","",""
"1185","","f","psychophysics","69","246981","0.0-7.0-3.0-0.55","5","6","5","2","3","5","2","5","4","5","5","2","0","0","1","0","1","2","0","5","5","5","5","5","4","5","5","4","4","8","7","6","7","5","8","8","6","7","6","5","5","6","6","5","6","1","5","2","5","2","7","3","6","6","5","2","5","4","2","5","3","3","2","7","6","6","5","7","7","6","6","7","3","6","3","7","5","6","598932304420667392","刘","416","Male","[""坏我"",""好他"",""好我"",""坏他""]","[""弱我"",""强他"",""强我"",""弱他""]","","","","","","","","yes","","","","","","","","","SRET","EW_formal","","key","f","16.67363846153849","802.9411539486954","447.0588109897498","自己","逞强","Negative","ability","","","","","","","","","",""
"642","","j","psychophysics","70","248626","0.0-7.0-3.0-0.56","5","6","5","2","3","5","2","5","4","5","5","2","0","0","1","0","1","2","0","5","5","5","5","5","4","5","5","4","4","8","7","6","7","5","8","8","6","7","6","5","5","6","6","5","6","1","5","2","5","2","7","3","6","6","5","2","5","4","2","5","3","3","2","7","6","6","5","7","7","6","6","7","3","6","3","7","5","6","598932304420667392","刘","416","Male","[""坏我"",""好他"",""好我"",""坏他""]","[""弱我"",""强他"",""强我"",""弱他""]","","","","","","","","no","","","","","","","","","SRET","EW_formal","","key","j","16.673443298969","802.9411539486954","447.0588109897498","朋友","卑鄙","Negative","morality","","","","","","","","","",""
"729","","j","psychophysics","71","250367","0.0-7.0-3.0-0.57","5","6","5","2","3","5","2","5","4","5","5","2","0","0","1","0","1","2","0","5","5","5","5","5","4","5","5","4","4","8","7","6","7","5","8","8","6","7","6","5","5","6","6","5","6","1","5","2","5","2","7","3","6","6","5","2","5","4","2","5","3","3","2","7","6","6","5","7","7","6","6","7","3","6","3","7","5","6","598932304420667392","刘","416","Male","[""坏我"",""好他"",""好我"",""坏他""]","[""弱我"",""强他"",""强我"",""弱他""]","","","","","","","","no","","","","","","","","","SRET","EW_formal","","key","j","16.674365384615296","802.9411539486954","447.0588109897498","朋友","毛糙","Negative","ability","","","","","","","","","",""
"844","","f","psychophysics","72","252215","0.0-7.0-3.0-0.58","5","6","5","2","3","5","2","5","4","5","5","2","0","0","1","0","1","2","0","5","5","5","5","5","4","5","5","4","4","8","7","6","7","5","8","8","6","7","6","5","5","6","6","5","6","1","5","2","5","2","7","3","6","6","5","2","5","4","2","5","3","3","2","7","6","6","5","7","7","6","6","7","3","6","3","7","5","6","598932304420667392","刘","416","Male","[""坏我"",""好他"",""好我"",""坏他""]","[""弱我"",""强他"",""强我"",""弱他""]","","","","","","","","yes","","","","","","","","","SRET","EW_formal","","key","f","16.674554545454555","802.9411539486954","447.0588109897498","自己","守时","Positive","morality","","","","","","","","","",""
"1100","","j","psychophysics","73","254320","0.0-7.0-3.0-0.59","5","6","5","2","3","5","2","5","4","5","5","2","0","0","1","0","1","2","0","5","5","5","5","5","4","5","5","4","4","8","7","6","7","5","8","8","6","7","6","5","5","6","6","5","6","1","5","2","5","2","7","3","6","6","5","2","5","4","2","5","3","3","2","7","6","6","5","7","7","6","6","7","3","6","3","7","5","6","598932304420667392","刘","416","Male","[""坏我"",""好他"",""好我"",""坏他""]","[""弱我"",""强他"",""强我"",""弱他""]","","","","","","","","no","","","","","","","","","SRET","EW_formal","","key","j","16.67356799999997","802.9411539486954","447.0588109897498","朋友","无知","Negative","ability","","","","","","","","","",""
"1334","","f","psychophysics","74","256656","0.0-7.0-3.0-0.60","5","6","5","2","3","5","2","5","4","5","5","2","0","0","1","0","1","2","0","5","5","5","5","5","4","5","5","4","4","8","7","6","7","5","8","8","6","7","6","5","5","6","6","5","6","1","5","2","5","2","7","3","6","6","5","2","5","4","2","5","3","3","2","7","6","6","5","7","7","6","6","7","3","6","3","7","5","6","598932304420667392","刘","416","Male","[""坏我"",""好他"",""好我"",""坏他""]","[""弱我"",""强他"",""强我"",""弱他""]","","","","","","","","yes","","","","","","","","","SRET","EW_formal","","key","f","16.67471942446059","802.9411539486954","447.0588109897498","自己","爱国","Positive","morality","","","","","","","","","",""
"931","","j","psychophysics","75","258591","0.0-7.0-3.0-0.61","5","6","5","2","3","5","2","5","4","5","5","2","0","0","1","0","1","2","0","5","5","5","5","5","4","5","5","4","4","8","7","6","7","5","8","8","6","7","6","5","5","6","6","5","6","1","5","2","5","2","7","3","6","6","5","2","5","4","2","5","3","3","2","7","6","6","5","7","7","6","6","7","3","6","3","7","5","6","598932304420667392","刘","416","Male","[""坏我"",""好他"",""好我"",""坏他""]","[""弱我"",""强他"",""强我"",""弱他""]","","","","","","","","no","","","","","","","","","SRET","EW_formal","","key","j","16.674017391304243","802.9411539486954","447.0588109897498","朋友","失信","Negative","morality","","","","","","","","","",""
"1706","","j","psychophysics","76","261300","0.0-7.0-3.0-0.62","5","6","5","2","3","5","2","5","4","5","5","2","0","0","1","0","1","2","0","5","5","5","5","5","4","5","5","4","4","8","7","6","7","5","8","8","6","7","6","5","5","6","6","5","6","1","5","2","5","2","7","3","6","6","5","2","5","4","2","5","3","3","2","7","6","6","5","7","7","6","6","7","3","6","3","7","5","6","598932304420667392","刘","416","Male","[""坏我"",""好他"",""好我"",""坏他""]","[""弱我"",""强他"",""强我"",""弱他""]","","","","","","","","no","","","","","","","","","SRET","EW_formal","","key","j","16.673962962963145","802.9411539486954","447.0588109897498","朋友","窝囊","Negative","ability","","","","","","","","","",""
"848","","j","psychophysics","77","263150","0.0-7.0-3.0-0.63","5","6","5","2","3","5","2","5","4","5","5","2","0","0","1","0","1","2","0","5","5","5","5","5","4","5","5","4","4","8","7","6","7","5","8","8","6","7","6","5","5","6","6","5","6","1","5","2","5","2","7","3","6","6","5","2","5","4","2","5","3","3","2","7","6","6","5","7","7","6","6","7","3","6","3","7","5","6","598932304420667392","刘","416","Male","[""坏我"",""好他"",""好我"",""坏他""]","[""弱我"",""强他"",""强我"",""弱他""]","","","","","","","","no","","","","","","","","","SRET","EW_formal","","key","j","16.674472727272555","802.9411539486954","447.0588109897498","朋友","虚假","Negative","morality","","","","","","","","","",""
"755","","j","psychophysics","78","264908","0.0-7.0-3.0-0.64","5","6","5","2","3","5","2","5","4","5","5","2","0","0","1","0","1","2","0","5","5","5","5","5","4","5","5","4","4","8","7","6","7","5","8","8","6","7","6","5","5","6","6","5","6","1","5","2","5","2","7","3","6","6","5","2","5","4","2","5","3","3","2","7","6","6","5","7","7","6","6","7","3","6","3","7","5","6","598932304420667392","刘","416","Male","[""坏我"",""好他"",""好我"",""坏他""]","[""弱我"",""强他"",""强我"",""弱他""]","","","","","","","","no","","","","","","","","","SRET","EW_formal","","key","j","16.67688461538469","802.9411539486954","447.0588109897498","自己","邪恶","Negative","morality","","","","","","","","","",""
"829","","f","psychophysics","79","266742","0.0-7.0-3.0-0.65","5","6","5","2","3","5","2","5","4","5","5","2","0","0","1","0","1","2","0","5","5","5","5","5","4","5","5","4","4","8","7","6","7","5","8","8","6","7","6","5","5","6","6","5","6","1","5","2","5","2","7","3","6","6","5","2","5","4","2","5","3","3","2","7","6","6","5","7","7","6","6","7","3","6","3","7","5","6","598932304420667392","刘","416","Male","[""坏我"",""好他"",""好我"",""坏他""]","[""弱我"",""强他"",""强我"",""弱他""]","","","","","","","","yes","","","","","","","","","SRET","EW_formal","","key","f","16.67609174311943","802.9411539486954","447.0588109897498","自己","笨蛋","Negative","ability","","","","","","","","","",""
"1168","","f","psychophysics","80","268914","0.0-7.0-3.0-0.66","5","6","5","2","3","5","2","5","4","5","5","2","0","0","1","0","1","2","0","5","5","5","5","5","4","5","5","4","4","8","7","6","7","5","8","8","6","7","6","5","5","6","6","5","6","1","5","2","5","2","7","3","6","6","5","2","5","4","2","5","3","3","2","7","6","6","5","7","7","6","6","7","3","6","3","7","5","6","598932304420667392","刘","416","Male","[""坏我"",""好他"",""好我"",""坏他""]","[""弱我"",""强他"",""强我"",""弱他""]","","","","","","","","yes","","","","","","","","","SRET","EW_formal","","key","f","16.673829457364334","802.9411539486954","447.0588109897498","自己","无敌","Positive","ability","","","","","","","","","",""
"923","","f","psychophysics","81","270841","0.0-7.0-3.0-0.67","5","6","5","2","3","5","2","5","4","5","5","2","0","0","1","0","1","2","0","5","5","5","5","5","4","5","5","4","4","8","7","6","7","5","8","8","6","7","6","5","5","6","6","5","6","1","5","2","5","2","7","3","6","6","5","2","5","4","2","5","3","3","2","7","6","6","5","7","7","6","6","7","3","6","3","7","5","6","598932304420667392","刘","416","Male","[""坏我"",""好他"",""好我"",""坏他""]","[""弱我"",""强他"",""强我"",""弱他""]","","","","","","","","yes","","","","","","","","","SRET","EW_formal","","key","f","16.674556521739326","802.9411539486954","447.0588109897498","朋友","无私","Positive","morality","","","","","","","","","",""
"1145","","f","psychophysics","82","272990","0.0-7.0-3.0-0.68","5","6","5","2","3","5","2","5","4","5","5","2","0","0","1","0","1","2","0","5","5","5","5","5","4","5","5","4","4","8","7","6","7","5","8","8","6","7","6","5","5","6","6","5","6","1","5","2","5","2","7","3","6","6","5","2","5","4","2","5","3","3","2","7","6","6","5","7","7","6","6","7","3","6","3","7","5","6","598932304420667392","刘","416","Male","[""坏我"",""好他"",""好我"",""坏他""]","[""弱我"",""强他"",""强我"",""弱他""]","","","","","","","","yes","","","","","","","","","SRET","EW_formal","","key","f","16.67489062499999","802.9411539486954","447.0588109897498","朋友","无助","Negative","ability","","","","","","","","","",""
"872","","j","psychophysics","83","274867","0.0-7.0-3.0-0.69","5","6","5","2","3","5","2","5","4","5","5","2","0","0","1","0","1","2","0","5","5","5","5","5","4","5","5","4","4","8","7","6","7","5","8","8","6","7","6","5","5","6","6","5","6","1","5","2","5","2","7","3","6","6","5","2","5","4","2","5","3","3","2","7","6","6","5","7","7","6","6","7","3","6","3","7","5","6","598932304420667392","刘","416","Male","[""坏我"",""好他"",""好我"",""坏他""]","[""弱我"",""强他"",""强我"",""弱他""]","","","","","","","","no","","","","","","","","","SRET","EW_formal","","key","j","16.673972972972855","802.9411539486954","447.0588109897498","朋友","侠义","Positive","morality","","","","","","","","","",""
"838","","f","psychophysics","84","276720","0.0-7.0-3.0-0.70","5","6","5","2","3","5","2","5","4","5","5","2","0","0","1","0","1","2","0","5","5","5","5","5","4","5","5","4","4","8","7","6","7","5","8","8","6","7","6","5","5","6","6","5","6","1","5","2","5","2","7","3","6","6","5","2","5","4","2","5","3","3","2","7","6","6","5","7","7","6","6","7","3","6","3","7","5","6","598932304420667392","刘","416","Male","[""坏我"",""好他"",""好我"",""坏他""]","[""弱我"",""强他"",""强我"",""弱他""]","","","","","","","","yes","","","","","","","","","SRET","EW_formal","","key","f","16.67417272727259","802.9411539486954","447.0588109897498","朋友","变通","Positive","ability","","","","","","","","","",""
"1039","","f","psychophysics","85","278766","0.0-7.0-3.0-0.71","5","6","5","2","3","5","2","5","4","5","5","2","0","0","1","0","1","2","0","5","5","5","5","5","4","5","5","4","4","8","7","6","7","5","8","8","6","7","6","5","5","6","6","5","6","1","5","2","5","2","7","3","6","6","5","2","5","4","2","5","3","3","2","7","6","6","5","7","7","6","6","7","3","6","3","7","5","6","598932304420667392","刘","416","Male","[""坏我"",""好他"",""好我"",""坏他""]","[""弱我"",""强他"",""强我"",""弱他""]","","","","","","","","yes","","","","","","","","","SRET","EW_formal","","key","f","16.67401639344247","802.9411539486954","447.0588109897498","朋友","善心","Positive","morality","","","","","","","","","",""
"1231","","f","psychophysics","86","281000","0.0-7.0-3.0-0.72","5","6","5","2","3","5","2","5","4","5","5","2","0","0","1","0","1","2","0","5","5","5","5","5","4","5","5","4","4","8","7","6","7","5","8","8","6","7","6","5","5","6","6","5","6","1","5","2","5","2","7","3","6","6","5","2","5","4","2","5","3","3","2","7","6","6","5","7","7","6","6","7","3","6","3","7","5","6","598932304420667392","刘","416","Male","[""坏我"",""好他"",""好我"",""坏他""]","[""弱我"",""强他"",""强我"",""弱他""]","","","","","","","","yes","","","","","","","","","SRET","EW_formal","","key","f","16.673872180451127","802.9411539486954","447.0588109897498","朋友","独断","Negative","ability","","","","","","","","","",""
"1066","","f","psychophysics","87","283068","0.0-7.0-3.0-0.73","5","6","5","2","3","5","2","5","4","5","5","2","0","0","1","0","1","2","0","5","5","5","5","5","4","5","5","4","4","8","7","6","7","5","8","8","6","7","6","5","5","6","6","5","6","1","5","2","5","2","7","3","6","6","5","2","5","4","2","5","3","3","2","7","6","6","5","7","7","6","6","7","3","6","3","7","5","6","598932304420667392","刘","416","Male","[""坏我"",""好他"",""好我"",""坏他""]","[""弱我"",""强他"",""强我"",""弱他""]","","","","","","","","yes","","","","","","","","","SRET","EW_formal","","key","f","16.67476422764215","802.9411539486954","447.0588109897498","朋友","果决","Positive","ability","","","","","","","","","",""
"744","","f","psychophysics","88","284816","0.0-7.0-3.0-0.74","5","6","5","2","3","5","2","5","4","5","5","2","0","0","1","0","1","2","0","5","5","5","5","5","4","5","5","4","4","8","7","6","7","5","8","8","6","7","6","5","5","6","6","5","6","1","5","2","5","2","7","3","6","6","5","2","5","4","2","5","3","3","2","7","6","6","5","7","7","6","6","7","3","6","3","7","5","6","598932304420667392","刘","416","Male","[""坏我"",""好他"",""好我"",""坏他""]","[""弱我"",""强他"",""强我"",""弱他""]","","","","","","","","yes","","","","","","","","","SRET","EW_formal","","key","f","16.67687500000018","802.9411539486954","447.0588109897498","朋友","精干","Positive","ability","","","","","","","","","",""
"880","","j","psychophysics","89","286698","0.0-7.0-3.0-0.75","5","6","5","2","3","5","2","5","4","5","5","2","0","0","1","0","1","2","0","5","5","5","5","5","4","5","5","4","4","8","7","6","7","5","8","8","6","7","6","5","5","6","6","5","6","1","5","2","5","2","7","3","6","6","5","2","5","4","2","5","3","3","2","7","6","6","5","7","7","6","6","7","3","6","3","7","5","6","598932304420667392","刘","416","Male","[""坏我"",""好他"",""好我"",""坏他""]","[""弱我"",""强他"",""强我"",""弱他""]","","","","","","","","no","","","","","","","","","SRET","EW_formal","","key","j","16.67535714285727","802.9411539486954","447.0588109897498","自己","背叛","Negative","morality","","","","","","","","","",""
"730","","f","psychophysics","90","288433","0.0-7.0-3.0-0.76","5","6","5","2","3","5","2","5","4","5","5","2","0","0","1","0","1","2","0","5","5","5","5","5","4","5","5","4","4","8","7","6","7","5","8","8","6","7","6","5","5","6","6","5","6","1","5","2","5","2","7","3","6","6","5","2","5","4","2","5","3","3","2","7","6","6","5","7","7","6","6","7","3","6","3","7","5","6","598932304420667392","刘","416","Male","[""坏我"",""好他"",""好我"",""坏他""]","[""弱我"",""强他"",""强我"",""弱他""]","","","","","","","","yes","","","","","","","","","SRET","EW_formal","","key","f","16.675077669902873","802.9411539486954","447.0588109897498","自己","独立","Positive","ability","","","","","","","","","",""
"697","","f","psychophysics","91","290134","0.0-7.0-3.0-0.77","5","6","5","2","3","5","2","5","4","5","5","2","0","0","1","0","1","2","0","5","5","5","5","5","4","5","5","4","4","8","7","6","7","5","8","8","6","7","6","5","5","6","6","5","6","1","5","2","5","2","7","3","6","6","5","2","5","4","2","5","3","3","2","7","6","6","5","7","7","6","6","7","3","6","3","7","5","6","598932304420667392","刘","416","Male","[""坏我"",""好他"",""好我"",""坏他""]","[""弱我"",""强他"",""强我"",""弱他""]","","","","","","","","yes","","","","","","","","","SRET","EW_formal","","key","f","16.84255999999994","802.9411539486954","447.0588109897498","朋友","依靠","Negative","ability","","","","","","","","","",""
"754","","j","psychophysics","92","291890","0.0-7.0-3.0-0.78","5","6","5","2","3","5","2","5","4","5","5","2","0","0","1","0","1","2","0","5","5","5","5","5","4","5","5","4","4","8","7","6","7","5","8","8","6","7","6","5","5","6","6","5","6","1","5","2","5","2","7","3","6","6","5","2","5","4","2","5","3","3","2","7","6","6","5","7","7","6","6","7","3","6","3","7","5","6","598932304420667392","刘","416","Male","[""坏我"",""好他"",""好我"",""坏他""]","[""弱我"",""强他"",""强我"",""弱他""]","","","","","","","","no","","","","","","","","","SRET","EW_formal","","key","j","16.674067307692333","802.9411539486954","447.0588109897498","朋友","不孝","Negative","morality","","","","","","","","","",""
"1512","","f","psychophysics","93","294420","0.0-7.0-3.0-0.79","5","6","5","2","3","5","2","5","4","5","5","2","0","0","1","0","1","2","0","5","5","5","5","5","4","5","5","4","4","8","7","6","7","5","8","8","6","7","6","5","5","6","6","5","6","1","5","2","5","2","7","3","6","6","5","2","5","4","2","5","3","3","2","7","6","6","5","7","7","6","6","7","3","6","3","7","5","6","598932304420667392","刘","416","Male","[""坏我"",""好他"",""好我"",""坏他""]","[""弱我"",""强他"",""强我"",""弱他""]","","","","","","","","yes","","","","","","","","","SRET","EW_formal","","key","f","16.674834437086247","802.9411539486954","447.0588109897498","自己","无耻","Negative","morality","","","","","","","","","",""
"887","","j","psychophysics","94","296315","0.0-7.0-3.0-0.80","5","6","5","2","3","5","2","5","4","5","5","2","0","0","1","0","1","2","0","5","5","5","5","5","4","5","5","4","4","8","7","6","7","5","8","8","6","7","6","5","5","6","6","5","6","1","5","2","5","2","7","3","6","6","5","2","5","4","2","5","3","3","2","7","6","6","5","7","7","6","6","7","3","6","3","7","5","6","598932304420667392","刘","416","Male","[""坏我"",""好他"",""好我"",""坏他""]","[""弱我"",""强他"",""强我"",""弱他""]","","","","","","","","no","","","","","","","","","SRET","EW_formal","","key","j","16.672187499999772","802.9411539486954","447.0588109897498","自己","贪污","Negative","morality","","","","","","","","","",""
"764","","j","psychophysics","95","298087","0.0-7.0-3.0-0.81","5","6","5","2","3","5","2","5","4","5","5","2","0","0","1","0","1","2","0","5","5","5","5","5","4","5","5","4","4","8","7","6","7","5","8","8","6","7","6","5","5","6","6","5","6","1","5","2","5","2","7","3","6","6","5","2","5","4","2","5","3","3","2","7","6","6","5","7","7","6","6","7","3","6","3","7","5","6","598932304420667392","刘","416","Male","[""坏我"",""好他"",""好我"",""坏他""]","[""弱我"",""强他"",""强我"",""弱他""]","","","","","","","","no","","","","","","","","","SRET","EW_formal","","key","j","16.675235849056165","802.9411539486954","447.0588109897498","自己","歹毒","Negative","morality","","","","","","","","","",""
"723","","f","psychophysics","96","299815","0.0-7.0-3.0-0.82","5","6","5","2","3","5","2","5","4","5","5","2","0","0","1","0","1","2","0","5","5","5","5","5","4","5","5","4","4","8","7","6","7","5","8","8","6","7","6","5","5","6","6","5","6","1","5","2","5","2","7","3","6","6","5","2","5","4","2","5","3","3","2","7","6","6","5","7","7","6","6","7","3","6","3","7","5","6","598932304420667392","刘","416","Male","[""坏我"",""好他"",""好我"",""坏他""]","[""弱我"",""强他"",""强我"",""弱他""]","","","","","","","","yes","","","","","","","","","SRET","EW_formal","","key","f","16.674764705882364","802.9411539486954","447.0588109897498","自己","正气","Positive","morality","","","","","","","","","",""
"837","","f","psychophysics","97","301656","0.0-7.0-3.0-0.83","5","6","5","2","3","5","2","5","4","5","5","2","0","0","1","0","1","2","0","5","5","5","5","5","4","5","5","4","4","8","7","6","7","5","8","8","6","7","6","5","5","6","6","5","6","1","5","2","5","2","7","3","6","6","5","2","5","4","2","5","3","3","2","7","6","6","5","7","7","6","6","7","3","6","3","7","5","6","598932304420667392","刘","416","Male","[""坏我"",""好他"",""好我"",""坏他""]","[""弱我"",""强他"",""强我"",""弱他""]","","","","","","","","yes","","","","","","","","","SRET","EW_formal","","key","f","16.674618181818037","802.9411539486954","447.0588109897498","自己","高效","Positive","ability","","","","","","","","","",""
"808","","j","psychophysics","98","303489","0.0-7.0-3.0-0.84","5","6","5","2","3","5","2","5","4","5","5","2","0","0","1","0","1","2","0","5","5","5","5","5","4","5","5","4","4","8","7","6","7","5","8","8","6","7","6","5","5","6","6","5","6","1","5","2","5","2","7","3","6","6","5","2","5","4","2","5","3","3","2","7","6","6","5","7","7","6","6","7","3","6","3","7","5","6","598932304420667392","刘","416","Male","[""坏我"",""好他"",""好我"",""坏他""]","[""弱我"",""强他"",""强我"",""弱他""]","","","","","","","","no","","","","","","","","","SRET","EW_formal","","key","j","16.675678899082882","802.9411539486954","447.0588109897498","朋友","低俗","Negative","morality","","","","","","","","","",""
"854","","j","psychophysics","99","305346","0.0-7.0-3.0-0.85","5","6","5","2","3","5","2","5","4","5","5","2","0","0","1","0","1","2","0","5","5","5","5","5","4","5","5","4","4","8","7","6","7","5","8","8","6","7","6","5","5","6","6","5","6","1","5","2","5","2","7","3","6","6","5","2","5","4","2","5","3","3","2","7","6","6","5","7","7","6","6","7","3","6","3","7","5","6","598932304420667392","刘","416","Male","[""坏我"",""好他"",""好我"",""坏他""]","[""弱我"",""强他"",""强我"",""弱他""]","","","","","","","","no","","","","","","","","","SRET","EW_formal","","key","j","16.675354545454983","802.9411539486954","447.0588109897498","朋友","素养","Positive","morality","","","","","","","","","",""
"1019","","j","psychophysics","100","307367","0.0-7.0-3.0-0.86","5","6","5","2","3","5","2","5","4","5","5","2","0","0","1","0","1","2","0","5","5","5","5","5","4","5","5","4","4","8","7","6","7","5","8","8","6","7","6","5","5","6","6","5","6","1","5","2","5","2","7","3","6","6","5","2","5","4","2","5","3","3","2","7","6","6","5","7","7","6","6","7","3","6","3","7","5","6","598932304420667392","刘","416","Male","[""坏我"",""好他"",""好我"",""坏他""]","[""弱我"",""强他"",""强我"",""弱他""]","","","","","","","","no","","","","","","","","","SRET","EW_formal","","key","j","16.673699999999858","802.9411539486954","447.0588109897498","自己","缓慢","Negative","ability","","","","","","","","","",""
"716","","f","psychophysics","101","309091","0.0-7.0-3.0-0.87","5","6","5","2","3","5","2","5","4","5","5","2","0","0","1","0","1","2","0","5","5","5","5","5","4","5","5","4","4","8","7","6","7","5","8","8","6","7","6","5","5","6","6","5","6","1","5","2","5","2","7","3","6","6","5","2","5","4","2","5","3","3","2","7","6","6","5","7","7","6","6","7","3","6","3","7","5","6","598932304420667392","刘","416","Male","[""坏我"",""好他"",""好我"",""坏他""]","[""弱我"",""强他"",""强我"",""弱他""]","","","","","","","","yes","","","","","","","","","SRET","EW_formal","","key","f","16.674902912621494","802.9411539486954","447.0588109897498","自己","主见","Positive","ability","","","","","","","","","",""
"3974","
    <p><div style='color:white;font-size:35px; line-height:20px;'>计算任务</div></p><br>
    <p><div style='color:red;font-size:25px; line-height:20px;'>接下来，您将看到一些四则运算题，<b>请从键盘选择 0-9 进行反应。</b></div></p>
    <p><div style='color:red;font-size:25px; line-height:20px;'>请尽可能快地进行计算，计算的速度和正确率将影响报酬的发放。</div></p>
    <p><div class='footer' style='color:white;font-size:25px; line-height:20px;'>如果对本实验还有不清楚之处，请立即向实验员咨询。</p><p style='color:white;font-size:25px; line-height:20px;'>如果您明白了规则：</p><p style='color:white;font-size:22px; line-height:20px;'>请按 继续 进入练习</p>
    </div>
    ","0","html-button-response","102","313068","0.0-7.0-4.0","5","6","5","2","3","5","2","5","4","5","5","2","0","0","1","0","1","2","0","5","5","5","5","5","4","5","5","4","4","8","7","6","7","5","8","8","6","7","6","5","5","6","6","5","6","1","5","2","5","2","7","3","6","6","5","2","5","4","2","5","3","3","2","7","6","6","5","7","7","6","6","7","3","6","3","7","5","6","598932304420667392","刘","416","Male","[""坏我"",""好他"",""好我"",""坏他""]","[""弱我"",""强他"",""强我"",""弱他""]","","","","","","","","","","","","","","","","","SRET_math","math_instructions","Thu Nov 16 2023 09:51:10 GMT+0800 (中国标准时间)","","","","","","","","","","","","","","","","","","",""
"2014","","3","psychophysics","103","315092","0.0-7.0-5.0-0.0","5","6","5","2","3","5","2","5","4","5","5","2","0","0","1","0","1","2","0","5","5","5","5","5","4","5","5","4","4","8","7","6","7","5","8","8","6","7","6","5","5","6","6","5","6","1","5","2","5","2","7","3","6","6","5","2","5","4","2","5","3","3","2","7","6","6","5","7","7","6","6","7","3","6","3","7","5","6","598932304420667392","刘","416","Male","[""坏我"",""好他"",""好我"",""坏他""]","[""弱我"",""强他"",""强我"",""弱他""]","","","","","","","","3","","","","","","","","","SRET","SRET_math_calculate","","key","3","16.675157024793535","802.9411539486954","447.0588109897498","","","","","2+1= ?","3","1","","","","","","",""
"1899","","5","psychophysics","104","316998","0.0-7.0-5.0-0.1","5","6","5","2","3","5","2","5","4","5","5","2","0","0","1","0","1","2","0","5","5","5","5","5","4","5","5","4","4","8","7","6","7","5","8","8","6","7","6","5","5","6","6","5","6","1","5","2","5","2","7","3","6","6","5","2","5","4","2","5","3","3","2","7","6","6","5","7","7","6","6","7","3","6","3","7","5","6","598932304420667392","刘","416","Male","[""坏我"",""好他"",""好我"",""坏他""]","[""弱我"",""强他"",""强我"",""弱他""]","","","","","","","","5","","","","","","","","","SRET","SRET_math_calculate","","key","5","16.674168141592762","802.9411539486954","447.0588109897498","","","","","8-3= ? ","5","1","","","","","","",""
"2044","","8","psychophysics","105","319047","0.0-7.0-5.0-0.2","5","6","5","2","3","5","2","5","4","5","5","2","0","0","1","0","1","2","0","5","5","5","5","5","4","5","5","4","4","8","7","6","7","5","8","8","6","7","6","5","5","6","6","5","6","1","5","2","5","2","7","3","6","6","5","2","5","4","2","5","3","3","2","7","6","6","5","7","7","6","6","7","3","6","3","7","5","6","598932304420667392","刘","416","Male","[""坏我"",""好他"",""好我"",""坏他""]","[""弱我"",""强他"",""强我"",""弱他""]","","","","","","","","8","","","","","","","","","SRET","SRET_math_calculate","","key","8","16.675770491803423","802.9411539486954","447.0588109897498","","","","","8*1= ?","8","1","","","","","","",""
"2046","","2","psychophysics","106","321098","0.0-7.0-5.0-0.3","5","6","5","2","3","5","2","5","4","5","5","2","0","0","1","0","1","2","0","5","5","5","5","5","4","5","5","4","4","8","7","6","7","5","8","8","6","7","6","5","5","6","6","5","6","1","5","2","5","2","7","3","6","6","5","2","5","4","2","5","3","3","2","7","6","6","5","7","7","6","6","7","3","6","3","7","5","6","598932304420667392","刘","416","Male","[""坏我"",""好他"",""好我"",""坏他""]","[""弱我"",""强他"",""强我"",""弱他""]","","","","","","","","2","","","","","","","","","SRET","SRET_math_calculate","","key","2","16.67456557377066","802.9411539486954","447.0588109897498","","","","","18/9= ?","2","1","","","","","","",""
"1900","","2","psychophysics","107","323001","0.0-7.0-5.0-0.4","5","6","5","2","3","5","2","5","4","5","5","2","0","0","1","0","1","2","0","5","5","5","5","5","4","5","5","4","4","8","7","6","7","5","8","8","6","7","6","5","5","6","6","5","6","1","5","2","5","2","7","3","6","6","5","2","5","4","2","5","3","3","2","7","6","6","5","7","7","6","6","7","3","6","3","7","5","6","598932304420667392","刘","416","Male","[""坏我"",""好他"",""好我"",""坏他""]","[""弱我"",""强他"",""强我"",""弱他""]","","","","","","","","2","","","","","","","","","SRET","SRET_math_calculate","","key","2","16.674787610619376","802.9411539486954","447.0588109897498","","","","","5-3= ?","2","1","","","","","","",""
"2548","","8","psychophysics","108","325554","0.0-7.0-5.0-0.5","5","6","5","2","3","5","2","5","4","5","5","2","0","0","1","0","1","2","0","5","5","5","5","5","4","5","5","4","4","8","7","6","7","5","8","8","6","7","6","5","5","6","6","5","6","1","5","2","5","2","7","3","6","6","5","2","5","4","2","5","3","3","2","7","6","6","5","7","7","6","6","7","3","6","3","7","5","6","598932304420667392","刘","416","Male","[""坏我"",""好他"",""好我"",""坏他""]","[""弱我"",""强他"",""强我"",""弱他""]","","","","","","","","8","","","","","","","","","SRET","SRET_math_calculate","","key","8","16.674197368421073","802.9411539486954","447.0588109897498","","","","","11-3= ?","8","1","","","","","","",""
"1828","","4","psychophysics","109","327435","0.0-7.0-5.0-0.6","5","6","5","2","3","5","2","5","4","5","5","2","0","0","1","0","1","2","0","5","5","5","5","5","4","5","5","4","4","8","7","6","7","5","8","8","6","7","6","5","5","6","6","5","6","1","5","2","5","2","7","3","6","6","5","2","5","4","2","5","3","3","2","7","6","6","5","7","7","6","6","7","3","6","3","7","5","6","598932304420667392","刘","416","Male","[""坏我"",""好他"",""好我"",""坏他""]","[""弱我"",""强他"",""强我"",""弱他""]","","","","","","","","4","","","","","","","","","SRET","SRET_math_calculate","","key","4","16.823819819819978","802.9411539486954","447.0588109897498","","","","","3+1= ?","4","1","","","","","","",""
"1938","","8","psychophysics","110","329403","0.0-7.0-5.0-0.7","5","6","5","2","3","5","2","5","4","5","5","2","0","0","1","0","1","2","0","5","5","5","5","5","4","5","5","4","4","8","7","6","7","5","8","8","6","7","6","5","5","6","6","5","6","1","5","2","5","2","7","3","6","6","5","2","5","4","2","5","3","3","2","7","6","6","5","7","7","6","6","7","3","6","3","7","5","6","598932304420667392","刘","416","Male","[""坏我"",""好他"",""好我"",""坏他""]","[""弱我"",""强他"",""强我"",""弱他""]","","","","","","","","8","","","","","","","","","SRET","SRET_math_calculate","","key","8","16.6748290598292","802.9411539486954","447.0588109897498","","","","","4*2= ?","8","1","","","","","","",""
"2236","","5","psychophysics","111","331645","0.0-7.0-5.0-0.8","5","6","5","2","3","5","2","5","4","5","5","2","0","0","1","0","1","2","0","5","5","5","5","5","4","5","5","4","4","8","7","6","7","5","8","8","6","7","6","5","5","6","6","5","6","1","5","2","5","2","7","3","6","6","5","2","5","4","2","5","3","3","2","7","6","6","5","7","7","6","6","7","3","6","3","7","5","6","598932304420667392","刘","416","Male","[""坏我"",""好他"",""好我"",""坏他""]","[""弱我"",""强他"",""强我"",""弱他""]","","","","","","","","5","","","","","","","","","SRET","SRET_math_calculate","","key","5","16.7997424242428","802.9411539486954","447.0588109897498","","","","","5/1= ?","5","1","","","","","","",""
"1952","","8","psychophysics","112","333604","0.0-7.0-5.0-0.9","5","6","5","2","3","5","2","5","4","5","5","2","0","0","1","0","1","2","0","5","5","5","5","5","4","5","5","4","4","8","7","6","7","5","8","8","6","7","6","5","5","6","6","5","6","1","5","2","5","2","7","3","6","6","5","2","5","4","2","5","3","3","2","7","6","6","5","7","7","6","6","7","3","6","3","7","5","6","598932304420667392","刘","416","Male","[""坏我"",""好他"",""好我"",""坏他""]","[""弱我"",""强他"",""强我"",""弱他""]","","","","","","","","8","","","","","","","","","SRET","SRET_math_calculate","","key","8","16.67539316239323","802.9411539486954","447.0588109897498","","","","","9-1= ?","8","1","","","","","","",""
"1907","","9","psychophysics","113","335520","0.0-7.0-5.0-0.10","5","6","5","2","3","5","2","5","4","5","5","2","0","0","1","0","1","2","0","5","5","5","5","5","4","5","5","4","4","8","7","6","7","5","8","8","6","7","6","5","5","6","6","5","6","1","5","2","5","2","7","3","6","6","5","2","5","4","2","5","3","3","2","7","6","6","5","7","7","6","6","7","3","6","3","7","5","6","598932304420667392","刘","416","Male","[""坏我"",""好他"",""好我"",""坏他""]","[""弱我"",""强他"",""强我"",""弱他""]","","","","","","","","9","","","","","","","","","SRET","SRET_math_calculate","","key","9","16.67400000000009","802.9411539486954","447.0588109897498","","","","","7+2= ?","9","1","","","","","","",""
"1841","","8","psychophysics","114","337370","0.0-7.0-5.0-0.11","5","6","5","2","3","5","2","5","4","5","5","2","0","0","1","0","1","2","0","5","5","5","5","5","4","5","5","4","4","8","7","6","7","5","8","8","6","7","6","5","5","6","6","5","6","1","5","2","5","2","7","3","6","6","5","2","5","4","2","5","3","3","2","7","6","6","5","7","7","6","6","7","3","6","3","7","5","6","598932304420667392","刘","416","Male","[""坏我"",""好他"",""好我"",""坏他""]","[""弱我"",""强他"",""强我"",""弱他""]","","","","","","","","8","","","","","","","","","SRET","SRET_math_calculate","","key","8","16.67486238532108","802.9411539486954","447.0588109897498","","","","","5+3= ?","8","1","","","","","","",""
"1818","","1","psychophysics","115","339214","0.0-7.0-5.0-0.12","5","6","5","2","3","5","2","5","4","5","5","2","0","0","1","0","1","2","0","5","5","5","5","5","4","5","5","4","4","8","7","6","7","5","8","8","6","7","6","5","5","6","6","5","6","1","5","2","5","2","7","3","6","6","5","2","5","4","2","5","3","3","2","7","6","6","5","7","7","6","6","7","3","6","3","7","5","6","598932304420667392","刘","416","Male","[""坏我"",""好他"",""好我"",""坏他""]","[""弱我"",""强他"",""强我"",""弱他""]","","","","","","","","1","","","","","","","","","SRET","SRET_math_calculate","","key","1","16.672227272726808","802.9411539486954","447.0588109897498","","","","","10-9= ?","1","1","","","","","","",""
"1834","","6","psychophysics","116","341077","0.0-7.0-5.0-0.13","5","6","5","2","3","5","2","5","4","5","5","2","0","0","1","0","1","2","0","5","5","5","5","5","4","5","5","4","4","8","7","6","7","5","8","8","6","7","6","5","5","6","6","5","6","1","5","2","5","2","7","3","6","6","5","2","5","4","2","5","3","3","2","7","6","6","5","7","7","6","6","7","3","6","3","7","5","6","598932304420667392","刘","416","Male","[""坏我"",""好他"",""好我"",""坏他""]","[""弱我"",""强他"",""强我"",""弱他""]","","","","","","","","6","","","","","","","","","SRET","SRET_math_calculate","","key","6","16.67393693693668","802.9411539486954","447.0588109897498","","","","","3+3= ?","6","1","","","","","","",""
"1914","","9","psychophysics","117","342996","0.0-7.0-5.0-0.14","5","6","5","2","3","5","2","5","4","5","5","2","0","0","1","0","1","2","0","5","5","5","5","5","4","5","5","4","4","8","7","6","7","5","8","8","6","7","6","5","5","6","6","5","6","1","5","2","5","2","7","3","6","6","5","2","5","4","2","5","3","3","2","7","6","6","5","7","7","6","6","7","3","6","3","7","5","6","598932304420667392","刘","416","Male","[""坏我"",""好他"",""好我"",""坏他""]","[""弱我"",""强他"",""强我"",""弱他""]","","","","","","","","9","","","","","","","","","SRET","SRET_math_calculate","","key","9","16.674482456140378","802.9411539486954","447.0588109897498","","","","","3+6= ?","9","1","","","","","","",""
"2306","","0","psychophysics","118","345324","0.0-7.0-5.0-0.15","5","6","5","2","3","5","2","5","4","5","5","2","0","0","1","0","1","2","0","5","5","5","5","5","4","5","5","4","4","8","7","6","7","5","8","8","6","7","6","5","5","6","6","5","6","1","5","2","5","2","7","3","6","6","5","2","5","4","2","5","3","3","2","7","6","6","5","7","7","6","6","7","3","6","3","7","5","6","598932304420667392","刘","416","Male","[""坏我"",""好他"",""好我"",""坏他""]","[""弱我"",""强他"",""强我"",""弱他""]","","","","","","","","0","","","","","","","","","SRET","SRET_math_calculate","","key","0","16.674100719424544","802.9411539486954","447.0588109897498","","","","","5*0= ?","0","1","","","","","","",""
"1869","","6","psychophysics","119","347244","0.0-7.0-5.0-0.16","5","6","5","2","3","5","2","5","4","5","5","2","0","0","1","0","1","2","0","5","5","5","5","5","4","5","5","4","4","8","7","6","7","5","8","8","6","7","6","5","5","6","6","5","6","1","5","2","5","2","7","3","6","6","5","2","5","4","2","5","3","3","2","7","6","6","5","7","7","6","6","7","3","6","3","7","5","6","598932304420667392","刘","416","Male","[""坏我"",""好他"",""好我"",""坏他""]","[""弱我"",""强他"",""强我"",""弱他""]","","","","","","","","6","","","","","","","","","SRET","SRET_math_calculate","","key","6","16.82452212389408","802.9411539486954","447.0588109897498","","","","","2*3= ?","6","1","","","","","","",""
"2113","","9","psychophysics","120","349365","0.0-7.0-5.0-0.17","5","6","5","2","3","5","2","5","4","5","5","2","0","0","1","0","1","2","0","5","5","5","5","5","4","5","5","4","4","8","7","6","7","5","8","8","6","7","6","5","5","6","6","5","6","1","5","2","5","2","7","3","6","6","5","2","5","4","2","5","3","3","2","7","6","6","5","7","7","6","6","7","3","6","3","7","5","6","598932304420667392","刘","416","Male","[""坏我"",""好他"",""好我"",""坏他""]","[""弱我"",""强他"",""强我"",""弱他""]","","","","","","","","9","","","","","","","","","SRET","SRET_math_calculate","","key","9","16.67446031746","802.9411539486954","447.0588109897498","","","","","18/2= ?","9","1","","","","","","",""
"2401","","7","psychophysics","121","351802","0.0-7.0-5.0-0.18","5","6","5","2","3","5","2","5","4","5","5","2","0","0","1","0","1","2","0","5","5","5","5","5","4","5","5","4","4","8","7","6","7","5","8","8","6","7","6","5","5","6","6","5","6","1","5","2","5","2","7","3","6","6","5","2","5","4","2","5","3","3","2","7","6","6","5","7","7","6","6","7","3","6","3","7","5","6","598932304420667392","刘","416","Male","[""坏我"",""好他"",""好我"",""坏他""]","[""弱我"",""强他"",""强我"",""弱他""]","","","","","","","","7","","","","","","","","","SRET","SRET_math_calculate","","key","7","16.673965517241218","802.9411539486954","447.0588109897498","","","","","49/7 = ?","7","1","","","","","","",""
"2454","","7","psychophysics","122","354278","0.0-7.0-5.0-0.19","5","6","5","2","3","5","2","5","4","5","5","2","0","0","1","0","1","2","0","5","5","5","5","5","4","5","5","4","4","8","7","6","7","5","8","8","6","7","6","5","5","6","6","5","6","1","5","2","5","2","7","3","6","6","5","2","5","4","2","5","3","3","2","7","6","6","5","7","7","6","6","7","3","6","3","7","5","6","598932304420667392","刘","416","Male","[""坏我"",""好他"",""好我"",""坏他""]","[""弱我"",""强他"",""强我"",""弱他""]","","","","","","","","7","","","","","","","","","SRET","SRET_math_calculate","","key","7","16.903130136986427","802.9411539486954","447.0588109897498","","","","","11-4= ?","7","1","","","","","","",""
"2153","","4","psychophysics","123","356440","0.0-7.0-5.0-0.20","5","6","5","2","3","5","2","5","4","5","5","2","0","0","1","0","1","2","0","5","5","5","5","5","4","5","5","4","4","8","7","6","7","5","8","8","6","7","6","5","5","6","6","5","6","1","5","2","5","2","7","3","6","6","5","2","5","4","2","5","3","3","2","7","6","6","5","7","7","6","6","7","3","6","3","7","5","6","598932304420667392","刘","416","Male","[""坏我"",""好他"",""好我"",""坏他""]","[""弱我"",""强他"",""强我"",""弱他""]","","","","","","","","4","","","","","","","","","SRET","SRET_math_calculate","","key","4","16.67470312500018","802.9411539486954","447.0588109897498","","","","","20/5= ?","4","1","","","","","","",""
"1868","","5","psychophysics","124","358335","0.0-7.0-5.0-0.21","5","6","5","2","3","5","2","5","4","5","5","2","0","0","1","0","1","2","0","5","5","5","5","5","4","5","5","4","4","8","7","6","7","5","8","8","6","7","6","5","5","6","6","5","6","1","5","2","5","2","7","3","6","6","5","2","5","4","2","5","3","3","2","7","6","6","5","7","7","6","6","7","3","6","3","7","5","6","598932304420667392","刘","416","Male","[""坏我"",""好他"",""好我"",""坏他""]","[""弱我"",""强他"",""强我"",""弱他""]","","","","","","","","5","","","","","","","","","SRET","SRET_math_calculate","","key","5","16.676017699114652","802.9411539486954","447.0588109897498","","","","","9-4= ?","5","1","","","","","","",""
"1897","","3","psychophysics","125","360264","0.0-7.0-5.0-0.22","5","6","5","2","3","5","2","5","4","5","5","2","0","0","1","0","1","2","0","5","5","5","5","5","4","5","5","4","4","8","7","6","7","5","8","8","6","7","6","5","5","6","6","5","6","1","5","2","5","2","7","3","6","6","5","2","5","4","2","5","3","3","2","7","6","6","5","7","7","6","6","7","3","6","3","7","5","6","598932304420667392","刘","416","Male","[""坏我"",""好他"",""好我"",""坏他""]","[""弱我"",""强他"",""强我"",""弱他""]","","","","","","","","3","","","","","","","","","SRET","SRET_math_calculate","","key","3","16.674156521739054","802.9411539486954","447.0588109897498","","","","","9/3= ?","3","1","","","","","","",""
"2461","","6","psychophysics","126","362733","0.0-7.0-5.0-0.23","5","6","5","2","3","5","2","5","4","5","5","2","0","0","1","0","1","2","0","5","5","5","5","5","4","5","5","4","4","8","7","6","7","5","8","8","6","7","6","5","5","6","6","5","6","1","5","2","5","2","7","3","6","6","5","2","5","4","2","5","3","3","2","7","6","6","5","7","7","6","6","7","3","6","3","7","5","6","598932304420667392","刘","416","Male","[""坏我"",""好他"",""好我"",""坏他""]","[""弱我"",""强他"",""强我"",""弱他""]","","","","","","","","6","","","","","","","","","SRET","SRET_math_calculate","","key","6","16.674306122449124","802.9411539486954","447.0588109897498","","","","","9-3= ?","6","1","","","","","","",""
"2058","","9","psychophysics","127","364800","0.0-7.0-5.0-0.24","5","6","5","2","3","5","2","5","4","5","5","2","0","0","1","0","1","2","0","5","5","5","5","5","4","5","5","4","4","8","7","6","7","5","8","8","6","7","6","5","5","6","6","5","6","1","5","2","5","2","7","3","6","6","5","2","5","4","2","5","3","3","2","7","6","6","5","7","7","6","6","7","3","6","3","7","5","6","598932304420667392","刘","416","Male","[""坏我"",""好他"",""好我"",""坏他""]","[""弱我"",""强他"",""强我"",""弱他""]","","","","","","","","9","","","","","","","","","SRET","SRET_math_calculate","","key","9","16.674089430894313","802.9411539486954","447.0588109897498","","","","","81/9= ?","9","1","","","","","","",""
"1992","","5","psychophysics","128","366798","0.0-7.0-5.0-0.25","5","6","5","2","3","5","2","5","4","5","5","2","0","0","1","0","1","2","0","5","5","5","5","5","4","5","5","4","4","8","7","6","7","5","8","8","6","7","6","5","5","6","6","5","6","1","5","2","5","2","7","3","6","6","5","2","5","4","2","5","3","3","2","7","6","6","5","7","7","6","6","7","3","6","3","7","5","6","598932304420667392","刘","416","Male","[""坏我"",""好他"",""好我"",""坏他""]","[""弱我"",""强他"",""强我"",""弱他""]","","","","","","","","5","","","","","","","","","SRET","SRET_math_calculate","","key","5","16.67468067226851","802.9411539486954","447.0588109897498","","","","","15-10= ?","5","1","","","","","","",""
"1967","","2","psychophysics","129","368769","0.0-7.0-5.0-0.26","5","6","5","2","3","5","2","5","4","5","5","2","0","0","1","0","1","2","0","5","5","5","5","5","4","5","5","4","4","8","7","6","7","5","8","8","6","7","6","5","5","6","6","5","6","1","5","2","5","2","7","3","6","6","5","2","5","4","2","5","3","3","2","7","6","6","5","7","7","6","6","7","3","6","3","7","5","6","598932304420667392","刘","416","Male","[""坏我"",""好他"",""好我"",""坏他""]","[""弱我"",""强他"",""强我"",""弱他""]","","","","","","","","2","","","","","","","","","SRET","SRET_math_calculate","","key","2","16.673196581196294","802.9411539486954","447.0588109897498","","","","","8/4= ?","2","1","","","","","","",""
"2070","","7","psychophysics","130","370844","0.0-7.0-5.0-0.27","5","6","5","2","3","5","2","5","4","5","5","2","0","0","1","0","1","2","0","5","5","5","5","5","4","5","5","4","4","8","7","6","7","5","8","8","6","7","6","5","5","6","6","5","6","1","5","2","5","2","7","3","6","6","5","2","5","4","2","5","3","3","2","7","6","6","5","7","7","6","6","7","3","6","3","7","5","6","598932304420667392","刘","416","Male","[""坏我"",""好他"",""好我"",""坏他""]","[""弱我"",""强他"",""强我"",""弱他""]","","","","","","","","7","","","","","","","","","SRET","SRET_math_calculate","","key","7","16.673024390243484","802.9411539486954","447.0588109897498","","","","","5+2= ?","7","1","","","","","","",""
"1801","","8","psychophysics","131","372655","0.0-7.0-5.0-0.28","5","6","5","2","3","5","2","5","4","5","5","2","0","0","1","0","1","2","0","5","5","5","5","5","4","5","5","4","4","8","7","6","7","5","8","8","6","7","6","5","5","6","6","5","6","1","5","2","5","2","7","3","6","6","5","2","5","4","2","5","3","3","2","7","6","6","5","7","7","6","6","7","3","6","3","7","5","6","598932304420667392","刘","416","Male","[""坏我"",""好他"",""好我"",""坏他""]","[""弱我"",""强他"",""强我"",""弱他""]","","","","","","","","8","","","","","","","","","SRET","SRET_math_calculate","","key","8","16.67564814814843","802.9411539486954","447.0588109897498","","","","","7+1= ?","8","1","","","","","","",""
"3376","","3","psychophysics","132","376038","0.0-7.0-5.0-0.29","5","6","5","2","3","5","2","5","4","5","5","2","0","0","1","0","1","2","0","5","5","5","5","5","4","5","5","4","4","8","7","6","7","5","8","8","6","7","6","5","5","6","6","5","6","1","5","2","5","2","7","3","6","6","5","2","5","4","2","5","3","3","2","7","6","6","5","7","7","6","6","7","3","6","3","7","5","6","598932304420667392","刘","416","Male","[""坏我"",""好他"",""好我"",""坏他""]","[""弱我"",""强他"",""强我"",""弱他""]","","","","","","","","3","","","","","","","","","SRET","SRET_math_calculate","","key","3","16.674693069306933","802.9411539486954","447.0588109897498","","","","","12/4= ?","3","1","","","","","","",""
"1983","","5","psychophysics","133","378028","0.0-7.0-5.0-0.30","5","6","5","2","3","5","2","5","4","5","5","2","0","0","1","0","1","2","0","5","5","5","5","5","4","5","5","4","4","8","7","6","7","5","8","8","6","7","6","5","5","6","6","5","6","1","5","2","5","2","7","3","6","6","5","2","5","4","2","5","3","3","2","7","6","6","5","7","7","6","6","7","3","6","3","7","5","6","598932304420667392","刘","416","Male","[""坏我"",""好他"",""好我"",""坏他""]","[""弱我"",""强他"",""强我"",""弱他""]","","","","","","","","5","","","","","","","","","SRET","SRET_math_calculate","","key","5","16.67572033898293","802.9411539486954","447.0588109897498","","","","","12-7= ?","5","1","","","","","","",""
"2629","","2","psychophysics","134","380678","0.0-7.0-5.0-0.31","5","6","5","2","3","5","2","5","4","5","5","2","0","0","1","0","1","2","0","5","5","5","5","5","4","5","5","4","4","8","7","6","7","5","8","8","6","7","6","5","5","6","6","5","6","1","5","2","5","2","7","3","6","6","5","2","5","4","2","5","3","3","2","7","6","6","5","7","7","6","6","7","3","6","3","7","5","6","598932304420667392","刘","416","Male","[""坏我"",""好他"",""好我"",""坏他""]","[""弱我"",""强他"",""强我"",""弱他""]","","","","","","","","2","","","","","","","","","SRET","SRET_math_calculate","","key","2","16.67460759493664","802.9411539486954","447.0588109897498","","","","","90/45= ?","2","1","","","","","","",""
"1885","","3","psychophysics","135","382579","0.0-7.0-5.0-0.32","5","6","5","2","3","5","2","5","4","5","5","2","0","0","1","0","1","2","0","5","5","5","5","5","4","5","5","4","4","8","7","6","7","5","8","8","6","7","6","5","5","6","6","5","6","1","5","2","5","2","7","3","6","6","5","2","5","4","2","5","3","3","2","7","6","6","5","7","7","6","6","7","3","6","3","7","5","6","598932304420667392","刘","416","Male","[""坏我"",""好他"",""好我"",""坏他""]","[""弱我"",""强他"",""强我"",""弱他""]","","","","","","","","3","","","","","","","","","SRET","SRET_math_calculate","","key","3","16.67677876106216","802.9411539486954","447.0588109897498","","","","","6/2= ?","3","1","","","","","","",""
"1820","","9","psychophysics","136","384426","0.0-7.0-5.0-0.33","5","6","5","2","3","5","2","5","4","5","5","2","0","0","1","0","1","2","0","5","5","5","5","5","4","5","5","4","4","8","7","6","7","5","8","8","6","7","6","5","5","6","6","5","6","1","5","2","5","2","7","3","6","6","5","2","5","4","2","5","3","3","2","7","6","6","5","7","7","6","6","7","3","6","3","7","5","6","598932304420667392","刘","416","Male","[""坏我"",""好他"",""好我"",""坏他""]","[""弱我"",""强他"",""强我"",""弱他""]","","","","","","","","9","","","","","","","","","SRET","SRET_math_calculate","","key","9","16.675745454545407","802.9411539486954","447.0588109897498","","","","","1*9= ?","9","1","","","","","","",""
"1847","","8","psychophysics","137","386285","0.0-7.0-5.0-0.34","5","6","5","2","3","5","2","5","4","5","5","2","0","0","1","0","1","2","0","5","5","5","5","5","4","5","5","4","4","8","7","6","7","5","8","8","6","7","6","5","5","6","6","5","6","1","5","2","5","2","7","3","6","6","5","2","5","4","2","5","3","3","2","7","6","6","5","7","7","6","6","7","3","6","3","7","5","6","598932304420667392","刘","416","Male","[""坏我"",""好他"",""好我"",""坏他""]","[""弱我"",""强他"",""强我"",""弱他""]","","","","","","","","8","","","","","","","","","SRET","SRET_math_calculate","","key","8","16.675245454545472","802.9411539486954","447.0588109897498","","","","","2+6= ?","8","1","","","","","","",""
"1947","","4","psychophysics","138","388258","0.0-7.0-5.0-0.35","5","6","5","2","3","5","2","5","4","5","5","2","0","0","1","0","1","2","0","5","5","5","5","5","4","5","5","4","4","8","7","6","7","5","8","8","6","7","6","5","5","6","6","5","6","1","5","2","5","2","7","3","6","6","5","2","5","4","2","5","3","3","2","7","6","6","5","7","7","6","6","7","3","6","3","7","5","6","598932304420667392","刘","416","Male","[""坏我"",""好他"",""好我"",""坏他""]","[""弱我"",""强他"",""强我"",""弱他""]","","","","","","","","4","","","","","","","","","SRET","SRET_math_calculate","","key","4","16.67412711864424","802.9411539486954","447.0588109897498","","","","","4*1= ?","4","1","","","","","","",""
"1832","","3","psychophysics","139","390101","0.0-7.0-5.0-0.36","5","6","5","2","3","5","2","5","4","5","5","2","0","0","1","0","1","2","0","5","5","5","5","5","4","5","5","4","4","8","7","6","7","5","8","8","6","7","6","5","5","6","6","5","6","1","5","2","5","2","7","3","6","6","5","2","5","4","2","5","3","3","2","7","6","6","5","7","7","6","6","7","3","6","3","7","5","6","598932304420667392","刘","416","Male","[""坏我"",""好他"",""好我"",""坏他""]","[""弱我"",""强他"",""强我"",""弱他""]","","","","","","","","3","","","","","","","","","SRET","SRET_math_calculate","","key","3","16.67615596330276","802.9411539486954","447.0588109897498","","","","","3*1= ?","3","1","","","","","","",""
