"rt","stimulus","response","trial_type","trial_index","time_elapsed","internal_node_id","swb_1","swb_2","swb_3","swb_4","swb_5","LOT_1","LOT_2","LOT_3","LOT_4","LOT_5","LOT_6","IPC_1","IPC_2","IPC_3","IPC_4","IPC_5","IPC_6","IPC_7","IPC_8","MorIden_1","MorIden_2","MorIden_3","MorIden_4","MorIden_5","MorIden_6","MorIden_7","MorIden_8","MorIden_9","MorIden_10","moralSeImag_1","moralSeImag_2","moralSeImag_3","moralSeImag_4","moralSeImag_5","moralSeImag_6","moralSeImag_7","moralSeImag_8","moralSeImag_9","sde_1","sde_2","sde_3","sde_4","sde_5","sde_6","sde_7","sde_8","sde_9","sde_10","sde_11","sde_12","sde_13","sde_14","sde_15","sde_16","sde_17","sde_18","sde_19","sde_20","IM_1","IM_2","IM_3","IM_4","IM_5","IM_6","IM_7","IM_8","IM_9","IM_10","IM_11","IM_12","IM_13","IM_14","IM_15","IM_16","IM_17","IM_18","IM_19","IM_20","subj_idx","friend_name","ParticipantID","Sex","Word","Word2","value","success","timeout","failed_images","failed_audio","failed_video","user_agent","responses","item_order","radio_event_ids","radio_event_times","key_event_times","mouse_event_times","straightlining","zigzagging","honeypot","task_id","screen_id","time_stamp","response_type","key_press","avg_frame_time","center_x","center_y","person","word","valence","domain","math","correct_response","correct","status","view_history","identity","duration","Image","condition","question_order"
"1848","
   <p><div style='color:white; font-size: 25px'>您好，欢迎参加本次实验。</div></p>
   <p><div style='color:white; font-size: 25px'>为充分保障您的权利，请确保您已经知晓并同意《参与实验同意书》以及《数据公开知情同意书》。</div></p>
   <p><div style='color:white; font-size: 25px'>如果您未见过上述内容，请咨询实验员。</div></p>
   <p style='color:white; font-size: 25px'>如果您选择继续实验，则表示您已经清楚两份知情同意书的内容并同意。</p>
   <p><div style = ""color: red;font-size:30px;"">请确保您记得day0的实验编号，您将在本次实验输入该编号，若您忘记，请咨询实验员后作答。</div></p>
   <p> <div style = ""color: green""><按空格键至下页></div> </p>
   "," ","html-keyboard-response","0","1850","0.0-0.0","6","6","5","7","6","5","5","5","4","5","4","2","-2","1","0","-3","2","1","1","5","4","5","1","4","4","5","4","5","3","7","8","8","8","7","9","9","9","8","5","2","2","7","7","3","7","5","7","6","5","7","7","2","6","5","7","6","5","7","7","5","3","2","1","7","5","6","7","6","6","2","3","3","2","7","7","6","3","7","622124635634270208","刘","287","Male","[""坏他"",""好他"",""坏我"",""好我""]","[""弱他"",""强他"",""弱我"",""强我""]","","","","","","","","","","","","","","","","","","","","","","","","","","","","","","","","","","","","","",""
"","","","call-function","1","1851","0.0-1.0-0.0","6","6","5","7","6","5","5","5","4","5","4","2","-2","1","0","-3","2","1","1","5","4","5","1","4","4","5","4","5","3","7","8","8","8","7","9","9","9","8","5","2","2","7","7","3","7","5","7","6","5","7","7","2","6","5","7","6","5","7","7","5","3","2","1","7","5","6","7","6","6","2","3","3","2","7","7","6","3","7","622124635634270208","刘","287","Male","[""坏他"",""好他"",""坏我"",""好我""]","[""弱他"",""强他"",""弱我"",""强我""]","","","","","","","","","","","","","","","","","","","","","","","","","","","","","","","","","","","","","",""
"94824","","[{""name"":""Sex"",""value"":""0""},{""name"":""friend_name"",""value"":""刘""},{""name"":""ParticipantID"",""value"":""287""}]","survey-html-form","2","96677","0.0-1.0-1.0","6","6","5","7","6","5","5","5","4","5","4","2","-2","1","0","-3","2","1","1","5","4","5","1","4","4","5","4","5","3","7","8","8","8","7","9","9","9","8","5","2","2","7","7","3","7","5","7","6","5","7","7","2","6","5","7","6","5","7","7","5","3","2","1","7","5","6","7","6","6","2","3","3","2","7","7","6","3","7","622124635634270208","刘","287","Male","[""坏他"",""好他"",""坏我"",""好我""]","[""弱他"",""强他"",""弱我"",""强我""]","","","","","","","","","","","","","","","","","","","","","","","","","","","","","","","","","","","","","",""
"","","","preload","3","97313","0.0-2.0","6","6","5","7","6","5","5","5","4","5","4","2","-2","1","0","-3","2","1","1","5","4","5","1","4","4","5","4","5","3","7","8","8","8","7","9","9","9","8","5","2","2","7","7","3","7","5","7","6","5","7","7","2","6","5","7","6","5","7","7","5","3","2","1","7","5","6","7","6","6","2","3","3","2","7","7","6","3","7","622124635634270208","刘","287","Male","[""坏他"",""好他"",""坏我"",""好我""]","[""弱他"",""强他"",""弱我"",""强我""]","","true","false","[]","[]","[]","","","","","","","","","","","","","","","","","","","","","","","","","","","","","","","",""
"","","","fullscreen","4","99821","0.0-3.0","6","6","5","7","6","5","5","5","4","5","4","2","-2","1","0","-3","2","1","1","5","4","5","1","4","4","5","4","5","3","7","8","8","8","7","9","9","9","8","5","2","2","7","7","3","7","5","7","6","5","7","7","2","6","5","7","6","5","7","7","5","3","2","1","7","5","6","7","6","6","2","3","3","2","7","7","6","3","7","622124635634270208","刘","287","Male","[""坏他"",""好他"",""坏我"",""好我""]","[""弱他"",""强他"",""弱我"",""强我""]","","true","","","","","{}","","","","","","","","","","","","","","","","","","","","","","","","","","","","","","",""
"18704.099999997765","","{""Q01"":""6"",""Q02"":""6"",""Q03"":""5"",""Q04"":""7"",""Q05"":""6""}","survey-template","5","118528","0.0-4.0","6","6","5","7","6","5","5","5","4","5","4","2","-2","1","0","-3","2","1","1","5","4","5","1","4","4","5","4","5","3","7","8","8","8","7","9","9","9","8","5","2","2","7","7","3","7","5","7","6","5","7","7","2","6","5","7","6","5","7","7","5","3","2","1","7","5","6","7","6","6","2","3","3","2","7","7","6","3","7","622124635634270208","刘","287","Male","[""坏他"",""好他"",""坏我"",""好我""]","[""弱他"",""强他"",""弱我"",""强我""]","","","","","","","","{""Q01"":""6"",""Q02"":""6"",""Q03"":""5"",""Q04"":""7"",""Q05"":""6""}","[0,1,2,3,4]","[""Q01"",""Q02"",""Q03"",""Q04"",""Q05"",""Q01"",""Q02"",""Q03""]","[2279.5,3248.89999999851,4463.5,8951.300000000745,9519.300000000745,10911.699999999255,12471.599999997765,13335.300000000745]","[]","[1031.3999999985099,2279.5,3248.89999999851,4463.5,8951.300000000745,9519.300000000745,10911.699999999255,12471.599999997765,13335.300000000745,16752,17407.300000000745,18703.099999997765]","0.6","0.5","0","","","","","","","","","","","","","","","","","","","","","",""
"26938.900000002235","","{""Q01"":""5"",""Q02"":""5"",""Q03"":""5"",""Q04"":""4"",""Q05"":""5"",""Q06"":""4""}","survey-template","6","145472","0.0-5.0","6","6","5","7","6","5","5","5","4","5","4","2","-2","1","0","-3","2","1","1","5","4","5","1","4","4","5","4","5","3","7","8","8","8","7","9","9","9","8","5","2","2","7","7","3","7","5","7","6","5","7","7","2","6","5","7","6","5","7","7","5","3","2","1","7","5","6","7","6","6","2","3","3","2","7","7","6","3","7","622124635634270208","刘","287","Male","[""坏他"",""好他"",""坏我"",""好我""]","[""弱他"",""强他"",""弱我"",""强我""]","","","","","","","","{""Q01"":""5"",""Q02"":""5"",""Q03"":""5"",""Q04"":""4"",""Q05"":""5"",""Q06"":""4""}","[0,1,2,3,4,5]","[""Q01"",""Q02"",""Q03"",""Q04"",""Q05"",""Q06"",""Q06""]","[4074.10000000149,11274,12515.800000000745,14722.10000000149,15866.10000000149,17530,19372.300000000745]","[]","[793.9000000022352,3314.199999999255,4074.10000000149,11274,12515.800000000745,14722.10000000149,15305.800000000745,15866.10000000149,17530,18506.699999999255,19049.900000002235,19372.300000000745,19810.199999999255,21314.199999999255,23729.900000002235,26938.300000000745]","0.3333333333333333","0.6","0","","","","","","","","","","","","","","","","","","","","","",""
"25708.29999999702","","{""Q01"":""2"",""Q02"":""-2"",""Q03"":""1"",""Q04"":""0"",""Q05"":""-3"",""Q06"":""2"",""Q07"":""1"",""Q08"":""1""}","survey-template","7","171185","0.0-6.0","6","6","5","7","6","5","5","5","4","5","4","2","-2","1","0","-3","2","1","1","5","4","5","1","4","4","5","4","5","3","7","8","8","8","7","9","9","9","8","5","2","2","7","7","3","7","5","7","6","5","7","7","2","6","5","7","6","5","7","7","5","3","2","1","7","5","6","7","6","6","2","3","3","2","7","7","6","3","7","622124635634270208","刘","287","Male","[""坏他"",""好他"",""坏我"",""好我""]","[""弱他"",""强他"",""弱我"",""强我""]","","","","","","","","{""Q01"":""2"",""Q02"":""-2"",""Q03"":""1"",""Q04"":""0"",""Q05"":""-3"",""Q06"":""2"",""Q07"":""1"",""Q08"":""1""}","[0,1,2,3,4,5,6,7]","[""Q01"",""Q02"",""Q03"",""Q04"",""Q05"",""Q06"",""Q07"",""Q08""]","[4187,5979.29999999702,7458.79999999702,8971.099999997765,12148.29999999702,13795.099999997765,15411,17907.199999999255]","[]","[626.8999999985099,4187,5979.29999999702,7458.79999999702,8971.099999997765,12148.29999999702,13795.099999997765,15411,17907.199999999255,25707.29999999702]","0.375","0.42857142857142855","0","","","","","","","","","","","","","","","","","","","","","",""
"29163","
    <p><div style='color:white;font-size:35px; line-height:20px;'>词汇评估任务</div></p><br>
    <p><div style='color:white;font-size:25px; line-height:20px;'>请再次回忆该亲密的朋友，你们至少2年前就认识了，并且最近2年经常见面。</div></p>
    <p><div style='color:white;font-size:25px; line-height:20px;'>在本实验中，您将会看到一些形容词。</div></p>
    <p><div style='color:yellow;font-size:25px; line-height:20px;'>您的任务是判断这些形容词是否符合对您自己或您的朋友的描述。</div></p><p style='font-size:35px'>符合按<span style=""color:lightgreen""> j 键</span>，不符合按<span style=""color:red""> f 键</span></p>","0","html-button-response","8","200351","0.0-7.0-0.0","6","6","5","7","6","5","5","5","4","5","4","2","-2","1","0","-3","2","1","1","5","4","5","1","4","4","5","4","5","3","7","8","8","8","7","9","9","9","8","5","2","2","7","7","3","7","5","7","6","5","7","7","2","6","5","7","6","5","7","7","5","3","2","1","7","5","6","7","6","6","2","3","3","2","7","7","6","3","7","622124635634270208","刘","287","Male","[""坏他"",""好他"",""坏我"",""好我""]","[""弱他"",""强他"",""弱我"",""强我""]","","","","","","","","","","","","","","","","","SRET_EW","EW_instructions","Sat Nov 18 2023 21:48:17 GMT+0800 (中国标准时间)","","","","","","","","","","","","","","","","","","",""
"18720","","j","psychophysics","9","220082","0.0-7.0-1.0-0.0","6","6","5","7","6","5","5","5","4","5","4","2","-2","1","0","-3","2","1","1","5","4","5","1","4","4","5","4","5","3","7","8","8","8","7","9","9","9","8","5","2","2","7","7","3","7","5","7","6","5","7","7","2","6","5","7","6","5","7","7","5","3","2","1","7","5","6","7","6","6","2","3","3","2","7","7","6","3","7","622124635634270208","刘","287","Male","[""坏他"",""好他"",""坏我"",""好我""]","[""弱他"",""强他"",""弱我"",""强我""]","","","","","","","","yes","","","","","","","","","SRET_EW","EW_practice","","key","j","16.674435333896863","768","428","朋友","徇私","Negative","morality","","","","","","","","","",""
"11460","","f","psychophysics","10","232544","0.0-7.0-1.0-0.1","6","6","5","7","6","5","5","5","4","5","4","2","-2","1","0","-3","2","1","1","5","4","5","1","4","4","5","4","5","3","7","8","8","8","7","9","9","9","8","5","2","2","7","7","3","7","5","7","6","5","7","7","2","6","5","7","6","5","7","7","5","3","2","1","7","5","6","7","6","6","2","3","3","2","7","7","6","3","7","622124635634270208","刘","287","Male","[""坏他"",""好他"",""坏我"",""好我""]","[""弱他"",""强他"",""弱我"",""强我""]","","","","","","","","no","","","","","","","","","SRET_EW","EW_practice","","key","f","16.660626506024112","768","428","自己","刻板","Negative","ability","","","","","","","","","",""
"6871","","j","psychophysics","11","240416","0.0-7.0-1.0-0.2","6","6","5","7","6","5","5","5","4","5","4","2","-2","1","0","-3","2","1","1","5","4","5","1","4","4","5","4","5","3","7","8","8","8","7","9","9","9","8","5","2","2","7","7","3","7","5","7","6","5","7","7","2","6","5","7","6","5","7","7","5","3","2","1","7","5","6","7","6","6","2","3","3","2","7","7","6","3","7","622124635634270208","刘","287","Male","[""坏他"",""好他"",""坏我"",""好我""]","[""弱他"",""强他"",""弱我"",""强我""]","","","","","","","","yes","","","","","","","","","SRET_EW","EW_practice","","key","j","16.66053503184712","768","428","自己","严谨","Positive","ability","","","","","","","","","",""
"3196","","j","psychophysics","12","244616","0.0-7.0-1.0-0.3","6","6","5","7","6","5","5","5","4","5","4","2","-2","1","0","-3","2","1","1","5","4","5","1","4","4","5","4","5","3","7","8","8","8","7","9","9","9","8","5","2","2","7","7","3","7","5","7","6","5","7","7","2","6","5","7","6","5","7","7","5","3","2","1","7","5","6","7","6","6","2","3","3","2","7","7","6","3","7","622124635634270208","刘","287","Male","[""坏他"",""好他"",""坏我"",""好我""]","[""弱他"",""强他"",""弱我"",""强我""]","","","","","","","","yes","","","","","","","","","SRET_EW","EW_practice","","key","j","16.660752988047758","768","428","朋友","忠实","Positive","morality","","","","","","","","","",""
"11247","
    <p><div style='color:white;font-size:35px; line-height:20px;'>请您再次阅读实验要求</div></p><br>
    <p><div style='color:white;font-size:25px; line-height:20px;'>请回忆某一个亲密的朋友，你们至少2年前就认识了，并且最近2年经常见面。</div></p>
    <p><div style='color:white;font-size:25px; line-height:20px;'>在本实验中，您将会看到一些形容词。</div></p>
    <p><div style='color:yellow;font-size:25px; line-height:20px;'>您的任务是判断这些形容词是否符合对您自己或您的朋友的描述。</div></p>
    <p><div class='footer' style='font-size:25px; line-height:20px;'>如果对本实验还有不清楚之处，请立即向实验员咨询。</p><p style='font-size:25px; line-height:20px;'>如果您明白了规则：</p><p style='font-size:22px; line-height:20px;'>请按 继续 进入正式实验</p>
    </div>
    <p style='font-size:35px'>符合按<span style=""color:lightgreen""> j 键</span>，不符合按<span style=""color:red""> f 键</span></p>","0","html-button-response","13","255864","0.0-7.0-2.0","6","6","5","7","6","5","5","5","4","5","4","2","-2","1","0","-3","2","1","1","5","4","5","1","4","4","5","4","5","3","7","8","8","8","7","9","9","9","8","5","2","2","7","7","3","7","5","7","6","5","7","7","2","6","5","7","6","5","7","7","5","3","2","1","7","5","6","7","6","6","2","3","3","2","7","7","6","3","7","622124635634270208","刘","287","Male","[""坏他"",""好他"",""坏我"",""好我""]","[""弱他"",""强他"",""弱我"",""强我""]","","","","","","","","","","","","","","","","","SRET_EW","prac_instructions","Sat Nov 18 2023 21:48:17 GMT+0800 (中国标准时间)","","","","","","","","","","","","","","","","","","",""
"4144","","f","psychophysics","14","261009","0.0-7.0-3.0-0.0","6","6","5","7","6","5","5","5","4","5","4","2","-2","1","0","-3","2","1","1","5","4","5","1","4","4","5","4","5","3","7","8","8","8","7","9","9","9","8","5","2","2","7","7","3","7","5","7","6","5","7","7","2","6","5","7","6","5","7","7","5","3","2","1","7","5","6","7","6","6","2","3","3","2","7","7","6","3","7","622124635634270208","刘","287","Male","[""坏他"",""好他"",""坏我"",""好我""]","[""弱他"",""强他"",""弱我"",""强我""]","","","","","","","","no","","","","","","","","","SRET","EW_formal","","key","f","16.66075974025982","768","428","朋友","迷糊","Negative","ability","","","","","","","","","",""
"2164","","f","psychophysics","15","264175","0.0-7.0-3.0-0.1","6","6","5","7","6","5","5","5","4","5","4","2","-2","1","0","-3","2","1","1","5","4","5","1","4","4","5","4","5","3","7","8","8","8","7","9","9","9","8","5","2","2","7","7","3","7","5","7","6","5","7","7","2","6","5","7","6","5","7","7","5","3","2","1","7","5","6","7","6","6","2","3","3","2","7","7","6","3","7","622124635634270208","刘","287","Male","[""坏他"",""好他"",""坏我"",""好我""]","[""弱他"",""强他"",""弱我"",""强我""]","","","","","","","","no","","","","","","","","","SRET","EW_formal","","key","f","16.6604656084655","768","428","自己","说谎","Negative","morality","","","","","","","","","",""
"5992","","j","psychophysics","16","271168","0.0-7.0-3.0-0.2","6","6","5","7","6","5","5","5","4","5","4","2","-2","1","0","-3","2","1","1","5","4","5","1","4","4","5","4","5","3","7","8","8","8","7","9","9","9","8","5","2","2","7","7","3","7","5","7","6","5","7","7","2","6","5","7","6","5","7","7","5","3","2","1","7","5","6","7","6","6","2","3","3","2","7","7","6","3","7","622124635634270208","刘","287","Male","[""坏他"",""好他"",""坏我"",""好我""]","[""弱他"",""强他"",""弱我"",""强我""]","","","","","","","","yes","","","","","","","","","SRET","EW_formal","","key","j","16.661019093078767","768","428","朋友","务实","Positive","ability","","","","","","","","","",""
"1240","","j","psychophysics","17","273409","0.0-7.0-3.0-0.3","6","6","5","7","6","5","5","5","4","5","4","2","-2","1","0","-3","2","1","1","5","4","5","1","4","4","5","4","5","3","7","8","8","8","7","9","9","9","8","5","2","2","7","7","3","7","5","7","6","5","7","7","2","6","5","7","6","5","7","7","5","3","2","1","7","5","6","7","6","6","2","3","3","2","7","7","6","3","7","622124635634270208","刘","287","Male","[""坏他"",""好他"",""坏我"",""好我""]","[""弱他"",""强他"",""弱我"",""强我""]","","","","","","","","yes","","","","","","","","","SRET","EW_formal","","key","j","16.661388059701412","768","428","自己","坚贞","Positive","morality","","","","","","","","","",""
"3251","","j","psychophysics","18","277663","0.0-7.0-3.0-0.4","6","6","5","7","6","5","5","5","4","5","4","2","-2","1","0","-3","2","1","1","5","4","5","1","4","4","5","4","5","3","7","8","8","8","7","9","9","9","8","5","2","2","7","7","3","7","5","7","6","5","7","7","2","6","5","7","6","5","7","7","5","3","2","1","7","5","6","7","6","6","2","3","3","2","7","7","6","3","7","622124635634270208","刘","287","Male","[""坏他"",""好他"",""坏我"",""好我""]","[""弱他"",""强他"",""弱我"",""强我""]","","","","","","","","yes","","","","","","","","","SRET","EW_formal","","key","j","16.660673228346404","768","428","朋友","独立","Positive","ability","","","","","","","","","",""
"1064","","j","psychophysics","19","279728","0.0-7.0-3.0-0.5","6","6","5","7","6","5","5","5","4","5","4","2","-2","1","0","-3","2","1","1","5","4","5","1","4","4","5","4","5","3","7","8","8","8","7","9","9","9","8","5","2","2","7","7","3","7","5","7","6","5","7","7","2","6","5","7","6","5","7","7","5","3","2","1","7","5","6","7","6","6","2","3","3","2","7","7","6","3","7","622124635634270208","刘","287","Male","[""坏他"",""好他"",""坏我"",""好我""]","[""弱他"",""强他"",""弱我"",""强我""]","","","","","","","","yes","","","","","","","","","SRET","EW_formal","","key","j","16.6605040650404","768","428","自己","干练","Positive","ability","","","","","","","","","",""
"2143","","f","psychophysics","20","282872","0.0-7.0-3.0-0.6","6","6","5","7","6","5","5","5","4","5","4","2","-2","1","0","-3","2","1","1","5","4","5","1","4","4","5","4","5","3","7","8","8","8","7","9","9","9","8","5","2","2","7","7","3","7","5","7","6","5","7","7","2","6","5","7","6","5","7","7","5","3","2","1","7","5","6","7","6","6","2","3","3","2","7","7","6","3","7","622124635634270208","刘","287","Male","[""坏他"",""好他"",""坏我"",""好我""]","[""弱他"",""强他"",""弱我"",""强我""]","","","","","","","","no","","","","","","","","","SRET","EW_formal","","key","f","16.65992021276597","768","428","自己","差生","Negative","ability","","","","","","","","","",""
"4436","","f","psychophysics","21","288311","0.0-7.0-3.0-0.7","6","6","5","7","6","5","5","5","4","5","4","2","-2","1","0","-3","2","1","1","5","4","5","1","4","4","5","4","5","3","7","8","8","8","7","9","9","9","8","5","2","2","7","7","3","7","5","7","6","5","7","7","2","6","5","7","6","5","7","7","5","3","2","1","7","5","6","7","6","6","2","3","3","2","7","7","6","3","7","622124635634270208","刘","287","Male","[""坏他"",""好他"",""坏我"",""好我""]","[""弱他"",""强他"",""弱我"",""强我""]","","","","","","","","no","","","","","","","","","SRET","EW_formal","","key","f","16.867897196261595","768","428","朋友","迂拙","Negative","ability","","","","","","","","","",""
"1113","","f","psychophysics","22","290425","0.0-7.0-3.0-0.8","6","6","5","7","6","5","5","5","4","5","4","2","-2","1","0","-3","2","1","1","5","4","5","1","4","4","5","4","5","3","7","8","8","8","7","9","9","9","8","5","2","2","7","7","3","7","5","7","6","5","7","7","2","6","5","7","6","5","7","7","5","3","2","1","7","5","6","7","6","6","2","3","3","2","7","7","6","3","7","622124635634270208","刘","287","Male","[""坏他"",""好他"",""坏我"",""好我""]","[""弱他"",""强他"",""弱我"",""强我""]","","","","","","","","no","","","","","","","","","SRET","EW_formal","","key","f","16.662341269840937","768","428","自己","狡狯","Negative","morality","","","","","","","","","",""
"1534","","j","psychophysics","23","292960","0.0-7.0-3.0-0.9","6","6","5","7","6","5","5","5","4","5","4","2","-2","1","0","-3","2","1","1","5","4","5","1","4","4","5","4","5","3","7","8","8","8","7","9","9","9","8","5","2","2","7","7","3","7","5","7","6","5","7","7","2","6","5","7","6","5","7","7","5","3","2","1","7","5","6","7","6","6","2","3","3","2","7","7","6","3","7","622124635634270208","刘","287","Male","[""坏他"",""好他"",""坏我"",""好我""]","[""弱他"",""强他"",""弱我"",""强我""]","","","","","","","","yes","","","","","","","","","SRET","EW_formal","","key","j","16.6612317880796","768","428","朋友","廉正","Positive","morality","","","","","","","","","",""
"1430","","j","psychophysics","24","295391","0.0-7.0-3.0-0.10","6","6","5","7","6","5","5","5","4","5","4","2","-2","1","0","-3","2","1","1","5","4","5","1","4","4","5","4","5","3","7","8","8","8","7","9","9","9","8","5","2","2","7","7","3","7","5","7","6","5","7","7","2","6","5","7","6","5","7","7","5","3","2","1","7","5","6","7","6","6","2","3","3","2","7","7","6","3","7","622124635634270208","刘","287","Male","[""坏他"",""好他"",""坏我"",""好我""]","[""弱他"",""强他"",""弱我"",""强我""]","","","","","","","","yes","","","","","","","","","SRET","EW_formal","","key","j","16.661689655172463","768","428","自己","礼貌","Positive","morality","","","","","","","","","",""
"1271","","f","psychophysics","25","297664","0.0-7.0-3.0-0.11","6","6","5","7","6","5","5","5","4","5","4","2","-2","1","0","-3","2","1","1","5","4","5","1","4","4","5","4","5","3","7","8","8","8","7","9","9","9","8","5","2","2","7","7","3","7","5","7","6","5","7","7","2","6","5","7","6","5","7","7","5","3","2","1","7","5","6","7","6","6","2","3","3","2","7","7","6","3","7","622124635634270208","刘","287","Male","[""坏他"",""好他"",""坏我"",""好我""]","[""弱他"",""强他"",""弱我"",""强我""]","","","","","","","","no","","","","","","","","","SRET","EW_formal","","key","f","16.659748148148086","768","428","自己","迟钝","Negative","ability","","","","","","","","","",""
"13831","","f","psychophysics","26","312496","0.0-7.0-3.0-0.12","6","6","5","7","6","5","5","5","4","5","4","2","-2","1","0","-3","2","1","1","5","4","5","1","4","4","5","4","5","3","7","8","8","8","7","9","9","9","8","5","2","2","7","7","3","7","5","7","6","5","7","7","2","6","5","7","6","5","7","7","5","3","2","1","7","5","6","7","6","6","2","3","3","2","7","7","6","3","7","622124635634270208","刘","287","Male","[""坏他"",""好他"",""坏我"",""好我""]","[""弱他"",""强他"",""弱我"",""强我""]","","","","","","","","no","","","","","","","","","SRET","EW_formal","","key","f","16.66059662921346","768","428","朋友","笨蛋","Negative","ability","","","","","","","","","",""
"18128","","j","psychophysics","27","331625","0.0-7.0-3.0-0.13","6","6","5","7","6","5","5","5","4","5","4","2","-2","1","0","-3","2","1","1","5","4","5","1","4","4","5","4","5","3","7","8","8","8","7","9","9","9","8","5","2","2","7","7","3","7","5","7","6","5","7","7","2","6","5","7","6","5","7","7","5","3","2","1","7","5","6","7","6","6","2","3","3","2","7","7","6","3","7","622124635634270208","刘","287","Male","[""坏他"",""好他"",""坏我"",""好我""]","[""弱他"",""强他"",""弱我"",""强我""]","","","","","","","","yes","","","","","","","","","SRET","EW_formal","","key","j","16.660699215344366","768","428","朋友","果决","Positive","ability","","","","","","","","","",""
"2620","","j","psychophysics","28","335247","0.0-7.0-3.0-0.14","6","6","5","7","6","5","5","5","4","5","4","2","-2","1","0","-3","2","1","1","5","4","5","1","4","4","5","4","5","3","7","8","8","8","7","9","9","9","8","5","2","2","7","7","3","7","5","7","6","5","7","7","2","6","5","7","6","5","7","7","5","3","2","1","7","5","6","7","6","6","2","3","3","2","7","7","6","3","7","622124635634270208","刘","287","Male","[""坏他"",""好他"",""坏我"",""好我""]","[""弱他"",""强他"",""弱我"",""强我""]","","","","","","","","yes","","","","","","","","","SRET","EW_formal","","key","j","16.660634259259194","768","428","自己","独断","Negative","ability","","","","","","","","","",""
"1687","","j","psychophysics","29","337936","0.0-7.0-3.0-0.15","6","6","5","7","6","5","5","5","4","5","4","2","-2","1","0","-3","2","1","1","5","4","5","1","4","4","5","4","5","3","7","8","8","8","7","9","9","9","8","5","2","2","7","7","3","7","5","7","6","5","7","7","2","6","5","7","6","5","7","7","5","3","2","1","7","5","6","7","6","6","2","3","3","2","7","7","6","3","7","622124635634270208","刘","287","Male","[""坏他"",""好他"",""坏我"",""好我""]","[""弱他"",""强他"",""弱我"",""强我""]","","","","","","","","yes","","","","","","","","","SRET","EW_formal","","key","j","16.66143478260857","768","428","朋友","敏捷","Positive","ability","","","","","","","","","",""
"1430","","f","psychophysics","30","340367","0.0-7.0-3.0-0.16","6","6","5","7","6","5","5","5","4","5","4","2","-2","1","0","-3","2","1","1","5","4","5","1","4","4","5","4","5","3","7","8","8","8","7","9","9","9","8","5","2","2","7","7","3","7","5","7","6","5","7","7","2","6","5","7","6","5","7","7","5","3","2","1","7","5","6","7","6","6","2","3","3","2","7","7","6","3","7","622124635634270208","刘","287","Male","[""坏他"",""好他"",""坏我"",""好我""]","[""弱他"",""强他"",""弱我"",""强我""]","","","","","","","","no","","","","","","","","","SRET","EW_formal","","key","f","16.6614896551726","768","428","朋友","无知","Negative","ability","","","","","","","","","",""
"2262","","j","psychophysics","31","343631","0.0-7.0-3.0-0.17","6","6","5","7","6","5","5","5","4","5","4","2","-2","1","0","-3","2","1","1","5","4","5","1","4","4","5","4","5","3","7","8","8","8","7","9","9","9","8","5","2","2","7","7","3","7","5","7","6","5","7","7","2","6","5","7","6","5","7","7","5","3","2","1","7","5","6","7","6","6","2","3","3","2","7","7","6","3","7","622124635634270208","刘","287","Male","[""坏他"",""好他"",""坏我"",""好我""]","[""弱他"",""强他"",""弱我"",""强我""]","","","","","","","","yes","","","","","","","","","SRET","EW_formal","","key","j","16.66046907216492","768","428","朋友","爱国","Positive","morality","","","","","","","","","",""
"1502","","f","psychophysics","32","346135","0.0-7.0-3.0-0.18","6","6","5","7","6","5","5","5","4","5","4","2","-2","1","0","-3","2","1","1","5","4","5","1","4","4","5","4","5","3","7","8","8","8","7","9","9","9","8","5","2","2","7","7","3","7","5","7","6","5","7","7","2","6","5","7","6","5","7","7","5","3","2","1","7","5","6","7","6","6","2","3","3","2","7","7","6","3","7","622124635634270208","刘","287","Male","[""坏他"",""好他"",""坏我"",""好我""]","[""弱他"",""强他"",""弱我"",""强我""]","","","","","","","","no","","","","","","","","","SRET","EW_formal","","key","f","16.661520000000017","768","428","朋友","虚假","Negative","morality","","","","","","","","","",""
"1726","","j","psychophysics","33","348864","0.0-7.0-3.0-0.19","6","6","5","7","6","5","5","5","4","5","4","2","-2","1","0","-3","2","1","1","5","4","5","1","4","4","5","4","5","3","7","8","8","8","7","9","9","9","8","5","2","2","7","7","3","7","5","7","6","5","7","7","2","6","5","7","6","5","7","7","5","3","2","1","7","5","6","7","6","6","2","3","3","2","7","7","6","3","7","622124635634270208","刘","287","Male","[""坏他"",""好他"",""坏我"",""好我""]","[""弱他"",""强他"",""弱我"",""强我""]","","","","","","","","yes","","","","","","","","","SRET","EW_formal","","key","j","16.66023456790114","768","428","自己","果断","Positive","ability","","","","","","","","","",""
"781","","j","psychophysics","34","350647","0.0-7.0-3.0-0.20","6","6","5","7","6","5","5","5","4","5","4","2","-2","1","0","-3","2","1","1","5","4","5","1","4","4","5","4","5","3","7","8","8","8","7","9","9","9","8","5","2","2","7","7","3","7","5","7","6","5","7","7","2","6","5","7","6","5","7","7","5","3","2","1","7","5","6","7","6","6","2","3","3","2","7","7","6","3","7","622124635634270208","刘","287","Male","[""坏他"",""好他"",""坏我"",""好我""]","[""弱他"",""强他"",""弱我"",""强我""]","","","","","","","","yes","","","","","","","","","SRET","EW_formal","","key","j","16.660179245282944","768","428","自己","屈才","Negative","ability","","","","","","","","","",""
"966","","j","psychophysics","35","352615","0.0-7.0-3.0-0.21","6","6","5","7","6","5","5","5","4","5","4","2","-2","1","0","-3","2","1","1","5","4","5","1","4","4","5","4","5","3","7","8","8","8","7","9","9","9","8","5","2","2","7","7","3","7","5","7","6","5","7","7","2","6","5","7","6","5","7","7","5","3","2","1","7","5","6","7","6","6","2","3","3","2","7","7","6","3","7","622124635634270208","刘","287","Male","[""坏他"",""好他"",""坏我"",""好我""]","[""弱他"",""强他"",""弱我"",""强我""]","","","","","","","","yes","","","","","","","","","SRET","EW_formal","","key","j","16.659008474576076","768","428","自己","努力","Positive","ability","","","","","","","","","",""
"1167","","f","psychophysics","36","354784","0.0-7.0-3.0-0.22","6","6","5","7","6","5","5","5","4","5","4","2","-2","1","0","-3","2","1","1","5","4","5","1","4","4","5","4","5","3","7","8","8","8","7","9","9","9","8","5","2","2","7","7","3","7","5","7","6","5","7","7","2","6","5","7","6","5","7","7","5","3","2","1","7","5","6","7","6","6","2","3","3","2","7","7","6","3","7","622124635634270208","刘","287","Male","[""坏他"",""好他"",""坏我"",""好我""]","[""弱他"",""强他"",""弱我"",""强我""]","","","","","","","","no","","","","","","","","","SRET","EW_formal","","key","f","16.66092248062031","768","428","自己","低劣","Negative","morality","","","","","","","","","",""
"3077","","j","psychophysics","37","358863","0.0-7.0-3.0-0.23","6","6","5","7","6","5","5","5","4","5","4","2","-2","1","0","-3","2","1","1","5","4","5","1","4","4","5","4","5","3","7","8","8","8","7","9","9","9","8","5","2","2","7","7","3","7","5","7","6","5","7","7","2","6","5","7","6","5","7","7","5","3","2","1","7","5","6","7","6","6","2","3","3","2","7","7","6","3","7","622124635634270208","刘","287","Male","[""坏他"",""好他"",""坏我"",""好我""]","[""弱他"",""强他"",""弱我"",""强我""]","","","","","","","","yes","","","","","","","","","SRET","EW_formal","","key","j","16.660856557377095","768","428","自己","义气","Positive","morality","","","","","","","","","",""
"2279","","j","psychophysics","38","362143","0.0-7.0-3.0-0.24","6","6","5","7","6","5","5","5","4","5","4","2","-2","1","0","-3","2","1","1","5","4","5","1","4","4","5","4","5","3","7","8","8","8","7","9","9","9","8","5","2","2","7","7","3","7","5","7","6","5","7","7","2","6","5","7","6","5","7","7","5","3","2","1","7","5","6","7","6","6","2","3","3","2","7","7","6","3","7","622124635634270208","刘","287","Male","[""坏他"",""好他"",""坏我"",""好我""]","[""弱他"",""强他"",""弱我"",""强我""]","","","","","","","","yes","","","","","","","","","SRET","EW_formal","","key","j","16.660933333333247","768","428","自己","忠义","Positive","morality","","","","","","","","","",""
"2423","","j","psychophysics","39","365567","0.0-7.0-3.0-0.25","6","6","5","7","6","5","5","5","4","5","4","2","-2","1","0","-3","2","1","1","5","4","5","1","4","4","5","4","5","3","7","8","8","8","7","9","9","9","8","5","2","2","7","7","3","7","5","7","6","5","7","7","2","6","5","7","6","5","7","7","5","3","2","1","7","5","6","7","6","6","2","3","3","2","7","7","6","3","7","622124635634270208","刘","287","Male","[""坏他"",""好他"",""坏我"",""好我""]","[""弱他"",""强他"",""弱我"",""强我""]","","","","","","","","yes","","","","","","","","","SRET","EW_formal","","key","j","16.66059024390231","768","428","自己","远见","Positive","ability","","","","","","","","","",""
"1319","","j","psychophysics","40","367887","0.0-7.0-3.0-0.26","6","6","5","7","6","5","5","5","4","5","4","2","-2","1","0","-3","2","1","1","5","4","5","1","4","4","5","4","5","3","7","8","8","8","7","9","9","9","8","5","2","2","7","7","3","7","5","7","6","5","7","7","2","6","5","7","6","5","7","7","5","3","2","1","7","5","6","7","6","6","2","3","3","2","7","7","6","3","7","622124635634270208","刘","287","Male","[""坏他"",""好他"",""坏我"",""好我""]","[""弱他"",""强他"",""弱我"",""强我""]","","","","","","","","yes","","","","","","","","","SRET","EW_formal","","key","j","16.660833333333382","768","428","自己","勤恳","Positive","morality","","","","","","","","","",""
"990","","f","psychophysics","41","369879","0.0-7.0-3.0-0.27","6","6","5","7","6","5","5","5","4","5","4","2","-2","1","0","-3","2","1","1","5","4","5","1","4","4","5","4","5","3","7","8","8","8","7","9","9","9","8","5","2","2","7","7","3","7","5","7","6","5","7","7","2","6","5","7","6","5","7","7","5","3","2","1","7","5","6","7","6","6","2","3","3","2","7","7","6","3","7","622124635634270208","刘","287","Male","[""坏他"",""好他"",""坏我"",""好我""]","[""弱他"",""强他"",""弱我"",""强我""]","","","","","","","","no","","","","","","","","","SRET","EW_formal","","key","f","16.659890756302538","768","428","自己","奸诈","Negative","morality","","","","","","","","","",""
"1063","","j","psychophysics","42","371944","0.0-7.0-3.0-0.28","6","6","5","7","6","5","5","5","4","5","4","2","-2","1","0","-3","2","1","1","5","4","5","1","4","4","5","4","5","3","7","8","8","8","7","9","9","9","8","5","2","2","7","7","3","7","5","7","6","5","7","7","2","6","5","7","6","5","7","7","5","3","2","1","7","5","6","7","6","6","2","3","3","2","7","7","6","3","7","622124635634270208","刘","287","Male","[""坏他"",""好他"",""坏我"",""好我""]","[""弱他"",""强他"",""弱我"",""强我""]","","","","","","","","yes","","","","","","","","","SRET","EW_formal","","key","j","16.660666666666568","768","428","朋友","毅力","Positive","ability","","","","","","","","","",""
"2006","","f","psychophysics","43","374951","0.0-7.0-3.0-0.29","6","6","5","7","6","5","5","5","4","5","4","2","-2","1","0","-3","2","1","1","5","4","5","1","4","4","5","4","5","3","7","8","8","8","7","9","9","9","8","5","2","2","7","7","3","7","5","7","6","5","7","7","2","6","5","7","6","5","7","7","5","3","2","1","7","5","6","7","6","6","2","3","3","2","7","7","6","3","7","622124635634270208","刘","287","Male","[""坏他"",""好他"",""坏我"",""好我""]","[""弱他"",""强他"",""弱我"",""强我""]","","","","","","","","no","","","","","","","","","SRET","EW_formal","","key","f","16.66002234636888","768","428","朋友","盲目","Negative","ability","","","","","","","","","",""
"1559","","j","psychophysics","44","377511","0.0-7.0-3.0-0.30","6","6","5","7","6","5","5","5","4","5","4","2","-2","1","0","-3","2","1","1","5","4","5","1","4","4","5","4","5","3","7","8","8","8","7","9","9","9","8","5","2","2","7","7","3","7","5","7","6","5","7","7","2","6","5","7","6","5","7","7","5","3","2","1","7","5","6","7","6","6","2","3","3","2","7","7","6","3","7","622124635634270208","刘","287","Male","[""坏他"",""好他"",""坏我"",""好我""]","[""弱他"",""强他"",""弱我"",""强我""]","","","","","","","","yes","","","","","","","","","SRET","EW_formal","","key","j","16.66154901960787","768","428","自己","慷慨","Positive","morality","","","","","","","","","",""
"1589","","j","psychophysics","45","380103","0.0-7.0-3.0-0.31","6","6","5","7","6","5","5","5","4","5","4","2","-2","1","0","-3","2","1","1","5","4","5","1","4","4","5","4","5","3","7","8","8","8","7","9","9","9","8","5","2","2","7","7","3","7","5","7","6","5","7","7","2","6","5","7","6","5","7","7","5","3","2","1","7","5","6","7","6","6","2","3","3","2","7","7","6","3","7","622124635634270208","刘","287","Male","[""坏他"",""好他"",""坏我"",""好我""]","[""弱他"",""强他"",""弱我"",""强我""]","","","","","","","","yes","","","","","","","","","SRET","EW_formal","","key","j","16.660103225806772","768","428","朋友","无私","Positive","morality","","","","","","","","","",""
"1608","","f","psychophysics","46","382712","0.0-7.0-3.0-0.32","6","6","5","7","6","5","5","5","4","5","4","2","-2","1","0","-3","2","1","1","5","4","5","1","4","4","5","4","5","3","7","8","8","8","7","9","9","9","8","5","2","2","7","7","3","7","5","7","6","5","7","7","2","6","5","7","6","5","7","7","5","3","2","1","7","5","6","7","6","6","2","3","3","2","7","7","6","3","7","622124635634270208","刘","287","Male","[""坏他"",""好他"",""坏我"",""好我""]","[""弱他"",""强他"",""弱我"",""强我""]","","","","","","","","no","","","","","","","","","SRET","EW_formal","","key","f","16.661806451613007","768","428","自己","窝囊","Negative","ability","","","","","","","","","",""
"1526","","f","psychophysics","47","385239","0.0-7.0-3.0-0.33","6","6","5","7","6","5","5","5","4","5","4","2","-2","1","0","-3","2","1","1","5","4","5","1","4","4","5","4","5","3","7","8","8","8","7","9","9","9","8","5","2","2","7","7","3","7","5","7","6","5","7","7","2","6","5","7","6","5","7","7","5","3","2","1","7","5","6","7","6","6","2","3","3","2","7","7","6","3","7","622124635634270208","刘","287","Male","[""坏他"",""好他"",""坏我"",""好我""]","[""弱他"",""强他"",""弱我"",""强我""]","","","","","","","","no","","","","","","","","","SRET","EW_formal","","key","f","16.660940397350775","768","428","自己","外行","Negative","ability","","","","","","","","","",""
"2686","","f","psychophysics","48","388927","0.0-7.0-3.0-0.34","6","6","5","7","6","5","5","5","4","5","4","2","-2","1","0","-3","2","1","1","5","4","5","1","4","4","5","4","5","3","7","8","8","8","7","9","9","9","8","5","2","2","7","7","3","7","5","7","6","5","7","7","2","6","5","7","6","5","7","7","5","3","2","1","7","5","6","7","6","6","2","3","3","2","7","7","6","3","7","622124635634270208","刘","287","Male","[""坏他"",""好他"",""坏我"",""好我""]","[""弱他"",""强他"",""弱我"",""强我""]","","","","","","","","no","","","","","","","","","SRET","EW_formal","","key","f","16.66078636363646","768","428","朋友","无为","Negative","ability","","","","","","","","","",""
"1607","","f","psychophysics","49","391535","0.0-7.0-3.0-0.35","6","6","5","7","6","5","5","5","4","5","4","2","-2","1","0","-3","2","1","1","5","4","5","1","4","4","5","4","5","3","7","8","8","8","7","9","9","9","8","5","2","2","7","7","3","7","5","7","6","5","7","7","2","6","5","7","6","5","7","7","5","3","2","1","7","5","6","7","6","6","2","3","3","2","7","7","6","3","7","622124635634270208","刘","287","Male","[""坏他"",""好他"",""坏我"",""好我""]","[""弱他"",""强他"",""弱我"",""强我""]","","","","","","","","no","","","","","","","","","SRET","EW_formal","","key","f","16.661358974358734","768","428","朋友","阴毒","Negative","morality","","","","","","","","","",""
"1749","","j","psychophysics","50","394287","0.0-7.0-3.0-0.36","6","6","5","7","6","5","5","5","4","5","4","2","-2","1","0","-3","2","1","1","5","4","5","1","4","4","5","4","5","3","7","8","8","8","7","9","9","9","8","5","2","2","7","7","3","7","5","7","6","5","7","7","2","6","5","7","6","5","7","7","5","3","2","1","7","5","6","7","6","6","2","3","3","2","7","7","6","3","7","622124635634270208","刘","287","Male","[""坏他"",""好他"",""坏我"",""好我""]","[""弱他"",""强他"",""弱我"",""强我""]","","","","","","","","yes","","","","","","","","","SRET","EW_formal","","key","j","16.660682926828997","768","428","朋友","孝顺","Positive","morality","","","","","","","","","",""
"983","","j","psychophysics","51","396271","0.0-7.0-3.0-0.37","6","6","5","7","6","5","5","5","4","5","4","2","-2","1","0","-3","2","1","1","5","4","5","1","4","4","5","4","5","3","7","8","8","8","7","9","9","9","8","5","2","2","7","7","3","7","5","7","6","5","7","7","2","6","5","7","6","5","7","7","5","3","2","1","7","5","6","7","6","6","2","3","3","2","7","7","6","3","7","622124635634270208","刘","287","Male","[""坏他"",""好他"",""坏我"",""好我""]","[""弱他"",""强他"",""弱我"",""强我""]","","","","","","","","yes","","","","","","","","","SRET","EW_formal","","key","j","16.659533898305185","768","428","朋友","仁厚","Positive","morality","","","","","","","","","",""
"1214","","f","psychophysics","52","398487","0.0-7.0-3.0-0.38","6","6","5","7","6","5","5","5","4","5","4","2","-2","1","0","-3","2","1","1","5","4","5","1","4","4","5","4","5","3","7","8","8","8","7","9","9","9","8","5","2","2","7","7","3","7","5","7","6","5","7","7","2","6","5","7","6","5","7","7","5","3","2","1","7","5","6","7","6","6","2","3","3","2","7","7","6","3","7","622124635634270208","刘","287","Male","[""坏他"",""好他"",""坏我"",""好我""]","[""弱他"",""强他"",""弱我"",""强我""]","","","","","","","","no","","","","","","","","","SRET","EW_formal","","key","f","16.660984848484848","768","428","自己","贪污","Negative","morality","","","","","","","","","",""
"1808","","f","psychophysics","53","401296","0.0-7.0-3.0-0.39","6","6","5","7","6","5","5","5","4","5","4","2","-2","1","0","-3","2","1","1","5","4","5","1","4","4","5","4","5","3","7","8","8","8","7","9","9","9","8","5","2","2","7","7","3","7","5","7","6","5","7","7","2","6","5","7","6","5","7","7","5","3","2","1","7","5","6","7","6","6","2","3","3","2","7","7","6","3","7","622124635634270208","刘","287","Male","[""坏他"",""好他"",""坏我"",""好我""]","[""弱他"",""强他"",""弱我"",""强我""]","","","","","","","","no","","","","","","","","","SRET","EW_formal","","key","f","16.660580838323586","768","428","朋友","虚伪","Negative","morality","","","","","","","","","",""
"7334","","j","psychophysics","54","409631","0.0-7.0-3.0-0.40","6","6","5","7","6","5","5","5","4","5","4","2","-2","1","0","-3","2","1","1","5","4","5","1","4","4","5","4","5","3","7","8","8","8","7","9","9","9","8","5","2","2","7","7","3","7","5","7","6","5","7","7","2","6","5","7","6","5","7","7","5","3","2","1","7","5","6","7","6","6","2","3","3","2","7","7","6","3","7","622124635634270208","刘","287","Male","[""坏他"",""好他"",""坏我"",""好我""]","[""弱他"",""强他"",""弱我"",""强我""]","","","","","","","","yes","","","","","","","","","SRET","EW_formal","","key","j","16.66101600000006","768","428","自己","娴熟","Positive","ability","","","","","","","","","",""
"1295","","j","psychophysics","55","411927","0.0-7.0-3.0-0.41","6","6","5","7","6","5","5","5","4","5","4","2","-2","1","0","-3","2","1","1","5","4","5","1","4","4","5","4","5","3","7","8","8","8","7","9","9","9","8","5","2","2","7","7","3","7","5","7","6","5","7","7","2","6","5","7","6","5","7","7","5","3","2","1","7","5","6","7","6","6","2","3","3","2","7","7","6","3","7","622124635634270208","刘","287","Male","[""坏他"",""好他"",""坏我"",""好我""]","[""弱他"",""强他"",""弱我"",""强我""]","","","","","","","","yes","","","","","","","","","SRET","EW_formal","","key","j","16.661291970802985","768","428","朋友","智慧","Positive","ability","","","","","","","","","",""
"2334","","j","psychophysics","56","415263","0.0-7.0-3.0-0.42","6","6","5","7","6","5","5","5","4","5","4","2","-2","1","0","-3","2","1","1","5","4","5","1","4","4","5","4","5","3","7","8","8","8","7","9","9","9","8","5","2","2","7","7","3","7","5","7","6","5","7","7","2","6","5","7","6","5","7","7","5","3","2","1","7","5","6","7","6","6","2","3","3","2","7","7","6","3","7","622124635634270208","刘","287","Male","[""坏他"",""好他"",""坏我"",""好我""]","[""弱他"",""强他"",""弱我"",""强我""]","","","","","","","","yes","","","","","","","","","SRET","EW_formal","","key","j","16.660778894472337","768","428","朋友","变通","Positive","ability","","","","","","","","","",""
"1430","","j","psychophysics","57","417695","0.0-7.0-3.0-0.43","6","6","5","7","6","5","5","5","4","5","4","2","-2","1","0","-3","2","1","1","5","4","5","1","4","4","5","4","5","3","7","8","8","8","7","9","9","9","8","5","2","2","7","7","3","7","5","7","6","5","7","7","2","6","5","7","6","5","7","7","5","3","2","1","7","5","6","7","6","6","2","3","3","2","7","7","6","3","7","622124635634270208","刘","287","Male","[""坏他"",""好他"",""坏我"",""好我""]","[""弱他"",""强他"",""弱我"",""强我""]","","","","","","","","yes","","","","","","","","","SRET","EW_formal","","key","j","16.6608896551722","768","428","自己","利己","Negative","morality","","","","","","","","","",""
"1167","","f","psychophysics","58","419863","0.0-7.0-3.0-0.44","6","6","5","7","6","5","5","5","4","5","4","2","-2","1","0","-3","2","1","1","5","4","5","1","4","4","5","4","5","3","7","8","8","8","7","9","9","9","8","5","2","2","7","7","3","7","5","7","6","5","7","7","2","6","5","7","6","5","7","7","5","3","2","1","7","5","6","7","6","6","2","3","3","2","7","7","6","3","7","622124635634270208","刘","287","Male","[""坏他"",""好他"",""坏我"",""好我""]","[""弱他"",""强他"",""弱我"",""强我""]","","","","","","","","no","","","","","","","","","SRET","EW_formal","","key","f","16.660341085271384","768","428","自己","罪恶","Negative","morality","","","","","","","","","",""
"1479","","f","psychophysics","59","422343","0.0-7.0-3.0-0.45","6","6","5","7","6","5","5","5","4","5","4","2","-2","1","0","-3","2","1","1","5","4","5","1","4","4","5","4","5","3","7","8","8","8","7","9","9","9","8","5","2","2","7","7","3","7","5","7","6","5","7","7","2","6","5","7","6","5","7","7","5","3","2","1","7","5","6","7","6","6","2","3","3","2","7","7","6","3","7","622124635634270208","刘","287","Male","[""坏他"",""好他"",""坏我"",""好我""]","[""弱他"",""强他"",""弱我"",""强我""]","","","","","","","","no","","","","","","","","","SRET","EW_formal","","key","f","16.660108108108084","768","428","朋友","愚痴","Negative","ability","","","","","","","","","",""
"1838","","j","psychophysics","60","425184","0.0-7.0-3.0-0.46","6","6","5","7","6","5","5","5","4","5","4","2","-2","1","0","-3","2","1","1","5","4","5","1","4","4","5","4","5","3","7","8","8","8","7","9","9","9","8","5","2","2","7","7","3","7","5","7","6","5","7","7","2","6","5","7","6","5","7","7","5","3","2","1","7","5","6","7","6","6","2","3","3","2","7","7","6","3","7","622124635634270208","刘","287","Male","[""坏他"",""好他"",""坏我"",""好我""]","[""弱他"",""强他"",""弱我"",""强我""]","","","","","","","","yes","","","","","","","","","SRET","EW_formal","","key","j","16.659597633136148","768","428","自己","利落","Positive","ability","","","","","","","","","",""
"3478","","f","psychophysics","61","429663","0.0-7.0-3.0-0.47","6","6","5","7","6","5","5","5","4","5","4","2","-2","1","0","-3","2","1","1","5","4","5","1","4","4","5","4","5","3","7","8","8","8","7","9","9","9","8","5","2","2","7","7","3","7","5","7","6","5","7","7","2","6","5","7","6","5","7","7","5","3","2","1","7","5","6","7","6","6","2","3","3","2","7","7","6","3","7","622124635634270208","刘","287","Male","[""坏他"",""好他"",""坏我"",""好我""]","[""弱他"",""强他"",""弱我"",""强我""]","","","","","","","","no","","","","","","","","","SRET","EW_formal","","key","f","16.660735074626828","768","428","朋友","拜金","Negative","morality","","","","","","","","","",""
"2167","","f","psychophysics","62","432831","0.0-7.0-3.0-0.48","6","6","5","7","6","5","5","5","4","5","4","2","-2","1","0","-3","2","1","1","5","4","5","1","4","4","5","4","5","3","7","8","8","8","7","9","9","9","8","5","2","2","7","7","3","7","5","7","6","5","7","7","2","6","5","7","6","5","7","7","5","3","2","1","7","5","6","7","6","6","2","3","3","2","7","7","6","3","7","622124635634270208","刘","287","Male","[""坏他"",""好他"",""坏我"",""好我""]","[""弱他"",""强他"",""弱我"",""强我""]","","","","","","","","no","","","","","","","","","SRET","EW_formal","","key","f","16.661206349206314","768","428","自己","不端","Negative","morality","","","","","","","","","",""
"1494","","f","psychophysics","63","435327","0.0-7.0-3.0-0.49","6","6","5","7","6","5","5","5","4","5","4","2","-2","1","0","-3","2","1","1","5","4","5","1","4","4","5","4","5","3","7","8","8","8","7","9","9","9","8","5","2","2","7","7","3","7","5","7","6","5","7","7","2","6","5","7","6","5","7","7","5","3","2","1","7","5","6","7","6","6","2","3","3","2","7","7","6","3","7","622124635634270208","刘","287","Male","[""坏他"",""好他"",""坏我"",""好我""]","[""弱他"",""强他"",""弱我"",""强我""]","","","","","","","","no","","","","","","","","","SRET","EW_formal","","key","f","16.66057046979858","768","428","朋友","卑鄙","Negative","morality","","","","","","","","","",""
"1223","","f","psychophysics","64","437551","0.0-7.0-3.0-0.50","6","6","5","7","6","5","5","5","4","5","4","2","-2","1","0","-3","2","1","1","5","4","5","1","4","4","5","4","5","3","7","8","8","8","7","9","9","9","8","5","2","2","7","7","3","7","5","7","6","5","7","7","2","6","5","7","6","5","7","7","5","3","2","1","7","5","6","7","6","6","2","3","3","2","7","7","6","3","7","622124635634270208","刘","287","Male","[""坏他"",""好他"",""坏我"",""好我""]","[""弱他"",""强他"",""弱我"",""强我""]","","","","","","","","no","","","","","","","","","SRET","EW_formal","","key","f","16.6617819548876","768","428","自己","无能","Negative","ability","","","","","","","","","",""
"1134","","j","psychophysics","65","439687","0.0-7.0-3.0-0.51","6","6","5","7","6","5","5","5","4","5","4","2","-2","1","0","-3","2","1","1","5","4","5","1","4","4","5","4","5","3","7","8","8","8","7","9","9","9","8","5","2","2","7","7","3","7","5","7","6","5","7","7","2","6","5","7","6","5","7","7","5","3","2","1","7","5","6","7","6","6","2","3","3","2","7","7","6","3","7","622124635634270208","刘","287","Male","[""坏他"",""好他"",""坏我"",""好我""]","[""弱他"",""强他"",""弱我"",""强我""]","","","","","","","","yes","","","","","","","","","SRET","EW_formal","","key","j","16.661307086613977","768","428","自己","忠良","Positive","morality","","","","","","","","","",""
"1343","","j","psychophysics","66","442031","0.0-7.0-3.0-0.52","6","6","5","7","6","5","5","5","4","5","4","2","-2","1","0","-3","2","1","1","5","4","5","1","4","4","5","4","5","3","7","8","8","8","7","9","9","9","8","5","2","2","7","7","3","7","5","7","6","5","7","7","2","6","5","7","6","5","7","7","5","3","2","1","7","5","6","7","6","6","2","3","3","2","7","7","6","3","7","622124635634270208","刘","287","Male","[""坏他"",""好他"",""坏我"",""好我""]","[""弱他"",""强他"",""弱我"",""强我""]","","","","","","","","yes","","","","","","","","","SRET","EW_formal","","key","j","16.66105755395675","768","428","自己","高洁","Positive","morality","","","","","","","","","",""
"1399","","j","psychophysics","67","444432","0.0-7.0-3.0-0.53","6","6","5","7","6","5","5","5","4","5","4","2","-2","1","0","-3","2","1","1","5","4","5","1","4","4","5","4","5","3","7","8","8","8","7","9","9","9","8","5","2","2","7","7","3","7","5","7","6","5","7","7","2","6","5","7","6","5","7","7","5","3","2","1","7","5","6","7","6","6","2","3","3","2","7","7","6","3","7","622124635634270208","刘","287","Male","[""坏他"",""好他"",""坏我"",""好我""]","[""弱他"",""强他"",""弱我"",""强我""]","","","","","","","","yes","","","","","","","","","SRET","EW_formal","","key","j","16.661562500000098","768","428","自己","清廉","Positive","morality","","","","","","","","","",""
"3782","","j","psychophysics","68","449215","0.0-7.0-3.0-0.54","6","6","5","7","6","5","5","5","4","5","4","2","-2","1","0","-3","2","1","1","5","4","5","1","4","4","5","4","5","3","7","8","8","8","7","9","9","9","8","5","2","2","7","7","3","7","5","7","6","5","7","7","2","6","5","7","6","5","7","7","5","3","2","1","7","5","6","7","6","6","2","3","3","2","7","7","6","3","7","622124635634270208","刘","287","Male","[""坏他"",""好他"",""坏我"",""好我""]","[""弱他"",""强他"",""弱我"",""强我""]","","","","","","","","yes","","","","","","","","","SRET","EW_formal","","key","j","16.660769230769166","768","428","自己","懂行","Positive","ability","","","","","","","","","",""
"999","","j","psychophysics","69","451215","0.0-7.0-3.0-0.55","6","6","5","7","6","5","5","5","4","5","4","2","-2","1","0","-3","2","1","1","5","4","5","1","4","4","5","4","5","3","7","8","8","8","7","9","9","9","8","5","2","2","7","7","3","7","5","7","6","5","7","7","2","6","5","7","6","5","7","7","5","3","2","1","7","5","6","7","6","6","2","3","3","2","7","7","6","3","7","622124635634270208","刘","287","Male","[""坏他"",""好他"",""坏我"",""好我""]","[""弱他"",""强他"",""弱我"",""强我""]","","","","","","","","yes","","","","","","","","","SRET","EW_formal","","key","j","16.660142857143107","768","428","朋友","君子","Positive","morality","","","","","","","","","",""
"1158","","j","psychophysics","70","453374","0.0-7.0-3.0-0.56","6","6","5","7","6","5","5","5","4","5","4","2","-2","1","0","-3","2","1","1","5","4","5","1","4","4","5","4","5","3","7","8","8","8","7","9","9","9","8","5","2","2","7","7","3","7","5","7","6","5","7","7","2","6","5","7","6","5","7","7","5","3","2","1","7","5","6","7","6","6","2","3","3","2","7","7","6","3","7","622124635634270208","刘","287","Male","[""坏他"",""好他"",""坏我"",""好我""]","[""弱他"",""强他"",""弱我"",""强我""]","","","","","","","","yes","","","","","","","","","SRET","EW_formal","","key","j","16.661648437499935","768","428","自己","学霸","Positive","ability","","","","","","","","","",""
"1783","","f","psychophysics","71","456159","0.0-7.0-3.0-0.57","6","6","5","7","6","5","5","5","4","5","4","2","-2","1","0","-3","2","1","1","5","4","5","1","4","4","5","4","5","3","7","8","8","8","7","9","9","9","8","5","2","2","7","7","3","7","5","7","6","5","7","7","2","6","5","7","6","5","7","7","5","3","2","1","7","5","6","7","6","6","2","3","3","2","7","7","6","3","7","622124635634270208","刘","287","Male","[""坏他"",""好他"",""坏我"",""好我""]","[""弱他"",""强他"",""弱我"",""强我""]","","","","","","","","no","","","","","","","","","SRET","EW_formal","","key","f","16.659789156626296","768","428","朋友","庸碌","Negative","ability","","","","","","","","","",""
"1318","","f","psychophysics","72","458479","0.0-7.0-3.0-0.58","6","6","5","7","6","5","5","5","4","5","4","2","-2","1","0","-3","2","1","1","5","4","5","1","4","4","5","4","5","3","7","8","8","8","7","9","9","9","8","5","2","2","7","7","3","7","5","7","6","5","7","7","2","6","5","7","6","5","7","7","5","3","2","1","7","5","6","7","6","6","2","3","3","2","7","7","6","3","7","622124635634270208","刘","287","Male","[""坏他"",""好他"",""坏我"",""好我""]","[""弱他"",""强他"",""弱我"",""强我""]","","","","","","","","no","","","","","","","","","SRET","EW_formal","","key","f","16.661129496402857","768","428","朋友","业余","Negative","ability","","","","","","","","","",""
"1070","","j","psychophysics","73","460550","0.0-7.0-3.0-0.59","6","6","5","7","6","5","5","5","4","5","4","2","-2","1","0","-3","2","1","1","5","4","5","1","4","4","5","4","5","3","7","8","8","8","7","9","9","9","8","5","2","2","7","7","3","7","5","7","6","5","7","7","2","6","5","7","6","5","7","7","5","3","2","1","7","5","6","7","6","6","2","3","3","2","7","7","6","3","7","622124635634270208","刘","287","Male","[""坏他"",""好他"",""坏我"",""好我""]","[""弱他"",""强他"",""弱我"",""强我""]","","","","","","","","yes","","","","","","","","","SRET","EW_formal","","key","j","16.6606097560976","768","428","自己","热心","Positive","morality","","","","","","","","","",""
"2965","","j","psychophysics","74","464518","0.0-7.0-3.0-0.60","6","6","5","7","6","5","5","5","4","5","4","2","-2","1","0","-3","2","1","1","5","4","5","1","4","4","5","4","5","3","7","8","8","8","7","9","9","9","8","5","2","2","7","7","3","7","5","7","6","5","7","7","2","6","5","7","6","5","7","7","5","3","2","1","7","5","6","7","6","6","2","3","3","2","7","7","6","3","7","622124635634270208","刘","287","Male","[""坏他"",""好他"",""坏我"",""好我""]","[""弱他"",""强他"",""弱我"",""强我""]","","","","","","","","yes","","","","","","","","","SRET","EW_formal","","key","j","16.66040928270039","768","428","朋友","肯干","Positive","ability","","","","","","","","","",""
"2040","","f","psychophysics","75","467560","0.0-7.0-3.0-0.61","6","6","5","7","6","5","5","5","4","5","4","2","-2","1","0","-3","2","1","1","5","4","5","1","4","4","5","4","5","3","7","8","8","8","7","9","9","9","8","5","2","2","7","7","3","7","5","7","6","5","7","7","2","6","5","7","6","5","7","7","5","3","2","1","7","5","6","7","6","6","2","3","3","2","7","7","6","3","7","622124635634270208","刘","287","Male","[""坏他"",""好他"",""坏我"",""好我""]","[""弱他"",""强他"",""弱我"",""强我""]","","","","","","","","no","","","","","","","","","SRET","EW_formal","","key","f","16.659923076922915","768","428","朋友","弱智","Negative","ability","","","","","","","","","",""
"1167","","j","psychophysics","76","469728","0.0-7.0-3.0-0.62","6","6","5","7","6","5","5","5","4","5","4","2","-2","1","0","-3","2","1","1","5","4","5","1","4","4","5","4","5","3","7","8","8","8","7","9","9","9","8","5","2","2","7","7","3","7","5","7","6","5","7","7","2","6","5","7","6","5","7","7","5","3","2","1","7","5","6","7","6","6","2","3","3","2","7","7","6","3","7","622124635634270208","刘","287","Male","[""坏他"",""好他"",""坏我"",""好我""]","[""弱他"",""强他"",""弱我"",""强我""]","","","","","","","","yes","","","","","","","","","SRET","EW_formal","","key","j","16.66198449612409","768","428","朋友","势利","Negative","morality","","","","","","","","","",""
"1262","","f","psychophysics","77","471991","0.0-7.0-3.0-0.63","6","6","5","7","6","5","5","5","4","5","4","2","-2","1","0","-3","2","1","1","5","4","5","1","4","4","5","4","5","3","7","8","8","8","7","9","9","9","8","5","2","2","7","7","3","7","5","7","6","5","7","7","2","6","5","7","6","5","7","7","5","3","2","1","7","5","6","7","6","6","2","3","3","2","7","7","6","3","7","622124635634270208","刘","287","Male","[""坏他"",""好他"",""坏我"",""好我""]","[""弱他"",""强他"",""弱我"",""强我""]","","","","","","","","no","","","","","","","","","SRET","EW_formal","","key","f","16.66111851851887","768","428","朋友","拖拉","Negative","ability","","","","","","","","","",""
"2014","","f","psychophysics","78","475007","0.0-7.0-3.0-0.64","6","6","5","7","6","5","5","5","4","5","4","2","-2","1","0","-3","2","1","1","5","4","5","1","4","4","5","4","5","3","7","8","8","8","7","9","9","9","8","5","2","2","7","7","3","7","5","7","6","5","7","7","2","6","5","7","6","5","7","7","5","3","2","1","7","5","6","7","6","6","2","3","3","2","7","7","6","3","7","622124635634270208","刘","287","Male","[""坏他"",""好他"",""坏我"",""好我""]","[""弱他"",""强他"",""弱我"",""强我""]","","","","","","","","no","","","","","","","","","SRET","EW_formal","","key","f","16.659955555555644","768","428","朋友","刻薄","Negative","morality","","","","","","","","","",""
"1559","","f","psychophysics","79","477567","0.0-7.0-3.0-0.65","6","6","5","7","6","5","5","5","4","5","4","2","-2","1","0","-3","2","1","1","5","4","5","1","4","4","5","4","5","3","7","8","8","8","7","9","9","9","8","5","2","2","7","7","3","7","5","7","6","5","7","7","2","6","5","7","6","5","7","7","5","3","2","1","7","5","6","7","6","6","2","3","3","2","7","7","6","3","7","622124635634270208","刘","287","Male","[""坏他"",""好他"",""坏我"",""好我""]","[""弱他"",""强他"",""弱我"",""强我""]","","","","","","","","no","","","","","","","","","SRET","EW_formal","","key","f","16.6616973684213","768","428","自己","无耻","Negative","morality","","","","","","","","","",""
"2894","","j","psychophysics","80","481463","0.0-7.0-3.0-0.66","6","6","5","7","6","5","5","5","4","5","4","2","-2","1","0","-3","2","1","1","5","4","5","1","4","4","5","4","5","3","7","8","8","8","7","9","9","9","8","5","2","2","7","7","3","7","5","7","6","5","7","7","2","6","5","7","6","5","7","7","5","3","2","1","7","5","6","7","6","6","2","3","3","2","7","7","6","3","7","622124635634270208","刘","287","Male","[""坏他"",""好他"",""坏我"",""好我""]","[""弱他"",""强他"",""弱我"",""强我""]","","","","","","","","yes","","","","","","","","","SRET","EW_formal","","key","j","16.66077682403413","768","428","朋友","有力","Positive","ability","","","","","","","","","",""
"1408","","f","psychophysics","81","483871","0.0-7.0-3.0-0.67","6","6","5","7","6","5","5","5","4","5","4","2","-2","1","0","-3","2","1","1","5","4","5","1","4","4","5","4","5","3","7","8","8","8","7","9","9","9","8","5","2","2","7","7","3","7","5","7","6","5","7","7","2","6","5","7","6","5","7","7","5","3","2","1","7","5","6","7","6","6","2","3","3","2","7","7","6","3","7","622124635634270208","刘","287","Male","[""坏他"",""好他"",""坏我"",""好我""]","[""弱他"",""强他"",""弱我"",""强我""]","","","","","","","","no","","","","","","","","","SRET","EW_formal","","key","f","16.660659722222288","768","428","朋友","不孝","Negative","morality","","","","","","","","","",""
"9598","","f","psychophysics","82","494471","0.0-7.0-3.0-0.68","6","6","5","7","6","5","5","5","4","5","4","2","-2","1","0","-3","2","1","1","5","4","5","1","4","4","5","4","5","3","7","8","8","8","7","9","9","9","8","5","2","2","7","7","3","7","5","7","6","5","7","7","2","6","5","7","6","5","7","7","5","3","2","1","7","5","6","7","6","6","2","3","3","2","7","7","6","3","7","622124635634270208","刘","287","Male","[""坏他"",""好他"",""坏我"",""好我""]","[""弱他"",""强他"",""弱我"",""强我""]","","","","","","","","no","","","","","","","","","SRET","EW_formal","","key","f","16.660875590551207","768","428","朋友","失信","Negative","morality","","","","","","","","","",""
"2119","","f","psychophysics","83","497590","0.0-7.0-3.0-0.69","6","6","5","7","6","5","5","5","4","5","4","2","-2","1","0","-3","2","1","1","5","4","5","1","4","4","5","4","5","3","7","8","8","8","7","9","9","9","8","5","2","2","7","7","3","7","5","7","6","5","7","7","2","6","5","7","6","5","7","7","5","3","2","1","7","5","6","7","6","6","2","3","3","2","7","7","6","3","7","622124635634270208","刘","287","Male","[""坏他"",""好他"",""坏我"",""好我""]","[""弱他"",""强他"",""弱我"",""强我""]","","","","","","","","no","","","","","","","","","SRET","EW_formal","","key","f","16.66058064516138","768","428","自己","浅薄","Negative","ability","","","","","","","","","",""
"1015","","f","psychophysics","84","499606","0.0-7.0-3.0-0.70","6","6","5","7","6","5","5","5","4","5","4","2","-2","1","0","-3","2","1","1","5","4","5","1","4","4","5","4","5","3","7","8","8","8","7","9","9","9","8","5","2","2","7","7","3","7","5","7","6","5","7","7","2","6","5","7","6","5","7","7","5","3","2","1","7","5","6","7","6","6","2","3","3","2","7","7","6","3","7","622124635634270208","刘","287","Male","[""坏他"",""好他"",""坏我"",""好我""]","[""弱他"",""强他"",""弱我"",""强我""]","","","","","","","","no","","","","","","","","","SRET","EW_formal","","key","f","16.66156666666696","768","428","朋友","诡诈","Negative","morality","","","","","","","","","",""
"1030","","f","psychophysics","85","501638","0.0-7.0-3.0-0.71","6","6","5","7","6","5","5","5","4","5","4","2","-2","1","0","-3","2","1","1","5","4","5","1","4","4","5","4","5","3","7","8","8","8","7","9","9","9","8","5","2","2","7","7","3","7","5","7","6","5","7","7","2","6","5","7","6","5","7","7","5","3","2","1","7","5","6","7","6","6","2","3","3","2","7","7","6","3","7","622124635634270208","刘","287","Male","[""坏他"",""好他"",""坏我"",""好我""]","[""弱他"",""强他"",""弱我"",""强我""]","","","","","","","","no","","","","","","","","","SRET","EW_formal","","key","f","16.659892561983543","768","428","自己","奸险","Negative","morality","","","","","","","","","",""
"1071","","j","psychophysics","86","503710","0.0-7.0-3.0-0.72","6","6","5","7","6","5","5","5","4","5","4","2","-2","1","0","-3","2","1","1","5","4","5","1","4","4","5","4","5","3","7","8","8","8","7","9","9","9","8","5","2","2","7","7","3","7","5","7","6","5","7","7","2","6","5","7","6","5","7","7","5","3","2","1","7","5","6","7","6","6","2","3","3","2","7","7","6","3","7","622124635634270208","刘","287","Male","[""坏他"",""好他"",""坏我"",""好我""]","[""弱他"",""强他"",""弱我"",""强我""]","","","","","","","","yes","","","","","","","","","SRET","EW_formal","","key","j","16.661629032258194","768","428","朋友","高尚","Positive","morality","","","","","","","","","",""
"1022","","f","psychophysics","87","505735","0.0-7.0-3.0-0.73","6","6","5","7","6","5","5","5","4","5","4","2","-2","1","0","-3","2","1","1","5","4","5","1","4","4","5","4","5","3","7","8","8","8","7","9","9","9","8","5","2","2","7","7","3","7","5","7","6","5","7","7","2","6","5","7","6","5","7","7","5","3","2","1","7","5","6","7","6","6","2","3","3","2","7","7","6","3","7","622124635634270208","刘","287","Male","[""坏他"",""好他"",""坏我"",""好我""]","[""弱他"",""强他"",""弱我"",""强我""]","","","","","","","","no","","","","","","","","","SRET","EW_formal","","key","f","16.65994166666642","768","428","自己","淫乱","Negative","morality","","","","","","","","","",""
"924","","j","psychophysics","88","507662","0.0-7.0-3.0-0.74","6","6","5","7","6","5","5","5","4","5","4","2","-2","1","0","-3","2","1","1","5","4","5","1","4","4","5","4","5","3","7","8","8","8","7","9","9","9","8","5","2","2","7","7","3","7","5","7","6","5","7","7","2","6","5","7","6","5","7","7","5","3","2","1","7","5","6","7","6","6","2","3","3","2","7","7","6","3","7","622124635634270208","刘","287","Male","[""坏他"",""好他"",""坏我"",""好我""]","[""弱他"",""强他"",""弱我"",""强我""]","","","","","","","","yes","","","","","","","","","SRET","EW_formal","","key","j","16.660226086956328","768","428","朋友","全才","Positive","ability","","","","","","","","","",""
"2470","","j","psychophysics","89","511134","0.0-7.0-3.0-0.75","6","6","5","7","6","5","5","5","4","5","4","2","-2","1","0","-3","2","1","1","5","4","5","1","4","4","5","4","5","3","7","8","8","8","7","9","9","9","8","5","2","2","7","7","3","7","5","7","6","5","7","7","2","6","5","7","6","5","7","7","5","3","2","1","7","5","6","7","6","6","2","3","3","2","7","7","6","3","7","622124635634270208","刘","287","Male","[""坏他"",""好他"",""坏我"",""好我""]","[""弱他"",""强他"",""弱我"",""强我""]","","","","","","","","yes","","","","","","","","","SRET","EW_formal","","key","j","16.660782608695683","768","428","朋友","文明","Positive","morality","","","","","","","","","",""
"1383","","j","psychophysics","90","513519","0.0-7.0-3.0-0.76","6","6","5","7","6","5","5","5","4","5","4","2","-2","1","0","-3","2","1","1","5","4","5","1","4","4","5","4","5","3","7","8","8","8","7","9","9","9","8","5","2","2","7","7","3","7","5","7","6","5","7","7","2","6","5","7","6","5","7","7","5","3","2","1","7","5","6","7","6","6","2","3","3","2","7","7","6","3","7","622124635634270208","刘","287","Male","[""坏他"",""好他"",""坏我"",""好我""]","[""弱他"",""强他"",""弱我"",""强我""]","","","","","","","","yes","","","","","","","","","SRET","EW_formal","","key","j","16.660654929577223","768","428","自己","谦逊","Positive","morality","","","","","","","","","",""
"1351","","j","psychophysics","91","515872","0.0-7.0-3.0-0.77","6","6","5","7","6","5","5","5","4","5","4","2","-2","1","0","-3","2","1","1","5","4","5","1","4","4","5","4","5","3","7","8","8","8","7","9","9","9","8","5","2","2","7","7","3","7","5","7","6","5","7","7","2","6","5","7","6","5","7","7","5","3","2","1","7","5","6","7","6","6","2","3","3","2","7","7","6","3","7","622124635634270208","刘","287","Male","[""坏他"",""好他"",""坏我"",""好我""]","[""弱他"",""强他"",""弱我"",""强我""]","","","","","","","","yes","","","","","","","","","SRET","EW_formal","","key","j","16.66059285714291","768","428","朋友","忠诚","Positive","morality","","","","","","","","","",""
"1391","","j","psychophysics","92","518264","0.0-7.0-3.0-0.78","6","6","5","7","6","5","5","5","4","5","4","2","-2","1","0","-3","2","1","1","5","4","5","1","4","4","5","4","5","3","7","8","8","8","7","9","9","9","8","5","2","2","7","7","3","7","5","7","6","5","7","7","2","6","5","7","6","5","7","7","5","3","2","1","7","5","6","7","6","6","2","3","3","2","7","7","6","3","7","622124635634270208","刘","287","Male","[""坏他"",""好他"",""坏我"",""好我""]","[""弱他"",""强他"",""弱我"",""强我""]","","","","","","","","yes","","","","","","","","","SRET","EW_formal","","key","j","16.66181818181787","768","428","朋友","厚道","Positive","morality","","","","","","","","","",""
"1549","","j","psychophysics","93","520815","0.0-7.0-3.0-0.79","6","6","5","7","6","5","5","5","4","5","4","2","-2","1","0","-3","2","1","1","5","4","5","1","4","4","5","4","5","3","7","8","8","8","7","9","9","9","8","5","2","2","7","7","3","7","5","7","6","5","7","7","2","6","5","7","6","5","7","7","5","3","2","1","7","5","6","7","6","6","2","3","3","2","7","7","6","3","7","622124635634270208","刘","287","Male","[""坏他"",""好他"",""坏我"",""好我""]","[""弱他"",""强他"",""弱我"",""强我""]","","","","","","","","yes","","","","","","","","","SRET","EW_formal","","key","j","16.660414473684412","768","428","朋友","高效","Positive","ability","","","","","","","","","",""
"1151","","j","psychophysics","94","522967","0.0-7.0-3.0-0.80","6","6","5","7","6","5","5","5","4","5","4","2","-2","1","0","-3","2","1","1","5","4","5","1","4","4","5","4","5","3","7","8","8","8","7","9","9","9","8","5","2","2","7","7","3","7","5","7","6","5","7","7","2","6","5","7","6","5","7","7","5","3","2","1","7","5","6","7","6","6","2","3","3","2","7","7","6","3","7","622124635634270208","刘","287","Male","[""坏他"",""好他"",""坏我"",""好我""]","[""弱他"",""强他"",""弱我"",""强我""]","","","","","","","","yes","","","","","","","","","SRET","EW_formal","","key","j","16.66074218750009","768","428","自己","逞强","Negative","ability","","","","","","","","","",""
"927","","j","psychophysics","95","524895","0.0-7.0-3.0-0.81","6","6","5","7","6","5","5","5","4","5","4","2","-2","1","0","-3","2","1","1","5","4","5","1","4","4","5","4","5","3","7","8","8","8","7","9","9","9","8","5","2","2","7","7","3","7","5","7","6","5","7","7","2","6","5","7","6","5","7","7","5","3","2","1","7","5","6","7","6","6","2","3","3","2","7","7","6","3","7","622124635634270208","刘","287","Male","[""坏他"",""好他"",""坏我"",""好我""]","[""弱他"",""强他"",""弱我"",""强我""]","","","","","","","","yes","","","","","","","","","SRET","EW_formal","","key","j","16.66170434782626","768","428","自己","坚持","Positive","ability","","","","","","","","","",""
"1750","","f","psychophysics","96","527647","0.0-7.0-3.0-0.82","6","6","5","7","6","5","5","5","4","5","4","2","-2","1","0","-3","2","1","1","5","4","5","1","4","4","5","4","5","3","7","8","8","8","7","9","9","9","8","5","2","2","7","7","3","7","5","7","6","5","7","7","2","6","5","7","6","5","7","7","5","3","2","1","7","5","6","7","6","6","2","3","3","2","7","7","6","3","7","622124635634270208","刘","287","Male","[""坏他"",""好他"",""坏我"",""好我""]","[""弱他"",""强他"",""弱我"",""强我""]","","","","","","","","no","","","","","","","","","SRET","EW_formal","","key","f","16.66092073170769","768","428","自己","新手","Negative","ability","","","","","","","","","",""
"1471","","j","psychophysics","97","530120","0.0-7.0-3.0-0.83","6","6","5","7","6","5","5","5","4","5","4","2","-2","1","0","-3","2","1","1","5","4","5","1","4","4","5","4","5","3","7","8","8","8","7","9","9","9","8","5","2","2","7","7","3","7","5","7","6","5","7","7","2","6","5","7","6","5","7","7","5","3","2","1","7","5","6","7","6","6","2","3","3","2","7","7","6","3","7","622124635634270208","刘","287","Male","[""坏他"",""好他"",""坏我"",""好我""]","[""弱他"",""强他"",""弱我"",""强我""]","","","","","","","","yes","","","","","","","","","SRET","EW_formal","","key","j","16.66021621621582","768","428","自己","博识","Positive","ability","","","","","","","","","",""
"2550","","j","psychophysics","98","533671","0.0-7.0-3.0-0.84","6","6","5","7","6","5","5","5","4","5","4","2","-2","1","0","-3","2","1","1","5","4","5","1","4","4","5","4","5","3","7","8","8","8","7","9","9","9","8","5","2","2","7","7","3","7","5","7","6","5","7","7","2","6","5","7","6","5","7","7","5","3","2","1","7","5","6","7","6","6","2","3","3","2","7","7","6","3","7","622124635634270208","刘","287","Male","[""坏他"",""好他"",""坏我"",""好我""]","[""弱他"",""强他"",""弱我"",""强我""]","","","","","","","","yes","","","","","","","","","SRET","EW_formal","","key","j","16.661320754716762","768","428","自己","主见","Positive","ability","","","","","","","","","",""
"3343","","f","psychophysics","99","538016","0.0-7.0-3.0-0.85","6","6","5","7","6","5","5","5","4","5","4","2","-2","1","0","-3","2","1","1","5","4","5","1","4","4","5","4","5","3","7","8","8","8","7","9","9","9","8","5","2","2","7","7","3","7","5","7","6","5","7","7","2","6","5","7","6","5","7","7","5","3","2","1","7","5","6","7","6","6","2","3","3","2","7","7","6","3","7","622124635634270208","刘","287","Male","[""坏他"",""好他"",""坏我"",""好我""]","[""弱他"",""强他"",""弱我"",""强我""]","","","","","","","","no","","","","","","","","","SRET","EW_formal","","key","f","16.660526923076787","768","428","自己","缓慢","Negative","ability","","","","","","","","","",""
"1070","","f","psychophysics","100","540087","0.0-7.0-3.0-0.86","6","6","5","7","6","5","5","5","4","5","4","2","-2","1","0","-3","2","1","1","5","4","5","1","4","4","5","4","5","3","7","8","8","8","7","9","9","9","8","5","2","2","7","7","3","7","5","7","6","5","7","7","2","6","5","7","6","5","7","7","5","3","2","1","7","5","6","7","6","6","2","3","3","2","7","7","6","3","7","622124635634270208","刘","287","Male","[""坏他"",""好他"",""坏我"",""好我""]","[""弱他"",""强他"",""弱我"",""强我""]","","","","","","","","no","","","","","","","","","SRET","EW_formal","","key","f","16.65973983739874","768","428","朋友","低俗","Negative","morality","","","","","","","","","",""
"974","","j","psychophysics","101","542063","0.0-7.0-3.0-0.87","6","6","5","7","6","5","5","5","4","5","4","2","-2","1","0","-3","2","1","1","5","4","5","1","4","4","5","4","5","3","7","8","8","8","7","9","9","9","8","5","2","2","7","7","3","7","5","7","6","5","7","7","2","6","5","7","6","5","7","7","5","3","2","1","7","5","6","7","6","6","2","3","3","2","7","7","6","3","7","622124635634270208","刘","287","Male","[""坏他"",""好他"",""坏我"",""好我""]","[""弱他"",""强他"",""弱我"",""强我""]","","","","","","","","yes","","","","","","","","","SRET","EW_formal","","key","j","16.659720338983618","768","428","朋友","素养","Positive","morality","","","","","","","","","",""
"7687","
    <p><div style='color:white;font-size:35px; line-height:20px;'>计算任务</div></p><br>
    <p><div style='color:red;font-size:25px; line-height:20px;'>接下来，您将看到一些四则运算题，<b>请从键盘选择 0-9 进行反应。</b></div></p>
    <p><div style='color:red;font-size:25px; line-height:20px;'>请尽可能快地进行计算，计算的速度和正确率将影响报酬的发放。</div></p>
    <p><div class='footer' style='color:white;font-size:25px; line-height:20px;'>如果对本实验还有不清楚之处，请立即向实验员咨询。</p><p style='color:white;font-size:25px; line-height:20px;'>如果您明白了规则：</p><p style='color:white;font-size:22px; line-height:20px;'>请按 继续 进入练习</p>
    </div>
    ","0","html-button-response","102","549751","0.0-7.0-4.0","6","6","5","7","6","5","5","5","4","5","4","2","-2","1","0","-3","2","1","1","5","4","5","1","4","4","5","4","5","3","7","8","8","8","7","9","9","9","8","5","2","2","7","7","3","7","5","7","6","5","7","7","2","6","5","7","6","5","7","7","5","3","2","1","7","5","6","7","6","6","2","3","3","2","7","7","6","3","7","622124635634270208","刘","287","Male","[""坏他"",""好他"",""坏我"",""好我""]","[""弱他"",""强他"",""弱我"",""强我""]","","","","","","","","","","","","","","","","","SRET_math","math_instructions","Sat Nov 18 2023 21:48:17 GMT+0800 (中国标准时间)","","","","","","","","","","","","","","","","","","",""
"46141","","7","psychophysics","103","595896","0.0-7.0-5.0-0.0","6","6","5","7","6","5","5","5","4","5","4","2","-2","1","0","-3","2","1","1","5","4","5","1","4","4","5","4","5","3","7","8","8","8","7","9","9","9","8","5","2","2","7","7","3","7","5","7","6","5","7","7","2","6","5","7","6","5","7","7","5","3","2","1","7","5","6","7","6","6","2","3","3","2","7","7","6","3","7","622124635634270208","刘","287","Male","[""坏他"",""好他"",""坏我"",""好我""]","[""弱他"",""强他"",""弱我"",""强我""]","","","","","","","","7","","","","","","","","","SRET","SRET_math_calculate","","key","7","16.660761371841158","768","428","","","","","12-5= ?","7","1","","","","","","",""
"2916","","9","psychophysics","104","598815","0.0-7.0-5.0-0.1","6","6","5","7","6","5","5","5","4","5","4","2","-2","1","0","-3","2","1","1","5","4","5","1","4","4","5","4","5","3","7","8","8","8","7","9","9","9","8","5","2","2","7","7","3","7","5","7","6","5","7","7","2","6","5","7","6","5","7","7","5","3","2","1","7","5","6","7","6","6","2","3","3","2","7","7","6","3","7","622124635634270208","刘","287","Male","[""坏他"",""好他"",""坏我"",""好我""]","[""弱他"",""强他"",""弱我"",""强我""]","","","","","","","","9","","","","","","","","","SRET","SRET_math_calculate","","key","9","16.75698265896012","768","428","","","","","32-23= ?","9","1","","","","","","",""
"2495","","7","psychophysics","105","601312","0.0-7.0-5.0-0.2","6","6","5","7","6","5","5","5","4","5","4","2","-2","1","0","-3","2","1","1","5","4","5","1","4","4","5","4","5","3","7","8","8","8","7","9","9","9","8","5","2","2","7","7","3","7","5","7","6","5","7","7","2","6","5","7","6","5","7","7","5","3","2","1","7","5","6","7","6","6","2","3","3","2","7","7","6","3","7","622124635634270208","刘","287","Male","[""坏他"",""好他"",""坏我"",""好我""]","[""弱他"",""强他"",""弱我"",""强我""]","","","","","","","","7","","","","","","","","","SRET","SRET_math_calculate","","key","7","16.66085906040342","768","428","","","","","9-2= ?","7","1","","","","","","",""
"3238","","5","psychophysics","106","604552","0.0-7.0-5.0-0.3","6","6","5","7","6","5","5","5","4","5","4","2","-2","1","0","-3","2","1","1","5","4","5","1","4","4","5","4","5","3","7","8","8","8","7","9","9","9","8","5","2","2","7","7","3","7","5","7","6","5","7","7","2","6","5","7","6","5","7","7","5","3","2","1","7","5","6","7","6","6","2","3","3","2","7","7","6","3","7","622124635634270208","刘","287","Male","[""坏他"",""好他"",""坏我"",""好我""]","[""弱他"",""强他"",""弱我"",""强我""]","","","","","","","","5","","","","","","","","","SRET","SRET_math_calculate","","key","5","16.660740932642117","768","428","","","","","8-3= ? ","5","1","","","","","","",""
"2019","","8","psychophysics","107","606583","0.0-7.0-5.0-0.4","6","6","5","7","6","5","5","5","4","5","4","2","-2","1","0","-3","2","1","1","5","4","5","1","4","4","5","4","5","3","7","8","8","8","7","9","9","9","8","5","2","2","7","7","3","7","5","7","6","5","7","7","2","6","5","7","6","5","7","7","5","3","2","1","7","5","6","7","6","6","2","3","3","2","7","7","6","3","7","622124635634270208","刘","287","Male","[""坏他"",""好他"",""坏我"",""好我""]","[""弱他"",""强他"",""弱我"",""强我""]","","","","","","","","8","","","","","","","","","SRET","SRET_math_calculate","","key","8","16.66085123966933","768","428","","","","","2+6= ?","8","1","","","","","","",""
"2038","","8","psychophysics","108","608623","0.0-7.0-5.0-0.5","6","6","5","7","6","5","5","5","4","5","4","2","-2","1","0","-3","2","1","1","5","4","5","1","4","4","5","4","5","3","7","8","8","8","7","9","9","9","8","5","2","2","7","7","3","7","5","7","6","5","7","7","2","6","5","7","6","5","7","7","5","3","2","1","7","5","6","7","6","6","2","3","3","2","7","7","6","3","7","622124635634270208","刘","287","Male","[""坏他"",""好他"",""坏我"",""好我""]","[""弱他"",""强他"",""弱我"",""强我""]","","","","","","","","8","","","","","","","","","SRET","SRET_math_calculate","","key","8","16.661852459016746","768","428","","","","","9-1= ?","8","1","","","","","","",""
"2038","","7","psychophysics","109","610663","0.0-7.0-5.0-0.6","6","6","5","7","6","5","5","5","4","5","4","2","-2","1","0","-3","2","1","1","5","4","5","1","4","4","5","4","5","3","7","8","8","8","7","9","9","9","8","5","2","2","7","7","3","7","5","7","6","5","7","7","2","6","5","7","6","5","7","7","5","3","2","1","7","5","6","7","6","6","2","3","3","2","7","7","6","3","7","622124635634270208","刘","287","Male","[""坏他"",""好他"",""坏我"",""好我""]","[""弱他"",""强他"",""弱我"",""强我""]","","","","","","","","7","","","","","","","","","SRET","SRET_math_calculate","","key","7","16.66048760330574","768","428","","","","","6+1= ?","7","1","","","","","","",""
"2013","","4","psychophysics","110","612679","0.0-7.0-5.0-0.7","6","6","5","7","6","5","5","5","4","5","4","2","-2","1","0","-3","2","1","1","5","4","5","1","4","4","5","4","5","3","7","8","8","8","7","9","9","9","8","5","2","2","7","7","3","7","5","7","6","5","7","7","2","6","5","7","6","5","7","7","5","3","2","1","7","5","6","7","6","6","2","3","3","2","7","7","6","3","7","622124635634270208","刘","287","Male","[""坏他"",""好他"",""坏我"",""好我""]","[""弱他"",""强他"",""弱我"",""强我""]","","","","","","","","4","","","","","","","","","SRET","SRET_math_calculate","","key","4","16.661275000000025","768","428","","","","","3+1= ?","4","1","","","","","","",""
"2094","","5","psychophysics","111","614776","0.0-7.0-5.0-0.8","6","6","5","7","6","5","5","5","4","5","4","2","-2","1","0","-3","2","1","1","5","4","5","1","4","4","5","4","5","3","7","8","8","8","7","9","9","9","8","5","2","2","7","7","3","7","5","7","6","5","7","7","2","6","5","7","6","5","7","7","5","3","2","1","7","5","6","7","6","6","2","3","3","2","7","7","6","3","7","622124635634270208","刘","287","Male","[""坏他"",""好他"",""坏我"",""好我""]","[""弱他"",""强他"",""弱我"",""强我""]","","","","","","","","5","","","","","","","","","SRET","SRET_math_calculate","","key","5","16.660512000000104","768","428","","","","","17-12= ? ","5","1","","","","","","",""
"2098","","9","psychophysics","112","616888","0.0-7.0-5.0-0.9","6","6","5","7","6","5","5","5","4","5","4","2","-2","1","0","-3","2","1","1","5","4","5","1","4","4","5","4","5","3","7","8","8","8","7","9","9","9","8","5","2","2","7","7","3","7","5","7","6","5","7","7","2","6","5","7","6","5","7","7","5","3","2","1","7","5","6","7","6","6","2","3","3","2","7","7","6","3","7","622124635634270208","刘","287","Male","[""坏他"",""好他"",""坏我"",""好我""]","[""弱他"",""强他"",""弱我"",""强我""]","","","","","","","","9","","","","","","","","","SRET","SRET_math_calculate","","key","9","16.660031746031663","768","428","","","","","1+8= ?","9","1","","","","","","",""
"3108","","3","psychophysics","113","619999","0.0-7.0-5.0-0.10","6","6","5","7","6","5","5","5","4","5","4","2","-2","1","0","-3","2","1","1","5","4","5","1","4","4","5","4","5","3","7","8","8","8","7","9","9","9","8","5","2","2","7","7","3","7","5","7","6","5","7","7","2","6","5","7","6","5","7","7","5","3","2","1","7","5","6","7","6","6","2","3","3","2","7","7","6","3","7","622124635634270208","刘","287","Male","[""坏他"",""好他"",""坏我"",""好我""]","[""弱他"",""强他"",""弱我"",""强我""]","","","","","","","","3","","","","","","","","","SRET","SRET_math_calculate","","key","3","16.66144864864874","768","428","","","","","8-5= ?","3","1","","","","","","",""
"2077","","7","psychophysics","114","622079","0.0-7.0-5.0-0.11","6","6","5","7","6","5","5","5","4","5","4","2","-2","1","0","-3","2","1","1","5","4","5","1","4","4","5","4","5","3","7","8","8","8","7","9","9","9","8","5","2","2","7","7","3","7","5","7","6","5","7","7","2","6","5","7","6","5","7","7","5","3","2","1","7","5","6","7","6","6","2","3","3","2","7","7","6","3","7","622124635634270208","刘","287","Male","[""坏他"",""好他"",""坏我"",""好我""]","[""弱他"",""强他"",""弱我"",""强我""]","","","","","","","","7","","","","","","","","","SRET","SRET_math_calculate","","key","7","16.660209677418724","768","428","","","","","5+2= ?","7","1","","","","","","",""
"2670","","4","psychophysics","115","624752","0.0-7.0-5.0-0.12","6","6","5","7","6","5","5","5","4","5","4","2","-2","1","0","-3","2","1","1","5","4","5","1","4","4","5","4","5","3","7","8","8","8","7","9","9","9","8","5","2","2","7","7","3","7","5","7","6","5","7","7","2","6","5","7","6","5","7","7","5","3","2","1","7","5","6","7","6","6","2","3","3","2","7","7","6","3","7","622124635634270208","刘","287","Male","[""坏他"",""好他"",""坏我"",""好我""]","[""弱他"",""强他"",""弱我"",""强我""]","","","","","","","","4","","","","","","","","","SRET","SRET_math_calculate","","key","4","16.6606749999999","768","428","","","","","20/5= ?","4","1","","","","","","",""
"2197","","5","psychophysics","116","626952","0.0-7.0-5.0-0.13","6","6","5","7","6","5","5","5","4","5","4","2","-2","1","0","-3","2","1","1","5","4","5","1","4","4","5","4","5","3","7","8","8","8","7","9","9","9","8","5","2","2","7","7","3","7","5","7","6","5","7","7","2","6","5","7","6","5","7","7","5","3","2","1","7","5","6","7","6","6","2","3","3","2","7","7","6","3","7","622124635634270208","刘","287","Male","[""坏他"",""好他"",""坏我"",""好我""]","[""弱他"",""强他"",""弱我"",""强我""]","","","","","","","","5","","","","","","","","","SRET","SRET_math_calculate","","key","5","16.661725190839594","768","428","","","","","16-11= ?","5","1","","","","","","",""
"2078","","8","psychophysics","117","629032","0.0-7.0-5.0-0.14","6","6","5","7","6","5","5","5","4","5","4","2","-2","1","0","-3","2","1","1","5","4","5","1","4","4","5","4","5","3","7","8","8","8","7","9","9","9","8","5","2","2","7","7","3","7","5","7","6","5","7","7","2","6","5","7","6","5","7","7","5","3","2","1","7","5","6","7","6","6","2","3","3","2","7","7","6","3","7","622124635634270208","刘","287","Male","[""坏他"",""好他"",""坏我"",""好我""]","[""弱他"",""强他"",""弱我"",""强我""]","","","","","","","","8","","","","","","","","","SRET","SRET_math_calculate","","key","8","16.66104838709655","768","428","","","","","7+1= ?","8","1","","","","","","",""
"2253","","0","psychophysics","118","631287","0.0-7.0-5.0-0.15","6","6","5","7","6","5","5","5","4","5","4","2","-2","1","0","-3","2","1","1","5","4","5","1","4","4","5","4","5","3","7","8","8","8","7","9","9","9","8","5","2","2","7","7","3","7","5","7","6","5","7","7","2","6","5","7","6","5","7","7","5","3","2","1","7","5","6","7","6","6","2","3","3","2","7","7","6","3","7","622124635634270208","刘","287","Male","[""坏他"",""好他"",""坏我"",""好我""]","[""弱他"",""强他"",""弱我"",""强我""]","","","","","","","","0","","","","","","","","","SRET","SRET_math_calculate","","key","0","16.66038059701521","768","428","","","","","9-9= ?","0","1","","","","","","",""
"2214","","7","psychophysics","119","633503","0.0-7.0-5.0-0.16","6","6","5","7","6","5","5","5","4","5","4","2","-2","1","0","-3","2","1","1","5","4","5","1","4","4","5","4","5","3","7","8","8","8","7","9","9","9","8","5","2","2","7","7","3","7","5","7","6","5","7","7","2","6","5","7","6","5","7","7","5","3","2","1","7","5","6","7","6","6","2","3","3","2","7","7","6","3","7","622124635634270208","刘","287","Male","[""坏他"",""好他"",""坏我"",""好我""]","[""弱他"",""强他"",""弱我"",""强我""]","","","","","","","","7","","","","","","","","","SRET","SRET_math_calculate","","key","7","16.660090909090783","768","428","","","","","4+3= ?","7","1","","","","","","",""
"2299","","4","psychophysics","120","635816","0.0-7.0-5.0-0.17","6","6","5","7","6","5","5","5","4","5","4","2","-2","1","0","-3","2","1","1","5","4","5","1","4","4","5","4","5","3","7","8","8","8","7","9","9","9","8","5","2","2","7","7","3","7","5","7","6","5","7","7","2","6","5","7","6","5","7","7","5","3","2","1","7","5","6","7","6","6","2","3","3","2","7","7","6","3","7","622124635634270208","刘","287","Male","[""坏他"",""好他"",""坏我"",""好我""]","[""弱他"",""强他"",""弱我"",""强我""]","","","","","","","","4","","","","","","","","","SRET","SRET_math_calculate","","key","4","16.661775362318505","768","428","","","","","8-4= ?","4","1","","","","","","",""
"1933","","3","psychophysics","121","637751","0.0-7.0-5.0-0.18","6","6","5","7","6","5","5","5","4","5","4","2","-2","1","0","-3","2","1","1","5","4","5","1","4","4","5","4","5","3","7","8","8","8","7","9","9","9","8","5","2","2","7","7","3","7","5","7","6","5","7","7","2","6","5","7","6","5","7","7","5","3","2","1","7","5","6","7","6","6","2","3","3","2","7","7","6","3","7","622124635634270208","刘","287","Male","[""坏他"",""好他"",""坏我"",""好我""]","[""弱他"",""强他"",""弱我"",""强我""]","","","","","","","","3","","","","","","","","","SRET","SRET_math_calculate","","key","3","16.66069565217375","768","428","","","","","3+0= ?","3","1","","","","","","",""
"1958","","6","psychophysics","122","639712","0.0-7.0-5.0-0.19","6","6","5","7","6","5","5","5","4","5","4","2","-2","1","0","-3","2","1","1","5","4","5","1","4","4","5","4","5","3","7","8","8","8","7","9","9","9","8","5","2","2","7","7","3","7","5","7","6","5","7","7","2","6","5","7","6","5","7","7","5","3","2","1","7","5","6","7","6","6","2","3","3","2","7","7","6","3","7","622124635634270208","刘","287","Male","[""坏他"",""好他"",""坏我"",""好我""]","[""弱他"",""强他"",""弱我"",""强我""]","","","","","","","","6","","","","","","","","","SRET","SRET_math_calculate","","key","6","16.66107692307709","768","428","","","","","3+3= ?","6","1","","","","","","",""
"2317","","2","psychophysics","123","642039","0.0-7.0-5.0-0.20","6","6","5","7","6","5","5","5","4","5","4","2","-2","1","0","-3","2","1","1","5","4","5","1","4","4","5","4","5","3","7","8","8","8","7","9","9","9","8","5","2","2","7","7","3","7","5","7","6","5","7","7","2","6","5","7","6","5","7","7","5","3","2","1","7","5","6","7","6","6","2","3","3","2","7","7","6","3","7","622124635634270208","刘","287","Male","[""坏他"",""好他"",""坏我"",""好我""]","[""弱他"",""强他"",""弱我"",""强我""]","","","","","","","","2","","","","","","","","","SRET","SRET_math_calculate","","key","2","16.65993478260867","768","428","","","","","18/9= ?","2","1","","","","","","",""
"3598","","8","psychophysics","124","645639","0.0-7.0-5.0-0.21","6","6","5","7","6","5","5","5","4","5","4","2","-2","1","0","-3","2","1","1","5","4","5","1","4","4","5","4","5","3","7","8","8","8","7","9","9","9","8","5","2","2","7","7","3","7","5","7","6","5","7","7","2","6","5","7","6","5","7","7","5","3","2","1","7","5","6","7","6","6","2","3","3","2","7","7","6","3","7","622124635634270208","刘","287","Male","[""坏他"",""好他"",""坏我"",""好我""]","[""弱他"",""强他"",""弱我"",""强我""]","","","","","","","","8","","","","","","","","","SRET","SRET_math_calculate","","key","8","16.660897674418575","768","428","","","","","56/7= ?","8","1","","","","","","",""
"1958","","3","psychophysics","125","647599","0.0-7.0-5.0-0.22","6","6","5","7","6","5","5","5","4","5","4","2","-2","1","0","-3","2","1","1","5","4","5","1","4","4","5","4","5","3","7","8","8","8","7","9","9","9","8","5","2","2","7","7","3","7","5","7","6","5","7","7","2","6","5","7","6","5","7","7","5","3","2","1","7","5","6","7","6","6","2","3","3","2","7","7","6","3","7","622124635634270208","刘","287","Male","[""坏他"",""好他"",""坏我"",""好我""]","[""弱他"",""强他"",""弱我"",""强我""]","","","","","","","","3","","","","","","","","","SRET","SRET_math_calculate","","key","3","16.659735042735154","768","428","","","","","2+1= ?","3","1","","","","","","",""
"2099","","9","psychophysics","126","649712","0.0-7.0-5.0-0.23","6","6","5","7","6","5","5","5","4","5","4","2","-2","1","0","-3","2","1","1","5","4","5","1","4","4","5","4","5","3","7","8","8","8","7","9","9","9","8","5","2","2","7","7","3","7","5","7","6","5","7","7","2","6","5","7","6","5","7","7","5","3","2","1","7","5","6","7","6","6","2","3","3","2","7","7","6","3","7","622124635634270208","刘","287","Male","[""坏他"",""好他"",""坏我"",""好我""]","[""弱他"",""强他"",""弱我"",""强我""]","","","","","","","","9","","","","","","","","","SRET","SRET_math_calculate","","key","9","16.661888888889244","768","428","","","","","18/2= ?","9","1","","","","","","",""
"2710","","4","psychophysics","127","652424","0.0-7.0-5.0-0.24","6","6","5","7","6","5","5","5","4","5","4","2","-2","1","0","-3","2","1","1","5","4","5","1","4","4","5","4","5","3","7","8","8","8","7","9","9","9","8","5","2","2","7","7","3","7","5","7","6","5","7","7","2","6","5","7","6","5","7","7","5","3","2","1","7","5","6","7","6","6","2","3","3","2","7","7","6","3","7","622124635634270208","刘","287","Male","[""坏他"",""好他"",""坏我"",""好我""]","[""弱他"",""强他"",""弱我"",""强我""]","","","","","","","","4","","","","","","","","","SRET","SRET_math_calculate","","key","4","16.660265432098697","768","428","","","","","9-5= ?","4","1","","","","","","",""
"1950","","9","psychophysics","128","654376","0.0-7.0-5.0-0.25","6","6","5","7","6","5","5","5","4","5","4","2","-2","1","0","-3","2","1","1","5","4","5","1","4","4","5","4","5","3","7","8","8","8","7","9","9","9","8","5","2","2","7","7","3","7","5","7","6","5","7","7","2","6","5","7","6","5","7","7","5","3","2","1","7","5","6","7","6","6","2","3","3","2","7","7","6","3","7","622124635634270208","刘","287","Male","[""坏他"",""好他"",""坏我"",""好我""]","[""弱他"",""强他"",""弱我"",""强我""]","","","","","","","","9","","","","","","","","","SRET","SRET_math_calculate","","key","9","16.661456896552156","768","428","","","","","8+1= ?","9","1","","","","","","",""
"3046","","0","psychophysics","129","657432","0.0-7.0-5.0-0.26","6","6","5","7","6","5","5","5","4","5","4","2","-2","1","0","-3","2","1","1","5","4","5","1","4","4","5","4","5","3","7","8","8","8","7","9","9","9","8","5","2","2","7","7","3","7","5","7","6","5","7","7","2","6","5","7","6","5","7","7","5","3","2","1","7","5","6","7","6","6","2","3","3","2","7","7","6","3","7","622124635634270208","刘","287","Male","[""坏他"",""好他"",""坏我"",""好我""]","[""弱他"",""强他"",""弱我"",""强我""]","","","","","","","","0","","","","","","","","","SRET","SRET_math_calculate","","key","0","16.66063186813179","768","428","","","","","32-32= ?","0","1","","","","","","",""
"2872","","2","psychophysics","130","660306","0.0-7.0-5.0-0.27","6","6","5","7","6","5","5","5","4","5","4","2","-2","1","0","-3","2","1","1","5","4","5","1","4","4","5","4","5","3","7","8","8","8","7","9","9","9","8","5","2","2","7","7","3","7","5","7","6","5","7","7","2","6","5","7","6","5","7","7","5","3","2","1","7","5","6","7","6","6","2","3","3","2","7","7","6","3","7","622124635634270208","刘","287","Male","[""坏他"",""好他"",""坏我"",""好我""]","[""弱他"",""强他"",""弱我"",""强我""]","","","","","","","","2","","","","","","","","","SRET","SRET_math_calculate","","key","2","16.660697674418685","768","428","","","","","90/45= ?","2","1","","","","","","",""
"2107","","2","psychophysics","131","662424","0.0-7.0-5.0-0.28","6","6","5","7","6","5","5","5","4","5","4","2","-2","1","0","-3","2","1","1","5","4","5","1","4","4","5","4","5","3","7","8","8","8","7","9","9","9","8","5","2","2","7","7","3","7","5","7","6","5","7","7","2","6","5","7","6","5","7","7","5","3","2","1","7","5","6","7","6","6","2","3","3","2","7","7","6","3","7","622124635634270208","刘","287","Male","[""坏他"",""好他"",""坏我"",""好我""]","[""弱他"",""强他"",""弱我"",""强我""]","","","","","","","","2","","","","","","","","","SRET","SRET_math_calculate","","key","2","16.661825396825506","768","428","","","","","9-7= ?","2","1","","","","","","",""
"2230","","1","psychophysics","132","664656","0.0-7.0-5.0-0.29","6","6","5","7","6","5","5","5","4","5","4","2","-2","1","0","-3","2","1","1","5","4","5","1","4","4","5","4","5","3","7","8","8","8","7","9","9","9","8","5","2","2","7","7","3","7","5","7","6","5","7","7","2","6","5","7","6","5","7","7","5","3","2","1","7","5","6","7","6","6","2","3","3","2","7","7","6","3","7","622124635634270208","刘","287","Male","[""坏他"",""好他"",""坏我"",""好我""]","[""弱他"",""强他"",""弱我"",""强我""]","","","","","","","","1","","","","","","","","","SRET","SRET_math_calculate","","key","1","16.66116541353338","768","428","","","","","30-29= ?","1","1","","","","","","",""
"2620","","7","psychophysics","133","667279","0.0-7.0-5.0-0.30","6","6","5","7","6","5","5","5","4","5","4","2","-2","1","0","-3","2","1","1","5","4","5","1","4","4","5","4","5","3","7","8","8","8","7","9","9","9","8","5","2","2","7","7","3","7","5","7","6","5","7","7","2","6","5","7","6","5","7","7","5","3","2","1","7","5","6","7","6","6","2","3","3","2","7","7","6","3","7","622124635634270208","刘","287","Male","[""坏他"",""好他"",""坏我"",""好我""]","[""弱他"",""强他"",""弱我"",""强我""]","","","","","","","","7","","","","","","","","","SRET","SRET_math_calculate","","key","7","16.661474358974","768","428","","","","","49/7 = ?","7","1","","","","","","",""
"2093","","5","psychophysics","134","669375","0.0-7.0-5.0-0.31","6","6","5","7","6","5","5","5","4","5","4","2","-2","1","0","-3","2","1","1","5","4","5","1","4","4","5","4","5","3","7","8","8","8","7","9","9","9","8","5","2","2","7","7","3","7","5","7","6","5","7","7","2","6","5","7","6","5","7","7","5","3","2","1","7","5","6","7","6","6","2","3","3","2","7","7","6","3","7","622124635634270208","刘","287","Male","[""坏他"",""好他"",""坏我"",""好我""]","[""弱他"",""强他"",""弱我"",""强我""]","","","","","","","","5","","","","","","","","","SRET","SRET_math_calculate","","key","5","16.660944000000136","768","428","","","","","10-5= ?","5","1","","","","","","",""
"2204","","6","psychophysics","135","671592","0.0-7.0-5.0-0.32","6","6","5","7","6","5","5","5","4","5","4","2","-2","1","0","-3","2","1","1","5","4","5","1","4","4","5","4","5","3","7","8","8","8","7","9","9","9","8","5","2","2","7","7","3","7","5","7","6","5","7","7","2","6","5","7","6","5","7","7","5","3","2","1","7","5","6","7","6","6","2","3","3","2","7","7","6","3","7","622124635634270208","刘","287","Male","[""坏他"",""好他"",""坏我"",""好我""]","[""弱他"",""强他"",""弱我"",""强我""]","","","","","","","","6","","","","","","","","","SRET","SRET_math_calculate","","key","6","16.659681818181664","768","428","","","","","2*3= ?","6","1","","","","","","",""
"3157","","4","psychophysics","136","674752","0.0-7.0-5.0-0.33","6","6","5","7","6","5","5","5","4","5","4","2","-2","1","0","-3","2","1","1","5","4","5","1","4","4","5","4","5","3","7","8","8","8","7","9","9","9","8","5","2","2","7","7","3","7","5","7","6","5","7","7","2","6","5","7","6","5","7","7","5","3","2","1","7","5","6","7","6","6","2","3","3","2","7","7","6","3","7","622124635634270208","刘","287","Male","[""坏他"",""好他"",""坏我"",""好我""]","[""弱他"",""强他"",""弱我"",""强我""]","","","","","","","","4","","","","","","","","","SRET","SRET_math_calculate","","key","4","16.660857142857154","768","428","","","","","13-9= ?","4","1","","","","","","",""
"2005","","2","psychophysics","137","676759","0.0-7.0-5.0-0.34","6","6","5","7","6","5","5","5","4","5","4","2","-2","1","0","-3","2","1","1","5","4","5","1","4","4","5","4","5","3","7","8","8","8","7","9","9","9","8","5","2","2","7","7","3","7","5","7","6","5","7","7","2","6","5","7","6","5","7","7","5","3","2","1","7","5","6","7","6","6","2","3","3","2","7","7","6","3","7","622124635634270208","刘","287","Male","[""坏他"",""好他"",""坏我"",""好我""]","[""弱他"",""强他"",""弱我"",""强我""]","","","","","","","","2","","","","","","","","","SRET","SRET_math_calculate","","key","2","16.660924369747118","768","428","","","","","22/11= ?","2","1","","","","","","",""
"2126","","2","psychophysics","138","678888","0.0-7.0-5.0-0.35","6","6","5","7","6","5","5","5","4","5","4","2","-2","1","0","-3","2","1","1","5","4","5","1","4","4","5","4","5","3","7","8","8","8","7","9","9","9","8","5","2","2","7","7","3","7","5","7","6","5","7","7","2","6","5","7","6","5","7","7","5","3","2","1","7","5","6","7","6","6","2","3","3","2","7","7","6","3","7","622124635634270208","刘","287","Male","[""坏他"",""好他"",""坏我"",""好我""]","[""弱他"",""强他"",""弱我"",""强我""]","","","","","","","","2","","","","","","","","","SRET","SRET_math_calculate","","key","2","16.66181889763762","768","428","","","","","19-17= ?","2","1","","","","","","",""
"2263","","3","psychophysics","139","681153","0.0-7.0-5.0-0.36","6","6","5","7","6","5","5","5","4","5","4","2","-2","1","0","-3","2","1","1","5","4","5","1","4","4","5","4","5","3","7","8","8","8","7","9","9","9","8","5","2","2","7","7","3","7","5","7","6","5","7","7","2","6","5","7","6","5","7","7","5","3","2","1","7","5","6","7","6","6","2","3","3","2","7","7","6","3","7","622124635634270208","刘","287","Male","[""坏他"",""好他"",""坏我"",""好我""]","[""弱他"",""强他"",""弱我"",""强我""]","","","","","","","","3","","","","","","","","","SRET","SRET_math_calculate","","key","3","16.661051851851624","768","428","","","","","6/2= ?","3","1","","","","","","",""
"2021","","9","psychophysics","140","683176","0.0-7.0-5.0-0.37","6","6","5","7","6","5","5","5","4","5","4","2","-2","1","0","-3","2","1","1","5","4","5","1","4","4","5","4","5","3","7","8","8","8","7","9","9","9","8","5","2","2","7","7","3","7","5","7","6","5","7","7","2","6","5","7","6","5","7","7","5","3","2","1","7","5","6","7","6","6","2","3","3","2","7","7","6","3","7","622124635634270208","刘","287","Male","[""坏他"",""好他"",""坏我"",""好我""]","[""弱他"",""强他"",""弱我"",""强我""]","","","","","","","","9","","","","","","","","","SRET","SRET_math_calculate","","key","9","16.660508333333805","768","428","","","","","4+5= ?","9","1","","","","","","",""
"2406","","7","psychophysics","141","685584","0.0-7.0-5.0-0.38","6","6","5","7","6","5","5","5","4","5","4","2","-2","1","0","-3","2","1","1","5","4","5","1","4","4","5","4","5","3","7","8","8","8","7","9","9","9","8","5","2","2","7","7","3","7","5","7","6","5","7","7","2","6","5","7","6","5","7","7","5","3","2","1","7","5","6","7","6","6","2","3","3","2","7","7","6","3","7","622124635634270208","刘","287","Male","[""坏他"",""好他"",""坏我"",""好我""]","[""弱他"",""强他"",""弱我"",""强我""]","","","","","","","","7","","","","","","","","","SRET","SRET_math_calculate","","key","7","16.66075000000031","768","428","","","","","21/3= ? ","7","1","","","","","","",""
"2005","","9","psychophysics","142","687591","0.0-7.0-5.0-0.39","6","6","5","7","6","5","5","5","4","5","4","2","-2","1","0","-3","2","1","1","5","4","5","1","4","4","5","4","5","3","7","8","8","8","7","9","9","9","8","5","2","2","7","7","3","7","5","7","6","5","7","7","2","6","5","7","6","5","7","7","5","3","2","1","7","5","6","7","6","6","2","3","3","2","7","7","6","3","7","622124635634270208","刘","287","Male","[""坏他"",""好他"",""坏我"",""好我""]","[""弱他"",""强他"",""弱我"",""强我""]","","","","","","","","9","","","","","","","","","SRET","SRET_math_calculate","","key","9","16.65999159663857","768","428","","","","","3+6= ?","9","1","","","","","","",""
"2178","","2","psychophysics","143","689782","0.0-7.0-5.0-0.40","6","6","5","7","6","5","5","5","4","5","4","2","-2","1","0","-3","2","1","1","5","4","5","1","4","4","5","4","5","3","7","8","8","8","7","9","9","9","8","5","2","2","7","7","3","7","5","7","6","5","7","7","2","6","5","7","6","5","7","7","5","3","2","1","7","5","6","7","6","6","2","3","3","2","7","7","6","3","7","622124635634270208","刘","287","Male","[""坏他"",""好他"",""坏我"",""好我""]","[""弱他"",""强他"",""弱我"",""强我""]","","","","","","","","2","","","","","","","","","SRET","SRET_math_calculate","","key","2","16.66167175572522","768","428","","","","","5-3= ?","2","1","","","","","","",""
