"rt","stimulus","response","trial_type","trial_index","time_elapsed","internal_node_id","swb_1","swb_2","swb_3","swb_4","swb_5","LOT_1","LOT_2","LOT_3","LOT_4","LOT_5","LOT_6","IPC_1","IPC_2","IPC_3","IPC_4","IPC_5","IPC_6","IPC_7","IPC_8","MorIden_1","MorIden_2","MorIden_3","MorIden_4","MorIden_5","MorIden_6","MorIden_7","MorIden_8","MorIden_9","MorIden_10","moralSeImag_1","moralSeImag_2","moralSeImag_3","moralSeImag_4","moralSeImag_5","moralSeImag_6","moralSeImag_7","moralSeImag_8","moralSeImag_9","sde_1","sde_2","sde_3","sde_4","sde_5","sde_6","sde_7","sde_8","sde_9","sde_10","sde_11","sde_12","sde_13","sde_14","sde_15","sde_16","sde_17","sde_18","sde_19","sde_20","IM_1","IM_2","IM_3","IM_4","IM_5","IM_6","IM_7","IM_8","IM_9","IM_10","IM_11","IM_12","IM_13","IM_14","IM_15","IM_16","IM_17","IM_18","IM_19","IM_20","subj_idx","friend_name","ParticipantID","Sex","Word","Word2","value","success","timeout","failed_images","failed_audio","failed_video","user_agent","responses","item_order","radio_event_ids","radio_event_times","key_event_times","mouse_event_times","straightlining","zigzagging","honeypot","task_id","screen_id","time_stamp","response_type","key_press","avg_frame_time","center_x","center_y","person","word","valence","domain","math","correct_response","correct","status","view_history","identity","duration","Image","condition","question_order"
"3545","
   <p><div style='color:white; font-size: 25px'>您好，欢迎参加本次实验。</div></p>
   <p><div style='color:white; font-size: 25px'>为充分保障您的权利，请确保您已经知晓并同意《参与实验同意书》以及《数据公开知情同意书》。</div></p>
   <p><div style='color:white; font-size: 25px'>如果您未见过上述内容，请咨询实验员。</div></p>
   <p style='color:white; font-size: 25px'>如果您选择继续实验，则表示您已经清楚两份知情同意书的内容并同意。</p>
   <p><div style = ""color: red;font-size:30px;"">请确保您记得day0的实验编号，您将在本次实验输入该编号，若您忘记，请咨询实验员后作答。</div></p>
   <p> <div style = ""color: green""><按空格键至下页></div> </p>
   "," ","html-keyboard-response","0","3549","0.0-0.0","7","6","5","7","5","4","5","5","4","5","4","-1","-3","1","0","2","1","0","0","5","4","5","4","4","2","5","2","4","5","7","7","9","8","7","9","6","8","7","5","5","6","5","7","5","6","6","5","6","7","5","2","7","5","5","7","6","6","7","3","7","2","5","5","6","7","6","5","7","6","5","7","2","5","6","7","7","5","6","634787525419859968","刘","524","Male","[""坏他"",""坏我"",""好我"",""好他""]","[""弱他"",""弱我"",""强我"",""强他""]","","","","","","","","","","","","","","","","","","","","","","","","","","","","","","","","","","","","","",""
"","","","call-function","1","3551","0.0-1.0-0.0","7","6","5","7","5","4","5","5","4","5","4","-1","-3","1","0","2","1","0","0","5","4","5","4","4","2","5","2","4","5","7","7","9","8","7","9","6","8","7","5","5","6","5","7","5","6","6","5","6","7","5","2","7","5","5","7","6","6","7","3","7","2","5","5","6","7","6","5","7","6","5","7","2","5","6","7","7","5","6","634787525419859968","刘","524","Male","[""坏他"",""坏我"",""好我"",""好他""]","[""弱他"",""弱我"",""强我"",""强他""]","","","","","","","","","","","","","","","","","","","","","","","","","","","","","","","","","","","","","",""
"264205","","[{""name"":""Sex"",""value"":""0""},{""name"":""friend_name"",""value"":""刘""},{""name"":""ParticipantID"",""value"":""524""}]","survey-html-form","2","267766","0.0-1.0-1.0","7","6","5","7","5","4","5","5","4","5","4","-1","-3","1","0","2","1","0","0","5","4","5","4","4","2","5","2","4","5","7","7","9","8","7","9","6","8","7","5","5","6","5","7","5","6","6","5","6","7","5","2","7","5","5","7","6","6","7","3","7","2","5","5","6","7","6","5","7","6","5","7","2","5","6","7","7","5","6","634787525419859968","刘","524","Male","[""坏他"",""坏我"",""好我"",""好他""]","[""弱他"",""弱我"",""强我"",""强他""]","","","","","","","","","","","","","","","","","","","","","","","","","","","","","","","","","","","","","",""
"","","","preload","3","268317","0.0-2.0","7","6","5","7","5","4","5","5","4","5","4","-1","-3","1","0","2","1","0","0","5","4","5","4","4","2","5","2","4","5","7","7","9","8","7","9","6","8","7","5","5","6","5","7","5","6","6","5","6","7","5","2","7","5","5","7","6","6","7","3","7","2","5","5","6","7","6","5","7","6","5","7","2","5","6","7","7","5","6","634787525419859968","刘","524","Male","[""坏他"",""坏我"",""好我"",""好他""]","[""弱他"",""弱我"",""强我"",""强他""]","","true","false","[]","[]","[]","","","","","","","","","","","","","","","","","","","","","","","","","","","","","","","",""
"","","","fullscreen","4","271605","0.0-3.0","7","6","5","7","5","4","5","5","4","5","4","-1","-3","1","0","2","1","0","0","5","4","5","4","4","2","5","2","4","5","7","7","9","8","7","9","6","8","7","5","5","6","5","7","5","6","6","5","6","7","5","2","7","5","5","7","6","6","7","3","7","2","5","5","6","7","6","5","7","6","5","7","2","5","6","7","7","5","6","634787525419859968","刘","524","Male","[""坏他"",""坏我"",""好我"",""好他""]","[""弱他"",""弱我"",""强我"",""强他""]","","true","","","","","{}","","","","","","","","","","","","","","","","","","","","","","","","","","","","","","",""
"120428.59999990463","","{""Q01"":""7"",""Q02"":""6"",""Q03"":""5"",""Q04"":""7"",""Q05"":""5""}","survey-template","5","392065","0.0-4.0","7","6","5","7","5","4","5","5","4","5","4","-1","-3","1","0","2","1","0","0","5","4","5","4","4","2","5","2","4","5","7","7","9","8","7","9","6","8","7","5","5","6","5","7","5","6","6","5","6","7","5","2","7","5","5","7","6","6","7","3","7","2","5","5","6","7","6","5","7","6","5","7","2","5","6","7","7","5","6","634787525419859968","刘","524","Male","[""坏他"",""坏我"",""好我"",""好他""]","[""弱他"",""弱我"",""强我"",""强他""]","","","","","","","","{""Q01"":""7"",""Q02"":""6"",""Q03"":""5"",""Q04"":""7"",""Q05"":""5""}","[0,1,2,3,4]","[""Q01"",""Q02"",""Q03"",""Q04"",""Q05""]","[29425.199999928474,31195.399999976158,31897,36188.09999990463,36833.199999928474]","[]","[29425.199999928474,30345.399999976158,31195.399999976158,31897,34924.799999952316,36188.09999990463,36833.199999928474,120427.19999992847]","0.4","0.5","0","","","","","","","","","","","","","","","","","","","","","",""
"48253","","{""Q01"":""4"",""Q02"":""5"",""Q03"":""5"",""Q04"":""4"",""Q05"":""5"",""Q06"":""4""}","survey-template","6","440338","0.0-5.0","7","6","5","7","5","4","5","5","4","5","4","-1","-3","1","0","2","1","0","0","5","4","5","4","4","2","5","2","4","5","7","7","9","8","7","9","6","8","7","5","5","6","5","7","5","6","6","5","6","7","5","2","7","5","5","7","6","6","7","3","7","2","5","5","6","7","6","5","7","6","5","7","2","5","6","7","7","5","6","634787525419859968","刘","524","Male","[""坏他"",""坏我"",""好我"",""好他""]","[""弱他"",""弱我"",""强我"",""强他""]","","","","","","","","{""Q01"":""4"",""Q02"":""5"",""Q03"":""5"",""Q04"":""4"",""Q05"":""5"",""Q06"":""4""}","[0,1,2,3,4,5]","[""Q01"",""Q02"",""Q02"",""Q03"",""Q04"",""Q05"",""Q06""]","[14816.099999904633,17538.899999976158,17942.799999952316,18872.099999904633,21399.699999928474,24788.099999904633,25843.899999976158]","[]","[14816.099999904633,17538.899999976158,17942.799999952316,18872.099999904633,20301.899999976158,20715.799999952316,21399.699999928474,22277.899999976158,22814.099999904633,23372.199999928474,24024.099999904633,24788.099999904633,25843.899999976158,48252.09999990463]","0.3333333333333333","0.4","0","","","","","","","","","","","","","","","","","","","","","",""
"56326.10000002384","","{""Q01"":""-1"",""Q02"":""-3"",""Q03"":""1"",""Q04"":""0"",""Q05"":""2"",""Q06"":""1"",""Q07"":""0"",""Q08"":""0""}","survey-template","7","496670","0.0-6.0","7","6","5","7","5","4","5","5","4","5","4","-1","-3","1","0","2","1","0","0","5","4","5","4","4","2","5","2","4","5","7","7","9","8","7","9","6","8","7","5","5","6","5","7","5","6","6","5","6","7","5","2","7","5","5","7","6","6","7","3","7","2","5","5","6","7","6","5","7","6","5","7","2","5","6","7","7","5","6","634787525419859968","刘","524","Male","[""坏他"",""坏我"",""好我"",""好他""]","[""弱他"",""弱我"",""强我"",""强他""]","","","","","","","","{""Q01"":""-1"",""Q02"":""-3"",""Q03"":""1"",""Q04"":""0"",""Q05"":""2"",""Q06"":""1"",""Q07"":""0"",""Q08"":""0""}","[0,1,2,3,4,5,6,7]","[""Q01"",""Q02"",""Q03"",""Q04"",""Q05"",""Q06"",""Q07"",""Q08""]","[4578.800000071526,6395,7976.300000071526,10542.899999976158,12965,14395.399999976158,16994.800000071526,22676.399999976158]","[]","[4578.800000071526,6395,7976.300000071526,10542.899999976158,12965,14395.399999976158,16600.700000047684,16994.800000071526,22676.399999976158,56324.700000047684]","0.375","0.42857142857142855","0","","","","","","","","","","","","","","","","","","","","","",""
"10087","
    <p><div style='color:white;font-size:35px; line-height:20px;'>词汇评估任务</div></p><br>
    <p><div style='color:white;font-size:25px; line-height:20px;'>请再次回忆该亲密的朋友，你们至少2年前就认识了，并且最近2年经常见面。</div></p>
    <p><div style='color:white;font-size:25px; line-height:20px;'>在本实验中，您将会看到一些形容词。</div></p>
    <p><div style='color:yellow;font-size:25px; line-height:20px;'>您的任务是判断这些形容词是否符合对您自己或您的朋友的描述。</div></p><p style='font-size:35px'>符合按<span style=""color:lightgreen""> f 键</span>，不符合按<span style=""color:red""> j 键</span></p>","0","html-button-response","8","506765","0.0-7.0-0.0","7","6","5","7","5","4","5","5","4","5","4","-1","-3","1","0","2","1","0","0","5","4","5","4","4","2","5","2","4","5","7","7","9","8","7","9","6","8","7","5","5","6","5","7","5","6","6","5","6","7","5","2","7","5","5","7","6","6","7","3","7","2","5","5","6","7","6","5","7","6","5","7","2","5","6","7","7","5","6","634787525419859968","刘","524","Male","[""坏他"",""坏我"",""好我"",""好他""]","[""弱他"",""弱我"",""强我"",""强他""]","","","","","","","","","","","","","","","","","SRET_EW","EW_instructions","Thu Nov 16 2023 15:20:27 GMT+0800 (中国标准时间)","","","","","","","","","","","","","","","","","","",""
"2157","","f","psychophysics","9","509939","0.0-7.0-1.0-0.0","7","6","5","7","5","4","5","5","4","5","4","-1","-3","1","0","2","1","0","0","5","4","5","4","4","2","5","2","4","5","7","7","9","8","7","9","6","8","7","5","5","6","5","7","5","6","6","5","6","7","5","2","7","5","5","7","6","6","7","3","7","2","5","5","6","7","6","5","7","6","5","7","2","5","6","7","7","5","6","634787525419859968","刘","524","Male","[""坏他"",""坏我"",""好我"",""好他""]","[""弱他"",""弱我"",""强我"",""强他""]","","","","","","","","yes","","","","","","","","","SRET_EW","EW_practice","","key","f","19.260981927711043","799.9999682108573","445.8333156175091","自己","严谨","Positive","ability","","","","","","","","","",""
"1247","","j","psychophysics","10","512189","0.0-7.0-1.0-0.1","7","6","5","7","5","4","5","5","4","5","4","-1","-3","1","0","2","1","0","0","5","4","5","4","4","2","5","2","4","5","7","7","9","8","7","9","6","8","7","5","5","6","5","7","5","6","6","5","6","7","5","2","7","5","5","7","6","6","7","3","7","2","5","5","6","7","6","5","7","6","5","7","2","5","6","7","7","5","6","634787525419859968","刘","524","Male","[""坏他"",""坏我"",""好我"",""好他""]","[""弱他"",""弱我"",""强我"",""强他""]","","","","","","","","no","","","","","","","","","SRET_EW","EW_practice","","key","j","16.65323134328355","799.9999682108573","445.8333156175091","自己","刻板","Negative","ability","","","","","","","","","",""
"1439","","j","psychophysics","11","514630","0.0-7.0-1.0-0.2","7","6","5","7","5","4","5","5","4","5","4","-1","-3","1","0","2","1","0","0","5","4","5","4","4","2","5","2","4","5","7","7","9","8","7","9","6","8","7","5","5","6","5","7","5","6","6","5","6","7","5","2","7","5","5","7","6","6","7","3","7","2","5","5","6","7","6","5","7","6","5","7","2","5","6","7","7","5","6","634787525419859968","刘","524","Male","[""坏他"",""坏我"",""好我"",""好他""]","[""弱他"",""弱我"",""强我"",""强他""]","","","","","","","","no","","","","","","","","","SRET_EW","EW_practice","","key","j","16.65344827586207","799.9999682108573","445.8333156175091","朋友","徇私","Negative","morality","","","","","","","","","",""
"1001","","f","psychophysics","12","516634","0.0-7.0-1.0-0.3","7","6","5","7","5","4","5","5","4","5","4","-1","-3","1","0","2","1","0","0","5","4","5","4","4","2","5","2","4","5","7","7","9","8","7","9","6","8","7","5","5","6","5","7","5","6","6","5","6","7","5","2","7","5","5","7","6","6","7","3","7","2","5","5","6","7","6","5","7","6","5","7","2","5","6","7","7","5","6","634787525419859968","刘","524","Male","[""坏他"",""坏我"",""好我"",""好他""]","[""弱他"",""弱我"",""强我"",""强他""]","","","","","","","","yes","","","","","","","","","SRET_EW","EW_practice","","key","f","16.653033333333344","799.9999682108573","445.8333156175091","朋友","忠实","Positive","morality","","","","","","","","","",""
"4670","
    <p><div style='color:white;font-size:35px; line-height:20px;'>请您再次阅读实验要求</div></p><br>
    <p><div style='color:white;font-size:25px; line-height:20px;'>请回忆某一个亲密的朋友，你们至少2年前就认识了，并且最近2年经常见面。</div></p>
    <p><div style='color:white;font-size:25px; line-height:20px;'>在本实验中，您将会看到一些形容词。</div></p>
    <p><div style='color:yellow;font-size:25px; line-height:20px;'>您的任务是判断这些形容词是否符合对您自己或您的朋友的描述。</div></p>
    <p><div class='footer' style='font-size:25px; line-height:20px;'>如果对本实验还有不清楚之处，请立即向实验员咨询。</p><p style='font-size:25px; line-height:20px;'>如果您明白了规则：</p><p style='font-size:22px; line-height:20px;'>请按 继续 进入正式实验</p>
    </div>
    <p style='font-size:35px'>符合按<span style=""color:lightgreen""> f 键</span>，不符合按<span style=""color:red""> j 键</span></p>","0","html-button-response","13","521305","0.0-7.0-2.0","7","6","5","7","5","4","5","5","4","5","4","-1","-3","1","0","2","1","0","0","5","4","5","4","4","2","5","2","4","5","7","7","9","8","7","9","6","8","7","5","5","6","5","7","5","6","6","5","6","7","5","2","7","5","5","7","6","6","7","3","7","2","5","5","6","7","6","5","7","6","5","7","2","5","6","7","7","5","6","634787525419859968","刘","524","Male","[""坏他"",""坏我"",""好我"",""好他""]","[""弱他"",""弱我"",""强我"",""强他""]","","","","","","","","","","","","","","","","","SRET_EW","prac_instructions","Thu Nov 16 2023 15:20:27 GMT+0800 (中国标准时间)","","","","","","","","","","","","","","","","","","",""
"1365","","j","psychophysics","14","523677","0.0-7.0-3.0-0.0","7","6","5","7","5","4","5","5","4","5","4","-1","-3","1","0","2","1","0","0","5","4","5","4","4","2","5","2","4","5","7","7","9","8","7","9","6","8","7","5","5","6","5","7","5","6","6","5","6","7","5","2","7","5","5","7","6","6","7","3","7","2","5","5","6","7","6","5","7","6","5","7","2","5","6","7","7","5","6","634787525419859968","刘","524","Male","[""坏他"",""坏我"",""好我"",""好他""]","[""弱他"",""弱我"",""强我"",""强他""]","","","","","","","","no","","","","","","","","","SRET","EW_formal","","key","j","16.65289510489552","799.9999682108573","445.8333156175091","朋友","迷糊","Negative","ability","","","","","","","","","",""
"974","","f","psychophysics","15","525652","0.0-7.0-3.0-0.1","7","6","5","7","5","4","5","5","4","5","4","-1","-3","1","0","2","1","0","0","5","4","5","4","4","2","5","2","4","5","7","7","9","8","7","9","6","8","7","5","5","6","5","7","5","6","6","5","6","7","5","2","7","5","5","7","6","6","7","3","7","2","5","5","6","7","6","5","7","6","5","7","2","5","6","7","7","5","6","634787525419859968","刘","524","Male","[""坏他"",""坏我"",""好我"",""好他""]","[""弱他"",""弱我"",""强我"",""强他""]","","","","","","","","yes","","","","","","","","","SRET","EW_formal","","key","f","16.653444444445263","799.9999682108573","445.8333156175091","自己","坚贞","Positive","morality","","","","","","","","","",""
"1056","","j","psychophysics","16","527711","0.0-7.0-3.0-0.2","7","6","5","7","5","4","5","5","4","5","4","-1","-3","1","0","2","1","0","0","5","4","5","4","4","2","5","2","4","5","7","7","9","8","7","9","6","8","7","5","5","6","5","7","5","6","6","5","6","7","5","2","7","5","5","7","6","6","7","3","7","2","5","5","6","7","6","5","7","6","5","7","2","5","6","7","7","5","6","634787525419859968","刘","524","Male","[""坏他"",""坏我"",""好我"",""好他""]","[""弱他"",""弱我"",""强我"",""强他""]","","","","","","","","no","","","","","","","","","SRET","EW_formal","","key","j","16.653154471544624","799.9999682108573","445.8333156175091","自己","说谎","Negative","morality","","","","","","","","","",""
"1368","","f","psychophysics","17","530080","0.0-7.0-3.0-0.3","7","6","5","7","5","4","5","5","4","5","4","-1","-3","1","0","2","1","0","0","5","4","5","4","4","2","5","2","4","5","7","7","9","8","7","9","6","8","7","5","5","6","5","7","5","6","6","5","6","7","5","2","7","5","5","7","6","6","7","3","7","2","5","5","6","7","6","5","7","6","5","7","2","5","6","7","7","5","6","634787525419859968","刘","524","Male","[""坏他"",""坏我"",""好我"",""好他""]","[""弱他"",""弱我"",""强我"",""强他""]","","","","","","","","yes","","","","","","","","","SRET","EW_formal","","key","f","16.65337588652516","799.9999682108573","445.8333156175091","朋友","务实","Positive","ability","","","","","","","","","",""
"987","","f","psychophysics","18","532069","0.0-7.0-3.0-0.4","7","6","5","7","5","4","5","5","4","5","4","-1","-3","1","0","2","1","0","0","5","4","5","4","4","2","5","2","4","5","7","7","9","8","7","9","6","8","7","5","5","6","5","7","5","6","6","5","6","7","5","2","7","5","5","7","6","6","7","3","7","2","5","5","6","7","6","5","7","6","5","7","2","5","6","7","7","5","6","634787525419859968","刘","524","Male","[""坏他"",""坏我"",""好我"",""好他""]","[""弱他"",""弱我"",""强我"",""强他""]","","","","","","","","yes","","","","","","","","","SRET","EW_formal","","key","f","16.65346218487385","799.9999682108573","445.8333156175091","朋友","独立","Positive","ability","","","","","","","","","",""
"832","","f","psychophysics","19","533902","0.0-7.0-3.0-0.5","7","6","5","7","5","4","5","5","4","5","4","-1","-3","1","0","2","1","0","0","5","4","5","4","4","2","5","2","4","5","7","7","9","8","7","9","6","8","7","5","5","6","5","7","5","6","6","5","6","7","5","2","7","5","5","7","6","6","7","3","7","2","5","5","6","7","6","5","7","6","5","7","2","5","6","7","7","5","6","634787525419859968","刘","524","Male","[""坏他"",""坏我"",""好我"",""好他""]","[""弱他"",""弱我"",""强我"",""强他""]","","","","","","","","yes","","","","","","","","","SRET","EW_formal","","key","f","16.65291743119324","799.9999682108573","445.8333156175091","自己","君子","Positive","morality","","","","","","","","","",""
"1288","","f","psychophysics","20","536192","0.0-7.0-3.0-0.6","7","6","5","7","5","4","5","5","4","5","4","-1","-3","1","0","2","1","0","0","5","4","5","4","4","2","5","2","4","5","7","7","9","8","7","9","6","8","7","5","5","6","5","7","5","6","6","5","6","7","5","2","7","5","5","7","6","6","7","3","7","2","5","5","6","7","6","5","7","6","5","7","2","5","6","7","7","5","6","634787525419859968","刘","524","Male","[""坏他"",""坏我"",""好我"",""好他""]","[""弱他"",""弱我"",""强我"",""强他""]","","","","","","","","yes","","","","","","","","","SRET","EW_formal","","key","f","16.652779411764215","799.9999682108573","445.8333156175091","朋友","果决","Positive","ability","","","","","","","","","",""
"1826","","f","psychophysics","21","539019","0.0-7.0-3.0-0.7","7","6","5","7","5","4","5","5","4","5","4","-1","-3","1","0","2","1","0","0","5","4","5","4","4","2","5","2","4","5","7","7","9","8","7","9","6","8","7","5","5","6","5","7","5","6","6","5","6","7","5","2","7","5","5","7","6","6","7","3","7","2","5","5","6","7","6","5","7","6","5","7","2","5","6","7","7","5","6","634787525419859968","刘","524","Male","[""坏他"",""坏我"",""好我"",""好他""]","[""弱他"",""弱我"",""强我"",""强他""]","","","","","","","","yes","","","","","","","","","SRET","EW_formal","","key","f","16.65359763313669","799.9999682108573","445.8333156175091","自己","博识","Positive","ability","","","","","","","","","",""
"859","","j","psychophysics","22","540881","0.0-7.0-3.0-0.8","7","6","5","7","5","4","5","5","4","5","4","-1","-3","1","0","2","1","0","0","5","4","5","4","4","2","5","2","4","5","7","7","9","8","7","9","6","8","7","5","5","6","5","7","5","6","6","5","6","7","5","2","7","5","5","7","6","6","7","3","7","2","5","5","6","7","6","5","7","6","5","7","2","5","6","7","7","5","6","634787525419859968","刘","524","Male","[""坏他"",""坏我"",""好我"",""好他""]","[""弱他"",""弱我"",""强我"",""强他""]","","","","","","","","no","","","","","","","","","SRET","EW_formal","","key","j","16.65368468468476","799.9999682108573","445.8333156175091","自己","不良","Negative","morality","","","","","","","","","",""
"852","","f","psychophysics","23","542734","0.0-7.0-3.0-0.9","7","6","5","7","5","4","5","5","4","5","4","-1","-3","1","0","2","1","0","0","5","4","5","4","4","2","5","2","4","5","7","7","9","8","7","9","6","8","7","5","5","6","5","7","5","6","6","5","6","7","5","2","7","5","5","7","6","6","7","3","7","2","5","5","6","7","6","5","7","6","5","7","2","5","6","7","7","5","6","634787525419859968","刘","524","Male","[""坏他"",""坏我"",""好我"",""好他""]","[""弱他"",""弱我"",""强我"",""强他""]","","","","","","","","yes","","","","","","","","","SRET","EW_formal","","key","f","16.65252727272772","799.9999682108573","445.8333156175091","自己","侠义","Positive","morality","","","","","","","","","",""
"1116","","f","psychophysics","24","544852","0.0-7.0-3.0-0.10","7","6","5","7","5","4","5","5","4","5","4","-1","-3","1","0","2","1","0","0","5","4","5","4","4","2","5","2","4","5","7","7","9","8","7","9","6","8","7","5","5","6","5","7","5","6","6","5","6","7","5","2","7","5","5","7","6","6","7","3","7","2","5","5","6","7","6","5","7","6","5","7","2","5","6","7","7","5","6","634787525419859968","刘","524","Male","[""坏他"",""坏我"",""好我"",""好他""]","[""弱他"",""弱我"",""强我"",""强他""]","","","","","","","","yes","","","","","","","","","SRET","EW_formal","","key","f","16.65346825396871","799.9999682108573","445.8333156175091","朋友","守时","Positive","morality","","","","","","","","","",""
"736","","j","psychophysics","25","546590","0.0-7.0-3.0-0.11","7","6","5","7","5","4","5","5","4","5","4","-1","-3","1","0","2","1","0","0","5","4","5","4","4","2","5","2","4","5","7","7","9","8","7","9","6","8","7","5","5","6","5","7","5","6","6","5","6","7","5","2","7","5","5","7","6","6","7","3","7","2","5","5","6","7","6","5","7","6","5","7","2","5","6","7","7","5","6","634787525419859968","刘","524","Male","[""坏他"",""坏我"",""好我"",""好他""]","[""弱他"",""弱我"",""强我"",""强他""]","","","","","","","","no","","","","","","","","","SRET","EW_formal","","key","j","16.6535096153843","799.9999682108573","445.8333156175091","自己","龌龊","Negative","morality","","","","","","","","","",""
"1541","","j","psychophysics","26","549134","0.0-7.0-3.0-0.12","7","6","5","7","5","4","5","5","4","5","4","-1","-3","1","0","2","1","0","0","5","4","5","4","4","2","5","2","4","5","7","7","9","8","7","9","6","8","7","5","5","6","5","7","5","6","6","5","6","7","5","2","7","5","5","7","6","6","7","3","7","2","5","5","6","7","6","5","7","6","5","7","2","5","6","7","7","5","6","634787525419859968","刘","524","Male","[""坏他"",""坏我"",""好我"",""好他""]","[""弱他"",""弱我"",""强我"",""强他""]","","","","","","","","no","","","","","","","","","SRET","EW_formal","","key","j","16.65329801324533","799.9999682108573","445.8333156175091","朋友","无赖","Negative","morality","","","","","","","","","",""
"782","","f","psychophysics","27","550919","0.0-7.0-3.0-0.13","7","6","5","7","5","4","5","5","4","5","4","-1","-3","1","0","2","1","0","0","5","4","5","4","4","2","5","2","4","5","7","7","9","8","7","9","6","8","7","5","5","6","5","7","5","6","6","5","6","7","5","2","7","5","5","7","6","6","7","3","7","2","5","5","6","7","6","5","7","6","5","7","2","5","6","7","7","5","6","634787525419859968","刘","524","Male","[""坏他"",""坏我"",""好我"",""好他""]","[""弱他"",""弱我"",""强我"",""强他""]","","","","","","","","yes","","","","","","","","","SRET","EW_formal","","key","f","16.653981308411442","799.9999682108573","445.8333156175091","自己","专注","Positive","ability","","","","","","","","","",""
"721","","j","psychophysics","28","552642","0.0-7.0-3.0-0.14","7","6","5","7","5","4","5","5","4","5","4","-1","-3","1","0","2","1","0","0","5","4","5","4","4","2","5","2","4","5","7","7","9","8","7","9","6","8","7","5","5","6","5","7","5","6","6","5","6","7","5","2","7","5","5","7","6","6","7","3","7","2","5","5","6","7","6","5","7","6","5","7","2","5","6","7","7","5","6","634787525419859968","刘","524","Male","[""坏他"",""坏我"",""好我"",""好他""]","[""弱他"",""弱我"",""强我"",""强他""]","","","","","","","","no","","","","","","","","","SRET","EW_formal","","key","j","16.653215686274766","799.9999682108573","445.8333156175091","朋友","迟钝","Negative","ability","","","","","","","","","",""
"899","","f","psychophysics","29","554543","0.0-7.0-3.0-0.15","7","6","5","7","5","4","5","5","4","5","4","-1","-3","1","0","2","1","0","0","5","4","5","4","4","2","5","2","4","5","7","7","9","8","7","9","6","8","7","5","5","6","5","7","5","6","6","5","6","7","5","2","7","5","5","7","6","6","7","3","7","2","5","5","6","7","6","5","7","6","5","7","2","5","6","7","7","5","6","634787525419859968","刘","524","Male","[""坏他"",""坏我"",""好我"",""好他""]","[""弱他"",""弱我"",""强我"",""强他""]","","","","","","","","yes","","","","","","","","","SRET","EW_formal","","key","f","16.653132743362864","799.9999682108573","445.8333156175091","朋友","高尚","Positive","morality","","","","","","","","","",""
"672","","f","psychophysics","30","556216","0.0-7.0-3.0-0.16","7","6","5","7","5","4","5","5","4","5","4","-1","-3","1","0","2","1","0","0","5","4","5","4","4","2","5","2","4","5","7","7","9","8","7","9","6","8","7","5","5","6","5","7","5","6","6","5","6","7","5","2","7","5","5","7","6","6","7","3","7","2","5","5","6","7","6","5","7","6","5","7","2","5","6","7","7","5","6","634787525419859968","刘","524","Male","[""坏他"",""坏我"",""好我"",""好他""]","[""弱他"",""弱我"",""强我"",""强他""]","","","","","","","","yes","","","","","","","","","SRET","EW_formal","","key","f","16.653129999999656","799.9999682108573","445.8333156175091","自己","守法","Positive","morality","","","","","","","","","",""
"1328","","j","psychophysics","31","558547","0.0-7.0-3.0-0.17","7","6","5","7","5","4","5","5","4","5","4","-1","-3","1","0","2","1","0","0","5","4","5","4","4","2","5","2","4","5","7","7","9","8","7","9","6","8","7","5","5","6","5","7","5","6","6","5","6","7","5","2","7","5","5","7","6","6","7","3","7","2","5","5","6","7","6","5","7","6","5","7","2","5","6","7","7","5","6","634787525419859968","刘","524","Male","[""坏他"",""坏我"",""好我"",""好他""]","[""弱他"",""弱我"",""强我"",""强他""]","","","","","","","","no","","","","","","","","","SRET","EW_formal","","key","j","16.653410071942606","799.9999682108573","445.8333156175091","自己","不仁","Negative","morality","","","","","","","","","",""
"1064","","j","psychophysics","32","560613","0.0-7.0-3.0-0.18","7","6","5","7","5","4","5","5","4","5","4","-1","-3","1","0","2","1","0","0","5","4","5","4","4","2","5","2","4","5","7","7","9","8","7","9","6","8","7","5","5","6","5","7","5","6","6","5","6","7","5","2","7","5","5","7","6","6","7","3","7","2","5","5","6","7","6","5","7","6","5","7","2","5","6","7","7","5","6","634787525419859968","刘","524","Male","[""坏他"",""坏我"",""好我"",""好他""]","[""弱他"",""弱我"",""强我"",""强他""]","","","","","","","","no","","","","","","","","","SRET","EW_formal","","key","j","16.652845528454716","799.9999682108573","445.8333156175091","朋友","邪恶","Negative","morality","","","","","","","","","",""
"1157","","j","psychophysics","33","562771","0.0-7.0-3.0-0.19","7","6","5","7","5","4","5","5","4","5","4","-1","-3","1","0","2","1","0","0","5","4","5","4","4","2","5","2","4","5","7","7","9","8","7","9","6","8","7","5","5","6","5","7","5","6","6","5","6","7","5","2","7","5","5","7","6","6","7","3","7","2","5","5","6","7","6","5","7","6","5","7","2","5","6","7","7","5","6","634787525419859968","刘","524","Male","[""坏他"",""坏我"",""好我"",""好他""]","[""弱他"",""弱我"",""强我"",""强他""]","","","","","","","","no","","","","","","","","","SRET","EW_formal","","key","j","16.652789062500233","799.9999682108573","445.8333156175091","朋友","愚蠢","Negative","ability","","","","","","","","","",""
"1596","","j","psychophysics","34","565368","0.0-7.0-3.0-0.20","7","6","5","7","5","4","5","5","4","5","4","-1","-3","1","0","2","1","0","0","5","4","5","4","4","2","5","2","4","5","7","7","9","8","7","9","6","8","7","5","5","6","5","7","5","6","6","5","6","7","5","2","7","5","5","7","6","6","7","3","7","2","5","5","6","7","6","5","7","6","5","7","2","5","6","7","7","5","6","634787525419859968","刘","524","Male","[""坏他"",""坏我"",""好我"",""好他""]","[""弱他"",""弱我"",""强我"",""强他""]","","","","","","","","no","","","","","","","","","SRET","EW_formal","","key","j","16.652729032257753","799.9999682108573","445.8333156175091","自己","草率","Negative","ability","","","","","","","","","",""
"2693","","f","psychophysics","35","569063","0.0-7.0-3.0-0.21","7","6","5","7","5","4","5","5","4","5","4","-1","-3","1","0","2","1","0","0","5","4","5","4","4","2","5","2","4","5","7","7","9","8","7","9","6","8","7","5","5","6","5","7","5","6","6","5","6","7","5","2","7","5","5","7","6","6","7","3","7","2","5","5","6","7","6","5","7","6","5","7","2","5","6","7","7","5","6","634787525419859968","刘","524","Male","[""坏他"",""坏我"",""好我"",""好他""]","[""弱他"",""弱我"",""强我"",""强他""]","","","","","","","","yes","","","","","","","","","SRET","EW_formal","","key","f","16.653248868778356","799.9999682108573","445.8333156175091","朋友","利己","Negative","morality","","","","","","","","","",""
"1901","","f","psychophysics","36","571964","0.0-7.0-3.0-0.22","7","6","5","7","5","4","5","5","4","5","4","-1","-3","1","0","2","1","0","0","5","4","5","4","4","2","5","2","4","5","7","7","9","8","7","9","6","8","7","5","5","6","5","7","5","6","6","5","6","7","5","2","7","5","5","7","6","6","7","3","7","2","5","5","6","7","6","5","7","6","5","7","2","5","6","7","7","5","6","634787525419859968","刘","524","Male","[""坏他"",""坏我"",""好我"",""好他""]","[""弱他"",""弱我"",""强我"",""强他""]","","","","","","","","yes","","","","","","","","","SRET","EW_formal","","key","f","16.65303468208079","799.9999682108573","445.8333156175091","朋友","廉正","Positive","morality","","","","","","","","","",""
"1287","","j","psychophysics","37","574252","0.0-7.0-3.0-0.23","7","6","5","7","5","4","5","5","4","5","4","-1","-3","1","0","2","1","0","0","5","4","5","4","4","2","5","2","4","5","7","7","9","8","7","9","6","8","7","5","5","6","5","7","5","6","6","5","6","7","5","2","7","5","5","7","6","6","7","3","7","2","5","5","6","7","6","5","7","6","5","7","2","5","6","7","7","5","6","634787525419859968","刘","524","Male","[""坏他"",""坏我"",""好我"",""好他""]","[""弱他"",""弱我"",""强我"",""强他""]","","","","","","","","no","","","","","","","","","SRET","EW_formal","","key","j","16.65344525547443","799.9999682108573","445.8333156175091","自己","畏难","Negative","ability","","","","","","","","","",""
"1892","","j","psychophysics","38","577148","0.0-7.0-3.0-0.24","7","6","5","7","5","4","5","5","4","5","4","-1","-3","1","0","2","1","0","0","5","4","5","4","4","2","5","2","4","5","7","7","9","8","7","9","6","8","7","5","5","6","5","7","5","6","6","5","6","7","5","2","7","5","5","7","6","6","7","3","7","2","5","5","6","7","6","5","7","6","5","7","2","5","6","7","7","5","6","634787525419859968","刘","524","Male","[""坏他"",""坏我"",""好我"",""好他""]","[""弱他"",""弱我"",""强我"",""强他""]","","","","","","","","no","","","","","","","","","SRET","EW_formal","","key","j","16.652820809248357","799.9999682108573","445.8333156175091","自己","短视","Negative","ability","","","","","","","","","",""
"1650","","j","psychophysics","39","579800","0.0-7.0-3.0-0.25","7","6","5","7","5","4","5","5","4","5","4","-1","-3","1","0","2","1","0","0","5","4","5","4","4","2","5","2","4","5","7","7","9","8","7","9","6","8","7","5","5","6","5","7","5","6","6","5","6","7","5","2","7","5","5","7","6","6","7","3","7","2","5","5","6","7","6","5","7","6","5","7","2","5","6","7","7","5","6","634787525419859968","刘","524","Male","[""坏他"",""坏我"",""好我"",""好他""]","[""弱他"",""弱我"",""强我"",""强他""]","","","","","","","","no","","","","","","","","","SRET","EW_formal","","key","j","16.653094936708943","799.9999682108573","445.8333156175091","自己","庸碌","Negative","ability","","","","","","","","","",""
"744","","f","psychophysics","40","581545","0.0-7.0-3.0-0.26","7","6","5","7","5","4","5","5","4","5","4","-1","-3","1","0","2","1","0","0","5","4","5","4","4","2","5","2","4","5","7","7","9","8","7","9","6","8","7","5","5","6","5","7","5","6","6","5","6","7","5","2","7","5","5","7","6","6","7","3","7","2","5","5","6","7","6","5","7","6","5","7","2","5","6","7","7","5","6","634787525419859968","刘","524","Male","[""坏他"",""坏我"",""好我"",""好他""]","[""弱他"",""弱我"",""强我"",""强他""]","","","","","","","","yes","","","","","","","","","SRET","EW_formal","","key","f","16.65379807692303","799.9999682108573","445.8333156175091","朋友","爱国","Positive","morality","","","","","","","","","",""
"924","","f","psychophysics","41","583470","0.0-7.0-3.0-0.27","7","6","5","7","5","4","5","5","4","5","4","-1","-3","1","0","2","1","0","0","5","4","5","4","4","2","5","2","4","5","7","7","9","8","7","9","6","8","7","5","5","6","5","7","5","6","6","5","6","7","5","2","7","5","5","7","6","6","7","3","7","2","5","5","6","7","6","5","7","6","5","7","2","5","6","7","7","5","6","634787525419859968","刘","524","Male","[""坏他"",""坏我"",""好我"",""好他""]","[""弱他"",""弱我"",""强我"",""强他""]","","","","","","","","yes","","","","","","","","","SRET","EW_formal","","key","f","16.653526315789286","799.9999682108573","445.8333156175091","朋友","周到","Positive","ability","","","","","","","","","",""
"799","","j","psychophysics","42","585270","0.0-7.0-3.0-0.28","7","6","5","7","5","4","5","5","4","5","4","-1","-3","1","0","2","1","0","0","5","4","5","4","4","2","5","2","4","5","7","7","9","8","7","9","6","8","7","5","5","6","5","7","5","6","6","5","6","7","5","2","7","5","5","7","6","6","7","3","7","2","5","5","6","7","6","5","7","6","5","7","2","5","6","7","7","5","6","634787525419859968","刘","524","Male","[""坏他"",""坏我"",""好我"",""好他""]","[""弱他"",""弱我"",""强我"",""强他""]","","","","","","","","no","","","","","","","","","SRET","EW_formal","","key","j","16.653719626169078","799.9999682108573","445.8333156175091","朋友","无为","Negative","ability","","","","","","","","","",""
"675","","j","psychophysics","43","586950","0.0-7.0-3.0-0.29","7","6","5","7","5","4","5","5","4","5","4","-1","-3","1","0","2","1","0","0","5","4","5","4","4","2","5","2","4","5","7","7","9","8","7","9","6","8","7","5","5","6","5","7","5","6","6","5","6","7","5","2","7","5","5","7","6","6","7","3","7","2","5","5","6","7","6","5","7","6","5","7","2","5","6","7","7","5","6","634787525419859968","刘","524","Male","[""坏他"",""坏我"",""好我"",""好他""]","[""弱他"",""弱我"",""强我"",""强他""]","","","","","","","","no","","","","","","","","","SRET","EW_formal","","key","j","16.652880000000586","799.9999682108573","445.8333156175091","自己","奸险","Negative","morality","","","","","","","","","",""
"2162","","f","psychophysics","44","590114","0.0-7.0-3.0-0.30","7","6","5","7","5","4","5","5","4","5","4","-1","-3","1","0","2","1","0","0","5","4","5","4","4","2","5","2","4","5","7","7","9","8","7","9","6","8","7","5","5","6","5","7","5","6","6","5","6","7","5","2","7","5","5","7","6","6","7","3","7","2","5","5","6","7","6","5","7","6","5","7","2","5","6","7","7","5","6","634787525419859968","刘","524","Male","[""坏他"",""坏我"",""好我"",""好他""]","[""弱他"",""弱我"",""强我"",""强他""]","","","","","","","","yes","","","","","","","","","SRET","EW_formal","","key","f","16.65338095238065","799.9999682108573","445.8333156175091","朋友","淡泊","Positive","morality","","","","","","","","","",""
"1020","","f","psychophysics","45","592136","0.0-7.0-3.0-0.31","7","6","5","7","5","4","5","5","4","5","4","-1","-3","1","0","2","1","0","0","5","4","5","4","4","2","5","2","4","5","7","7","9","8","7","9","6","8","7","5","5","6","5","7","5","6","6","5","6","7","5","2","7","5","5","7","6","6","7","3","7","2","5","5","6","7","6","5","7","6","5","7","2","5","6","7","7","5","6","634787525419859968","刘","524","Male","[""坏他"",""坏我"",""好我"",""好他""]","[""弱他"",""弱我"",""强我"",""强他""]","","","","","","","","yes","","","","","","","","","SRET","EW_formal","","key","f","16.6529421487598","799.9999682108573","445.8333156175091","自己","守信","Positive","morality","","","","","","","","","",""
"986","","f","psychophysics","46","594123","0.0-7.0-3.0-0.32","7","6","5","7","5","4","5","5","4","5","4","-1","-3","1","0","2","1","0","0","5","4","5","4","4","2","5","2","4","5","7","7","9","8","7","9","6","8","7","5","5","6","5","7","5","6","6","5","6","7","5","2","7","5","5","7","6","6","7","3","7","2","5","5","6","7","6","5","7","6","5","7","2","5","6","7","7","5","6","634787525419859968","刘","524","Male","[""坏他"",""坏我"",""好我"",""好他""]","[""弱他"",""弱我"",""强我"",""强他""]","","","","","","","","yes","","","","","","","","","SRET","EW_formal","","key","f","16.652847457626812","799.9999682108573","445.8333156175091","自己","奉献","Positive","morality","","","","","","","","","",""
"953","","f","psychophysics","47","596078","0.0-7.0-3.0-0.33","7","6","5","7","5","4","5","5","4","5","4","-1","-3","1","0","2","1","0","0","5","4","5","4","4","2","5","2","4","5","7","7","9","8","7","9","6","8","7","5","5","6","5","7","5","6","6","5","6","7","5","2","7","5","5","7","6","6","7","3","7","2","5","5","6","7","6","5","7","6","5","7","2","5","6","7","7","5","6","634787525419859968","刘","524","Male","[""坏他"",""坏我"",""好我"",""好他""]","[""弱他"",""弱我"",""强我"",""强他""]","","","","","","","","yes","","","","","","","","","SRET","EW_formal","","key","f","16.653543103448165","799.9999682108573","445.8333156175091","自己","勤恳","Positive","morality","","","","","","","","","",""
"685","","j","psychophysics","48","597764","0.0-7.0-3.0-0.34","7","6","5","7","5","4","5","5","4","5","4","-1","-3","1","0","2","1","0","0","5","4","5","4","4","2","5","2","4","5","7","7","9","8","7","9","6","8","7","5","5","6","5","7","5","6","6","5","6","7","5","2","7","5","5","7","6","6","7","3","7","2","5","5","6","7","6","5","7","6","5","7","2","5","6","7","7","5","6","634787525419859968","刘","524","Male","[""坏他"",""坏我"",""好我"",""好他""]","[""弱他"",""弱我"",""强我"",""强他""]","","","","","","","","no","","","","","","","","","SRET","EW_formal","","key","j","16.653584158415722","799.9999682108573","445.8333156175091","自己","不端","Negative","morality","","","","","","","","","",""
"941","","j","psychophysics","49","599707","0.0-7.0-3.0-0.35","7","6","5","7","5","4","5","5","4","5","4","-1","-3","1","0","2","1","0","0","5","4","5","4","4","2","5","2","4","5","7","7","9","8","7","9","6","8","7","5","5","6","5","7","5","6","6","5","6","7","5","2","7","5","5","7","6","6","7","3","7","2","5","5","6","7","6","5","7","6","5","7","2","5","6","7","7","5","6","634787525419859968","刘","524","Male","[""坏他"",""坏我"",""好我"",""好他""]","[""弱他"",""弱我"",""强我"",""强他""]","","","","","","","","no","","","","","","","","","SRET","EW_formal","","key","j","16.653113043478324","799.9999682108573","445.8333156175091","自己","逞强","Negative","ability","","","","","","","","","",""
"747","","j","psychophysics","50","601455","0.0-7.0-3.0-0.36","7","6","5","7","5","4","5","5","4","5","4","-1","-3","1","0","2","1","0","0","5","4","5","4","4","2","5","2","4","5","7","7","9","8","7","9","6","8","7","5","5","6","5","7","5","6","6","5","6","7","5","2","7","5","5","7","6","6","7","3","7","2","5","5","6","7","6","5","7","6","5","7","2","5","6","7","7","5","6","634787525419859968","刘","524","Male","[""坏他"",""坏我"",""好我"",""好他""]","[""弱他"",""弱我"",""强我"",""强他""]","","","","","","","","no","","","","","","","","","SRET","EW_formal","","key","j","16.653019230769132","799.9999682108573","445.8333156175091","自己","狡诈","Negative","morality","","","","","","","","","",""
"911","","f","psychophysics","51","603367","0.0-7.0-3.0-0.37","7","6","5","7","5","4","5","5","4","5","4","-1","-3","1","0","2","1","0","0","5","4","5","4","4","2","5","2","4","5","7","7","9","8","7","9","6","8","7","5","5","6","5","7","5","6","6","5","6","7","5","2","7","5","5","7","6","6","7","3","7","2","5","5","6","7","6","5","7","6","5","7","2","5","6","7","7","5","6","634787525419859968","刘","524","Male","[""坏他"",""坏我"",""好我"",""好他""]","[""弱他"",""弱我"",""强我"",""强他""]","","","","","","","","yes","","","","","","","","","SRET","EW_formal","","key","f","16.653614035087614","799.9999682108573","445.8333156175091","朋友","忠诚","Positive","morality","","","","","","","","","",""
"1320","","f","psychophysics","52","605690","0.0-7.0-3.0-0.38","7","6","5","7","5","4","5","5","4","5","4","-1","-3","1","0","2","1","0","0","5","4","5","4","4","2","5","2","4","5","7","7","9","8","7","9","6","8","7","5","5","6","5","7","5","6","6","5","6","7","5","2","7","5","5","7","6","6","7","3","7","2","5","5","6","7","6","5","7","6","5","7","2","5","6","7","7","5","6","634787525419859968","刘","524","Male","[""坏他"",""坏我"",""好我"",""好他""]","[""弱他"",""弱我"",""强我"",""强他""]","","","","","","","","yes","","","","","","","","","SRET","EW_formal","","key","f","16.652496402877176","799.9999682108573","445.8333156175091","自己","细心","Positive","ability","","","","","","","","","",""
"648","","j","psychophysics","53","607340","0.0-7.0-3.0-0.39","7","6","5","7","5","4","5","5","4","5","4","-1","-3","1","0","2","1","0","0","5","4","5","4","4","2","5","2","4","5","7","7","9","8","7","9","6","8","7","5","5","6","5","7","5","6","6","5","6","7","5","2","7","5","5","7","6","6","7","3","7","2","5","5","6","7","6","5","7","6","5","7","2","5","6","7","7","5","6","634787525419859968","刘","524","Male","[""坏他"",""坏我"",""好我"",""好他""]","[""弱他"",""弱我"",""强我"",""强他""]","","","","","","","","no","","","","","","","","","SRET","EW_formal","","key","j","16.65279591836781","799.9999682108573","445.8333156175091","自己","废物","Negative","ability","","","","","","","","","",""
"623","","j","psychophysics","54","608964","0.0-7.0-3.0-0.40","7","6","5","7","5","4","5","5","4","5","4","-1","-3","1","0","2","1","0","0","5","4","5","4","4","2","5","2","4","5","7","7","9","8","7","9","6","8","7","5","5","6","5","7","5","6","6","5","6","7","5","2","7","5","5","7","6","6","7","3","7","2","5","5","6","7","6","5","7","6","5","7","2","5","6","7","7","5","6","634787525419859968","刘","524","Male","[""坏他"",""坏我"",""好我"",""好他""]","[""弱他"",""弱我"",""强我"",""强他""]","","","","","","","","no","","","","","","","","","SRET","EW_formal","","key","j","16.653322916667094","799.9999682108573","445.8333156175091","朋友","失信","Negative","morality","","","","","","","","","",""
"1035","","j","psychophysics","55","611000","0.0-7.0-3.0-0.41","7","6","5","7","5","4","5","5","4","5","4","-1","-3","1","0","2","1","0","0","5","4","5","4","4","2","5","2","4","5","7","7","9","8","7","9","6","8","7","5","5","6","5","7","5","6","6","5","6","7","5","2","7","5","5","7","6","6","7","3","7","2","5","5","6","7","6","5","7","6","5","7","2","5","6","7","7","5","6","634787525419859968","刘","524","Male","[""坏他"",""坏我"",""好我"",""好他""]","[""弱他"",""弱我"",""强我"",""强他""]","","","","","","","","no","","","","","","","","","SRET","EW_formal","","key","j","16.653644628099297","799.9999682108573","445.8333156175091","朋友","才尽","Negative","ability","","","","","","","","","",""
"698","","j","psychophysics","56","612702","0.0-7.0-3.0-0.42","7","6","5","7","5","4","5","5","4","5","4","-1","-3","1","0","2","1","0","0","5","4","5","4","4","2","5","2","4","5","7","7","9","8","7","9","6","8","7","5","5","6","5","7","5","6","6","5","6","7","5","2","7","5","5","7","6","6","7","3","7","2","5","5","6","7","6","5","7","6","5","7","2","5","6","7","7","5","6","634787525419859968","刘","524","Male","[""坏他"",""坏我"",""好我"",""好他""]","[""弱他"",""弱我"",""强我"",""强他""]","","","","","","","","no","","","","","","","","","SRET","EW_formal","","key","j","16.652617647059206","799.9999682108573","445.8333156175091","朋友","仗义","Positive","morality","","","","","","","","","",""
"1896","","f","psychophysics","57","615599","0.0-7.0-3.0-0.43","7","6","5","7","5","4","5","5","4","5","4","-1","-3","1","0","2","1","0","0","5","4","5","4","4","2","5","2","4","5","7","7","9","8","7","9","6","8","7","5","5","6","5","7","5","6","6","5","6","7","5","2","7","5","5","7","6","6","7","3","7","2","5","5","6","7","6","5","7","6","5","7","2","5","6","7","7","5","6","634787525419859968","刘","524","Male","[""坏他"",""坏我"",""好我"",""好他""]","[""弱他"",""弱我"",""强我"",""强他""]","","","","","","","","yes","","","","","","","","","SRET","EW_formal","","key","f","16.653017341040176","799.9999682108573","445.8333156175091","自己","仁厚","Positive","morality","","","","","","","","","",""
"754","","j","psychophysics","58","617356","0.0-7.0-3.0-0.44","7","6","5","7","5","4","5","5","4","5","4","-1","-3","1","0","2","1","0","0","5","4","5","4","4","2","5","2","4","5","7","7","9","8","7","9","6","8","7","5","5","6","5","7","5","6","6","5","6","7","5","2","7","5","5","7","6","6","7","3","7","2","5","5","6","7","6","5","7","6","5","7","2","5","6","7","7","5","6","634787525419859968","刘","524","Male","[""坏他"",""坏我"",""好我"",""好他""]","[""弱他"",""弱我"",""强我"",""强他""]","","","","","","","","no","","","","","","","","","SRET","EW_formal","","key","j","16.6543173076923","799.9999682108573","445.8333156175091","朋友","业余","Negative","ability","","","","","","","","","",""
"1757","","f","psychophysics","59","620115","0.0-7.0-3.0-0.45","7","6","5","7","5","4","5","5","4","5","4","-1","-3","1","0","2","1","0","0","5","4","5","4","4","2","5","2","4","5","7","7","9","8","7","9","6","8","7","5","5","6","5","7","5","6","6","5","6","7","5","2","7","5","5","7","6","6","7","3","7","2","5","5","6","7","6","5","7","6","5","7","2","5","6","7","7","5","6","634787525419859968","刘","524","Male","[""坏他"",""坏我"",""好我"",""好他""]","[""弱他"",""弱我"",""强我"",""强他""]","","","","","","","","yes","","","","","","","","","SRET","EW_formal","","key","f","16.653630303030578","799.9999682108573","445.8333156175091","自己","善心","Positive","morality","","","","","","","","","",""
"677","","j","psychophysics","60","621795","0.0-7.0-3.0-0.46","7","6","5","7","5","4","5","5","4","5","4","-1","-3","1","0","2","1","0","0","5","4","5","4","4","2","5","2","4","5","7","7","9","8","7","9","6","8","7","5","5","6","5","7","5","6","6","5","6","7","5","2","7","5","5","7","6","6","7","3","7","2","5","5","6","7","6","5","7","6","5","7","2","5","6","7","7","5","6","634787525419859968","刘","524","Male","[""坏他"",""坏我"",""好我"",""好他""]","[""弱他"",""弱我"",""强我"",""强他""]","","","","","","","","no","","","","","","","","","SRET","EW_formal","","key","j","16.6532500000007","799.9999682108573","445.8333156175091","自己","昏庸","Negative","ability","","","","","","","","","",""
"687","","j","psychophysics","61","623483","0.0-7.0-3.0-0.47","7","6","5","7","5","4","5","5","4","5","4","-1","-3","1","0","2","1","0","0","5","4","5","4","4","2","5","2","4","5","7","7","9","8","7","9","6","8","7","5","5","6","5","7","5","6","6","5","6","7","5","2","7","5","5","7","6","6","7","3","7","2","5","5","6","7","6","5","7","6","5","7","2","5","6","7","7","5","6","634787525419859968","刘","524","Male","[""坏他"",""坏我"",""好我"",""好他""]","[""弱他"",""弱我"",""强我"",""强他""]","","","","","","","","no","","","","","","","","","SRET","EW_formal","","key","j","16.653159999999914","799.9999682108573","445.8333156175091","朋友","狡狯","Negative","morality","","","","","","","","","",""
"610","","j","psychophysics","62","625094","0.0-7.0-3.0-0.48","7","6","5","7","5","4","5","5","4","5","4","-1","-3","1","0","2","1","0","0","5","4","5","4","4","2","5","2","4","5","7","7","9","8","7","9","6","8","7","5","5","6","5","7","5","6","6","5","6","7","5","2","7","5","5","7","6","6","7","3","7","2","5","5","6","7","6","5","7","6","5","7","2","5","6","7","7","5","6","634787525419859968","刘","524","Male","[""坏他"",""坏我"",""好我"",""好他""]","[""弱他"",""弱我"",""强我"",""强他""]","","","","","","","","no","","","","","","","","","SRET","EW_formal","","key","j","16.653729166666988","799.9999682108573","445.8333156175091","朋友","迂拙","Negative","ability","","","","","","","","","",""
"606","","f","psychophysics","63","626702","0.0-7.0-3.0-0.49","7","6","5","7","5","4","5","5","4","5","4","-1","-3","1","0","2","1","0","0","5","4","5","4","4","2","5","2","4","5","7","7","9","8","7","9","6","8","7","5","5","6","5","7","5","6","6","5","6","7","5","2","7","5","5","7","6","6","7","3","7","2","5","5","6","7","6","5","7","6","5","7","2","5","6","7","7","5","6","634787525419859968","刘","524","Male","[""坏他"",""坏我"",""好我"",""好他""]","[""弱他"",""弱我"",""强我"",""强他""]","","","","","","","","yes","","","","","","","","","SRET","EW_formal","","key","f","16.652547368421956","799.9999682108573","445.8333156175091","朋友","坚持","Positive","ability","","","","","","","","","",""
"1022","","f","psychophysics","64","628724","0.0-7.0-3.0-0.50","7","6","5","7","5","4","5","5","4","5","4","-1","-3","1","0","2","1","0","0","5","4","5","4","4","2","5","2","4","5","7","7","9","8","7","9","6","8","7","5","5","6","5","7","5","6","6","5","6","7","5","2","7","5","5","7","6","6","7","3","7","2","5","5","6","7","6","5","7","6","5","7","2","5","6","7","7","5","6","634787525419859968","刘","524","Male","[""坏他"",""坏我"",""好我"",""好他""]","[""弱他"",""弱我"",""强我"",""强他""]","","","","","","","","yes","","","","","","","","","SRET","EW_formal","","key","f","16.653057851239822","799.9999682108573","445.8333156175091","朋友","能干","Positive","ability","","","","","","","","","",""
"878","","f","psychophysics","65","630604","0.0-7.0-3.0-0.51","7","6","5","7","5","4","5","5","4","5","4","-1","-3","1","0","2","1","0","0","5","4","5","4","4","2","5","2","4","5","7","7","9","8","7","9","6","8","7","5","5","6","5","7","5","6","6","5","6","7","5","2","7","5","5","7","6","6","7","3","7","2","5","5","6","7","6","5","7","6","5","7","2","5","6","7","7","5","6","634787525419859968","刘","524","Male","[""坏他"",""坏我"",""好我"",""好他""]","[""弱他"",""弱我"",""强我"",""强他""]","","","","","","","","yes","","","","","","","","","SRET","EW_formal","","key","f","16.653116071429395","799.9999682108573","445.8333156175091","朋友","慷慨","Positive","morality","","","","","","","","","",""
"798","","j","psychophysics","66","632405","0.0-7.0-3.0-0.52","7","6","5","7","5","4","5","5","4","5","4","-1","-3","1","0","2","1","0","0","5","4","5","4","4","2","5","2","4","5","7","7","9","8","7","9","6","8","7","5","5","6","5","7","5","6","6","5","6","7","5","2","7","5","5","7","6","6","7","3","7","2","5","5","6","7","6","5","7","6","5","7","2","5","6","7","7","5","6","634787525419859968","刘","524","Male","[""坏他"",""坏我"",""好我"",""好他""]","[""弱他"",""弱我"",""强我"",""强他""]","","","","","","","","no","","","","","","","","","SRET","EW_formal","","key","j","16.65303738317757","799.9999682108573","445.8333156175091","自己","学霸","Positive","ability","","","","","","","","","",""
"1673","","j","psychophysics","67","635080","0.0-7.0-3.0-0.53","7","6","5","7","5","4","5","5","4","5","4","-1","-3","1","0","2","1","0","0","5","4","5","4","4","2","5","2","4","5","7","7","9","8","7","9","6","8","7","5","5","6","5","7","5","6","6","5","6","7","5","2","7","5","5","7","6","6","7","3","7","2","5","5","6","7","6","5","7","6","5","7","2","5","6","7","7","5","6","634787525419859968","刘","524","Male","[""坏他"",""坏我"",""好我"",""好他""]","[""弱他"",""弱我"",""强我"",""强他""]","","","","","","","","no","","","","","","","","","SRET","EW_formal","","key","j","16.65342767295609","799.9999682108573","445.8333156175091","自己","粗心","Negative","ability","","","","","","","","","",""
"1286","","j","psychophysics","68","637368","0.0-7.0-3.0-0.54","7","6","5","7","5","4","5","5","4","5","4","-1","-3","1","0","2","1","0","0","5","4","5","4","4","2","5","2","4","5","7","7","9","8","7","9","6","8","7","5","5","6","5","7","5","6","6","5","6","7","5","2","7","5","5","7","6","6","7","3","7","2","5","5","6","7","6","5","7","6","5","7","2","5","6","7","7","5","6","634787525419859968","刘","524","Male","[""坏他"",""坏我"",""好我"",""好他""]","[""弱他"",""弱我"",""强我"",""强他""]","","","","","","","","no","","","","","","","","","SRET","EW_formal","","key","j","16.65289051094888","799.9999682108573","445.8333156175091","朋友","笨蛋","Negative","ability","","","","","","","","","",""
"1896","","j","psychophysics","69","640267","0.0-7.0-3.0-0.55","7","6","5","7","5","4","5","5","4","5","4","-1","-3","1","0","2","1","0","0","5","4","5","4","4","2","5","2","4","5","7","7","9","8","7","9","6","8","7","5","5","6","5","7","5","6","6","5","6","7","5","2","7","5","5","7","6","6","7","3","7","2","5","5","6","7","6","5","7","6","5","7","2","5","6","7","7","5","6","634787525419859968","刘","524","Male","[""坏他"",""坏我"",""好我"",""好他""]","[""弱他"",""弱我"",""强我"",""强他""]","","","","","","","","no","","","","","","","","","SRET","EW_formal","","key","j","16.65349132947979","799.9999682108573","445.8333156175091","自己","懂行","Positive","ability","","","","","","","","","",""
"676","","f","psychophysics","70","641945","0.0-7.0-3.0-0.56","7","6","5","7","5","4","5","5","4","5","4","-1","-3","1","0","2","1","0","0","5","4","5","4","4","2","5","2","4","5","7","7","9","8","7","9","6","8","7","5","5","6","5","7","5","6","6","5","6","7","5","2","7","5","5","7","6","6","7","3","7","2","5","5","6","7","6","5","7","6","5","7","2","5","6","7","7","5","6","634787525419859968","刘","524","Male","[""坏他"",""坏我"",""好我"",""好他""]","[""弱他"",""弱我"",""强我"",""强他""]","","","","","","","","yes","","","","","","","","","SRET","EW_formal","","key","f","16.652930000000634","799.9999682108573","445.8333156175091","朋友","义气","Positive","morality","","","","","","","","","",""
"3163","","j","psychophysics","71","646109","0.0-7.0-3.0-0.57","7","6","5","7","5","4","5","5","4","5","4","-1","-3","1","0","2","1","0","0","5","4","5","4","4","2","5","2","4","5","7","7","9","8","7","9","6","8","7","5","5","6","5","7","5","6","6","5","6","7","5","2","7","5","5","7","6","6","7","3","7","2","5","5","6","7","6","5","7","6","5","7","2","5","6","7","7","5","6","634787525419859968","刘","524","Male","[""坏他"",""坏我"",""好我"",""好他""]","[""弱他"",""弱我"",""强我"",""强他""]","","","","","","","","no","","","","","","","","","SRET","EW_formal","","key","j","16.65322489959859","799.9999682108573","445.8333156175091","自己","博学","Positive","ability","","","","","","","","","",""
"942","","f","psychophysics","72","648052","0.0-7.0-3.0-0.58","7","6","5","7","5","4","5","5","4","5","4","-1","-3","1","0","2","1","0","0","5","4","5","4","4","2","5","2","4","5","7","7","9","8","7","9","6","8","7","5","5","6","5","7","5","6","6","5","6","7","5","2","7","5","5","7","6","6","7","3","7","2","5","5","6","7","6","5","7","6","5","7","2","5","6","7","7","5","6","634787525419859968","刘","524","Male","[""坏他"",""坏我"",""好我"",""好他""]","[""弱他"",""弱我"",""强我"",""强他""]","","","","","","","","yes","","","","","","","","","SRET","EW_formal","","key","f","16.65353913043484","799.9999682108573","445.8333156175091","朋友","沉着","Positive","ability","","","","","","","","","",""
"793","","j","psychophysics","73","649847","0.0-7.0-3.0-0.59","7","6","5","7","5","4","5","5","4","5","4","-1","-3","1","0","2","1","0","0","5","4","5","4","4","2","5","2","4","5","7","7","9","8","7","9","6","8","7","5","5","6","5","7","5","6","6","5","6","7","5","2","7","5","5","7","6","6","7","3","7","2","5","5","6","7","6","5","7","6","5","7","2","5","6","7","7","5","6","634787525419859968","刘","524","Male","[""坏他"",""坏我"",""好我"",""好他""]","[""弱他"",""弱我"",""强我"",""强他""]","","","","","","","","no","","","","","","","","","SRET","EW_formal","","key","j","16.653074766354738","799.9999682108573","445.8333156175091","朋友","盲目","Negative","ability","","","","","","","","","",""
"820","","f","psychophysics","74","651670","0.0-7.0-3.0-0.60","7","6","5","7","5","4","5","5","4","5","4","-1","-3","1","0","2","1","0","0","5","4","5","4","4","2","5","2","4","5","7","7","9","8","7","9","6","8","7","5","5","6","5","7","5","6","6","5","6","7","5","2","7","5","5","7","6","6","7","3","7","2","5","5","6","7","6","5","7","6","5","7","2","5","6","7","7","5","6","634787525419859968","刘","524","Male","[""坏他"",""坏我"",""好我"",""好他""]","[""弱他"",""弱我"",""强我"",""强他""]","","","","","","","","yes","","","","","","","","","SRET","EW_formal","","key","f","16.653853211009345","799.9999682108573","445.8333156175091","自己","刚正","Positive","morality","","","","","","","","","",""
"664","","j","psychophysics","75","653336","0.0-7.0-3.0-0.61","7","6","5","7","5","4","5","5","4","5","4","-1","-3","1","0","2","1","0","0","5","4","5","4","4","2","5","2","4","5","7","7","9","8","7","9","6","8","7","5","5","6","5","7","5","6","6","5","6","7","5","2","7","5","5","7","6","6","7","3","7","2","5","5","6","7","6","5","7","6","5","7","2","5","6","7","7","5","6","634787525419859968","刘","524","Male","[""坏他"",""坏我"",""好我"",""好他""]","[""弱他"",""弱我"",""强我"",""强他""]","","","","","","","","no","","","","","","","","","SRET","EW_formal","","key","j","16.65297979797881","799.9999682108573","445.8333156175091","朋友","自私","Negative","morality","","","","","","","","","",""
"1163","","f","psychophysics","76","655502","0.0-7.0-3.0-0.62","7","6","5","7","5","4","5","5","4","5","4","-1","-3","1","0","2","1","0","0","5","4","5","4","4","2","5","2","4","5","7","7","9","8","7","9","6","8","7","5","5","6","5","7","5","6","6","5","6","7","5","2","7","5","5","7","6","6","7","3","7","2","5","5","6","7","6","5","7","6","5","7","2","5","6","7","7","5","6","634787525419859968","刘","524","Male","[""坏他"",""坏我"",""好我"",""好他""]","[""弱他"",""弱我"",""强我"",""强他""]","","","","","","","","yes","","","","","","","","","SRET","EW_formal","","key","f","16.653046511628038","799.9999682108573","445.8333156175091","朋友","仁爱","Positive","morality","","","","","","","","","",""
"1133","","j","psychophysics","77","657637","0.0-7.0-3.0-0.63","7","6","5","7","5","4","5","5","4","5","4","-1","-3","1","0","2","1","0","0","5","4","5","4","4","2","5","2","4","5","7","7","9","8","7","9","6","8","7","5","5","6","5","7","5","6","6","5","6","7","5","2","7","5","5","7","6","6","7","3","7","2","5","5","6","7","6","5","7","6","5","7","2","5","6","7","7","5","6","634787525419859968","刘","524","Male","[""坏他"",""坏我"",""好我"",""好他""]","[""弱他"",""弱我"",""强我"",""强他""]","","","","","","","","no","","","","","","","","","SRET","EW_formal","","key","j","16.653322834646197","799.9999682108573","445.8333156175091","朋友","新手","Negative","ability","","","","","","","","","",""
"773","","f","psychophysics","78","659413","0.0-7.0-3.0-0.64","7","6","5","7","5","4","5","5","4","5","4","-1","-3","1","0","2","1","0","0","5","4","5","4","4","2","5","2","4","5","7","7","9","8","7","9","6","8","7","5","5","6","5","7","5","6","6","5","6","7","5","2","7","5","5","7","6","6","7","3","7","2","5","5","6","7","6","5","7","6","5","7","2","5","6","7","7","5","6","634787525419859968","刘","524","Male","[""坏他"",""坏我"",""好我"",""好他""]","[""弱他"",""弱我"",""强我"",""强他""]","","","","","","","","yes","","","","","","","","","SRET","EW_formal","","key","f","16.65307547169834","799.9999682108573","445.8333156175091","自己","干练","Positive","ability","","","","","","","","","",""
"841","","f","psychophysics","79","661256","0.0-7.0-3.0-0.65","7","6","5","7","5","4","5","5","4","5","4","-1","-3","1","0","2","1","0","0","5","4","5","4","4","2","5","2","4","5","7","7","9","8","7","9","6","8","7","5","5","6","5","7","5","6","6","5","6","7","5","2","7","5","5","7","6","6","7","3","7","2","5","5","6","7","6","5","7","6","5","7","2","5","6","7","7","5","6","634787525419859968","刘","524","Male","[""坏他"",""坏我"",""好我"",""好他""]","[""弱他"",""弱我"",""强我"",""强他""]","","","","","","","","yes","","","","","","","","","SRET","EW_formal","","key","f","16.653376146788933","799.9999682108573","445.8333156175091","朋友","依靠","Negative","ability","","","","","","","","","",""
"654","","j","psychophysics","80","662912","0.0-7.0-3.0-0.66","7","6","5","7","5","4","5","5","4","5","4","-1","-3","1","0","2","1","0","0","5","4","5","4","4","2","5","2","4","5","7","7","9","8","7","9","6","8","7","5","5","6","5","7","5","6","6","5","6","7","5","2","7","5","5","7","6","6","7","3","7","2","5","5","6","7","6","5","7","6","5","7","2","5","6","7","7","5","6","634787525419859968","刘","524","Male","[""坏他"",""坏我"",""好我"",""好他""]","[""弱他"",""弱我"",""强我"",""强他""]","","","","","","","","no","","","","","","","","","SRET","EW_formal","","key","j","16.653030303030537","799.9999682108573","445.8333156175091","自己","浅薄","Negative","ability","","","","","","","","","",""
"645","","j","psychophysics","81","664560","0.0-7.0-3.0-0.67","7","6","5","7","5","4","5","5","4","5","4","-1","-3","1","0","2","1","0","0","5","4","5","4","4","2","5","2","4","5","7","7","9","8","7","9","6","8","7","5","5","6","5","7","5","6","6","5","6","7","5","2","7","5","5","7","6","6","7","3","7","2","5","5","6","7","6","5","7","6","5","7","2","5","6","7","7","5","6","634787525419859968","刘","524","Male","[""坏他"",""坏我"",""好我"",""好他""]","[""弱他"",""弱我"",""强我"",""强他""]","","","","","","","","no","","","","","","","","","SRET","EW_formal","","key","j","16.652244897959612","799.9999682108573","445.8333156175091","朋友","诡诈","Negative","morality","","","","","","","","","",""
"637","","j","psychophysics","82","666198","0.0-7.0-3.0-0.68","7","6","5","7","5","4","5","5","4","5","4","-1","-3","1","0","2","1","0","0","5","4","5","4","4","2","5","2","4","5","7","7","9","8","7","9","6","8","7","5","5","6","5","7","5","6","6","5","6","7","5","2","7","5","5","7","6","6","7","3","7","2","5","5","6","7","6","5","7","6","5","7","2","5","6","7","7","5","6","634787525419859968","刘","524","Male","[""坏他"",""坏我"",""好我"",""好他""]","[""弱他"",""弱我"",""强我"",""强他""]","","","","","","","","no","","","","","","","","","SRET","EW_formal","","key","j","16.652927835051873","799.9999682108573","445.8333156175091","自己","刻薄","Negative","morality","","","","","","","","","",""
"1202","","j","psychophysics","83","668402","0.0-7.0-3.0-0.69","7","6","5","7","5","4","5","5","4","5","4","-1","-3","1","0","2","1","0","0","5","4","5","4","4","2","5","2","4","5","7","7","9","8","7","9","6","8","7","5","5","6","5","7","5","6","6","5","6","7","5","2","7","5","5","7","6","6","7","3","7","2","5","5","6","7","6","5","7","6","5","7","2","5","6","7","7","5","6","634787525419859968","刘","524","Male","[""坏他"",""坏我"",""好我"",""好他""]","[""弱他"",""弱我"",""强我"",""强他""]","","","","","","","","no","","","","","","","","","SRET","EW_formal","","key","j","16.653190839694428","799.9999682108573","445.8333156175091","自己","腐败","Negative","morality","","","","","","","","","",""
"623","","j","psychophysics","84","670026","0.0-7.0-3.0-0.70","7","6","5","7","5","4","5","5","4","5","4","-1","-3","1","0","2","1","0","0","5","4","5","4","4","2","5","2","4","5","7","7","9","8","7","9","6","8","7","5","5","6","5","7","5","6","6","5","6","7","5","2","7","5","5","7","6","6","7","3","7","2","5","5","6","7","6","5","7","6","5","7","2","5","6","7","7","5","6","634787525419859968","刘","524","Male","[""坏他"",""坏我"",""好我"",""好他""]","[""弱他"",""弱我"",""强我"",""强他""]","","","","","","","","no","","","","","","","","","SRET","EW_formal","","key","j","16.653010309277793","799.9999682108573","445.8333156175091","朋友","淫乱","Negative","morality","","","","","","","","","",""
"1305","","f","psychophysics","85","672334","0.0-7.0-3.0-0.71","7","6","5","7","5","4","5","5","4","5","4","-1","-3","1","0","2","1","0","0","5","4","5","4","4","2","5","2","4","5","7","7","9","8","7","9","6","8","7","5","5","6","5","7","5","6","6","5","6","7","5","2","7","5","5","7","6","6","7","3","7","2","5","5","6","7","6","5","7","6","5","7","2","5","6","7","7","5","6","634787525419859968","刘","524","Male","[""坏他"",""坏我"",""好我"",""好他""]","[""弱他"",""弱我"",""强我"",""强他""]","","","","","","","","yes","","","","","","","","","SRET","EW_formal","","key","f","16.653478260869935","799.9999682108573","445.8333156175091","朋友","远见","Positive","ability","","","","","","","","","",""
"620","","j","psychophysics","86","673956","0.0-7.0-3.0-0.72","7","6","5","7","5","4","5","5","4","5","4","-1","-3","1","0","2","1","0","0","5","4","5","4","4","2","5","2","4","5","7","7","9","8","7","9","6","8","7","5","5","6","5","7","5","6","6","5","6","7","5","2","7","5","5","7","6","6","7","3","7","2","5","5","6","7","6","5","7","6","5","7","2","5","6","7","7","5","6","634787525419859968","刘","524","Male","[""坏他"",""坏我"",""好我"",""好他""]","[""弱他"",""弱我"",""强我"",""强他""]","","","","","","","","no","","","","","","","","","SRET","EW_formal","","key","j","16.652770833333005","799.9999682108573","445.8333156175091","自己","小人","Negative","morality","","","","","","","","","",""
"611","","f","psychophysics","87","675569","0.0-7.0-3.0-0.73","7","6","5","7","5","4","5","5","4","5","4","-1","-3","1","0","2","1","0","0","5","4","5","4","4","2","5","2","4","5","7","7","9","8","7","9","6","8","7","5","5","6","5","7","5","6","6","5","6","7","5","2","7","5","5","7","6","6","7","3","7","2","5","5","6","7","6","5","7","6","5","7","2","5","6","7","7","5","6","634787525419859968","刘","524","Male","[""坏他"",""坏我"",""好我"",""好他""]","[""弱他"",""弱我"",""强我"",""强他""]","","","","","","","","yes","","","","","","","","","SRET","EW_formal","","key","f","16.653708333333878","799.9999682108573","445.8333156175091","自己","有力","Positive","ability","","","","","","","","","",""
"673","","f","psychophysics","88","677244","0.0-7.0-3.0-0.74","7","6","5","7","5","4","5","5","4","5","4","-1","-3","1","0","2","1","0","0","5","4","5","4","4","2","5","2","4","5","7","7","9","8","7","9","6","8","7","5","5","6","5","7","5","6","6","5","6","7","5","2","7","5","5","7","6","6","7","3","7","2","5","5","6","7","6","5","7","6","5","7","2","5","6","7","7","5","6","634787525419859968","刘","524","Male","[""坏他"",""坏我"",""好我"",""好他""]","[""弱他"",""弱我"",""强我"",""强他""]","","","","","","","","yes","","","","","","","","","SRET","EW_formal","","key","f","16.653171717171613","799.9999682108573","445.8333156175091","自己","文明","Positive","morality","","","","","","","","","",""
"618","","j","psychophysics","89","678864","0.0-7.0-3.0-0.75","7","6","5","7","5","4","5","5","4","5","4","-1","-3","1","0","2","1","0","0","5","4","5","4","4","2","5","2","4","5","7","7","9","8","7","9","6","8","7","5","5","6","5","7","5","6","6","5","6","7","5","2","7","5","5","7","6","6","7","3","7","2","5","5","6","7","6","5","7","6","5","7","2","5","6","7","7","5","6","634787525419859968","刘","524","Male","[""坏他"",""坏我"",""好我"",""好他""]","[""弱他"",""弱我"",""强我"",""强他""]","","","","","","","","no","","","","","","","","","SRET","EW_formal","","key","j","16.652298969072625","799.9999682108573","445.8333156175091","自己","拙笨","Negative","ability","","","","","","","","","",""
"719","","f","psychophysics","90","680584","0.0-7.0-3.0-0.76","7","6","5","7","5","4","5","5","4","5","4","-1","-3","1","0","2","1","0","0","5","4","5","4","4","2","5","2","4","5","7","7","9","8","7","9","6","8","7","5","5","6","5","7","5","6","6","5","6","7","5","2","7","5","5","7","6","6","7","3","7","2","5","5","6","7","6","5","7","6","5","7","2","5","6","7","7","5","6","634787525419859968","刘","524","Male","[""坏他"",""坏我"",""好我"",""好他""]","[""弱他"",""弱我"",""强我"",""强他""]","","","","","","","","yes","","","","","","","","","SRET","EW_formal","","key","f","16.98600000000093","799.9999682108573","445.8333156175091","朋友","勤奋","Positive","ability","","","","","","","","","",""
"780","","f","psychophysics","91","682366","0.0-7.0-3.0-0.77","7","6","5","7","5","4","5","5","4","5","4","-1","-3","1","0","2","1","0","0","5","4","5","4","4","2","5","2","4","5","7","7","9","8","7","9","6","8","7","5","5","6","5","7","5","6","6","5","6","7","5","2","7","5","5","7","6","6","7","3","7","2","5","5","6","7","6","5","7","6","5","7","2","5","6","7","7","5","6","634787525419859968","刘","524","Male","[""坏他"",""坏我"",""好我"",""好他""]","[""弱他"",""弱我"",""强我"",""强他""]","","","","","","","","yes","","","","","","","","","SRET","EW_formal","","key","f","16.65316981132107","799.9999682108573","445.8333156175091","朋友","稳健","Positive","ability","","","","","","","","","",""
"595","","j","psychophysics","92","683962","0.0-7.0-3.0-0.78","7","6","5","7","5","4","5","5","4","5","4","-1","-3","1","0","2","1","0","0","5","4","5","4","4","2","5","2","4","5","7","7","9","8","7","9","6","8","7","5","5","6","5","7","5","6","6","5","6","7","5","2","7","5","5","7","6","6","7","3","7","2","5","5","6","7","6","5","7","6","5","7","2","5","6","7","7","5","6","634787525419859968","刘","524","Male","[""坏他"",""坏我"",""好我"",""好他""]","[""弱他"",""弱我"",""强我"",""强他""]","","","","","","","","no","","","","","","","","","SRET","EW_formal","","key","j","16.653305263158032","799.9999682108573","445.8333156175091","朋友","不孝","Negative","morality","","","","","","","","","",""
"716","","j","psychophysics","93","685680","0.0-7.0-3.0-0.79","7","6","5","7","5","4","5","5","4","5","4","-1","-3","1","0","2","1","0","0","5","4","5","4","4","2","5","2","4","5","7","7","9","8","7","9","6","8","7","5","5","6","5","7","5","6","6","5","6","7","5","2","7","5","5","7","6","6","7","3","7","2","5","5","6","7","6","5","7","6","5","7","2","5","6","7","7","5","6","634787525419859968","刘","524","Male","[""坏他"",""坏我"",""好我"",""好他""]","[""弱他"",""弱我"",""强我"",""强他""]","","","","","","","","no","","","","","","","","","SRET","EW_formal","","key","j","16.65299019607939","799.9999682108573","445.8333156175091","朋友","偏私","Negative","morality","","","","","","","","","",""
"832","","f","psychophysics","94","687513","0.0-7.0-3.0-0.80","7","6","5","7","5","4","5","5","4","5","4","-1","-3","1","0","2","1","0","0","5","4","5","4","4","2","5","2","4","5","7","7","9","8","7","9","6","8","7","5","5","6","5","7","5","6","6","5","6","7","5","2","7","5","5","7","6","6","7","3","7","2","5","5","6","7","6","5","7","6","5","7","2","5","6","7","7","5","6","634787525419859968","刘","524","Male","[""坏他"",""坏我"",""好我"",""好他""]","[""弱他"",""弱我"",""强我"",""强他""]","","","","","","","","yes","","","","","","","","","SRET","EW_formal","","key","f","16.65311926605453","799.9999682108573","445.8333156175091","自己","自律","Positive","ability","","","","","","","","","",""
"641","","j","psychophysics","95","689156","0.0-7.0-3.0-0.81","7","6","5","7","5","4","5","5","4","5","4","-1","-3","1","0","2","1","0","0","5","4","5","4","4","2","5","2","4","5","7","7","9","8","7","9","6","8","7","5","5","6","5","7","5","6","6","5","6","7","5","2","7","5","5","7","6","6","7","3","7","2","5","5","6","7","6","5","7","6","5","7","2","5","6","7","7","5","6","634787525419859968","刘","524","Male","[""坏他"",""坏我"",""好我"",""好他""]","[""弱他"",""弱我"",""强我"",""强他""]","","","","","","","","no","","","","","","","","","SRET","EW_formal","","key","j","16.653346938776014","799.9999682108573","445.8333156175091","自己","虚伪","Negative","morality","","","","","","","","","",""
"1370","","f","psychophysics","96","691528","0.0-7.0-3.0-0.82","7","6","5","7","5","4","5","5","4","5","4","-1","-3","1","0","2","1","0","0","5","4","5","4","4","2","5","2","4","5","7","7","9","8","7","9","6","8","7","5","5","6","5","7","5","6","6","5","6","7","5","2","7","5","5","7","6","6","7","3","7","2","5","5","6","7","6","5","7","6","5","7","2","5","6","7","7","5","6","634787525419859968","刘","524","Male","[""坏他"",""坏我"",""好我"",""好他""]","[""弱他"",""弱我"",""强我"",""强他""]","","","","","","","","yes","","","","","","","","","SRET","EW_formal","","key","f","16.652765957446245","799.9999682108573","445.8333156175091","朋友","敏捷","Positive","ability","","","","","","","","","",""
"1067","","f","psychophysics","97","693597","0.0-7.0-3.0-0.83","7","6","5","7","5","4","5","5","4","5","4","-1","-3","1","0","2","1","0","0","5","4","5","4","4","2","5","2","4","5","7","7","9","8","7","9","6","8","7","5","5","6","5","7","5","6","6","5","6","7","5","2","7","5","5","7","6","6","7","3","7","2","5","5","6","7","6","5","7","6","5","7","2","5","6","7","7","5","6","634787525419859968","刘","524","Male","[""坏他"",""坏我"",""好我"",""好他""]","[""弱他"",""弱我"",""强我"",""强他""]","","","","","","","","yes","","","","","","","","","SRET","EW_formal","","key","f","16.652951219511916","799.9999682108573","445.8333156175091","自己","骁勇","Positive","ability","","","","","","","","","",""
"769","","f","psychophysics","98","695367","0.0-7.0-3.0-0.84","7","6","5","7","5","4","5","5","4","5","4","-1","-3","1","0","2","1","0","0","5","4","5","4","4","2","5","2","4","5","7","7","9","8","7","9","6","8","7","5","5","6","5","7","5","6","6","5","6","7","5","2","7","5","5","7","6","6","7","3","7","2","5","5","6","7","6","5","7","6","5","7","2","5","6","7","7","5","6","634787525419859968","刘","524","Male","[""坏他"",""坏我"",""好我"",""好他""]","[""弱他"",""弱我"",""强我"",""强他""]","","","","","","","","yes","","","","","","","","","SRET","EW_formal","","key","f","16.652971698113998","799.9999682108573","445.8333156175091","自己","主见","Positive","ability","","","","","","","","","",""
"801","","j","psychophysics","99","697169","0.0-7.0-3.0-0.85","7","6","5","7","5","4","5","5","4","5","4","-1","-3","1","0","2","1","0","0","5","4","5","4","4","2","5","2","4","5","7","7","9","8","7","9","6","8","7","5","5","6","5","7","5","6","6","5","6","7","5","2","7","5","5","7","6","6","7","3","7","2","5","5","6","7","6","5","7","6","5","7","2","5","6","7","7","5","6","634787525419859968","刘","524","Male","[""坏他"",""坏我"",""好我"",""好他""]","[""弱他"",""弱我"",""强我"",""强他""]","","","","","","","","no","","","","","","","","","SRET","EW_formal","","key","j","16.653411214953618","799.9999682108573","445.8333156175091","自己","缓慢","Negative","ability","","","","","","","","","",""
"813","","f","psychophysics","100","698983","0.0-7.0-3.0-0.86","7","6","5","7","5","4","5","5","4","5","4","-1","-3","1","0","2","1","0","0","5","4","5","4","4","2","5","2","4","5","7","7","9","8","7","9","6","8","7","5","5","6","5","7","5","6","6","5","6","7","5","2","7","5","5","7","6","6","7","3","7","2","5","5","6","7","6","5","7","6","5","7","2","5","6","7","7","5","6","634787525419859968","刘","524","Male","[""坏他"",""坏我"",""好我"",""好他""]","[""弱他"",""弱我"",""强我"",""强他""]","","","","","","","","yes","","","","","","","","","SRET","EW_formal","","key","f","16.653898148148546","799.9999682108573","445.8333156175091","朋友","素养","Positive","morality","","","","","","","","","",""
"645","","j","psychophysics","101","700630","0.0-7.0-3.0-0.87","7","6","5","7","5","4","5","5","4","5","4","-1","-3","1","0","2","1","0","0","5","4","5","4","4","2","5","2","4","5","7","7","9","8","7","9","6","8","7","5","5","6","5","7","5","6","6","5","6","7","5","2","7","5","5","7","6","6","7","3","7","2","5","5","6","7","6","5","7","6","5","7","2","5","6","7","7","5","6","634787525419859968","刘","524","Male","[""坏他"",""坏我"",""好我"",""好他""]","[""弱他"",""弱我"",""强我"",""强他""]","","","","","","","","no","","","","","","","","","SRET","EW_formal","","key","j","16.653448979592437","799.9999682108573","445.8333156175091","朋友","低俗","Negative","morality","","","","","","","","","",""
"23476","
    <p><div style='color:white;font-size:35px; line-height:20px;'>计算任务</div></p><br>
    <p><div style='color:red;font-size:25px; line-height:20px;'>接下来，您将看到一些四则运算题，<b>请从键盘选择 0-9 进行反应。</b></div></p>
    <p><div style='color:red;font-size:25px; line-height:20px;'>请尽可能快地进行计算，计算的速度和正确率将影响报酬的发放。</div></p>
    <p><div class='footer' style='color:white;font-size:25px; line-height:20px;'>如果对本实验还有不清楚之处，请立即向实验员咨询。</p><p style='color:white;font-size:25px; line-height:20px;'>如果您明白了规则：</p><p style='color:white;font-size:22px; line-height:20px;'>请按 继续 进入练习</p>
    </div>
    ","0","html-button-response","102","724108","0.0-7.0-4.0","7","6","5","7","5","4","5","5","4","5","4","-1","-3","1","0","2","1","0","0","5","4","5","4","4","2","5","2","4","5","7","7","9","8","7","9","6","8","7","5","5","6","5","7","5","6","6","5","6","7","5","2","7","5","5","7","6","6","7","3","7","2","5","5","6","7","6","5","7","6","5","7","2","5","6","7","7","5","6","634787525419859968","刘","524","Male","[""坏他"",""坏我"",""好我"",""好他""]","[""弱他"",""弱我"",""强我"",""强他""]","","","","","","","","","","","","","","","","","SRET_math","math_instructions","Thu Nov 16 2023 15:20:27 GMT+0800 (中国标准时间)","","","","","","","","","","","","","","","","","","",""
"2780","","3","psychophysics","103","726892","0.0-7.0-5.0-0.0","7","6","5","7","5","4","5","5","4","5","4","-1","-3","1","0","2","1","0","0","5","4","5","4","4","2","5","2","4","5","7","7","9","8","7","9","6","8","7","5","5","6","5","7","5","6","6","5","6","7","5","2","7","5","5","7","6","6","7","3","7","2","5","5","6","7","6","5","7","6","5","7","2","5","6","7","7","5","6","634787525419859968","刘","524","Male","[""坏他"",""坏我"",""好我"",""好他""]","[""弱他"",""弱我"",""强我"",""强他""]","","","","","","","","3","","","","","","","","","SRET","SRET_math_calculate","","key","3","16.652347305389455","799.9999682108573","445.8333156175091","","","","","1+2= ?","3","1","","","","","","",""
"4319","","9","psychophysics","104","731215","0.0-7.0-5.0-0.1","7","6","5","7","5","4","5","5","4","5","4","-1","-3","1","0","2","1","0","0","5","4","5","4","4","2","5","2","4","5","7","7","9","8","7","9","6","8","7","5","5","6","5","7","5","6","6","5","6","7","5","2","7","5","5","7","6","6","7","3","7","2","5","5","6","7","6","5","7","6","5","7","2","5","6","7","7","5","6","634787525419859968","刘","524","Male","[""坏他"",""坏我"",""好我"",""好他""]","[""弱他"",""弱我"",""强我"",""强他""]","","","","","","","","9","","","","","","","","","SRET","SRET_math_calculate","","key","9","16.653189922480795","799.9999682108573","445.8333156175091","","","","","5+4= ?","9","1","","","","","","",""
"4536","","8","psychophysics","105","735752","0.0-7.0-5.0-0.2","7","6","5","7","5","4","5","5","4","5","4","-1","-3","1","0","2","1","0","0","5","4","5","4","4","2","5","2","4","5","7","7","9","8","7","9","6","8","7","5","5","6","5","7","5","6","6","5","6","7","5","2","7","5","5","7","6","6","7","3","7","2","5","5","6","7","6","5","7","6","5","7","2","5","6","7","7","5","6","634787525419859968","刘","524","Male","[""坏他"",""坏我"",""好我"",""好他""]","[""弱他"",""弱我"",""强我"",""强他""]","","","","","","","","8","","","","","","","","","SRET","SRET_math_calculate","","key","8","16.653411764705893","799.9999682108573","445.8333156175091","","","","","11-3= ?","8","1","","","","","","",""
"3870","","7","psychophysics","106","739624","0.0-7.0-5.0-0.3","7","6","5","7","5","4","5","5","4","5","4","-1","-3","1","0","2","1","0","0","5","4","5","4","4","2","5","2","4","5","7","7","9","8","7","9","6","8","7","5","5","6","5","7","5","6","6","5","6","7","5","2","7","5","5","7","6","6","7","3","7","2","5","5","6","7","6","5","7","6","5","7","2","5","6","7","7","5","6","634787525419859968","刘","524","Male","[""坏他"",""坏我"",""好我"",""好他""]","[""弱他"",""弱我"",""强我"",""强他""]","","","","","","","","7","","","","","","","","","SRET","SRET_math_calculate","","key","7","16.653233766233754","799.9999682108573","445.8333156175091","","","","","13-6= ?","7","1","","","","","","",""
"2358","","4","psychophysics","107","741983","0.0-7.0-5.0-0.4","7","6","5","7","5","4","5","5","4","5","4","-1","-3","1","0","2","1","0","0","5","4","5","4","4","2","5","2","4","5","7","7","9","8","7","9","6","8","7","5","5","6","5","7","5","6","6","5","6","7","5","2","7","5","5","7","6","6","7","3","7","2","5","5","6","7","6","5","7","6","5","7","2","5","6","7","7","5","6","634787525419859968","刘","524","Male","[""坏他"",""坏我"",""好我"",""好他""]","[""弱他"",""弱我"",""强我"",""强他""]","","","","","","","","4","","","","","","","","","SRET","SRET_math_calculate","","key","4","16.653163120567516","799.9999682108573","445.8333156175091","","","","","2+2= ?","4","1","","","","","","",""
"5048","","9","psychophysics","108","747033","0.0-7.0-5.0-0.5","7","6","5","7","5","4","5","5","4","5","4","-1","-3","1","0","2","1","0","0","5","4","5","4","4","2","5","2","4","5","7","7","9","8","7","9","6","8","7","5","5","6","5","7","5","6","6","5","6","7","5","2","7","5","5","7","6","6","7","3","7","2","5","5","6","7","6","5","7","6","5","7","2","5","6","7","7","5","6","634787525419859968","刘","524","Male","[""坏他"",""坏我"",""好我"",""好他""]","[""弱他"",""弱我"",""强我"",""强他""]","","","","","","","","9","","","","","","","","","SRET","SRET_math_calculate","","key","9","16.653006622516504","799.9999682108573","445.8333156175091","","","","","18/2= ?","9","1","","","","","","",""
"6193","","9","psychophysics","109","753228","0.0-7.0-5.0-0.6","7","6","5","7","5","4","5","5","4","5","4","-1","-3","1","0","2","1","0","0","5","4","5","4","4","2","5","2","4","5","7","7","9","8","7","9","6","8","7","5","5","6","5","7","5","6","6","5","6","7","5","2","7","5","5","7","6","6","7","3","7","2","5","5","6","7","6","5","7","6","5","7","2","5","6","7","7","5","6","634787525419859968","刘","524","Male","[""坏他"",""坏我"",""好我"",""好他""]","[""弱他"",""弱我"",""强我"",""强他""]","","","","","","","","9","","","","","","","","","SRET","SRET_math_calculate","","key","9","16.652975741239775","799.9999682108573","445.8333156175091","","","","","43-34= ?","9","1","","","","","","",""
"4717","","9","psychophysics","110","757947","0.0-7.0-5.0-0.7","7","6","5","7","5","4","5","5","4","5","4","-1","-3","1","0","2","1","0","0","5","4","5","4","4","2","5","2","4","5","7","7","9","8","7","9","6","8","7","5","5","6","5","7","5","6","6","5","6","7","5","2","7","5","5","7","6","6","7","3","7","2","5","5","6","7","6","5","7","6","5","7","2","5","6","7","7","5","6","634787525419859968","刘","524","Male","[""坏他"",""坏我"",""好我"",""好他""]","[""弱他"",""弱我"",""强我"",""强他""]","","","","","","","","9","","","","","","","","","SRET","SRET_math_calculate","","key","9","16.652943462897717","799.9999682108573","445.8333156175091","","","","","5*0= ?","0","0","","","","","","",""
"4716","","1","psychophysics","111","762667","0.0-7.0-5.0-0.8","7","6","5","7","5","4","5","5","4","5","4","-1","-3","1","0","2","1","0","0","5","4","5","4","4","2","5","2","4","5","7","7","9","8","7","9","6","8","7","5","5","6","5","7","5","6","6","5","6","7","5","2","7","5","5","7","6","6","7","3","7","2","5","5","6","7","6","5","7","6","5","7","2","5","6","7","7","5","6","634787525419859968","刘","524","Male","[""坏他"",""坏我"",""好我"",""好他""]","[""弱他"",""弱我"",""强我"",""强他""]","","","","","","","","1","","","","","","","","","SRET","SRET_math_calculate","","key","1","16.652936170212445","799.9999682108573","445.8333156175091","","","","","4/4= ?","1","1","","","","","","",""
"3744","","6","psychophysics","112","766413","0.0-7.0-5.0-0.9","7","6","5","7","5","4","5","5","4","5","4","-1","-3","1","0","2","1","0","0","5","4","5","4","4","2","5","2","4","5","7","7","9","8","7","9","6","8","7","5","5","6","5","7","5","6","6","5","6","7","5","2","7","5","5","7","6","6","7","3","7","2","5","5","6","7","6","5","7","6","5","7","2","5","6","7","7","5","6","634787525419859968","刘","524","Male","[""坏他"",""坏我"",""好我"",""好他""]","[""弱他"",""弱我"",""强我"",""强他""]","","","","","","","","6","","","","","","","","","SRET","SRET_math_calculate","","key","6","16.65336160714287","799.9999682108573","445.8333156175091","","","","","2+4= ?","6","1","","","","","","",""
"4877","","9","psychophysics","113","771291","0.0-7.0-5.0-0.10","7","6","5","7","5","4","5","5","4","5","4","-1","-3","1","0","2","1","0","0","5","4","5","4","4","2","5","2","4","5","7","7","9","8","7","9","6","8","7","5","5","6","5","7","5","6","6","5","6","7","5","2","7","5","5","7","6","6","7","3","7","2","5","5","6","7","6","5","7","6","5","7","2","5","6","7","7","5","6","634787525419859968","刘","524","Male","[""坏他"",""坏我"",""好我"",""好他""]","[""弱他"",""弱我"",""强我"",""强他""]","","","","","","","","9","","","","","","","","","SRET","SRET_math_calculate","","key","9","16.652999999999924","799.9999682108573","445.8333156175091","","","","","3+6= ?","9","1","","","","","","",""
"2330","","8","psychophysics","114","773622","0.0-7.0-5.0-0.11","7","6","5","7","5","4","5","5","4","5","4","-1","-3","1","0","2","1","0","0","5","4","5","4","4","2","5","2","4","5","7","7","9","8","7","9","6","8","7","5","5","6","5","7","5","6","6","5","6","7","5","2","7","5","5","7","6","6","7","3","7","2","5","5","6","7","6","5","7","6","5","7","2","5","6","7","7","5","6","634787525419859968","刘","524","Male","[""坏他"",""坏我"",""好我"",""好他""]","[""弱他"",""弱我"",""强我"",""强他""]","","","","","","","","8","","","","","","","","","SRET","SRET_math_calculate","","key","8","16.652784172662454","799.9999682108573","445.8333156175091","","","","","9-1= ?","8","1","","","","","","",""
"5746","","6","psychophysics","115","779370","0.0-7.0-5.0-0.12","7","6","5","7","5","4","5","5","4","5","4","-1","-3","1","0","2","1","0","0","5","4","5","4","4","2","5","2","4","5","7","7","9","8","7","9","6","8","7","5","5","6","5","7","5","6","6","5","6","7","5","2","7","5","5","7","6","6","7","3","7","2","5","5","6","7","6","5","7","6","5","7","2","5","6","7","7","5","6","634787525419859968","刘","524","Male","[""坏他"",""坏我"",""好我"",""好他""]","[""弱他"",""弱我"",""强我"",""强他""]","","","","","","","","6","","","","","","","","","SRET","SRET_math_calculate","","key","6","16.65295930232563","799.9999682108573","445.8333156175091","","","","","11-5= ?","6","1","","","","","","",""
"4999","","9","psychophysics","116","784371","0.0-7.0-5.0-0.13","7","6","5","7","5","4","5","5","4","5","4","-1","-3","1","0","2","1","0","0","5","4","5","4","4","2","5","2","4","5","7","7","9","8","7","9","6","8","7","5","5","6","5","7","5","6","6","5","6","7","5","2","7","5","5","7","6","6","7","3","7","2","5","5","6","7","6","5","7","6","5","7","2","5","6","7","7","5","6","634787525419859968","刘","524","Male","[""坏他"",""坏我"",""好我"",""好他""]","[""弱他"",""弱我"",""强我"",""强他""]","","","","","","","","9","","","","","","","","","SRET","SRET_math_calculate","","key","9","16.653204013377795","799.9999682108573","445.8333156175091","","","","","2+7= ?","9","1","","","","","","",""
"2485","","5","psychophysics","117","786857","0.0-7.0-5.0-0.14","7","6","5","7","5","4","5","5","4","5","4","-1","-3","1","0","2","1","0","0","5","4","5","4","4","2","5","2","4","5","7","7","9","8","7","9","6","8","7","5","5","6","5","7","5","6","6","5","6","7","5","2","7","5","5","7","6","6","7","3","7","2","5","5","6","7","6","5","7","6","5","7","2","5","6","7","7","5","6","634787525419859968","刘","524","Male","[""坏他"",""坏我"",""好我"",""好他""]","[""弱他"",""弱我"",""强我"",""强他""]","","","","","","","","5","","","","","","","","","SRET","SRET_math_calculate","","key","5","16.653389261745623","799.9999682108573","445.8333156175091","","","","","4+1= ?","5","1","","","","","","",""
"4274","","3","psychophysics","118","791135","0.0-7.0-5.0-0.15","7","6","5","7","5","4","5","5","4","5","4","-1","-3","1","0","2","1","0","0","5","4","5","4","4","2","5","2","4","5","7","7","9","8","7","9","6","8","7","5","5","6","5","7","5","6","6","5","6","7","5","2","7","5","5","7","6","6","7","3","7","2","5","5","6","7","6","5","7","6","5","7","2","5","6","7","7","5","6","634787525419859968","刘","524","Male","[""坏他"",""坏我"",""好我"",""好他""]","[""弱他"",""弱我"",""强我"",""强他""]","","","","","","","","3","","","","","","","","","SRET","SRET_math_calculate","","key","3","16.652749019607846","799.9999682108573","445.8333156175091","","","","","11-8= ?","3","1","","","","","","",""
"3038","","0","psychophysics","119","794176","0.0-7.0-5.0-0.16","7","6","5","7","5","4","5","5","4","5","4","-1","-3","1","0","2","1","0","0","5","4","5","4","4","2","5","2","4","5","7","7","9","8","7","9","6","8","7","5","5","6","5","7","5","6","6","5","6","7","5","2","7","5","5","7","6","6","7","3","7","2","5","5","6","7","6","5","7","6","5","7","2","5","6","7","7","5","6","634787525419859968","刘","524","Male","[""坏他"",""坏我"",""好我"",""好他""]","[""弱他"",""弱我"",""强我"",""强他""]","","","","","","","","0","","","","","","","","","SRET","SRET_math_calculate","","key","0","16.65292307692337","799.9999682108573","445.8333156175091","","","","","7*0= ?","0","1","","","","","","",""
"5925","","7","psychophysics","120","800103","0.0-7.0-5.0-0.17","7","6","5","7","5","4","5","5","4","5","4","-1","-3","1","0","2","1","0","0","5","4","5","4","4","2","5","2","4","5","7","7","9","8","7","9","6","8","7","5","5","6","5","7","5","6","6","5","6","7","5","2","7","5","5","7","6","6","7","3","7","2","5","5","6","7","6","5","7","6","5","7","2","5","6","7","7","5","6","634787525419859968","刘","524","Male","[""坏他"",""坏我"",""好我"",""好他""]","[""弱他"",""弱我"",""强我"",""强他""]","","","","","","","","7","","","","","","","","","SRET","SRET_math_calculate","","key","7","16.653222535211185","799.9999682108573","445.8333156175091","","","","","49/7 = ?","7","1","","","","","","",""
"2427","","9","psychophysics","121","802532","0.0-7.0-5.0-0.18","7","6","5","7","5","4","5","5","4","5","4","-1","-3","1","0","2","1","0","0","5","4","5","4","4","2","5","2","4","5","7","7","9","8","7","9","6","8","7","5","5","6","5","7","5","6","6","5","6","7","5","2","7","5","5","7","6","6","7","3","7","2","5","5","6","7","6","5","7","6","5","7","2","5","6","7","7","5","6","634787525419859968","刘","524","Male","[""坏他"",""坏我"",""好我"",""好他""]","[""弱他"",""弱我"",""强我"",""强他""]","","","","","","","","9","","","","","","","","","SRET","SRET_math_calculate","","key","9","16.65312413793089","799.9999682108573","445.8333156175091","","","","","1+8= ?","9","1","","","","","","",""
"2290","","2","psychophysics","122","804824","0.0-7.0-5.0-0.19","7","6","5","7","5","4","5","5","4","5","4","-1","-3","1","0","2","1","0","0","5","4","5","4","4","2","5","2","4","5","7","7","9","8","7","9","6","8","7","5","5","6","5","7","5","6","6","5","6","7","5","2","7","5","5","7","6","6","7","3","7","2","5","5","6","7","6","5","7","6","5","7","2","5","6","7","7","5","6","634787525419859968","刘","524","Male","[""坏他"",""坏我"",""好我"",""好他""]","[""弱他"",""弱我"",""强我"",""强他""]","","","","","","","","2","","","","","","","","","SRET","SRET_math_calculate","","key","2","16.653816176470546","799.9999682108573","445.8333156175091","","","","","1+1= ?","2","1","","","","","","",""
"2235","","9","psychophysics","123","807064","0.0-7.0-5.0-0.20","7","6","5","7","5","4","5","5","4","5","4","-1","-3","1","0","2","1","0","0","5","4","5","4","4","2","5","2","4","5","7","7","9","8","7","9","6","8","7","5","5","6","5","7","5","6","6","5","6","7","5","2","7","5","5","7","6","6","7","3","7","2","5","5","6","7","6","5","7","6","5","7","2","5","6","7","7","5","6","634787525419859968","刘","524","Male","[""坏他"",""坏我"",""好我"",""好他""]","[""弱他"",""弱我"",""强我"",""强他""]","","","","","","","","9","","","","","","","","","SRET","SRET_math_calculate","","key","9","16.653201492537168","799.9999682108573","445.8333156175091","","","","","1+8= ?","9","1","","","","","","",""
"4021","","7","psychophysics","124","811087","0.0-7.0-5.0-0.21","7","6","5","7","5","4","5","5","4","5","4","-1","-3","1","0","2","1","0","0","5","4","5","4","4","2","5","2","4","5","7","7","9","8","7","9","6","8","7","5","5","6","5","7","5","6","6","5","6","7","5","2","7","5","5","7","6","6","7","3","7","2","5","5","6","7","6","5","7","6","5","7","2","5","6","7","7","5","6","634787525419859968","刘","524","Male","[""坏他"",""坏我"",""好我"",""好他""]","[""弱他"",""弱我"",""强我"",""强他""]","","","","","","","","7","","","","","","","","","SRET","SRET_math_calculate","","key","7","16.653539419086762","799.9999682108573","445.8333156175091","","","","","3+4= ?","7","1","","","","","","",""
"5004","","9","psychophysics","125","816094","0.0-7.0-5.0-0.22","7","6","5","7","5","4","5","5","4","5","4","-1","-3","1","0","2","1","0","0","5","4","5","4","4","2","5","2","4","5","7","7","9","8","7","9","6","8","7","5","5","6","5","7","5","6","6","5","6","7","5","2","7","5","5","7","6","6","7","3","7","2","5","5","6","7","6","5","7","6","5","7","2","5","6","7","7","5","6","634787525419859968","刘","524","Male","[""坏他"",""坏我"",""好我"",""好他""]","[""弱他"",""弱我"",""强我"",""强他""]","","","","","","","","9","","","","","","","","","SRET","SRET_math_calculate","","key","9","16.65307357859561","799.9999682108573","445.8333156175091","","","","","6+3= ?","9","1","","","","","","",""
"5069","","8","psychophysics","126","821165","0.0-7.0-5.0-0.23","7","6","5","7","5","4","5","5","4","5","4","-1","-3","1","0","2","1","0","0","5","4","5","4","4","2","5","2","4","5","7","7","9","8","7","9","6","8","7","5","5","6","5","7","5","6","6","5","6","7","5","2","7","5","5","7","6","6","7","3","7","2","5","5","6","7","6","5","7","6","5","7","2","5","6","7","7","5","6","634787525419859968","刘","524","Male","[""坏他"",""坏我"",""好我"",""好他""]","[""弱他"",""弱我"",""强我"",""强他""]","","","","","","","","8","","","","","","","","","SRET","SRET_math_calculate","","key","8","16.653217105263472","799.9999682108573","445.8333156175091","","","","","56/7= ?","8","1","","","","","","",""
"4928","","2","psychophysics","127","826094","0.0-7.0-5.0-0.24","7","6","5","7","5","4","5","5","4","5","4","-1","-3","1","0","2","1","0","0","5","4","5","4","4","2","5","2","4","5","7","7","9","8","7","9","6","8","7","5","5","6","5","7","5","6","6","5","6","7","5","2","7","5","5","7","6","6","7","3","7","2","5","5","6","7","6","5","7","6","5","7","2","5","6","7","7","5","6","634787525419859968","刘","524","Male","[""坏他"",""坏我"",""好我"",""好他""]","[""弱他"",""弱我"",""强我"",""强他""]","","","","","","","","2","","","","","","","","","SRET","SRET_math_calculate","","key","2","16.653122033898214","799.9999682108573","445.8333156175091","","","","","18/9= ?","2","1","","","","","","",""
"9790","","2","psychophysics","128","835886","0.0-7.0-5.0-0.25","7","6","5","7","5","4","5","5","4","5","4","-1","-3","1","0","2","1","0","0","5","4","5","4","4","2","5","2","4","5","7","7","9","8","7","9","6","8","7","5","5","6","5","7","5","6","6","5","6","7","5","2","7","5","5","7","6","6","7","3","7","2","5","5","6","7","6","5","7","6","5","7","2","5","6","7","7","5","6","634787525419859968","刘","524","Male","[""坏他"",""坏我"",""好我"",""好他""]","[""弱他"",""弱我"",""强我"",""强他""]","","","","","","","","2","","","","","","","","","SRET","SRET_math_calculate","","key","2","16.653034071550266","799.9999682108573","445.8333156175091","","","","","19-17= ?","2","1","","","","","","",""
"3904","","2","psychophysics","129","839791","0.0-7.0-5.0-0.26","7","6","5","7","5","4","5","5","4","5","4","-1","-3","1","0","2","1","0","0","5","4","5","4","4","2","5","2","4","5","7","7","9","8","7","9","6","8","7","5","5","6","5","7","5","6","6","5","6","7","5","2","7","5","5","7","6","6","7","3","7","2","5","5","6","7","6","5","7","6","5","7","2","5","6","7","7","5","6","634787525419859968","刘","524","Male","[""坏他"",""坏我"",""好我"",""好他""]","[""弱他"",""弱我"",""强我"",""强他""]","","","","","","","","2","","","","","","","","","SRET","SRET_math_calculate","","key","2","16.65293991416313","799.9999682108573","445.8333156175091","","","","","8-6= ?","2","1","","","","","","",""
"2529","","0","psychophysics","130","842322","0.0-7.0-5.0-0.27","7","6","5","7","5","4","5","5","4","5","4","-1","-3","1","0","2","1","0","0","5","4","5","4","4","2","5","2","4","5","7","7","9","8","7","9","6","8","7","5","5","6","5","7","5","6","6","5","6","7","5","2","7","5","5","7","6","6","7","3","7","2","5","5","6","7","6","5","7","6","5","7","2","5","6","7","7","5","6","634787525419859968","刘","524","Male","[""坏他"",""坏我"",""好我"",""好他""]","[""弱他"",""弱我"",""强我"",""强他""]","","","","","","","","0","","","","","","","","","SRET","SRET_math_calculate","","key","0","16.653397350993767","799.9999682108573","445.8333156175091","","","","","22-22= ?","0","1","","","","","","",""
"4406","","7","psychophysics","131","846730","0.0-7.0-5.0-0.28","7","6","5","7","5","4","5","5","4","5","4","-1","-3","1","0","2","1","0","0","5","4","5","4","4","2","5","2","4","5","7","7","9","8","7","9","6","8","7","5","5","6","5","7","5","6","6","5","6","7","5","2","7","5","5","7","6","6","7","3","7","2","5","5","6","7","6","5","7","6","5","7","2","5","6","7","7","5","6","634787525419859968","刘","524","Male","[""坏他"",""坏我"",""好我"",""好他""]","[""弱他"",""弱我"",""强我"",""强他""]","","","","","","","","7","","","","","","","","","SRET","SRET_math_calculate","","key","7","16.653246212121413","799.9999682108573","445.8333156175091","","","","","11-4= ?","7","1","","","","","","",""
"5236","","2","psychophysics","132","851968","0.0-7.0-5.0-0.29","7","6","5","7","5","4","5","5","4","5","4","-1","-3","1","0","2","1","0","0","5","4","5","4","4","2","5","2","4","5","7","7","9","8","7","9","6","8","7","5","5","6","5","7","5","6","6","5","6","7","5","2","7","5","5","7","6","6","7","3","7","2","5","5","6","7","6","5","7","6","5","7","2","5","6","7","7","5","6","634787525419859968","刘","524","Male","[""坏他"",""坏我"",""好我"",""好他""]","[""弱他"",""弱我"",""强我"",""强他""]","","","","","","","","2","","","","","","","","","SRET","SRET_math_calculate","","key","2","16.653210862620046","799.9999682108573","445.8333156175091","","","","","22/11= ?","2","1","","","","","","",""
"4786","","9","psychophysics","133","856757","0.0-7.0-5.0-0.30","7","6","5","7","5","4","5","5","4","5","4","-1","-3","1","0","2","1","0","0","5","4","5","4","4","2","5","2","4","5","7","7","9","8","7","9","6","8","7","5","5","6","5","7","5","6","6","5","6","7","5","2","7","5","5","7","6","6","7","3","7","2","5","5","6","7","6","5","7","6","5","7","2","5","6","7","7","5","6","634787525419859968","刘","524","Male","[""坏他"",""坏我"",""好我"",""好他""]","[""弱他"",""弱我"",""强我"",""强他""]","","","","","","","","9","","","","","","","","","SRET","SRET_math_calculate","","key","9","16.65286759581889","799.9999682108573","445.8333156175091","","","","","4+5= ?","9","1","","","","","","",""
"7071","","6","psychophysics","134","863830","0.0-7.0-5.0-0.31","7","6","5","7","5","4","5","5","4","5","4","-1","-3","1","0","2","1","0","0","5","4","5","4","4","2","5","2","4","5","7","7","9","8","7","9","6","8","7","5","5","6","5","7","5","6","6","5","6","7","5","2","7","5","5","7","6","6","7","3","7","2","5","5","6","7","6","5","7","6","5","7","2","5","6","7","7","5","6","634787525419859968","刘","524","Male","[""坏他"",""坏我"",""好我"",""好他""]","[""弱他"",""弱我"",""强我"",""强他""]","","","","","","","","6","","","","","","","","","SRET","SRET_math_calculate","","key","6","16.6530094339621","799.9999682108573","445.8333156175091","","","","","9-3= ?","6","1","","","","","","",""
"2601","","0","psychophysics","135","866433","0.0-7.0-5.0-0.32","7","6","5","7","5","4","5","5","4","5","4","-1","-3","1","0","2","1","0","0","5","4","5","4","4","2","5","2","4","5","7","7","9","8","7","9","6","8","7","5","5","6","5","7","5","6","6","5","6","7","5","2","7","5","5","7","6","6","7","3","7","2","5","5","6","7","6","5","7","6","5","7","2","5","6","7","7","5","6","634787525419859968","刘","524","Male","[""坏他"",""坏我"",""好我"",""好他""]","[""弱他"",""弱我"",""强我"",""强他""]","","","","","","","","0","","","","","","","","","SRET","SRET_math_calculate","","key","0","16.653277419355035","799.9999682108573","445.8333156175091","","","","","12-12= ?","0","1","","","","","","",""
"4903","","5","psychophysics","136","871337","0.0-7.0-5.0-0.33","7","6","5","7","5","4","5","5","4","5","4","-1","-3","1","0","2","1","0","0","5","4","5","4","4","2","5","2","4","5","7","7","9","8","7","9","6","8","7","5","5","6","5","7","5","6","6","5","6","7","5","2","7","5","5","7","6","6","7","3","7","2","5","5","6","7","6","5","7","6","5","7","2","5","6","7","7","5","6","634787525419859968","刘","524","Male","[""坏他"",""坏我"",""好我"",""好他""]","[""弱他"",""弱我"",""强我"",""强他""]","","","","","","","","5","","","","","","","","","SRET","SRET_math_calculate","","key","5","16.65328911564639","799.9999682108573","445.8333156175091","","","","","12-7= ?","5","1","","","","","","",""
"4135","","8","psychophysics","137","875476","0.0-7.0-5.0-0.34","7","6","5","7","5","4","5","5","4","5","4","-1","-3","1","0","2","1","0","0","5","4","5","4","4","2","5","2","4","5","7","7","9","8","7","9","6","8","7","5","5","6","5","7","5","6","6","5","6","7","5","2","7","5","5","7","6","6","7","3","7","2","5","5","6","7","6","5","7","6","5","7","2","5","6","7","7","5","6","634787525419859968","刘","524","Male","[""坏他"",""坏我"",""好我"",""好他""]","[""弱他"",""弱我"",""强我"",""强他""]","","","","","","","","8","","","","","","","","","SRET","SRET_math_calculate","","key","8","16.65327125506076","799.9999682108573","445.8333156175091","","","","","13-5= ?","8","1","","","","","","",""
"4290","","2","psychophysics","138","879768","0.0-7.0-5.0-0.35","7","6","5","7","5","4","5","5","4","5","4","-1","-3","1","0","2","1","0","0","5","4","5","4","4","2","5","2","4","5","7","7","9","8","7","9","6","8","7","5","5","6","5","7","5","6","6","5","6","7","5","2","7","5","5","7","6","6","7","3","7","2","5","5","6","7","6","5","7","6","5","7","2","5","6","7","7","5","6","634787525419859968","刘","524","Male","[""坏他"",""坏我"",""好我"",""好他""]","[""弱他"",""弱我"",""强我"",""强他""]","","","","","","","","2","","","","","","","","","SRET","SRET_math_calculate","","key","2","16.65328793774281","799.9999682108573","445.8333156175091","","","","","29-27= ?","2","1","","","","","","",""
