"rt","stimulus","response","trial_type","trial_index","time_elapsed","internal_node_id","swb_1","swb_2","swb_3","swb_4","swb_5","LOT_1","LOT_2","LOT_3","LOT_4","LOT_5","LOT_6","IPC_1","IPC_2","IPC_3","IPC_4","IPC_5","IPC_6","IPC_7","IPC_8","MorIden_1","MorIden_2","MorIden_3","MorIden_4","MorIden_5","MorIden_6","MorIden_7","MorIden_8","MorIden_9","MorIden_10","moralSeImag_1","moralSeImag_2","moralSeImag_3","moralSeImag_4","moralSeImag_5","moralSeImag_6","moralSeImag_7","moralSeImag_8","moralSeImag_9","sde_1","sde_2","sde_3","sde_4","sde_5","sde_6","sde_7","sde_8","sde_9","sde_10","sde_11","sde_12","sde_13","sde_14","sde_15","sde_16","sde_17","sde_18","sde_19","sde_20","IM_1","IM_2","IM_3","IM_4","IM_5","IM_6","IM_7","IM_8","IM_9","IM_10","IM_11","IM_12","IM_13","IM_14","IM_15","IM_16","IM_17","IM_18","IM_19","IM_20","subj_idx","friend_name","ParticipantID","Sex","Word","Word2","value","success","timeout","failed_images","failed_audio","failed_video","user_agent","responses","item_order","radio_event_ids","radio_event_times","key_event_times","mouse_event_times","straightlining","zigzagging","honeypot","view_history","response_type","key_press","avg_frame_time","center_x","center_y","correct_response","correct","identity","Image","word","condition","task_id","screen_id","time_stamp","person","valence","domain","math","status","duration","question_order"
"4278","
   <p><div style='color:white; font-size: 25px'>您好，欢迎参加本次实验。</div></p>
   <p><div style='color:white; font-size: 25px'>为充分保障您的权利，请确保您已经知晓并同意《参与实验同意书》以及《数据公开知情同意书》。</div></p>
   <p><div style='color:white; font-size: 25px'>如果您未见过上述内容，请咨询实验员。</div></p>
   <p style='color:white; font-size: 25px'>如果您选择继续实验，则表示您已经清楚两份知情同意书的内容并同意。</p>
   <p><div style = ""color: red;font-size:30px;"">请确保您记得day0的实验编号，您将在本次实验输入该编号，若您忘记，请咨询实验员后作答。</div></p>
   <p> <div style = ""color: green""><按空格键至下页></div> </p>
   "," ","html-keyboard-response","0","4282","0.0-0.0","6","7","5","6","7","4","4","5","4","5","4","-1","-3","1","0","2","1","0","2","4","5","4","5","4","5","4","5","4","4","8","7","9","8","7","9","7","6","8","5","1","6","5","5","6","6","6","7","7","5","6","3","7","5","6","7","7","5","5","1","6","3","7","5","5","6","6","6","7","5","6","7","3","6","5","5","6","6","6","634785170985058304","周","355","Male","[""坏他"",""好我"",""好他"",""坏我""]","[""弱他"",""强我"",""强他"",""弱我""]","","","","","","","","","","","","","","","","","","","","","","","","","","","","","","","","","","","","","",""
"","","","call-function","1","4285","0.0-1.0-0.0","6","7","5","6","7","4","4","5","4","5","4","-1","-3","1","0","2","1","0","2","4","5","4","5","4","5","4","5","4","4","8","7","9","8","7","9","7","6","8","5","1","6","5","5","6","6","6","7","7","5","6","3","7","5","6","7","7","5","5","1","6","3","7","5","5","6","6","6","7","5","6","7","3","6","5","5","6","6","6","634785170985058304","周","355","Male","[""坏他"",""好我"",""好他"",""坏我""]","[""弱他"",""强我"",""强他"",""弱我""]","","","","","","","","","","","","","","","","","","","","","","","","","","","","","","","","","","","","","",""
"51342","","[{""name"":""Sex"",""value"":""0""},{""name"":""friend_name"",""value"":""周""},{""name"":""ParticipantID"",""value"":""355""}]","survey-html-form","2","55629","0.0-1.0-1.0","6","7","5","6","7","4","4","5","4","5","4","-1","-3","1","0","2","1","0","2","4","5","4","5","4","5","4","5","4","4","8","7","9","8","7","9","7","6","8","5","1","6","5","5","6","6","6","7","7","5","6","3","7","5","6","7","7","5","5","1","6","3","7","5","5","6","6","6","7","5","6","7","3","6","5","5","6","6","6","634785170985058304","周","355","Male","[""坏他"",""好我"",""好他"",""坏我""]","[""弱他"",""强我"",""强他"",""弱我""]","","","","","","","","","","","","","","","","","","","","","","","","","","","","","","","","","","","","","",""
"","","","preload","3","55945","0.0-2.0","6","7","5","6","7","4","4","5","4","5","4","-1","-3","1","0","2","1","0","2","4","5","4","5","4","5","4","5","4","4","8","7","9","8","7","9","7","6","8","5","1","6","5","5","6","6","6","7","7","5","6","3","7","5","6","7","7","5","5","1","6","3","7","5","5","6","6","6","7","5","6","7","3","6","5","5","6","6","6","634785170985058304","周","355","Male","[""坏他"",""好我"",""好他"",""坏我""]","[""弱他"",""强我"",""强他"",""弱我""]","","true","false","[]","[]","[]","","","","","","","","","","","","","","","","","","","","","","","","","","","","","","","",""
"","","","fullscreen","4","57433","0.0-3.0","6","7","5","6","7","4","4","5","4","5","4","-1","-3","1","0","2","1","0","2","4","5","4","5","4","5","4","5","4","4","8","7","9","8","7","9","7","6","8","5","1","6","5","5","6","6","6","7","7","5","6","3","7","5","6","7","7","5","5","1","6","3","7","5","5","6","6","6","7","5","6","7","3","6","5","5","6","6","6","634785170985058304","周","355","Male","[""坏他"",""好我"",""好他"",""坏我""]","[""弱他"",""强我"",""强他"",""弱我""]","","true","","","","","{}","","","","","","","","","","","","","","","","","","","","","","","","","","","","","","",""
"76592.39999999944","","{""Q01"":""6"",""Q02"":""7"",""Q03"":""5"",""Q04"":""6"",""Q05"":""7""}","survey-template","5","134030","0.0-4.0","6","7","5","6","7","4","4","5","4","5","4","-1","-3","1","0","2","1","0","2","4","5","4","5","4","5","4","5","4","4","8","7","9","8","7","9","7","6","8","5","1","6","5","5","6","6","6","7","7","5","6","3","7","5","6","7","7","5","5","1","6","3","7","5","5","6","6","6","7","5","6","7","3","6","5","5","6","6","6","634785170985058304","周","355","Male","[""坏他"",""好我"",""好他"",""坏我""]","[""弱他"",""强我"",""强他"",""弱我""]","","","","","","","","{""Q01"":""6"",""Q02"":""7"",""Q03"":""5"",""Q04"":""6"",""Q05"":""7""}","[0,1,2,3,4]","[""Q01"",""Q01"",""Q02"",""Q02"",""Q03"",""Q04"",""Q05""]","[28412.39999999944,31502.39999999944,32268.599999999627,32965,34334,37186.39999999944,41672.299999999814]","[]","[28412.39999999944,31058,31502.39999999944,32268.599999999627,32965,33750.299999999814,34334,37186.39999999944,40201.799999999814,40664,41204.59999999963,41672.299999999814,76590.20000000019]","0.4","0.75","0","","","","","","","","","","","","","","","","","","","","","",""
"67958.79999999981","","{""Q01"":""4"",""Q02"":""4"",""Q03"":""5"",""Q04"":""4"",""Q05"":""5"",""Q06"":""4""}","survey-template","6","201995","0.0-5.0","6","7","5","6","7","4","4","5","4","5","4","-1","-3","1","0","2","1","0","2","4","5","4","5","4","5","4","5","4","4","8","7","9","8","7","9","7","6","8","5","1","6","5","5","6","6","6","7","7","5","6","3","7","5","6","7","7","5","5","1","6","3","7","5","5","6","6","6","7","5","6","7","3","6","5","5","6","6","6","634785170985058304","周","355","Male","[""坏他"",""好我"",""好他"",""坏我""]","[""弱他"",""强我"",""强他"",""弱我""]","","","","","","","","{""Q01"":""4"",""Q02"":""4"",""Q03"":""5"",""Q04"":""4"",""Q05"":""5"",""Q06"":""4""}","[0,1,2,3,4,5]","[""Q01"",""Q02"",""Q03"",""Q04"",""Q05"",""Q05"",""Q06""]","[4651.700000000186,7377.899999999441,8629.799999999814,10302.099999999627,11110,11677.799999999814,14102.200000000186]","[]","[4113.5,4651.700000000186,6963.700000000186,7377.899999999441,8629.799999999814,10302.099999999627,11110,11677.799999999814,14102.200000000186,67957.70000000019]","0.3333333333333333","0.2","0","","","","","","","","","","","","","","","","","","","","","",""
"72830.29999999981","","{""Q01"":""-1"",""Q02"":""-3"",""Q03"":""1"",""Q04"":""0"",""Q05"":""2"",""Q06"":""1"",""Q07"":""0"",""Q08"":""2""}","survey-template","7","274828","0.0-6.0","6","7","5","6","7","4","4","5","4","5","4","-1","-3","1","0","2","1","0","2","4","5","4","5","4","5","4","5","4","4","8","7","9","8","7","9","7","6","8","5","1","6","5","5","6","6","6","7","7","5","6","3","7","5","6","7","7","5","5","1","6","3","7","5","5","6","6","6","7","5","6","7","3","6","5","5","6","6","6","634785170985058304","周","355","Male","[""坏他"",""好我"",""好他"",""坏我""]","[""弱他"",""强我"",""强他"",""弱我""]","","","","","","","","{""Q01"":""-1"",""Q02"":""-3"",""Q03"":""1"",""Q04"":""0"",""Q05"":""2"",""Q06"":""1"",""Q07"":""0"",""Q08"":""2""}","[0,1,2,3,4,5,6,7]","[""Q01"",""Q02"",""Q03"",""Q04"",""Q05"",""Q06"",""Q07"",""Q07"",""Q08"",""Q08""]","[3703.0999999996275,5790.5,7793.5999999996275,9612.099999999627,12896.799999999814,15165.399999999441,21962.199999999255,22499,23800.89999999944,24172.89999999944]","[]","[3703.0999999996275,5253.0999999996275,5790.5,6764.699999999255,7403.399999999441,7793.5999999996275,9612.099999999627,12896.799999999814,15165.399999999441,17665.299999999814,21121,21640.699999999255,21962.199999999255,22499,23800.89999999944,24172.89999999944,72829]","0.25","0.42857142857142855","0","","","","","","","","","","","","","","","","","","","","","",""
"10444","","","instructions","8","285278","0.0-7.0","6","7","5","6","7","4","4","5","4","5","4","-1","-3","1","0","2","1","0","2","4","5","4","5","4","5","4","5","4","4","8","7","9","8","7","9","7","6","8","5","1","6","5","5","6","6","6","7","7","5","6","3","7","5","6","7","7","5","5","1","6","3","7","5","5","6","6","6","7","5","6","7","3","6","5","5","6","6","6","634785170985058304","周","355","Male","[""坏他"",""好我"",""好他"",""坏我""]","[""弱他"",""强我"",""强他"",""弱我""]","","","","","","","","","","","","","","","","","[{""page_index"":0,""viewing_time"":10444}]","","","","","","","","","","","","","","","","","","","","",""
"42488","","","instructions","9","327769","0.0-8.0-0.0-0.0","6","7","5","6","7","4","4","5","4","5","4","-1","-3","1","0","2","1","0","2","4","5","4","5","4","5","4","5","4","4","8","7","9","8","7","9","7","6","8","5","1","6","5","5","6","6","6","7","7","5","6","3","7","5","6","7","7","5","5","1","6","3","7","5","5","6","6","6","7","5","6","7","3","6","5","5","6","6","6","634785170985058304","周","355","Male","[""坏他"",""好我"",""好他"",""坏我""]","[""弱他"",""强我"",""强他"",""弱我""]","","","","","","","","","","","","","","","","","[{""page_index"":0,""viewing_time"":2672},{""page_index"":1,""viewing_time"":36134},{""page_index"":2,""viewing_time"":2080},{""page_index"":3,""viewing_time"":1602}]","","","","","","","","","","","","","","","","","","","","",""
"919","","f","psychophysics","10","329696","0.0-8.0-0.0-1.0-0.0-0.0","6","7","5","6","7","4","4","5","4","5","4","-1","-3","1","0","2","1","0","2","4","5","4","5","4","5","4","5","4","4","8","7","9","8","7","9","7","6","8","5","1","6","5","5","6","6","6","7","7","5","6","3","7","5","6","7","7","5","5","1","6","3","7","5","5","6","6","6","7","5","6","7","3","6","5","5","6","6","6","634785170985058304","周","355","Male","[""坏他"",""好我"",""好他"",""坏我""]","[""弱他"",""强我"",""强他"",""弱我""]","","","","","","","","nonmatch","","","","","","","","","","key","f","16.65297391304301","799.9999682108573","445.8333156175091","f","true","nonmatch","img/square.png","好我","坏我","prac_ALT2_moral","practice_moral","","","","","","","",""
"null","<span style='color:GreenYellow; font-size: 70px;'>正确! </span>","null","html-keyboard-response","11","330199","0.0-8.0-0.0-1.0-0.0-1.0","6","7","5","6","7","4","4","5","4","5","4","-1","-3","1","0","2","1","0","2","4","5","4","5","4","5","4","5","4","4","8","7","9","8","7","9","7","6","8","5","1","6","5","5","6","6","6","7","7","5","6","3","7","5","6","7","7","5","5","1","6","3","7","5","5","6","6","6","7","5","6","7","3","6","5","5","6","6","6","634785170985058304","周","355","Male","[""坏他"",""好我"",""好他"",""坏我""]","[""弱他"",""强我"",""强他"",""弱我""]","","","","","","","","","","","","","","","","","","","","","","","","","","","","","","feedback_test","","","","","","","",""
"893","","j","psychophysics","12","332094","0.0-8.0-0.0-1.0-0.0-0.1","6","7","5","6","7","4","4","5","4","5","4","-1","-3","1","0","2","1","0","2","4","5","4","5","4","5","4","5","4","4","8","7","9","8","7","9","7","6","8","5","1","6","5","5","6","6","6","7","7","5","6","3","7","5","6","7","7","5","5","1","6","3","7","5","5","6","6","6","7","5","6","7","3","6","5","5","6","6","6","634785170985058304","周","355","Male","[""坏他"",""好我"",""好他"",""坏我""]","[""弱他"",""强我"",""强他"",""弱我""]","","","","","","","","match","","","","","","","","","","key","j","16.65432743362792","799.9999682108573","445.8333156175091","f","false","nonmatch","img/ellipse.png","好他","坏他","prac_ALT2_moral","practice_moral","","","","","","","",""
"null","<span style='color:red; font-size: 70px;'>错误! </span>","null","html-keyboard-response","13","332596","0.0-8.0-0.0-1.0-0.0-1.1","6","7","5","6","7","4","4","5","4","5","4","-1","-3","1","0","2","1","0","2","4","5","4","5","4","5","4","5","4","4","8","7","9","8","7","9","7","6","8","5","1","6","5","5","6","6","6","7","7","5","6","3","7","5","6","7","7","5","5","1","6","3","7","5","5","6","6","6","7","5","6","7","3","6","5","5","6","6","6","634785170985058304","周","355","Male","[""坏他"",""好我"",""好他"",""坏我""]","[""弱他"",""强我"",""强他"",""弱我""]","","","","","","","","","","","","","","","","","","","","","","","","","","","","","","feedback_test","","","","","","","",""
"924","","f","psychophysics","14","334522","0.0-8.0-0.0-1.0-0.0-0.2","6","7","5","6","7","4","4","5","4","5","4","-1","-3","1","0","2","1","0","2","4","5","4","5","4","5","4","5","4","4","8","7","9","8","7","9","7","6","8","5","1","6","5","5","6","6","6","7","7","5","6","3","7","5","6","7","7","5","5","1","6","3","7","5","5","6","6","6","7","5","6","7","3","6","5","5","6","6","6","634785170985058304","周","355","Male","[""坏他"",""好我"",""好他"",""坏我""]","[""弱他"",""强我"",""强他"",""弱我""]","","","","","","","","nonmatch","","","","","","","","","","key","f","16.65363478260874","799.9999682108573","445.8333156175091","j","false","match","img/square.png","坏我","坏我","prac_ALT2_moral","practice_moral","","","","","","","",""
"null","<span style='color:red; font-size: 70px;'>错误! </span>","null","html-keyboard-response","15","335022","0.0-8.0-0.0-1.0-0.0-1.2","6","7","5","6","7","4","4","5","4","5","4","-1","-3","1","0","2","1","0","2","4","5","4","5","4","5","4","5","4","4","8","7","9","8","7","9","7","6","8","5","1","6","5","5","6","6","6","7","7","5","6","3","7","5","6","7","7","5","5","1","6","3","7","5","5","6","6","6","7","5","6","7","3","6","5","5","6","6","6","634785170985058304","周","355","Male","[""坏他"",""好我"",""好他"",""坏我""]","[""弱他"",""强我"",""强他"",""弱我""]","","","","","","","","","","","","","","","","","","","","","","","","","","","","","","feedback_test","","","","","","","",""
"695","","f","psychophysics","16","336719","0.0-8.0-0.0-1.0-0.0-0.3","6","7","5","6","7","4","4","5","4","5","4","-1","-3","1","0","2","1","0","2","4","5","4","5","4","5","4","5","4","4","8","7","9","8","7","9","7","6","8","5","1","6","5","5","6","6","6","7","7","5","6","3","7","5","6","7","7","5","5","1","6","3","7","5","5","6","6","6","7","5","6","7","3","6","5","5","6","6","6","634785170985058304","周","355","Male","[""坏他"",""好我"",""好他"",""坏我""]","[""弱他"",""强我"",""强他"",""弱我""]","","","","","","","","nonmatch","","","","","","","","","","key","f","16.653910891088948","799.9999682108573","445.8333156175091","f","true","nonmatch","img/hexagon.png","好我","好他","prac_ALT2_moral","practice_moral","","","","","","","",""
"null","<span style='color:GreenYellow; font-size: 70px;'>正确! </span>","null","html-keyboard-response","17","337221","0.0-8.0-0.0-1.0-0.0-1.3","6","7","5","6","7","4","4","5","4","5","4","-1","-3","1","0","2","1","0","2","4","5","4","5","4","5","4","5","4","4","8","7","9","8","7","9","7","6","8","5","1","6","5","5","6","6","6","7","7","5","6","3","7","5","6","7","7","5","5","1","6","3","7","5","5","6","6","6","7","5","6","7","3","6","5","5","6","6","6","634785170985058304","周","355","Male","[""坏他"",""好我"",""好他"",""坏我""]","[""弱他"",""强我"",""强他"",""弱我""]","","","","","","","","","","","","","","","","","","","","","","","","","","","","","","feedback_test","","","","","","","",""
"967","","f","psychophysics","18","339190","0.0-8.0-0.0-1.0-0.0-0.4","6","7","5","6","7","4","4","5","4","5","4","-1","-3","1","0","2","1","0","2","4","5","4","5","4","5","4","5","4","4","8","7","9","8","7","9","7","6","8","5","1","6","5","5","6","6","6","7","7","5","6","3","7","5","6","7","7","5","5","1","6","3","7","5","5","6","6","6","7","5","6","7","3","6","5","5","6","6","6","634785170985058304","周","355","Male","[""坏他"",""好我"",""好他"",""坏我""]","[""弱他"",""强我"",""强他"",""弱我""]","","","","","","","","nonmatch","","","","","","","","","","key","f","16.6530769230772","799.9999682108573","445.8333156175091","f","true","nonmatch","img/square.png","坏他","坏我","prac_ALT2_moral","practice_moral","","","","","","","",""
"null","<span style='color:GreenYellow; font-size: 70px;'>正确! </span>","null","html-keyboard-response","19","339699","0.0-8.0-0.0-1.0-0.0-1.4","6","7","5","6","7","4","4","5","4","5","4","-1","-3","1","0","2","1","0","2","4","5","4","5","4","5","4","5","4","4","8","7","9","8","7","9","7","6","8","5","1","6","5","5","6","6","6","7","7","5","6","3","7","5","6","7","7","5","5","1","6","3","7","5","5","6","6","6","7","5","6","7","3","6","5","5","6","6","6","634785170985058304","周","355","Male","[""坏他"",""好我"",""好他"",""坏我""]","[""弱他"",""强我"",""强他"",""弱我""]","","","","","","","","","","","","","","","","","","","","","","","","","","","","","","feedback_test","","","","","","","",""
"589","","j","psychophysics","20","341289","0.0-8.0-0.0-1.0-0.0-0.5","6","7","5","6","7","4","4","5","4","5","4","-1","-3","1","0","2","1","0","2","4","5","4","5","4","5","4","5","4","4","8","7","9","8","7","9","7","6","8","5","1","6","5","5","6","6","6","7","7","5","6","3","7","5","6","7","7","5","5","1","6","3","7","5","5","6","6","6","7","5","6","7","3","6","5","5","6","6","6","634785170985058304","周","355","Male","[""坏他"",""好我"",""好他"",""坏我""]","[""弱他"",""强我"",""强他"",""弱我""]","","","","","","","","match","","","","","","","","","","key","j","16.654010638298015","799.9999682108573","445.8333156175091","j","true","match","img/ellipse.png","坏他","坏他","prac_ALT2_moral","practice_moral","","","","","","","",""
"null","<span style='color:GreenYellow; font-size: 70px;'>正确! </span>","null","html-keyboard-response","21","341791","0.0-8.0-0.0-1.0-0.0-1.5","6","7","5","6","7","4","4","5","4","5","4","-1","-3","1","0","2","1","0","2","4","5","4","5","4","5","4","5","4","4","8","7","9","8","7","9","7","6","8","5","1","6","5","5","6","6","6","7","7","5","6","3","7","5","6","7","7","5","5","1","6","3","7","5","5","6","6","6","7","5","6","7","3","6","5","5","6","6","6","634785170985058304","周","355","Male","[""坏他"",""好我"",""好他"",""坏我""]","[""弱他"",""强我"",""强他"",""弱我""]","","","","","","","","","","","","","","","","","","","","","","","","","","","","","","feedback_test","","","","","","","",""
"1071","","f","psychophysics","22","343864","0.0-8.0-0.0-1.0-0.0-0.6","6","7","5","6","7","4","4","5","4","5","4","-1","-3","1","0","2","1","0","2","4","5","4","5","4","5","4","5","4","4","8","7","9","8","7","9","7","6","8","5","1","6","5","5","6","6","6","7","7","5","6","3","7","5","6","7","7","5","5","1","6","3","7","5","5","6","6","6","7","5","6","7","3","6","5","5","6","6","6","634785170985058304","周","355","Male","[""坏他"",""好我"",""好他"",""坏我""]","[""弱他"",""强我"",""强他"",""弱我""]","","","","","","","","nonmatch","","","","","","","","","","key","f","16.654000000000156","799.9999682108573","445.8333156175091","f","true","nonmatch","img/ellipse.png","好我","坏他","prac_ALT2_moral","practice_moral","","","","","","","",""
"null","<span style='color:GreenYellow; font-size: 70px;'>正确! </span>","null","html-keyboard-response","23","344366","0.0-8.0-0.0-1.0-0.0-1.6","6","7","5","6","7","4","4","5","4","5","4","-1","-3","1","0","2","1","0","2","4","5","4","5","4","5","4","5","4","4","8","7","9","8","7","9","7","6","8","5","1","6","5","5","6","6","6","7","7","5","6","3","7","5","6","7","7","5","5","1","6","3","7","5","5","6","6","6","7","5","6","7","3","6","5","5","6","6","6","634785170985058304","周","355","Male","[""坏他"",""好我"",""好他"",""坏我""]","[""弱他"",""强我"",""强他"",""弱我""]","","","","","","","","","","","","","","","","","","","","","","","","","","","","","","feedback_test","","","","","","","",""
"853","","j","psychophysics","24","346222","0.0-8.0-0.0-1.0-0.0-0.7","6","7","5","6","7","4","4","5","4","5","4","-1","-3","1","0","2","1","0","2","4","5","4","5","4","5","4","5","4","4","8","7","9","8","7","9","7","6","8","5","1","6","5","5","6","6","6","7","7","5","6","3","7","5","6","7","7","5","5","1","6","3","7","5","5","6","6","6","7","5","6","7","3","6","5","5","6","6","6","634785170985058304","周","355","Male","[""坏他"",""好我"",""好他"",""坏我""]","[""弱他"",""强我"",""强他"",""弱我""]","","","","","","","","match","","","","","","","","","","key","j","16.647727272727273","799.9999682108573","445.8333156175091","j","true","match","img/square.png","坏我","坏我","prac_ALT2_moral","practice_moral","","","","","","","",""
"null","<span style='color:GreenYellow; font-size: 70px;'>正确! </span>","null","html-keyboard-response","25","346722","0.0-8.0-0.0-1.0-0.0-1.7","6","7","5","6","7","4","4","5","4","5","4","-1","-3","1","0","2","1","0","2","4","5","4","5","4","5","4","5","4","4","8","7","9","8","7","9","7","6","8","5","1","6","5","5","6","6","6","7","7","5","6","3","7","5","6","7","7","5","5","1","6","3","7","5","5","6","6","6","7","5","6","7","3","6","5","5","6","6","6","634785170985058304","周","355","Male","[""坏他"",""好我"",""好他"",""坏我""]","[""弱他"",""强我"",""强他"",""弱我""]","","","","","","","","","","","","","","","","","","","","","","","","","","","","","","feedback_test","","","","","","","",""
"981","","j","psychophysics","26","348708","0.0-8.0-0.0-1.0-0.0-0.8","6","7","5","6","7","4","4","5","4","5","4","-1","-3","1","0","2","1","0","2","4","5","4","5","4","5","4","5","4","4","8","7","9","8","7","9","7","6","8","5","1","6","5","5","6","6","6","7","7","5","6","3","7","5","6","7","7","5","5","1","6","3","7","5","5","6","6","6","7","5","6","7","3","6","5","5","6","6","6","634785170985058304","周","355","Male","[""坏他"",""好我"",""好他"",""坏我""]","[""弱他"",""强我"",""强他"",""弱我""]","","","","","","","","match","","","","","","","","","","key","j","16.640889830508474","799.9999682108573","445.8333156175091","f","false","nonmatch","img/hexagon.png","坏我","好他","prac_ALT2_moral","practice_moral","","","","","","","",""
"null","<span style='color:red; font-size: 70px;'>错误! </span>","null","html-keyboard-response","27","349209","0.0-8.0-0.0-1.0-0.0-1.8","6","7","5","6","7","4","4","5","4","5","4","-1","-3","1","0","2","1","0","2","4","5","4","5","4","5","4","5","4","4","8","7","9","8","7","9","7","6","8","5","1","6","5","5","6","6","6","7","7","5","6","3","7","5","6","7","7","5","5","1","6","3","7","5","5","6","6","6","7","5","6","7","3","6","5","5","6","6","6","634785170985058304","周","355","Male","[""坏他"",""好我"",""好他"",""坏我""]","[""弱他"",""强我"",""强他"",""弱我""]","","","","","","","","","","","","","","","","","","","","","","","","","","","","","","feedback_test","","","","","","","",""
"1029","","f","psychophysics","28","351240","0.0-8.0-0.0-1.0-0.0-0.9","6","7","5","6","7","4","4","5","4","5","4","-1","-3","1","0","2","1","0","2","4","5","4","5","4","5","4","5","4","4","8","7","9","8","7","9","7","6","8","5","1","6","5","5","6","6","6","7","7","5","6","3","7","5","6","7","7","5","5","1","6","3","7","5","5","6","6","6","7","5","6","7","3","6","5","5","6","6","6","634785170985058304","周","355","Male","[""坏他"",""好我"",""好他"",""坏我""]","[""弱他"",""强我"",""强他"",""弱我""]","","","","","","","","nonmatch","","","","","","","","","","key","f","16.652917355372118","799.9999682108573","445.8333156175091","j","false","match","img/trapezoid.png","好我","好我","prac_ALT2_moral","practice_moral","","","","","","","",""
"null","<span style='color:red; font-size: 70px;'>错误! </span>","null","html-keyboard-response","29","351742","0.0-8.0-0.0-1.0-0.0-1.9","6","7","5","6","7","4","4","5","4","5","4","-1","-3","1","0","2","1","0","2","4","5","4","5","4","5","4","5","4","4","8","7","9","8","7","9","7","6","8","5","1","6","5","5","6","6","6","7","7","5","6","3","7","5","6","7","7","5","5","1","6","3","7","5","5","6","6","6","7","5","6","7","3","6","5","5","6","6","6","634785170985058304","周","355","Male","[""坏他"",""好我"",""好他"",""坏我""]","[""弱他"",""强我"",""强他"",""弱我""]","","","","","","","","","","","","","","","","","","","","","","","","","","","","","","feedback_test","","","","","","","",""
"1162","","j","psychophysics","30","353905","0.0-8.0-0.0-1.0-0.0-0.10","6","7","5","6","7","4","4","5","4","5","4","-1","-3","1","0","2","1","0","2","4","5","4","5","4","5","4","5","4","4","8","7","9","8","7","9","7","6","8","5","1","6","5","5","6","6","6","7","7","5","6","3","7","5","6","7","7","5","5","1","6","3","7","5","5","6","6","6","7","5","6","7","3","6","5","5","6","6","6","634785170985058304","周","355","Male","[""坏他"",""好我"",""好他"",""坏我""]","[""弱他"",""强我"",""强他"",""弱我""]","","","","","","","","match","","","","","","","","","","key","j","16.65324806201573","799.9999682108573","445.8333156175091","j","true","match","img/hexagon.png","好他","好他","prac_ALT2_moral","practice_moral","","","","","","","",""
"null","<span style='color:GreenYellow; font-size: 70px;'>正确! </span>","null","html-keyboard-response","31","354407","0.0-8.0-0.0-1.0-0.0-1.10","6","7","5","6","7","4","4","5","4","5","4","-1","-3","1","0","2","1","0","2","4","5","4","5","4","5","4","5","4","4","8","7","9","8","7","9","7","6","8","5","1","6","5","5","6","6","6","7","7","5","6","3","7","5","6","7","7","5","5","1","6","3","7","5","5","6","6","6","7","5","6","7","3","6","5","5","6","6","6","634785170985058304","周","355","Male","[""坏他"",""好我"",""好他"",""坏我""]","[""弱他"",""强我"",""强他"",""弱我""]","","","","","","","","","","","","","","","","","","","","","","","","","","","","","","feedback_test","","","","","","","",""
"865","","f","psychophysics","32","356274","0.0-8.0-0.0-1.0-0.0-0.11","6","7","5","6","7","4","4","5","4","5","4","-1","-3","1","0","2","1","0","2","4","5","4","5","4","5","4","5","4","4","8","7","9","8","7","9","7","6","8","5","1","6","5","5","6","6","6","7","7","5","6","3","7","5","6","7","7","5","5","1","6","3","7","5","5","6","6","6","7","5","6","7","3","6","5","5","6","6","6","634785170985058304","周","355","Male","[""坏他"",""好我"",""好他"",""坏我""]","[""弱他"",""强我"",""强他"",""弱我""]","","","","","","","","nonmatch","","","","","","","","","","key","f","16.653189189189327","799.9999682108573","445.8333156175091","f","true","nonmatch","img/trapezoid.png","坏他","好我","prac_ALT2_moral","practice_moral","","","","","","","",""
"null","<span style='color:GreenYellow; font-size: 70px;'>正确! </span>","null","html-keyboard-response","33","356775","0.0-8.0-0.0-1.0-0.0-1.11","6","7","5","6","7","4","4","5","4","5","4","-1","-3","1","0","2","1","0","2","4","5","4","5","4","5","4","5","4","4","8","7","9","8","7","9","7","6","8","5","1","6","5","5","6","6","6","7","7","5","6","3","7","5","6","7","7","5","5","1","6","3","7","5","5","6","6","6","7","5","6","7","3","6","5","5","6","6","6","634785170985058304","周","355","Male","[""坏他"",""好我"",""好他"",""坏我""]","[""弱他"",""强我"",""强他"",""弱我""]","","","","","","","","","","","","","","","","","","","","","","","","","","","","","","feedback_test","","","","","","","",""
"666","","j","psychophysics","34","358442","0.0-8.0-0.0-1.0-0.0-0.12","6","7","5","6","7","4","4","5","4","5","4","-1","-3","1","0","2","1","0","2","4","5","4","5","4","5","4","5","4","4","8","7","9","8","7","9","7","6","8","5","1","6","5","5","6","6","6","7","7","5","6","3","7","5","6","7","7","5","5","1","6","3","7","5","5","6","6","6","7","5","6","7","3","6","5","5","6","6","6","634785170985058304","周","355","Male","[""坏他"",""好我"",""好他"",""坏我""]","[""弱他"",""强我"",""强他"",""弱我""]","","","","","","","","match","","","","","","","","","","key","j","16.648545454545513","799.9999682108573","445.8333156175091","j","true","match","img/ellipse.png","坏他","坏他","prac_ALT2_moral","practice_moral","","","","","","","",""
"null","<span style='color:GreenYellow; font-size: 70px;'>正确! </span>","null","html-keyboard-response","35","358943","0.0-8.0-0.0-1.0-0.0-1.12","6","7","5","6","7","4","4","5","4","5","4","-1","-3","1","0","2","1","0","2","4","5","4","5","4","5","4","5","4","4","8","7","9","8","7","9","7","6","8","5","1","6","5","5","6","6","6","7","7","5","6","3","7","5","6","7","7","5","5","1","6","3","7","5","5","6","6","6","7","5","6","7","3","6","5","5","6","6","6","634785170985058304","周","355","Male","[""坏他"",""好我"",""好他"",""坏我""]","[""弱他"",""强我"",""强他"",""弱我""]","","","","","","","","","","","","","","","","","","","","","","","","","","","","","","feedback_test","","","","","","","",""
"852","","f","psychophysics","36","360798","0.0-8.0-0.0-1.0-0.0-0.13","6","7","5","6","7","4","4","5","4","5","4","-1","-3","1","0","2","1","0","2","4","5","4","5","4","5","4","5","4","4","8","7","9","8","7","9","7","6","8","5","1","6","5","5","6","6","6","7","7","5","6","3","7","5","6","7","7","5","5","1","6","3","7","5","5","6","6","6","7","5","6","7","3","6","5","5","6","6","6","634785170985058304","周","355","Male","[""坏他"",""好我"",""好他"",""坏我""]","[""弱他"",""强我"",""强他"",""弱我""]","","","","","","","","nonmatch","","","","","","","","","","key","f","16.653736363636032","799.9999682108573","445.8333156175091","f","true","nonmatch","img/trapezoid.png","好他","好我","prac_ALT2_moral","practice_moral","","","","","","","",""
"null","<span style='color:GreenYellow; font-size: 70px;'>正确! </span>","null","html-keyboard-response","37","361301","0.0-8.0-0.0-1.0-0.0-1.13","6","7","5","6","7","4","4","5","4","5","4","-1","-3","1","0","2","1","0","2","4","5","4","5","4","5","4","5","4","4","8","7","9","8","7","9","7","6","8","5","1","6","5","5","6","6","6","7","7","5","6","3","7","5","6","7","7","5","5","1","6","3","7","5","5","6","6","6","7","5","6","7","3","6","5","5","6","6","6","634785170985058304","周","355","Male","[""坏他"",""好我"",""好他"",""坏我""]","[""弱他"",""强我"",""强他"",""弱我""]","","","","","","","","","","","","","","","","","","","","","","","","","","","","","","feedback_test","","","","","","","",""
"809","","f","psychophysics","38","363113","0.0-8.0-0.0-1.0-0.0-0.14","6","7","5","6","7","4","4","5","4","5","4","-1","-3","1","0","2","1","0","2","4","5","4","5","4","5","4","5","4","4","8","7","9","8","7","9","7","6","8","5","1","6","5","5","6","6","6","7","7","5","6","3","7","5","6","7","7","5","5","1","6","3","7","5","5","6","6","6","7","5","6","7","3","6","5","5","6","6","6","634785170985058304","周","355","Male","[""坏他"",""好我"",""好他"",""坏我""]","[""弱他"",""强我"",""强他"",""弱我""]","","","","","","","","nonmatch","","","","","","","","","","key","f","16.652953703703435","799.9999682108573","445.8333156175091","j","false","match","img/trapezoid.png","好我","好我","prac_ALT2_moral","practice_moral","","","","","","","",""
"null","<span style='color:red; font-size: 70px;'>错误! </span>","null","html-keyboard-response","39","363615","0.0-8.0-0.0-1.0-0.0-1.14","6","7","5","6","7","4","4","5","4","5","4","-1","-3","1","0","2","1","0","2","4","5","4","5","4","5","4","5","4","4","8","7","9","8","7","9","7","6","8","5","1","6","5","5","6","6","6","7","7","5","6","3","7","5","6","7","7","5","5","1","6","3","7","5","5","6","6","6","7","5","6","7","3","6","5","5","6","6","6","634785170985058304","周","355","Male","[""坏他"",""好我"",""好他"",""坏我""]","[""弱他"",""强我"",""强他"",""弱我""]","","","","","","","","","","","","","","","","","","","","","","","","","","","","","","feedback_test","","","","","","","",""
"579","","j","psychophysics","40","365196","0.0-8.0-0.0-1.0-0.0-0.15","6","7","5","6","7","4","4","5","4","5","4","-1","-3","1","0","2","1","0","2","4","5","4","5","4","5","4","5","4","4","8","7","9","8","7","9","7","6","8","5","1","6","5","5","6","6","6","7","7","5","6","3","7","5","6","7","7","5","5","1","6","3","7","5","5","6","6","6","7","5","6","7","3","6","5","5","6","6","6","634785170985058304","周","355","Male","[""坏他"",""好我"",""好他"",""坏我""]","[""弱他"",""强我"",""强他"",""弱我""]","","","","","","","","match","","","","","","","","","","key","j","16.65392553191533","799.9999682108573","445.8333156175091","j","true","match","img/trapezoid.png","好我","好我","prac_ALT2_moral","practice_moral","","","","","","","",""
"null","<span style='color:GreenYellow; font-size: 70px;'>正确! </span>","null","html-keyboard-response","41","365697","0.0-8.0-0.0-1.0-0.0-1.15","6","7","5","6","7","4","4","5","4","5","4","-1","-3","1","0","2","1","0","2","4","5","4","5","4","5","4","5","4","4","8","7","9","8","7","9","7","6","8","5","1","6","5","5","6","6","6","7","7","5","6","3","7","5","6","7","7","5","5","1","6","3","7","5","5","6","6","6","7","5","6","7","3","6","5","5","6","6","6","634785170985058304","周","355","Male","[""坏他"",""好我"",""好他"",""坏我""]","[""弱他"",""强我"",""强他"",""弱我""]","","","","","","","","","","","","","","","","","","","","","","","","","","","","","","feedback_test","","","","","","","",""
"888","","j","psychophysics","42","367587","0.0-8.0-0.0-1.0-0.0-0.16","6","7","5","6","7","4","4","5","4","5","4","-1","-3","1","0","2","1","0","2","4","5","4","5","4","5","4","5","4","4","8","7","9","8","7","9","7","6","8","5","1","6","5","5","6","6","6","7","7","5","6","3","7","5","6","7","7","5","5","1","6","3","7","5","5","6","6","6","7","5","6","7","3","6","5","5","6","6","6","634785170985058304","周","355","Male","[""坏他"",""好我"",""好他"",""坏我""]","[""弱他"",""强我"",""强他"",""弱我""]","","","","","","","","match","","","","","","","","","","key","j","16.653633928571384","799.9999682108573","445.8333156175091","j","true","match","img/square.png","坏我","坏我","prac_ALT2_moral","practice_moral","","","","","","","",""
"null","<span style='color:GreenYellow; font-size: 70px;'>正确! </span>","null","html-keyboard-response","43","368089","0.0-8.0-0.0-1.0-0.0-1.16","6","7","5","6","7","4","4","5","4","5","4","-1","-3","1","0","2","1","0","2","4","5","4","5","4","5","4","5","4","4","8","7","9","8","7","9","7","6","8","5","1","6","5","5","6","6","6","7","7","5","6","3","7","5","6","7","7","5","5","1","6","3","7","5","5","6","6","6","7","5","6","7","3","6","5","5","6","6","6","634785170985058304","周","355","Male","[""坏他"",""好我"",""好他"",""坏我""]","[""弱他"",""强我"",""强他"",""弱我""]","","","","","","","","","","","","","","","","","","","","","","","","","","","","","","feedback_test","","","","","","","",""
"919","","j","psychophysics","44","370011","0.0-8.0-0.0-1.0-0.0-0.17","6","7","5","6","7","4","4","5","4","5","4","-1","-3","1","0","2","1","0","2","4","5","4","5","4","5","4","5","4","4","8","7","9","8","7","9","7","6","8","5","1","6","5","5","6","6","6","7","7","5","6","3","7","5","6","7","7","5","5","1","6","3","7","5","5","6","6","6","7","5","6","7","3","6","5","5","6","6","6","634785170985058304","周","355","Male","[""坏他"",""好我"",""好他"",""坏我""]","[""弱他"",""强我"",""强他"",""弱我""]","","","","","","","","match","","","","","","","","","","key","j","16.65308771929816","799.9999682108573","445.8333156175091","j","true","match","img/hexagon.png","好他","好他","prac_ALT2_moral","practice_moral","","","","","","","",""
"null","<span style='color:GreenYellow; font-size: 70px;'>正确! </span>","null","html-keyboard-response","45","370512","0.0-8.0-0.0-1.0-0.0-1.17","6","7","5","6","7","4","4","5","4","5","4","-1","-3","1","0","2","1","0","2","4","5","4","5","4","5","4","5","4","4","8","7","9","8","7","9","7","6","8","5","1","6","5","5","6","6","6","7","7","5","6","3","7","5","6","7","7","5","5","1","6","3","7","5","5","6","6","6","7","5","6","7","3","6","5","5","6","6","6","634785170985058304","周","355","Male","[""坏他"",""好我"",""好他"",""坏我""]","[""弱他"",""强我"",""强他"",""弱我""]","","","","","","","","","","","","","","","","","","","","","","","","","","","","","","feedback_test","","","","","","","",""
"788","","f","psychophysics","46","372303","0.0-8.0-0.0-1.0-0.0-0.18","6","7","5","6","7","4","4","5","4","5","4","-1","-3","1","0","2","1","0","2","4","5","4","5","4","5","4","5","4","4","8","7","9","8","7","9","7","6","8","5","1","6","5","5","6","6","6","7","7","5","6","3","7","5","6","7","7","5","5","1","6","3","7","5","5","6","6","6","7","5","6","7","3","6","5","5","6","6","6","634785170985058304","周","355","Male","[""坏他"",""好我"",""好他"",""坏我""]","[""弱他"",""强我"",""强他"",""弱我""]","","","","","","","","nonmatch","","","","","","","","","","key","f","16.65188679245316","799.9999682108573","445.8333156175091","f","true","nonmatch","img/hexagon.png","坏他","好他","prac_ALT2_moral","practice_moral","","","","","","","",""
"null","<span style='color:GreenYellow; font-size: 70px;'>正确! </span>","null","html-keyboard-response","47","372805","0.0-8.0-0.0-1.0-0.0-1.18","6","7","5","6","7","4","4","5","4","5","4","-1","-3","1","0","2","1","0","2","4","5","4","5","4","5","4","5","4","4","8","7","9","8","7","9","7","6","8","5","1","6","5","5","6","6","6","7","7","5","6","3","7","5","6","7","7","5","5","1","6","3","7","5","5","6","6","6","7","5","6","7","3","6","5","5","6","6","6","634785170985058304","周","355","Male","[""坏他"",""好我"",""好他"",""坏我""]","[""弱他"",""强我"",""强他"",""弱我""]","","","","","","","","","","","","","","","","","","","","","","","","","","","","","","feedback_test","","","","","","","",""
"915","","f","psychophysics","48","374722","0.0-8.0-0.0-1.0-0.0-0.19","6","7","5","6","7","4","4","5","4","5","4","-1","-3","1","0","2","1","0","2","4","5","4","5","4","5","4","5","4","4","8","7","9","8","7","9","7","6","8","5","1","6","5","5","6","6","6","7","7","5","6","3","7","5","6","7","7","5","5","1","6","3","7","5","5","6","6","6","7","5","6","7","3","6","5","5","6","6","6","634785170985058304","周","355","Male","[""坏他"",""好我"",""好他"",""坏我""]","[""弱他"",""强我"",""强他"",""弱我""]","","","","","","","","nonmatch","","","","","","","","","","key","f","16.65357017543845","799.9999682108573","445.8333156175091","f","true","nonmatch","img/ellipse.png","坏我","坏他","prac_ALT2_moral","practice_moral","","","","","","","",""
"null","<span style='color:GreenYellow; font-size: 70px;'>正确! </span>","null","html-keyboard-response","49","375223","0.0-8.0-0.0-1.0-0.0-1.19","6","7","5","6","7","4","4","5","4","5","4","-1","-3","1","0","2","1","0","2","4","5","4","5","4","5","4","5","4","4","8","7","9","8","7","9","7","6","8","5","1","6","5","5","6","6","6","7","7","5","6","3","7","5","6","7","7","5","5","1","6","3","7","5","5","6","6","6","7","5","6","7","3","6","5","5","6","6","6","634785170985058304","周","355","Male","[""坏他"",""好我"",""好他"",""坏我""]","[""弱他"",""强我"",""强他"",""弱我""]","","","","","","","","","","","","","","","","","","","","","","","","","","","","","","feedback_test","","","","","","","",""
"822","","f","psychophysics","50","377047","0.0-8.0-0.0-1.0-0.0-0.20","6","7","5","6","7","4","4","5","4","5","4","-1","-3","1","0","2","1","0","2","4","5","4","5","4","5","4","5","4","4","8","7","9","8","7","9","7","6","8","5","1","6","5","5","6","6","6","7","7","5","6","3","7","5","6","7","7","5","5","1","6","3","7","5","5","6","6","6","7","5","6","7","3","6","5","5","6","6","6","634785170985058304","周","355","Male","[""坏他"",""好我"",""好他"",""坏我""]","[""弱他"",""强我"",""强他"",""弱我""]","","","","","","","","nonmatch","","","","","","","","","","key","f","16.653111111110775","799.9999682108573","445.8333156175091","j","false","match","img/hexagon.png","好他","好他","prac_ALT2_moral","practice_moral","","","","","","","",""
"null","<span style='color:red; font-size: 70px;'>错误! </span>","null","html-keyboard-response","51","377548","0.0-8.0-0.0-1.0-0.0-1.20","6","7","5","6","7","4","4","5","4","5","4","-1","-3","1","0","2","1","0","2","4","5","4","5","4","5","4","5","4","4","8","7","9","8","7","9","7","6","8","5","1","6","5","5","6","6","6","7","7","5","6","3","7","5","6","7","7","5","5","1","6","3","7","5","5","6","6","6","7","5","6","7","3","6","5","5","6","6","6","634785170985058304","周","355","Male","[""坏他"",""好我"",""好他"",""坏我""]","[""弱他"",""强我"",""强他"",""弱我""]","","","","","","","","","","","","","","","","","","","","","","","","","","","","","","feedback_test","","","","","","","",""
"672","","j","psychophysics","52","379222","0.0-8.0-0.0-1.0-0.0-0.21","6","7","5","6","7","4","4","5","4","5","4","-1","-3","1","0","2","1","0","2","4","5","4","5","4","5","4","5","4","4","8","7","9","8","7","9","7","6","8","5","1","6","5","5","6","6","6","7","7","5","6","3","7","5","6","7","7","5","5","1","6","3","7","5","5","6","6","6","7","5","6","7","3","6","5","5","6","6","6","634785170985058304","周","355","Male","[""坏他"",""好我"",""好他"",""坏我""]","[""弱他"",""强我"",""强他"",""弱我""]","","","","","","","","match","","","","","","","","","","key","j","16.652939393939427","799.9999682108573","445.8333156175091","j","true","match","img/ellipse.png","坏他","坏他","prac_ALT2_moral","practice_moral","","","","","","","",""
"null","<span style='color:GreenYellow; font-size: 70px;'>正确! </span>","null","html-keyboard-response","53","379731","0.0-8.0-0.0-1.0-0.0-1.21","6","7","5","6","7","4","4","5","4","5","4","-1","-3","1","0","2","1","0","2","4","5","4","5","4","5","4","5","4","4","8","7","9","8","7","9","7","6","8","5","1","6","5","5","6","6","6","7","7","5","6","3","7","5","6","7","7","5","5","1","6","3","7","5","5","6","6","6","7","5","6","7","3","6","5","5","6","6","6","634785170985058304","周","355","Male","[""坏他"",""好我"",""好他"",""坏我""]","[""弱他"",""强我"",""强他"",""弱我""]","","","","","","","","","","","","","","","","","","","","","","","","","","","","","","feedback_test","","","","","","","",""
"727","","f","psychophysics","54","381461","0.0-8.0-0.0-1.0-0.0-0.22","6","7","5","6","7","4","4","5","4","5","4","-1","-3","1","0","2","1","0","2","4","5","4","5","4","5","4","5","4","4","8","7","9","8","7","9","7","6","8","5","1","6","5","5","6","6","6","7","7","5","6","3","7","5","6","7","7","5","5","1","6","3","7","5","5","6","6","6","7","5","6","7","3","6","5","5","6","6","6","634785170985058304","周","355","Male","[""坏他"",""好我"",""好他"",""坏我""]","[""弱他"",""强我"",""强他"",""弱我""]","","","","","","","","nonmatch","","","","","","","","","","key","f","16.65361764705877","799.9999682108573","445.8333156175091","f","true","nonmatch","img/square.png","好他","坏我","prac_ALT2_moral","practice_moral","","","","","","","",""
"null","<span style='color:GreenYellow; font-size: 70px;'>正确! </span>","null","html-keyboard-response","55","381962","0.0-8.0-0.0-1.0-0.0-1.22","6","7","5","6","7","4","4","5","4","5","4","-1","-3","1","0","2","1","0","2","4","5","4","5","4","5","4","5","4","4","8","7","9","8","7","9","7","6","8","5","1","6","5","5","6","6","6","7","7","5","6","3","7","5","6","7","7","5","5","1","6","3","7","5","5","6","6","6","7","5","6","7","3","6","5","5","6","6","6","634785170985058304","周","355","Male","[""坏他"",""好我"",""好他"",""坏我""]","[""弱他"",""强我"",""强他"",""弱我""]","","","","","","","","","","","","","","","","","","","","","","","","","","","","","","feedback_test","","","","","","","",""
"878","","f","psychophysics","56","383842","0.0-8.0-0.0-1.0-0.0-0.23","6","7","5","6","7","4","4","5","4","5","4","-1","-3","1","0","2","1","0","2","4","5","4","5","4","5","4","5","4","4","8","7","9","8","7","9","7","6","8","5","1","6","5","5","6","6","6","7","7","5","6","3","7","5","6","7","7","5","5","1","6","3","7","5","5","6","6","6","7","5","6","7","3","6","5","5","6","6","6","634785170985058304","周","355","Male","[""坏他"",""好我"",""好他"",""坏我""]","[""弱他"",""强我"",""强他"",""弱我""]","","","","","","","","nonmatch","","","","","","","","","","key","f","16.653972972973108","799.9999682108573","445.8333156175091","f","true","nonmatch","img/trapezoid.png","坏我","好我","prac_ALT2_moral","practice_moral","","","","","","","",""
"null","<span style='color:GreenYellow; font-size: 70px;'>正确! </span>","null","html-keyboard-response","57","384344","0.0-8.0-0.0-1.0-0.0-1.23","6","7","5","6","7","4","4","5","4","5","4","-1","-3","1","0","2","1","0","2","4","5","4","5","4","5","4","5","4","4","8","7","9","8","7","9","7","6","8","5","1","6","5","5","6","6","6","7","7","5","6","3","7","5","6","7","7","5","5","1","6","3","7","5","5","6","6","6","7","5","6","7","3","6","5","5","6","6","6","634785170985058304","周","355","Male","[""坏他"",""好我"",""好他"",""坏我""]","[""弱他"",""强我"",""强他"",""弱我""]","","","","","","","","","","","","","","","","","","","","","","","","","","","","","","feedback_test","","","","","","","",""
"799","","j","psychophysics","58","386146","0.0-8.0-0.0-1.0-0.0-0.24","6","7","5","6","7","4","4","5","4","5","4","-1","-3","1","0","2","1","0","2","4","5","4","5","4","5","4","5","4","4","8","7","9","8","7","9","7","6","8","5","1","6","5","5","6","6","6","7","7","5","6","3","7","5","6","7","7","5","5","1","6","3","7","5","5","6","6","6","7","5","6","7","3","6","5","5","6","6","6","634785170985058304","周","355","Male","[""坏他"",""好我"",""好他"",""坏我""]","[""弱他"",""强我"",""强他"",""弱我""]","","","","","","","","match","","","","","","","","","","key","j","16.65410280373833","799.9999682108573","445.8333156175091","j","true","match","img/square.png","坏我","坏我","prac_ALT2_moral","practice_moral","","","","","","","",""
"null","<span style='color:GreenYellow; font-size: 70px;'>正确! </span>","null","html-keyboard-response","59","386648","0.0-8.0-0.0-1.0-0.0-1.24","6","7","5","6","7","4","4","5","4","5","4","-1","-3","1","0","2","1","0","2","4","5","4","5","4","5","4","5","4","4","8","7","9","8","7","9","7","6","8","5","1","6","5","5","6","6","6","7","7","5","6","3","7","5","6","7","7","5","5","1","6","3","7","5","5","6","6","6","7","5","6","7","3","6","5","5","6","6","6","634785170985058304","周","355","Male","[""坏他"",""好我"",""好他"",""坏我""]","[""弱他"",""强我"",""强他"",""弱我""]","","","","","","","","","","","","","","","","","","","","","","","","","","","","","","feedback_test","","","","","","","",""
"852","","f","psychophysics","60","388502","0.0-8.0-0.0-1.0-0.0-0.25","6","7","5","6","7","4","4","5","4","5","4","-1","-3","1","0","2","1","0","2","4","5","4","5","4","5","4","5","4","4","8","7","9","8","7","9","7","6","8","5","1","6","5","5","6","6","6","7","7","5","6","3","7","5","6","7","7","5","5","1","6","3","7","5","5","6","6","6","7","5","6","7","3","6","5","5","6","6","6","634785170985058304","周","355","Male","[""坏他"",""好我"",""好他"",""坏我""]","[""弱他"",""强我"",""强他"",""弱我""]","","","","","","","","nonmatch","","","","","","","","","","key","f","16.652972727272637","799.9999682108573","445.8333156175091","f","true","nonmatch","img/trapezoid.png","坏他","好我","prac_ALT2_moral","practice_moral","","","","","","","",""
"null","<span style='color:GreenYellow; font-size: 70px;'>正确! </span>","null","html-keyboard-response","61","389003","0.0-8.0-0.0-1.0-0.0-1.25","6","7","5","6","7","4","4","5","4","5","4","-1","-3","1","0","2","1","0","2","4","5","4","5","4","5","4","5","4","4","8","7","9","8","7","9","7","6","8","5","1","6","5","5","6","6","6","7","7","5","6","3","7","5","6","7","7","5","5","1","6","3","7","5","5","6","6","6","7","5","6","7","3","6","5","5","6","6","6","634785170985058304","周","355","Male","[""坏他"",""好我"",""好他"",""坏我""]","[""弱他"",""强我"",""强他"",""弱我""]","","","","","","","","","","","","","","","","","","","","","","","","","","","","","","feedback_test","","","","","","","",""
"793","","j","psychophysics","62","390798","0.0-8.0-0.0-1.0-0.0-0.26","6","7","5","6","7","4","4","5","4","5","4","-1","-3","1","0","2","1","0","2","4","5","4","5","4","5","4","5","4","4","8","7","9","8","7","9","7","6","8","5","1","6","5","5","6","6","6","7","7","5","6","3","7","5","6","7","7","5","5","1","6","3","7","5","5","6","6","6","7","5","6","7","3","6","5","5","6","6","6","634785170985058304","周","355","Male","[""坏他"",""好我"",""好他"",""坏我""]","[""弱他"",""强我"",""强他"",""弱我""]","","","","","","","","match","","","","","","","","","","key","j","16.653364485981612","799.9999682108573","445.8333156175091","j","true","match","img/ellipse.png","坏他","坏他","prac_ALT2_moral","practice_moral","","","","","","","",""
"null","<span style='color:GreenYellow; font-size: 70px;'>正确! </span>","null","html-keyboard-response","63","391299","0.0-8.0-0.0-1.0-0.0-1.26","6","7","5","6","7","4","4","5","4","5","4","-1","-3","1","0","2","1","0","2","4","5","4","5","4","5","4","5","4","4","8","7","9","8","7","9","7","6","8","5","1","6","5","5","6","6","6","7","7","5","6","3","7","5","6","7","7","5","5","1","6","3","7","5","5","6","6","6","7","5","6","7","3","6","5","5","6","6","6","634785170985058304","周","355","Male","[""坏他"",""好我"",""好他"",""坏我""]","[""弱他"",""强我"",""强他"",""弱我""]","","","","","","","","","","","","","","","","","","","","","","","","","","","","","","feedback_test","","","","","","","",""
"1006","","j","psychophysics","64","393306","0.0-8.0-0.0-1.0-0.0-0.27","6","7","5","6","7","4","4","5","4","5","4","-1","-3","1","0","2","1","0","2","4","5","4","5","4","5","4","5","4","4","8","7","9","8","7","9","7","6","8","5","1","6","5","5","6","6","6","7","7","5","6","3","7","5","6","7","7","5","5","1","6","3","7","5","5","6","6","6","7","5","6","7","3","6","5","5","6","6","6","634785170985058304","周","355","Male","[""坏他"",""好我"",""好他"",""坏我""]","[""弱他"",""强我"",""强他"",""弱我""]","","","","","","","","match","","","","","","","","","","key","j","16.653858333333726","799.9999682108573","445.8333156175091","j","true","match","img/trapezoid.png","好我","好我","prac_ALT2_moral","practice_moral","","","","","","","",""
"null","<span style='color:GreenYellow; font-size: 70px;'>正确! </span>","null","html-keyboard-response","65","393807","0.0-8.0-0.0-1.0-0.0-1.27","6","7","5","6","7","4","4","5","4","5","4","-1","-3","1","0","2","1","0","2","4","5","4","5","4","5","4","5","4","4","8","7","9","8","7","9","7","6","8","5","1","6","5","5","6","6","6","7","7","5","6","3","7","5","6","7","7","5","5","1","6","3","7","5","5","6","6","6","7","5","6","7","3","6","5","5","6","6","6","634785170985058304","周","355","Male","[""坏他"",""好我"",""好他"",""坏我""]","[""弱他"",""强我"",""强他"",""弱我""]","","","","","","","","","","","","","","","","","","","","","","","","","","","","","","feedback_test","","","","","","","",""
"1006","","j","psychophysics","66","395824","0.0-8.0-0.0-1.0-0.0-0.28","6","7","5","6","7","4","4","5","4","5","4","-1","-3","1","0","2","1","0","2","4","5","4","5","4","5","4","5","4","4","8","7","9","8","7","9","7","6","8","5","1","6","5","5","6","6","6","7","7","5","6","3","7","5","6","7","7","5","5","1","6","3","7","5","5","6","6","6","7","5","6","7","3","6","5","5","6","6","6","634785170985058304","周","355","Male","[""坏他"",""好我"",""好他"",""坏我""]","[""弱他"",""强我"",""强他"",""弱我""]","","","","","","","","match","","","","","","","","","","key","j","16.653033333333344","799.9999682108573","445.8333156175091","j","true","match","img/ellipse.png","坏他","坏他","prac_ALT2_moral","practice_moral","","","","","","","",""
"null","<span style='color:GreenYellow; font-size: 70px;'>正确! </span>","null","html-keyboard-response","67","396325","0.0-8.0-0.0-1.0-0.0-1.28","6","7","5","6","7","4","4","5","4","5","4","-1","-3","1","0","2","1","0","2","4","5","4","5","4","5","4","5","4","4","8","7","9","8","7","9","7","6","8","5","1","6","5","5","6","6","6","7","7","5","6","3","7","5","6","7","7","5","5","1","6","3","7","5","5","6","6","6","7","5","6","7","3","6","5","5","6","6","6","634785170985058304","周","355","Male","[""坏他"",""好我"",""好他"",""坏我""]","[""弱他"",""强我"",""强他"",""弱我""]","","","","","","","","","","","","","","","","","","","","","","","","","","","","","","feedback_test","","","","","","","",""
"1068","","j","psychophysics","68","398394","0.0-8.0-0.0-1.0-0.0-0.29","6","7","5","6","7","4","4","5","4","5","4","-1","-3","1","0","2","1","0","2","4","5","4","5","4","5","4","5","4","4","8","7","9","8","7","9","7","6","8","5","1","6","5","5","6","6","6","7","7","5","6","3","7","5","6","7","7","5","5","1","6","3","7","5","5","6","6","6","7","5","6","7","3","6","5","5","6","6","6","634785170985058304","周","355","Male","[""坏他"",""好我"",""好他"",""坏我""]","[""弱他"",""强我"",""强他"",""弱我""]","","","","","","","","match","","","","","","","","","","key","j","16.654073170731714","799.9999682108573","445.8333156175091","j","true","match","img/trapezoid.png","好我","好我","prac_ALT2_moral","practice_moral","","","","","","","",""
"null","<span style='color:GreenYellow; font-size: 70px;'>正确! </span>","null","html-keyboard-response","69","398896","0.0-8.0-0.0-1.0-0.0-1.29","6","7","5","6","7","4","4","5","4","5","4","-1","-3","1","0","2","1","0","2","4","5","4","5","4","5","4","5","4","4","8","7","9","8","7","9","7","6","8","5","1","6","5","5","6","6","6","7","7","5","6","3","7","5","6","7","7","5","5","1","6","3","7","5","5","6","6","6","7","5","6","7","3","6","5","5","6","6","6","634785170985058304","周","355","Male","[""坏他"",""好我"",""好他"",""坏我""]","[""弱他"",""强我"",""强他"",""弱我""]","","","","","","","","","","","","","","","","","","","","","","","","","","","","","","feedback_test","","","","","","","",""
"690","","f","psychophysics","70","400588","0.0-8.0-0.0-1.0-0.0-0.30","6","7","5","6","7","4","4","5","4","5","4","-1","-3","1","0","2","1","0","2","4","5","4","5","4","5","4","5","4","4","8","7","9","8","7","9","7","6","8","5","1","6","5","5","6","6","6","7","7","5","6","3","7","5","6","7","7","5","5","1","6","3","7","5","5","6","6","6","7","5","6","7","3","6","5","5","6","6","6","634785170985058304","周","355","Male","[""坏他"",""好我"",""好他"",""坏我""]","[""弱他"",""强我"",""强他"",""弱我""]","","","","","","","","nonmatch","","","","","","","","","","key","f","16.645079999999727","799.9999682108573","445.8333156175091","f","true","nonmatch","img/trapezoid.png","好他","好我","prac_ALT2_moral","practice_moral","","","","","","","",""
"null","<span style='color:GreenYellow; font-size: 70px;'>正确! </span>","null","html-keyboard-response","71","401088","0.0-8.0-0.0-1.0-0.0-1.30","6","7","5","6","7","4","4","5","4","5","4","-1","-3","1","0","2","1","0","2","4","5","4","5","4","5","4","5","4","4","8","7","9","8","7","9","7","6","8","5","1","6","5","5","6","6","6","7","7","5","6","3","7","5","6","7","7","5","5","1","6","3","7","5","5","6","6","6","7","5","6","7","3","6","5","5","6","6","6","634785170985058304","周","355","Male","[""坏他"",""好我"",""好他"",""坏我""]","[""弱他"",""强我"",""强他"",""弱我""]","","","","","","","","","","","","","","","","","","","","","","","","","","","","","","feedback_test","","","","","","","",""
"667","","f","psychophysics","72","402757","0.0-8.0-0.0-1.0-0.0-0.31","6","7","5","6","7","4","4","5","4","5","4","-1","-3","1","0","2","1","0","2","4","5","4","5","4","5","4","5","4","4","8","7","9","8","7","9","7","6","8","5","1","6","5","5","6","6","6","7","7","5","6","3","7","5","6","7","7","5","5","1","6","3","7","5","5","6","6","6","7","5","6","7","3","6","5","5","6","6","6","634785170985058304","周","355","Male","[""坏他"",""好我"",""好他"",""坏我""]","[""弱他"",""强我"",""强他"",""弱我""]","","","","","","","","nonmatch","","","","","","","","","","key","f","16.65431313131315","799.9999682108573","445.8333156175091","f","true","nonmatch","img/ellipse.png","好我","坏他","prac_ALT2_moral","practice_moral","","","","","","","",""
"null","<span style='color:GreenYellow; font-size: 70px;'>正确! </span>","null","html-keyboard-response","73","403258","0.0-8.0-0.0-1.0-0.0-1.31","6","7","5","6","7","4","4","5","4","5","4","-1","-3","1","0","2","1","0","2","4","5","4","5","4","5","4","5","4","4","8","7","9","8","7","9","7","6","8","5","1","6","5","5","6","6","6","7","7","5","6","3","7","5","6","7","7","5","5","1","6","3","7","5","5","6","6","6","7","5","6","7","3","6","5","5","6","6","6","634785170985058304","周","355","Male","[""坏他"",""好我"",""好他"",""坏我""]","[""弱他"",""强我"",""强他"",""弱我""]","","","","","","","","","","","","","","","","","","","","","","","","","","","","","","feedback_test","","","","","","","",""
"798","","j","psychophysics","74","405058","0.0-8.0-0.0-1.0-0.0-0.32","6","7","5","6","7","4","4","5","4","5","4","-1","-3","1","0","2","1","0","2","4","5","4","5","4","5","4","5","4","4","8","7","9","8","7","9","7","6","8","5","1","6","5","5","6","6","6","7","7","5","6","3","7","5","6","7","7","5","5","1","6","3","7","5","5","6","6","6","7","5","6","7","3","6","5","5","6","6","6","634785170985058304","周","355","Male","[""坏他"",""好我"",""好他"",""坏我""]","[""弱他"",""强我"",""强他"",""弱我""]","","","","","","","","match","","","","","","","","","","key","j","16.6535981308411","799.9999682108573","445.8333156175091","j","true","match","img/hexagon.png","好他","好他","prac_ALT2_moral","practice_moral","","","","","","","",""
"null","<span style='color:GreenYellow; font-size: 70px;'>正确! </span>","null","html-keyboard-response","75","405559","0.0-8.0-0.0-1.0-0.0-1.32","6","7","5","6","7","4","4","5","4","5","4","-1","-3","1","0","2","1","0","2","4","5","4","5","4","5","4","5","4","4","8","7","9","8","7","9","7","6","8","5","1","6","5","5","6","6","6","7","7","5","6","3","7","5","6","7","7","5","5","1","6","3","7","5","5","6","6","6","7","5","6","7","3","6","5","5","6","6","6","634785170985058304","周","355","Male","[""坏他"",""好我"",""好他"",""坏我""]","[""弱他"",""强我"",""强他"",""弱我""]","","","","","","","","","","","","","","","","","","","","","","","","","","","","","","feedback_test","","","","","","","",""
"767","","j","psychophysics","76","407329","0.0-8.0-0.0-1.0-0.0-0.33","6","7","5","6","7","4","4","5","4","5","4","-1","-3","1","0","2","1","0","2","4","5","4","5","4","5","4","5","4","4","8","7","9","8","7","9","7","6","8","5","1","6","5","5","6","6","6","7","7","5","6","3","7","5","6","7","7","5","5","1","6","3","7","5","5","6","6","6","7","5","6","7","3","6","5","5","6","6","6","634785170985058304","周","355","Male","[""坏他"",""好我"",""好他"",""坏我""]","[""弱他"",""强我"",""强他"",""弱我""]","","","","","","","","match","","","","","","","","","","key","j","16.65345714285726","799.9999682108573","445.8333156175091","f","false","nonmatch","img/ellipse.png","坏我","坏他","prac_ALT2_moral","practice_moral","","","","","","","",""
"null","<span style='color:red; font-size: 70px;'>错误! </span>","null","html-keyboard-response","77","407830","0.0-8.0-0.0-1.0-0.0-1.33","6","7","5","6","7","4","4","5","4","5","4","-1","-3","1","0","2","1","0","2","4","5","4","5","4","5","4","5","4","4","8","7","9","8","7","9","7","6","8","5","1","6","5","5","6","6","6","7","7","5","6","3","7","5","6","7","7","5","5","1","6","3","7","5","5","6","6","6","7","5","6","7","3","6","5","5","6","6","6","634785170985058304","周","355","Male","[""坏他"",""好我"",""好他"",""坏我""]","[""弱他"",""强我"",""强他"",""弱我""]","","","","","","","","","","","","","","","","","","","","","","","","","","","","","","feedback_test","","","","","","","",""
"882","","f","psychophysics","78","409715","0.0-8.0-0.0-1.0-0.0-0.34","6","7","5","6","7","4","4","5","4","5","4","-1","-3","1","0","2","1","0","2","4","5","4","5","4","5","4","5","4","4","8","7","9","8","7","9","7","6","8","5","1","6","5","5","6","6","6","7","7","5","6","3","7","5","6","7","7","5","5","1","6","3","7","5","5","6","6","6","7","5","6","7","3","6","5","5","6","6","6","634785170985058304","周","355","Male","[""坏他"",""好我"",""好他"",""坏我""]","[""弱他"",""强我"",""强他"",""弱我""]","","","","","","","","nonmatch","","","","","","","","","","key","f","16.65043749999989","799.9999682108573","445.8333156175091","f","true","nonmatch","img/hexagon.png","坏我","好他","prac_ALT2_moral","practice_moral","","","","","","","",""
"null","<span style='color:GreenYellow; font-size: 70px;'>正确! </span>","null","html-keyboard-response","79","410217","0.0-8.0-0.0-1.0-0.0-1.34","6","7","5","6","7","4","4","5","4","5","4","-1","-3","1","0","2","1","0","2","4","5","4","5","4","5","4","5","4","4","8","7","9","8","7","9","7","6","8","5","1","6","5","5","6","6","6","7","7","5","6","3","7","5","6","7","7","5","5","1","6","3","7","5","5","6","6","6","7","5","6","7","3","6","5","5","6","6","6","634785170985058304","周","355","Male","[""坏他"",""好我"",""好他"",""坏我""]","[""弱他"",""强我"",""强他"",""弱我""]","","","","","","","","","","","","","","","","","","","","","","","","","","","","","","feedback_test","","","","","","","",""
"685","","j","psychophysics","80","411904","0.0-8.0-0.0-1.0-0.0-0.35","6","7","5","6","7","4","4","5","4","5","4","-1","-3","1","0","2","1","0","2","4","5","4","5","4","5","4","5","4","4","8","7","9","8","7","9","7","6","8","5","1","6","5","5","6","6","6","7","7","5","6","3","7","5","6","7","7","5","5","1","6","3","7","5","5","6","6","6","7","5","6","7","3","6","5","5","6","6","6","634785170985058304","周","355","Male","[""坏他"",""好我"",""好他"",""坏我""]","[""弱他"",""强我"",""强他"",""弱我""]","","","","","","","","match","","","","","","","","","","key","j","16.653356435643","799.9999682108573","445.8333156175091","f","false","nonmatch","img/hexagon.png","坏他","好他","prac_ALT2_moral","practice_moral","","","","","","","",""
"null","<span style='color:red; font-size: 70px;'>错误! </span>","null","html-keyboard-response","81","412407","0.0-8.0-0.0-1.0-0.0-1.35","6","7","5","6","7","4","4","5","4","5","4","-1","-3","1","0","2","1","0","2","4","5","4","5","4","5","4","5","4","4","8","7","9","8","7","9","7","6","8","5","1","6","5","5","6","6","6","7","7","5","6","3","7","5","6","7","7","5","5","1","6","3","7","5","5","6","6","6","7","5","6","7","3","6","5","5","6","6","6","634785170985058304","周","355","Male","[""坏他"",""好我"",""好他"",""坏我""]","[""弱他"",""强我"",""强他"",""弱我""]","","","","","","","","","","","","","","","","","","","","","","","","","","","","","","feedback_test","","","","","","","",""
"681","","j","psychophysics","82","414090","0.0-8.0-0.0-1.0-0.0-0.36","6","7","5","6","7","4","4","5","4","5","4","-1","-3","1","0","2","1","0","2","4","5","4","5","4","5","4","5","4","4","8","7","9","8","7","9","7","6","8","5","1","6","5","5","6","6","6","7","7","5","6","3","7","5","6","7","7","5","5","1","6","3","7","5","5","6","6","6","7","5","6","7","3","6","5","5","6","6","6","634785170985058304","周","355","Male","[""坏他"",""好我"",""好他"",""坏我""]","[""弱他"",""强我"",""强他"",""弱我""]","","","","","","","","match","","","","","","","","","","key","j","16.653649999999907","799.9999682108573","445.8333156175091","j","true","match","img/square.png","坏我","坏我","prac_ALT2_moral","practice_moral","","","","","","","",""
"null","<span style='color:GreenYellow; font-size: 70px;'>正确! </span>","null","html-keyboard-response","83","414590","0.0-8.0-0.0-1.0-0.0-1.36","6","7","5","6","7","4","4","5","4","5","4","-1","-3","1","0","2","1","0","2","4","5","4","5","4","5","4","5","4","4","8","7","9","8","7","9","7","6","8","5","1","6","5","5","6","6","6","7","7","5","6","3","7","5","6","7","7","5","5","1","6","3","7","5","5","6","6","6","7","5","6","7","3","6","5","5","6","6","6","634785170985058304","周","355","Male","[""坏他"",""好我"",""好他"",""坏我""]","[""弱他"",""强我"",""强他"",""弱我""]","","","","","","","","","","","","","","","","","","","","","","","","","","","","","","feedback_test","","","","","","","",""
"797","","f","psychophysics","84","416388","0.0-8.0-0.0-1.0-0.0-0.37","6","7","5","6","7","4","4","5","4","5","4","-1","-3","1","0","2","1","0","2","4","5","4","5","4","5","4","5","4","4","8","7","9","8","7","9","7","6","8","5","1","6","5","5","6","6","6","7","7","5","6","3","7","5","6","7","7","5","5","1","6","3","7","5","5","6","6","6","7","5","6","7","3","6","5","5","6","6","6","634785170985058304","周","355","Male","[""坏他"",""好我"",""好他"",""坏我""]","[""弱他"",""强我"",""强他"",""弱我""]","","","","","","","","nonmatch","","","","","","","","","","key","f","16.65317757009359","799.9999682108573","445.8333156175091","j","false","match","img/trapezoid.png","好我","好我","prac_ALT2_moral","practice_moral","","","","","","","",""
"null","<span style='color:red; font-size: 70px;'>错误! </span>","null","html-keyboard-response","85","416889","0.0-8.0-0.0-1.0-0.0-1.37","6","7","5","6","7","4","4","5","4","5","4","-1","-3","1","0","2","1","0","2","4","5","4","5","4","5","4","5","4","4","8","7","9","8","7","9","7","6","8","5","1","6","5","5","6","6","6","7","7","5","6","3","7","5","6","7","7","5","5","1","6","3","7","5","5","6","6","6","7","5","6","7","3","6","5","5","6","6","6","634785170985058304","周","355","Male","[""坏他"",""好我"",""好他"",""坏我""]","[""弱他"",""强我"",""强他"",""弱我""]","","","","","","","","","","","","","","","","","","","","","","","","","","","","","","feedback_test","","","","","","","",""
"711","","j","psychophysics","86","418603","0.0-8.0-0.0-1.0-0.0-0.38","6","7","5","6","7","4","4","5","4","5","4","-1","-3","1","0","2","1","0","2","4","5","4","5","4","5","4","5","4","4","8","7","9","8","7","9","7","6","8","5","1","6","5","5","6","6","6","7","7","5","6","3","7","5","6","7","7","5","5","1","6","3","7","5","5","6","6","6","7","5","6","7","3","6","5","5","6","6","6","634785170985058304","周","355","Male","[""坏他"",""好我"",""好他"",""坏我""]","[""弱他"",""强我"",""强他"",""弱我""]","","","","","","","","match","","","","","","","","","","key","j","16.653529411764456","799.9999682108573","445.8333156175091","j","true","match","img/hexagon.png","好他","好他","prac_ALT2_moral","practice_moral","","","","","","","",""
"null","<span style='color:GreenYellow; font-size: 70px;'>正确! </span>","null","html-keyboard-response","87","419104","0.0-8.0-0.0-1.0-0.0-1.38","6","7","5","6","7","4","4","5","4","5","4","-1","-3","1","0","2","1","0","2","4","5","4","5","4","5","4","5","4","4","8","7","9","8","7","9","7","6","8","5","1","6","5","5","6","6","6","7","7","5","6","3","7","5","6","7","7","5","5","1","6","3","7","5","5","6","6","6","7","5","6","7","3","6","5","5","6","6","6","634785170985058304","周","355","Male","[""坏他"",""好我"",""好他"",""坏我""]","[""弱他"",""强我"",""强他"",""弱我""]","","","","","","","","","","","","","","","","","","","","","","","","","","","","","","feedback_test","","","","","","","",""
"696","","f","psychophysics","88","420802","0.0-8.0-0.0-1.0-0.0-0.39","6","7","5","6","7","4","4","5","4","5","4","-1","-3","1","0","2","1","0","2","4","5","4","5","4","5","4","5","4","4","8","7","9","8","7","9","7","6","8","5","1","6","5","5","6","6","6","7","7","5","6","3","7","5","6","7","7","5","5","1","6","3","7","5","5","6","6","6","7","5","6","7","3","6","5","5","6","6","6","634785170985058304","周","355","Male","[""坏他"",""好我"",""好他"",""坏我""]","[""弱他"",""强我"",""强他"",""弱我""]","","","","","","","","nonmatch","","","","","","","","","","key","f","16.651396039604222","799.9999682108573","445.8333156175091","f","true","nonmatch","img/ellipse.png","好他","坏他","prac_ALT2_moral","practice_moral","","","","","","","",""
"null","<span style='color:GreenYellow; font-size: 70px;'>正确! </span>","null","html-keyboard-response","89","421317","0.0-8.0-0.0-1.0-0.0-1.39","6","7","5","6","7","4","4","5","4","5","4","-1","-3","1","0","2","1","0","2","4","5","4","5","4","5","4","5","4","4","8","7","9","8","7","9","7","6","8","5","1","6","5","5","6","6","6","7","7","5","6","3","7","5","6","7","7","5","5","1","6","3","7","5","5","6","6","6","7","5","6","7","3","6","5","5","6","6","6","634785170985058304","周","355","Male","[""坏他"",""好我"",""好他"",""坏我""]","[""弱他"",""强我"",""强他"",""弱我""]","","","","","","","","","","","","","","","","","","","","","","","","","","","","","","feedback_test","","","","","","","",""
"882","","f","psychophysics","90","423200","0.0-8.0-0.0-1.0-0.0-0.40","6","7","5","6","7","4","4","5","4","5","4","-1","-3","1","0","2","1","0","2","4","5","4","5","4","5","4","5","4","4","8","7","9","8","7","9","7","6","8","5","1","6","5","5","6","6","6","7","7","5","6","3","7","5","6","7","7","5","5","1","6","3","7","5","5","6","6","6","7","5","6","7","3","6","5","5","6","6","6","634785170985058304","周","355","Male","[""坏他"",""好我"",""好他"",""坏我""]","[""弱他"",""强我"",""强他"",""弱我""]","","","","","","","","nonmatch","","","","","","","","","","key","f","16.652866071428434","799.9999682108573","445.8333156175091","f","true","nonmatch","img/hexagon.png","好我","好他","prac_ALT2_moral","practice_moral","","","","","","","",""
"null","<span style='color:GreenYellow; font-size: 70px;'>正确! </span>","null","html-keyboard-response","91","423701","0.0-8.0-0.0-1.0-0.0-1.40","6","7","5","6","7","4","4","5","4","5","4","-1","-3","1","0","2","1","0","2","4","5","4","5","4","5","4","5","4","4","8","7","9","8","7","9","7","6","8","5","1","6","5","5","6","6","6","7","7","5","6","3","7","5","6","7","7","5","5","1","6","3","7","5","5","6","6","6","7","5","6","7","3","6","5","5","6","6","6","634785170985058304","周","355","Male","[""坏他"",""好我"",""好他"",""坏我""]","[""弱他"",""强我"",""强他"",""弱我""]","","","","","","","","","","","","","","","","","","","","","","","","","","","","","","feedback_test","","","","","","","",""
"674","","j","psychophysics","92","425377","0.0-8.0-0.0-1.0-0.0-0.41","6","7","5","6","7","4","4","5","4","5","4","-1","-3","1","0","2","1","0","2","4","5","4","5","4","5","4","5","4","4","8","7","9","8","7","9","7","6","8","5","1","6","5","5","6","6","6","7","7","5","6","3","7","5","6","7","7","5","5","1","6","3","7","5","5","6","6","6","7","5","6","7","3","6","5","5","6","6","6","634785170985058304","周","355","Male","[""坏他"",""好我"",""好他"",""坏我""]","[""弱他"",""强我"",""强他"",""弱我""]","","","","","","","","match","","","","","","","","","","key","j","16.6539300000004","799.9999682108573","445.8333156175091","j","true","match","img/square.png","坏我","坏我","prac_ALT2_moral","practice_moral","","","","","","","",""
"null","<span style='color:GreenYellow; font-size: 70px;'>正确! </span>","null","html-keyboard-response","93","425879","0.0-8.0-0.0-1.0-0.0-1.41","6","7","5","6","7","4","4","5","4","5","4","-1","-3","1","0","2","1","0","2","4","5","4","5","4","5","4","5","4","4","8","7","9","8","7","9","7","6","8","5","1","6","5","5","6","6","6","7","7","5","6","3","7","5","6","7","7","5","5","1","6","3","7","5","5","6","6","6","7","5","6","7","3","6","5","5","6","6","6","634785170985058304","周","355","Male","[""坏他"",""好我"",""好他"",""坏我""]","[""弱他"",""强我"",""强他"",""弱我""]","","","","","","","","","","","","","","","","","","","","","","","","","","","","","","feedback_test","","","","","","","",""
"847","","j","psychophysics","94","427728","0.0-8.0-0.0-1.0-0.0-0.42","6","7","5","6","7","4","4","5","4","5","4","-1","-3","1","0","2","1","0","2","4","5","4","5","4","5","4","5","4","4","8","7","9","8","7","9","7","6","8","5","1","6","5","5","6","6","6","7","7","5","6","3","7","5","6","7","7","5","5","1","6","3","7","5","5","6","6","6","7","5","6","7","3","6","5","5","6","6","6","634785170985058304","周","355","Male","[""坏他"",""好我"",""好他"",""坏我""]","[""弱他"",""强我"",""强他"",""弱我""]","","","","","","","","match","","","","","","","","","","key","j","16.65367272727308","799.9999682108573","445.8333156175091","f","false","nonmatch","img/square.png","坏他","坏我","prac_ALT2_moral","practice_moral","","","","","","","",""
"null","<span style='color:red; font-size: 70px;'>错误! </span>","null","html-keyboard-response","95","428229","0.0-8.0-0.0-1.0-0.0-1.42","6","7","5","6","7","4","4","5","4","5","4","-1","-3","1","0","2","1","0","2","4","5","4","5","4","5","4","5","4","4","8","7","9","8","7","9","7","6","8","5","1","6","5","5","6","6","6","7","7","5","6","3","7","5","6","7","7","5","5","1","6","3","7","5","5","6","6","6","7","5","6","7","3","6","5","5","6","6","6","634785170985058304","周","355","Male","[""坏他"",""好我"",""好他"",""坏我""]","[""弱他"",""强我"",""强他"",""弱我""]","","","","","","","","","","","","","","","","","","","","","","","","","","","","","","feedback_test","","","","","","","",""
"804","","j","psychophysics","96","430034","0.0-8.0-0.0-1.0-0.0-0.43","6","7","5","6","7","4","4","5","4","5","4","-1","-3","1","0","2","1","0","2","4","5","4","5","4","5","4","5","4","4","8","7","9","8","7","9","7","6","8","5","1","6","5","5","6","6","6","7","7","5","6","3","7","5","6","7","7","5","5","1","6","3","7","5","5","6","6","6","7","5","6","7","3","6","5","5","6","6","6","634785170985058304","周","355","Male","[""坏他"",""好我"",""好他"",""坏我""]","[""弱他"",""强我"",""强他"",""弱我""]","","","","","","","","match","","","","","","","","","","key","j","16.6533271028039","799.9999682108573","445.8333156175091","j","true","match","img/ellipse.png","坏他","坏他","prac_ALT2_moral","practice_moral","","","","","","","",""
"null","<span style='color:GreenYellow; font-size: 70px;'>正确! </span>","null","html-keyboard-response","97","430536","0.0-8.0-0.0-1.0-0.0-1.43","6","7","5","6","7","4","4","5","4","5","4","-1","-3","1","0","2","1","0","2","4","5","4","5","4","5","4","5","4","4","8","7","9","8","7","9","7","6","8","5","1","6","5","5","6","6","6","7","7","5","6","3","7","5","6","7","7","5","5","1","6","3","7","5","5","6","6","6","7","5","6","7","3","6","5","5","6","6","6","634785170985058304","周","355","Male","[""坏他"",""好我"",""好他"",""坏我""]","[""弱他"",""强我"",""强他"",""弱我""]","","","","","","","","","","","","","","","","","","","","","","","","","","","","","","feedback_test","","","","","","","",""
"807","","f","psychophysics","98","432343","0.0-8.0-0.0-1.0-0.0-0.44","6","7","5","6","7","4","4","5","4","5","4","-1","-3","1","0","2","1","0","2","4","5","4","5","4","5","4","5","4","4","8","7","9","8","7","9","7","6","8","5","1","6","5","5","6","6","6","7","7","5","6","3","7","5","6","7","7","5","5","1","6","3","7","5","5","6","6","6","7","5","6","7","3","6","5","5","6","6","6","634785170985058304","周","355","Male","[""坏他"",""好我"",""好他"",""坏我""]","[""弱他"",""强我"",""强他"",""弱我""]","","","","","","","","nonmatch","","","","","","","","","","key","f","16.653962962963206","799.9999682108573","445.8333156175091","f","true","nonmatch","img/trapezoid.png","坏我","好我","prac_ALT2_moral","practice_moral","","","","","","","",""
"null","<span style='color:GreenYellow; font-size: 70px;'>正确! </span>","null","html-keyboard-response","99","432845","0.0-8.0-0.0-1.0-0.0-1.44","6","7","5","6","7","4","4","5","4","5","4","-1","-3","1","0","2","1","0","2","4","5","4","5","4","5","4","5","4","4","8","7","9","8","7","9","7","6","8","5","1","6","5","5","6","6","6","7","7","5","6","3","7","5","6","7","7","5","5","1","6","3","7","5","5","6","6","6","7","5","6","7","3","6","5","5","6","6","6","634785170985058304","周","355","Male","[""坏他"",""好我"",""好他"",""坏我""]","[""弱他"",""强我"",""强他"",""弱我""]","","","","","","","","","","","","","","","","","","","","","","","","","","","","","","feedback_test","","","","","","","",""
"668","","f","psychophysics","100","434515","0.0-8.0-0.0-1.0-0.0-0.45","6","7","5","6","7","4","4","5","4","5","4","-1","-3","1","0","2","1","0","2","4","5","4","5","4","5","4","5","4","4","8","7","9","8","7","9","7","6","8","5","1","6","5","5","6","6","6","7","7","5","6","3","7","5","6","7","7","5","5","1","6","3","7","5","5","6","6","6","7","5","6","7","3","6","5","5","6","6","6","634785170985058304","周","355","Male","[""坏他"",""好我"",""好他"",""坏我""]","[""弱他"",""强我"",""强他"",""弱我""]","","","","","","","","nonmatch","","","","","","","","","","key","f","16.647565656565625","799.9999682108573","445.8333156175091","f","true","nonmatch","img/square.png","好他","坏我","prac_ALT2_moral","practice_moral","","","","","","","",""
"null","<span style='color:GreenYellow; font-size: 70px;'>正确! </span>","null","html-keyboard-response","101","435017","0.0-8.0-0.0-1.0-0.0-1.45","6","7","5","6","7","4","4","5","4","5","4","-1","-3","1","0","2","1","0","2","4","5","4","5","4","5","4","5","4","4","8","7","9","8","7","9","7","6","8","5","1","6","5","5","6","6","6","7","7","5","6","3","7","5","6","7","7","5","5","1","6","3","7","5","5","6","6","6","7","5","6","7","3","6","5","5","6","6","6","634785170985058304","周","355","Male","[""坏他"",""好我"",""好他"",""坏我""]","[""弱他"",""强我"",""强他"",""弱我""]","","","","","","","","","","","","","","","","","","","","","","","","","","","","","","feedback_test","","","","","","","",""
"712","","j","psychophysics","102","436731","0.0-8.0-0.0-1.0-0.0-0.46","6","7","5","6","7","4","4","5","4","5","4","-1","-3","1","0","2","1","0","2","4","5","4","5","4","5","4","5","4","4","8","7","9","8","7","9","7","6","8","5","1","6","5","5","6","6","6","7","7","5","6","3","7","5","6","7","7","5","5","1","6","3","7","5","5","6","6","6","7","5","6","7","3","6","5","5","6","6","6","634785170985058304","周","355","Male","[""坏他"",""好我"",""好他"",""坏我""]","[""弱他"",""强我"",""强他"",""弱我""]","","","","","","","","match","","","","","","","","","","key","j","16.643960396039972","799.9999682108573","445.8333156175091","j","true","match","img/hexagon.png","好他","好他","prac_ALT2_moral","practice_moral","","","","","","","",""
"null","<span style='color:GreenYellow; font-size: 70px;'>正确! </span>","null","html-keyboard-response","103","437247","0.0-8.0-0.0-1.0-0.0-1.46","6","7","5","6","7","4","4","5","4","5","4","-1","-3","1","0","2","1","0","2","4","5","4","5","4","5","4","5","4","4","8","7","9","8","7","9","7","6","8","5","1","6","5","5","6","6","6","7","7","5","6","3","7","5","6","7","7","5","5","1","6","3","7","5","5","6","6","6","7","5","6","7","3","6","5","5","6","6","6","634785170985058304","周","355","Male","[""坏他"",""好我"",""好他"",""坏我""]","[""弱他"",""强我"",""强他"",""弱我""]","","","","","","","","","","","","","","","","","","","","","","","","","","","","","","feedback_test","","","","","","","",""
"713","","f","psychophysics","104","438962","0.0-8.0-0.0-1.0-0.0-0.47","6","7","5","6","7","4","4","5","4","5","4","-1","-3","1","0","2","1","0","2","4","5","4","5","4","5","4","5","4","4","8","7","9","8","7","9","7","6","8","5","1","6","5","5","6","6","6","7","7","5","6","3","7","5","6","7","7","5","5","1","6","3","7","5","5","6","6","6","7","5","6","7","3","6","5","5","6","6","6","634785170985058304","周","355","Male","[""坏他"",""好我"",""好他"",""坏我""]","[""弱他"",""强我"",""强他"",""弱我""]","","","","","","","","nonmatch","","","","","","","","","","key","f","16.653607843137305","799.9999682108573","445.8333156175091","f","true","nonmatch","img/square.png","好我","坏我","prac_ALT2_moral","practice_moral","","","","","","","",""
"null","<span style='color:GreenYellow; font-size: 70px;'>正确! </span>","null","html-keyboard-response","105","439463","0.0-8.0-0.0-1.0-0.0-1.47","6","7","5","6","7","4","4","5","4","5","4","-1","-3","1","0","2","1","0","2","4","5","4","5","4","5","4","5","4","4","8","7","9","8","7","9","7","6","8","5","1","6","5","5","6","6","6","7","7","5","6","3","7","5","6","7","7","5","5","1","6","3","7","5","5","6","6","6","7","5","6","7","3","6","5","5","6","6","6","634785170985058304","周","355","Male","[""坏他"",""好我"",""好他"",""坏我""]","[""弱他"",""强我"",""强他"",""弱我""]","","","","","","","","","","","","","","","","","","","","","","","","","","","","","","feedback_test","","","","","","","",""
"1798","<style>.context{color:white; font-size: 35px; line-height:40px}</style>                            <div><p class='context'>您正确回答了79% 的试次。</p><p class='context'>您的平均反应时为814毫秒。</p><p class='context'>恭喜您完成练习。按空格键进入正式实验。</p><p class='footer' style='font-size: 35px; line-height:40px;'>请在进入正式实验实验之前将您的<span style='color: lightgreen;'>食指</span>放在电脑键盘的相应键位上进行按键。</p>"," ","html-keyboard-response","106","441264","0.0-8.0-0.0-2.0","6","7","5","6","7","4","4","5","4","5","4","-1","-3","1","0","2","1","0","2","4","5","4","5","4","5","4","5","4","4","8","7","9","8","7","9","7","6","8","5","1","6","5","5","6","6","6","7","7","5","6","3","7","5","6","7","7","5","5","1","6","3","7","5","5","6","6","6","7","5","6","7","3","6","5","5","6","6","6","634785170985058304","周","355","Male","[""坏他"",""好我"",""好他"",""坏我""]","[""弱他"",""强我"",""强他"",""弱我""]","","","","","","","","","","","","","","","","","","","","","","","","","","","","","","","","","","","","","",""
"136041","
    <p style='color: white; font-size: 22px'>请您将手指放在按键上，准备进入正式的匹配任务。</p>
    <p> <div style = ""color: green""><按空格键进入下一阶段的匹配任务></div></p>
    "," ","html-keyboard-response","107","577307","0.0-8.0-0.0-3.0","6","7","5","6","7","4","4","5","4","5","4","-1","-3","1","0","2","1","0","2","4","5","4","5","4","5","4","5","4","4","8","7","9","8","7","9","7","6","8","5","1","6","5","5","6","6","6","7","7","5","6","3","7","5","6","7","7","5","5","1","6","3","7","5","5","6","6","6","7","5","6","7","3","6","5","5","6","6","6","634785170985058304","周","355","Male","[""坏他"",""好我"",""好他"",""坏我""]","[""弱他"",""强我"",""强他"",""弱我""]","","","","","","","","","","","","","","","","","","","","","","","","","","","","","","","","","","","","","",""
"1051","","j","psychophysics","108","579360","0.0-8.0-0.0-4.0-0.0-0.0","6","7","5","6","7","4","4","5","4","5","4","-1","-3","1","0","2","1","0","2","4","5","4","5","4","5","4","5","4","4","8","7","9","8","7","9","7","6","8","5","1","6","5","5","6","6","6","7","7","5","6","3","7","5","6","7","7","5","5","1","6","3","7","5","5","6","6","6","7","5","6","7","3","6","5","5","6","6","6","634785170985058304","周","355","Male","[""坏他"",""好我"",""好他"",""坏我""]","[""弱他"",""强我"",""强他"",""弱我""]","","","","","","","","match","","","","","","","","","","key","j","16.65437704918059","799.9999682108573","445.8333156175091","j","true","match","img/trapezoid.png","好我","好我","ALT2","moral","","","","","","","",""
"null","<span style='color:GreenYellow; font-size: 70px;'>正确! </span>","null","html-keyboard-response","109","579863","0.0-8.0-0.0-4.0-0.0-1.0","6","7","5","6","7","4","4","5","4","5","4","-1","-3","1","0","2","1","0","2","4","5","4","5","4","5","4","5","4","4","8","7","9","8","7","9","7","6","8","5","1","6","5","5","6","6","6","7","7","5","6","3","7","5","6","7","7","5","5","1","6","3","7","5","5","6","6","6","7","5","6","7","3","6","5","5","6","6","6","634785170985058304","周","355","Male","[""坏他"",""好我"",""好他"",""坏我""]","[""弱他"",""强我"",""强他"",""弱我""]","","","","","","","","","","","","","","","","","","","","","","","","","","","","","","feedback_test","","","","","","","",""
"727","","j","psychophysics","110","581591","0.0-8.0-0.0-4.0-0.0-0.1","6","7","5","6","7","4","4","5","4","5","4","-1","-3","1","0","2","1","0","2","4","5","4","5","4","5","4","5","4","4","8","7","9","8","7","9","7","6","8","5","1","6","5","5","6","6","6","7","7","5","6","3","7","5","6","7","7","5","5","1","6","3","7","5","5","6","6","6","7","5","6","7","3","6","5","5","6","6","6","634785170985058304","周","355","Male","[""坏他"",""好我"",""好他"",""坏我""]","[""弱他"",""强我"",""强他"",""弱我""]","","","","","","","","match","","","","","","","","","","key","j","16.653087378641164","799.9999682108573","445.8333156175091","j","true","match","img/ellipse.png","坏他","坏他","ALT2","moral","","","","","","","",""
"null","<span style='color:GreenYellow; font-size: 70px;'>正确! </span>","null","html-keyboard-response","111","582092","0.0-8.0-0.0-4.0-0.0-1.1","6","7","5","6","7","4","4","5","4","5","4","-1","-3","1","0","2","1","0","2","4","5","4","5","4","5","4","5","4","4","8","7","9","8","7","9","7","6","8","5","1","6","5","5","6","6","6","7","7","5","6","3","7","5","6","7","7","5","5","1","6","3","7","5","5","6","6","6","7","5","6","7","3","6","5","5","6","6","6","634785170985058304","周","355","Male","[""坏他"",""好我"",""好他"",""坏我""]","[""弱他"",""强我"",""强他"",""弱我""]","","","","","","","","","","","","","","","","","","","","","","","","","","","","","","feedback_test","","","","","","","",""
"782","","f","psychophysics","112","583876","0.0-8.0-0.0-4.0-0.0-0.2","6","7","5","6","7","4","4","5","4","5","4","-1","-3","1","0","2","1","0","2","4","5","4","5","4","5","4","5","4","4","8","7","9","8","7","9","7","6","8","5","1","6","5","5","6","6","6","7","7","5","6","3","7","5","6","7","7","5","5","1","6","3","7","5","5","6","6","6","7","5","6","7","3","6","5","5","6","6","6","634785170985058304","周","355","Male","[""坏他"",""好我"",""好他"",""坏我""]","[""弱他"",""强我"",""强他"",""弱我""]","","","","","","","","nonmatch","","","","","","","","","","key","f","16.65364150943362","799.9999682108573","445.8333156175091","f","true","nonmatch","img/square.png","坏他","坏我","ALT2","moral","","","","","","","",""
"null","<span style='color:GreenYellow; font-size: 70px;'>正确! </span>","null","html-keyboard-response","113","584377","0.0-8.0-0.0-4.0-0.0-1.2","6","7","5","6","7","4","4","5","4","5","4","-1","-3","1","0","2","1","0","2","4","5","4","5","4","5","4","5","4","4","8","7","9","8","7","9","7","6","8","5","1","6","5","5","6","6","6","7","7","5","6","3","7","5","6","7","7","5","5","1","6","3","7","5","5","6","6","6","7","5","6","7","3","6","5","5","6","6","6","634785170985058304","周","355","Male","[""坏他"",""好我"",""好他"",""坏我""]","[""弱他"",""强我"",""强他"",""弱我""]","","","","","","","","","","","","","","","","","","","","","","","","","","","","","","feedback_test","","","","","","","",""
"948","","f","psychophysics","114","586327","0.0-8.0-0.0-4.0-0.0-0.3","6","7","5","6","7","4","4","5","4","5","4","-1","-3","1","0","2","1","0","2","4","5","4","5","4","5","4","5","4","4","8","7","9","8","7","9","7","6","8","5","1","6","5","5","6","6","6","7","7","5","6","3","7","5","6","7","7","5","5","1","6","3","7","5","5","6","6","6","7","5","6","7","3","6","5","5","6","6","6","634785170985058304","周","355","Male","[""坏他"",""好我"",""好他"",""坏我""]","[""弱他"",""强我"",""强他"",""弱我""]","","","","","","","","nonmatch","","","","","","","","","","key","f","16.643344827586432","799.9999682108573","445.8333156175091","f","true","nonmatch","img/hexagon.png","坏我","好他","ALT2","moral","","","","","","","",""
"null","<span style='color:GreenYellow; font-size: 70px;'>正确! </span>","null","html-keyboard-response","115","586829","0.0-8.0-0.0-4.0-0.0-1.3","6","7","5","6","7","4","4","5","4","5","4","-1","-3","1","0","2","1","0","2","4","5","4","5","4","5","4","5","4","4","8","7","9","8","7","9","7","6","8","5","1","6","5","5","6","6","6","7","7","5","6","3","7","5","6","7","7","5","5","1","6","3","7","5","5","6","6","6","7","5","6","7","3","6","5","5","6","6","6","634785170985058304","周","355","Male","[""坏他"",""好我"",""好他"",""坏我""]","[""弱他"",""强我"",""强他"",""弱我""]","","","","","","","","","","","","","","","","","","","","","","","","","","","","","","feedback_test","","","","","","","",""
"1054","","f","psychophysics","116","588885","0.0-8.0-0.0-4.0-0.0-0.4","6","7","5","6","7","4","4","5","4","5","4","-1","-3","1","0","2","1","0","2","4","5","4","5","4","5","4","5","4","4","8","7","9","8","7","9","7","6","8","5","1","6","5","5","6","6","6","7","7","5","6","3","7","5","6","7","7","5","5","1","6","3","7","5","5","6","6","6","7","5","6","7","3","6","5","5","6","6","6","634785170985058304","周","355","Male","[""坏他"",""好我"",""好他"",""坏我""]","[""弱他"",""强我"",""强他"",""弱我""]","","","","","","","","nonmatch","","","","","","","","","","key","f","16.65380327868825","799.9999682108573","445.8333156175091","f","true","nonmatch","img/hexagon.png","好我","好他","ALT2","moral","","","","","","","",""
"null","<span style='color:GreenYellow; font-size: 70px;'>正确! </span>","null","html-keyboard-response","117","589386","0.0-8.0-0.0-4.0-0.0-1.4","6","7","5","6","7","4","4","5","4","5","4","-1","-3","1","0","2","1","0","2","4","5","4","5","4","5","4","5","4","4","8","7","9","8","7","9","7","6","8","5","1","6","5","5","6","6","6","7","7","5","6","3","7","5","6","7","7","5","5","1","6","3","7","5","5","6","6","6","7","5","6","7","3","6","5","5","6","6","6","634785170985058304","周","355","Male","[""坏他"",""好我"",""好他"",""坏我""]","[""弱他"",""强我"",""强他"",""弱我""]","","","","","","","","","","","","","","","","","","","","","","","","","","","","","","feedback_test","","","","","","","",""
"862","","j","psychophysics","118","591249","0.0-8.0-0.0-4.0-0.0-0.5","6","7","5","6","7","4","4","5","4","5","4","-1","-3","1","0","2","1","0","2","4","5","4","5","4","5","4","5","4","4","8","7","9","8","7","9","7","6","8","5","1","6","5","5","6","6","6","7","7","5","6","3","7","5","6","7","7","5","5","1","6","3","7","5","5","6","6","6","7","5","6","7","3","6","5","5","6","6","6","634785170985058304","周","355","Male","[""坏他"",""好我"",""好他"",""坏我""]","[""弱他"",""强我"",""强他"",""弱我""]","","","","","","","","match","","","","","","","","","","key","j","16.653396396396413","799.9999682108573","445.8333156175091","j","true","match","img/ellipse.png","坏他","坏他","ALT2","moral","","","","","","","",""
"null","<span style='color:GreenYellow; font-size: 70px;'>正确! </span>","null","html-keyboard-response","119","591752","0.0-8.0-0.0-4.0-0.0-1.5","6","7","5","6","7","4","4","5","4","5","4","-1","-3","1","0","2","1","0","2","4","5","4","5","4","5","4","5","4","4","8","7","9","8","7","9","7","6","8","5","1","6","5","5","6","6","6","7","7","5","6","3","7","5","6","7","7","5","5","1","6","3","7","5","5","6","6","6","7","5","6","7","3","6","5","5","6","6","6","634785170985058304","周","355","Male","[""坏他"",""好我"",""好他"",""坏我""]","[""弱他"",""强我"",""强他"",""弱我""]","","","","","","","","","","","","","","","","","","","","","","","","","","","","","","feedback_test","","","","","","","",""
"821","","j","psychophysics","120","593574","0.0-8.0-0.0-4.0-0.0-0.6","6","7","5","6","7","4","4","5","4","5","4","-1","-3","1","0","2","1","0","2","4","5","4","5","4","5","4","5","4","4","8","7","9","8","7","9","7","6","8","5","1","6","5","5","6","6","6","7","7","5","6","3","7","5","6","7","7","5","5","1","6","3","7","5","5","6","6","6","7","5","6","7","3","6","5","5","6","6","6","634785170985058304","周","355","Male","[""坏他"",""好我"",""好他"",""坏我""]","[""弱他"",""强我"",""强他"",""弱我""]","","","","","","","","match","","","","","","","","","","key","j","16.65340366972495","799.9999682108573","445.8333156175091","j","true","match","img/square.png","坏我","坏我","ALT2","moral","","","","","","","",""
"null","<span style='color:GreenYellow; font-size: 70px;'>正确! </span>","null","html-keyboard-response","121","594075","0.0-8.0-0.0-4.0-0.0-1.6","6","7","5","6","7","4","4","5","4","5","4","-1","-3","1","0","2","1","0","2","4","5","4","5","4","5","4","5","4","4","8","7","9","8","7","9","7","6","8","5","1","6","5","5","6","6","6","7","7","5","6","3","7","5","6","7","7","5","5","1","6","3","7","5","5","6","6","6","7","5","6","7","3","6","5","5","6","6","6","634785170985058304","周","355","Male","[""坏他"",""好我"",""好他"",""坏我""]","[""弱他"",""强我"",""强他"",""弱我""]","","","","","","","","","","","","","","","","","","","","","","","","","","","","","","feedback_test","","","","","","","",""
"1141","","j","psychophysics","122","596218","0.0-8.0-0.0-4.0-0.0-0.7","6","7","5","6","7","4","4","5","4","5","4","-1","-3","1","0","2","1","0","2","4","5","4","5","4","5","4","5","4","4","8","7","9","8","7","9","7","6","8","5","1","6","5","5","6","6","6","7","7","5","6","3","7","5","6","7","7","5","5","1","6","3","7","5","5","6","6","6","7","5","6","7","3","6","5","5","6","6","6","634785170985058304","周","355","Male","[""坏他"",""好我"",""好他"",""坏我""]","[""弱他"",""强我"",""强他"",""弱我""]","","","","","","","","match","","","","","","","","","","key","j","16.65295275590588","799.9999682108573","445.8333156175091","j","true","match","img/hexagon.png","好他","好他","ALT2","moral","","","","","","","",""
"null","<span style='color:GreenYellow; font-size: 70px;'>正确! </span>","null","html-keyboard-response","123","596718","0.0-8.0-0.0-4.0-0.0-1.7","6","7","5","6","7","4","4","5","4","5","4","-1","-3","1","0","2","1","0","2","4","5","4","5","4","5","4","5","4","4","8","7","9","8","7","9","7","6","8","5","1","6","5","5","6","6","6","7","7","5","6","3","7","5","6","7","7","5","5","1","6","3","7","5","5","6","6","6","7","5","6","7","3","6","5","5","6","6","6","634785170985058304","周","355","Male","[""坏他"",""好我"",""好他"",""坏我""]","[""弱他"",""强我"",""强他"",""弱我""]","","","","","","","","","","","","","","","","","","","","","","","","","","","","","","feedback_test","","","","","","","",""
"835","","j","psychophysics","124","598556","0.0-8.0-0.0-4.0-0.0-0.8","6","7","5","6","7","4","4","5","4","5","4","-1","-3","1","0","2","1","0","2","4","5","4","5","4","5","4","5","4","4","8","7","9","8","7","9","7","6","8","5","1","6","5","5","6","6","6","7","7","5","6","3","7","5","6","7","7","5","5","1","6","3","7","5","5","6","6","6","7","5","6","7","3","6","5","5","6","6","6","634785170985058304","周","355","Male","[""坏他"",""好我"",""好他"",""坏我""]","[""弱他"",""强我"",""强他"",""弱我""]","","","","","","","","match","","","","","","","","","","key","j","16.653761467889993","799.9999682108573","445.8333156175091","j","true","match","img/hexagon.png","好他","好他","ALT2","moral","","","","","","","",""
"null","<span style='color:GreenYellow; font-size: 70px;'>正确! </span>","null","html-keyboard-response","125","599057","0.0-8.0-0.0-4.0-0.0-1.8","6","7","5","6","7","4","4","5","4","5","4","-1","-3","1","0","2","1","0","2","4","5","4","5","4","5","4","5","4","4","8","7","9","8","7","9","7","6","8","5","1","6","5","5","6","6","6","7","7","5","6","3","7","5","6","7","7","5","5","1","6","3","7","5","5","6","6","6","7","5","6","7","3","6","5","5","6","6","6","634785170985058304","周","355","Male","[""坏他"",""好我"",""好他"",""坏我""]","[""弱他"",""强我"",""强他"",""弱我""]","","","","","","","","","","","","","","","","","","","","","","","","","","","","","","feedback_test","","","","","","","",""
"925","","j","psychophysics","126","600984","0.0-8.0-0.0-4.0-0.0-0.9","6","7","5","6","7","4","4","5","4","5","4","-1","-3","1","0","2","1","0","2","4","5","4","5","4","5","4","5","4","4","8","7","9","8","7","9","7","6","8","5","1","6","5","5","6","6","6","7","7","5","6","3","7","5","6","7","7","5","5","1","6","3","7","5","5","6","6","6","7","5","6","7","3","6","5","5","6","6","6","634785170985058304","周","355","Male","[""坏他"",""好我"",""好他"",""坏我""]","[""弱他"",""强我"",""强他"",""弱我""]","","","","","","","","match","","","","","","","","","","key","j","16.65077391304278","799.9999682108573","445.8333156175091","j","true","match","img/ellipse.png","坏他","坏他","ALT2","moral","","","","","","","",""
"null","<span style='color:GreenYellow; font-size: 70px;'>正确! </span>","null","html-keyboard-response","127","601488","0.0-8.0-0.0-4.0-0.0-1.9","6","7","5","6","7","4","4","5","4","5","4","-1","-3","1","0","2","1","0","2","4","5","4","5","4","5","4","5","4","4","8","7","9","8","7","9","7","6","8","5","1","6","5","5","6","6","6","7","7","5","6","3","7","5","6","7","7","5","5","1","6","3","7","5","5","6","6","6","7","5","6","7","3","6","5","5","6","6","6","634785170985058304","周","355","Male","[""坏他"",""好我"",""好他"",""坏我""]","[""弱他"",""强我"",""强他"",""弱我""]","","","","","","","","","","","","","","","","","","","","","","","","","","","","","","feedback_test","","","","","","","",""
"844","","j","psychophysics","128","603333","0.0-8.0-0.0-4.0-0.0-0.10","6","7","5","6","7","4","4","5","4","5","4","-1","-3","1","0","2","1","0","2","4","5","4","5","4","5","4","5","4","4","8","7","9","8","7","9","7","6","8","5","1","6","5","5","6","6","6","7","7","5","6","3","7","5","6","7","7","5","5","1","6","3","7","5","5","6","6","6","7","5","6","7","3","6","5","5","6","6","6","634785170985058304","周","355","Male","[""坏他"",""好我"",""好他"",""坏我""]","[""弱他"",""强我"",""强他"",""弱我""]","","","","","","","","match","","","","","","","","","","key","j","16.652809090909166","799.9999682108573","445.8333156175091","j","true","match","img/trapezoid.png","好我","好我","ALT2","moral","","","","","","","",""
"null","<span style='color:GreenYellow; font-size: 70px;'>正确! </span>","null","html-keyboard-response","129","603834","0.0-8.0-0.0-4.0-0.0-1.10","6","7","5","6","7","4","4","5","4","5","4","-1","-3","1","0","2","1","0","2","4","5","4","5","4","5","4","5","4","4","8","7","9","8","7","9","7","6","8","5","1","6","5","5","6","6","6","7","7","5","6","3","7","5","6","7","7","5","5","1","6","3","7","5","5","6","6","6","7","5","6","7","3","6","5","5","6","6","6","634785170985058304","周","355","Male","[""坏他"",""好我"",""好他"",""坏我""]","[""弱他"",""强我"",""强他"",""弱我""]","","","","","","","","","","","","","","","","","","","","","","","","","","","","","","feedback_test","","","","","","","",""
"787","","j","psychophysics","130","605623","0.0-8.0-0.0-4.0-0.0-0.11","6","7","5","6","7","4","4","5","4","5","4","-1","-3","1","0","2","1","0","2","4","5","4","5","4","5","4","5","4","4","8","7","9","8","7","9","7","6","8","5","1","6","5","5","6","6","6","7","7","5","6","3","7","5","6","7","7","5","5","1","6","3","7","5","5","6","6","6","7","5","6","7","3","6","5","5","6","6","6","634785170985058304","周","355","Male","[""坏他"",""好我"",""好他"",""坏我""]","[""弱他"",""强我"",""强他"",""弱我""]","","","","","","","","match","","","","","","","","","","key","j","16.652207547170548","799.9999682108573","445.8333156175091","j","true","match","img/hexagon.png","好他","好他","ALT2","moral","","","","","","","",""
"null","<span style='color:GreenYellow; font-size: 70px;'>正确! </span>","null","html-keyboard-response","131","606125","0.0-8.0-0.0-4.0-0.0-1.11","6","7","5","6","7","4","4","5","4","5","4","-1","-3","1","0","2","1","0","2","4","5","4","5","4","5","4","5","4","4","8","7","9","8","7","9","7","6","8","5","1","6","5","5","6","6","6","7","7","5","6","3","7","5","6","7","7","5","5","1","6","3","7","5","5","6","6","6","7","5","6","7","3","6","5","5","6","6","6","634785170985058304","周","355","Male","[""坏他"",""好我"",""好他"",""坏我""]","[""弱他"",""强我"",""强他"",""弱我""]","","","","","","","","","","","","","","","","","","","","","","","","","","","","","","feedback_test","","","","","","","",""
"777","","f","psychophysics","132","607904","0.0-8.0-0.0-4.0-0.0-0.12","6","7","5","6","7","4","4","5","4","5","4","-1","-3","1","0","2","1","0","2","4","5","4","5","4","5","4","5","4","4","8","7","9","8","7","9","7","6","8","5","1","6","5","5","6","6","6","7","7","5","6","3","7","5","6","7","7","5","5","1","6","3","7","5","5","6","6","6","7","5","6","7","3","6","5","5","6","6","6","634785170985058304","周","355","Male","[""坏他"",""好我"",""好他"",""坏我""]","[""弱他"",""强我"",""强他"",""弱我""]","","","","","","","","nonmatch","","","","","","","","","","key","f","16.653113207546994","799.9999682108573","445.8333156175091","f","true","nonmatch","img/square.png","好我","坏我","ALT2","moral","","","","","","","",""
"null","<span style='color:GreenYellow; font-size: 70px;'>正确! </span>","null","html-keyboard-response","133","608404","0.0-8.0-0.0-4.0-0.0-1.12","6","7","5","6","7","4","4","5","4","5","4","-1","-3","1","0","2","1","0","2","4","5","4","5","4","5","4","5","4","4","8","7","9","8","7","9","7","6","8","5","1","6","5","5","6","6","6","7","7","5","6","3","7","5","6","7","7","5","5","1","6","3","7","5","5","6","6","6","7","5","6","7","3","6","5","5","6","6","6","634785170985058304","周","355","Male","[""坏他"",""好我"",""好他"",""坏我""]","[""弱他"",""强我"",""强他"",""弱我""]","","","","","","","","","","","","","","","","","","","","","","","","","","","","","","feedback_test","","","","","","","",""
"779","","j","psychophysics","134","610185","0.0-8.0-0.0-4.0-0.0-0.13","6","7","5","6","7","4","4","5","4","5","4","-1","-3","1","0","2","1","0","2","4","5","4","5","4","5","4","5","4","4","8","7","9","8","7","9","7","6","8","5","1","6","5","5","6","6","6","7","7","5","6","3","7","5","6","7","7","5","5","1","6","3","7","5","5","6","6","6","7","5","6","7","3","6","5","5","6","6","6","634785170985058304","周","355","Male","[""坏他"",""好我"",""好他"",""坏我""]","[""弱他"",""强我"",""强他"",""弱我""]","","","","","","","","match","","","","","","","","","","key","j","16.65424528301865","799.9999682108573","445.8333156175091","f","false","nonmatch","img/ellipse.png","好他","坏他","ALT2","moral","","","","","","","",""
"null","<span style='color:red; font-size: 70px;'>错误! </span>","null","html-keyboard-response","135","610686","0.0-8.0-0.0-4.0-0.0-1.13","6","7","5","6","7","4","4","5","4","5","4","-1","-3","1","0","2","1","0","2","4","5","4","5","4","5","4","5","4","4","8","7","9","8","7","9","7","6","8","5","1","6","5","5","6","6","6","7","7","5","6","3","7","5","6","7","7","5","5","1","6","3","7","5","5","6","6","6","7","5","6","7","3","6","5","5","6","6","6","634785170985058304","周","355","Male","[""坏他"",""好我"",""好他"",""坏我""]","[""弱他"",""强我"",""强他"",""弱我""]","","","","","","","","","","","","","","","","","","","","","","","","","","","","","","feedback_test","","","","","","","",""
"854","","j","psychophysics","136","612542","0.0-8.0-0.0-4.0-0.0-0.14","6","7","5","6","7","4","4","5","4","5","4","-1","-3","1","0","2","1","0","2","4","5","4","5","4","5","4","5","4","4","8","7","9","8","7","9","7","6","8","5","1","6","5","5","6","6","6","7","7","5","6","3","7","5","6","7","7","5","5","1","6","3","7","5","5","6","6","6","7","5","6","7","3","6","5","5","6","6","6","634785170985058304","周","355","Male","[""坏他"",""好我"",""好他"",""坏我""]","[""弱他"",""强我"",""强他"",""弱我""]","","","","","","","","match","","","","","","","","","","key","j","16.653459459460375","799.9999682108573","445.8333156175091","j","true","match","img/trapezoid.png","好我","好我","ALT2","moral","","","","","","","",""
