"rt","stimulus","response","trial_type","trial_index","time_elapsed","internal_node_id","swb_1","swb_2","swb_3","swb_4","swb_5","LOT_1","LOT_2","LOT_3","LOT_4","LOT_5","LOT_6","IPC_1","IPC_2","IPC_3","IPC_4","IPC_5","IPC_6","IPC_7","IPC_8","MorIden_1","MorIden_2","MorIden_3","MorIden_4","MorIden_5","MorIden_6","MorIden_7","MorIden_8","MorIden_9","MorIden_10","moralSeImag_1","moralSeImag_2","moralSeImag_3","moralSeImag_4","moralSeImag_5","moralSeImag_6","moralSeImag_7","moralSeImag_8","moralSeImag_9","sde_1","sde_2","sde_3","sde_4","sde_5","sde_6","sde_7","sde_8","sde_9","sde_10","sde_11","sde_12","sde_13","sde_14","sde_15","sde_16","sde_17","sde_18","sde_19","sde_20","IM_1","IM_2","IM_3","IM_4","IM_5","IM_6","IM_7","IM_8","IM_9","IM_10","IM_11","IM_12","IM_13","IM_14","IM_15","IM_16","IM_17","IM_18","IM_19","IM_20","subj_idx","friend_name","ParticipantID","Sex","Word","Word2","value","success","timeout","failed_images","failed_audio","failed_video","user_agent","responses","item_order","radio_event_ids","radio_event_times","key_event_times","mouse_event_times","straightlining","zigzagging","honeypot","task_id","screen_id","time_stamp","response_type","key_press","avg_frame_time","center_x","center_y","person","word","valence","domain","math","correct_response","correct","status","view_history","identity","duration","Image","condition","question_order"
"3850","
   <p><div style='color:white; font-size: 25px'>您好，欢迎参加本次实验。</div></p>
   <p><div style='color:white; font-size: 25px'>为充分保障您的权利，请确保您已经知晓并同意《参与实验同意书》以及《数据公开知情同意书》。</div></p>
   <p><div style='color:white; font-size: 25px'>如果您未见过上述内容，请咨询实验员。</div></p>
   <p style='color:white; font-size: 25px'>如果您选择继续实验，则表示您已经清楚两份知情同意书的内容并同意。</p>
   <p><div style = ""color: red;font-size:30px;"">请确保您记得day0的实验编号，您将在本次实验输入该编号，若您忘记，请咨询实验员后作答。</div></p>
   <p> <div style = ""color: green""><按空格键至下页></div> </p>
   "," ","html-keyboard-response","0","3852","0.0-0.0","5","6","7","5","6","5","5","5","5","5","5","2","1","1","2","1","2","2","2","5","5","5","5","5","4","4","4","5","5","7","8","8","8","7","9","8","9","8","6","7","4","7","7","7","6","7","7","7","6","7","7","7","6","7","7","7","5","7","7","7","7","7","7","7","7","7","7","7","7","7","7","7","6","7","7","7","7","7","557541487416442880","刘","37","Female","[""好她"",""好我"",""坏她"",""坏我""]","[""强她"",""强我"",""弱她"",""弱我""]","","","","","","","","","","","","","","","","","","","","","","","","","","","","","","","","","","","","","",""
"","","","call-function","1","3853","0.0-1.0-0.0","5","6","7","5","6","5","5","5","5","5","5","2","1","1","2","1","2","2","2","5","5","5","5","5","4","4","4","5","5","7","8","8","8","7","9","8","9","8","6","7","4","7","7","7","6","7","7","7","6","7","7","7","6","7","7","7","5","7","7","7","7","7","7","7","7","7","7","7","7","7","7","7","6","7","7","7","7","7","557541487416442880","刘","37","Female","[""好她"",""好我"",""坏她"",""坏我""]","[""强她"",""强我"",""弱她"",""弱我""]","","","","","","","","","","","","","","","","","","","","","","","","","","","","","","","","","","","","","",""
"60690","","[{""name"":""Sex"",""value"":""1""},{""name"":""friend_name"",""value"":""刘""},{""name"":""ParticipantID"",""value"":""37""}]","survey-html-form","2","64543","0.0-1.0-1.0","5","6","7","5","6","5","5","5","5","5","5","2","1","1","2","1","2","2","2","5","5","5","5","5","4","4","4","5","5","7","8","8","8","7","9","8","9","8","6","7","4","7","7","7","6","7","7","7","6","7","7","7","6","7","7","7","5","7","7","7","7","7","7","7","7","7","7","7","7","7","7","7","6","7","7","7","7","7","557541487416442880","刘","37","Female","[""好她"",""好我"",""坏她"",""坏我""]","[""强她"",""强我"",""弱她"",""弱我""]","","","","","","","","","","","","","","","","","","","","","","","","","","","","","","","","","","","","","",""
"","","","preload","3","64868","0.0-2.0","5","6","7","5","6","5","5","5","5","5","5","2","1","1","2","1","2","2","2","5","5","5","5","5","4","4","4","5","5","7","8","8","8","7","9","8","9","8","6","7","4","7","7","7","6","7","7","7","6","7","7","7","6","7","7","7","5","7","7","7","7","7","7","7","7","7","7","7","7","7","7","7","6","7","7","7","7","7","557541487416442880","刘","37","Female","[""好她"",""好我"",""坏她"",""坏我""]","[""强她"",""强我"",""弱她"",""弱我""]","","true","false","[]","[]","[]","","","","","","","","","","","","","","","","","","","","","","","","","","","","","","","",""
"","","","fullscreen","4","65907","0.0-3.0","5","6","7","5","6","5","5","5","5","5","5","2","1","1","2","1","2","2","2","5","5","5","5","5","4","4","4","5","5","7","8","8","8","7","9","8","9","8","6","7","4","7","7","7","6","7","7","7","6","7","7","7","6","7","7","7","5","7","7","7","7","7","7","7","7","7","7","7","7","7","7","7","6","7","7","7","7","7","557541487416442880","刘","37","Female","[""好她"",""好我"",""坏她"",""坏我""]","[""强她"",""强我"",""弱她"",""弱我""]","","true","","","","","{}","","","","","","","","","","","","","","","","","","","","","","","","","","","","","","",""
"20322.799999713898","","{""Q01"":""5"",""Q02"":""6"",""Q03"":""7"",""Q04"":""5"",""Q05"":""6""}","survey-template","5","86232","0.0-4.0","5","6","7","5","6","5","5","5","5","5","5","2","1","1","2","1","2","2","2","5","5","5","5","5","4","4","4","5","5","7","8","8","8","7","9","8","9","8","6","7","4","7","7","7","6","7","7","7","6","7","7","7","6","7","7","7","5","7","7","7","7","7","7","7","7","7","7","7","7","7","7","7","6","7","7","7","7","7","557541487416442880","刘","37","Female","[""好她"",""好我"",""坏她"",""坏我""]","[""强她"",""强我"",""弱她"",""弱我""]","","","","","","","","{""Q01"":""5"",""Q02"":""6"",""Q03"":""7"",""Q04"":""5"",""Q05"":""6""}","[0,1,2,3,4]","[""Q01"",""Q02"",""Q03"",""Q04"",""Q05""]","[11042.699999809265,12626.199999809265,13578.099999904633,15170.39999961853,16666.299999713898]","[]","[11042.699999809265,12626.199999809265,13578.099999904633,15170.39999961853,16194.39999961853,16666.299999713898,20322.099999904633]","0.4","0.75","0","","","","","","","","","","","","","","","","","","","","","",""
"38173.2999997139","","{""Q01"":""5"",""Q02"":""5"",""Q03"":""5"",""Q04"":""5"",""Q05"":""5"",""Q06"":""5""}","survey-template","6","124407","0.0-5.0","5","6","7","5","6","5","5","5","5","5","5","2","1","1","2","1","2","2","2","5","5","5","5","5","4","4","4","5","5","7","8","8","8","7","9","8","9","8","6","7","4","7","7","7","6","7","7","7","6","7","7","7","6","7","7","7","5","7","7","7","7","7","7","7","7","7","7","7","7","7","7","7","6","7","7","7","7","7","557541487416442880","刘","37","Female","[""好她"",""好我"",""坏她"",""坏我""]","[""强她"",""强我"",""弱她"",""弱我""]","","","","","","","","{""Q01"":""5"",""Q02"":""5"",""Q03"":""5"",""Q04"":""5"",""Q05"":""5"",""Q06"":""5""}","[0,1,2,3,4,5]","[""Q01"",""Q02"",""Q03"",""Q04"",""Q05"",""Q06""]","[3637.3999996185303,7925.39999961853,10781.099999904633,13077.299999713898,22917.199999809265,24317.39999961853]","[]","[3093.0999999046326,3637.3999996185303,7925.39999961853,10781.099999904633,13077.299999713898,22213.199999809265,22917.199999809265,24317.39999961853,38172.89999961853]","0.5","0.8","0","","","","","","","","","","","","","","","","","","","","","",""
"20635.200000286102","","{""Q01"":""2"",""Q02"":""1"",""Q03"":""1"",""Q04"":""2"",""Q05"":""1"",""Q06"":""2"",""Q07"":""2"",""Q08"":""2""}","survey-template","7","145044","0.0-6.0","5","6","7","5","6","5","5","5","5","5","5","2","1","1","2","1","2","2","2","5","5","5","5","5","4","4","4","5","5","7","8","8","8","7","9","8","9","8","6","7","4","7","7","7","6","7","7","7","6","7","7","7","6","7","7","7","5","7","7","7","7","7","7","7","7","7","7","7","7","7","7","7","6","7","7","7","7","7","557541487416442880","刘","37","Female","[""好她"",""好我"",""坏她"",""坏我""]","[""强她"",""强我"",""弱她"",""弱我""]","","","","","","","","{""Q01"":""2"",""Q02"":""1"",""Q03"":""1"",""Q04"":""2"",""Q05"":""1"",""Q06"":""2"",""Q07"":""2"",""Q08"":""2""}","[0,1,2,3,4,5,6,7]","[""Q01"",""Q02"",""Q03"",""Q04"",""Q05"",""Q06"",""Q07"",""Q08""]","[2750.4000000953674,4759.10000038147,7250.5,9266.5,10382.5,12122.5,14498.400000095367,19890.300000190735]","[]","[2750.4000000953674,4759.10000038147,6874.400000095367,7250.5,8378.400000095367,9266.5,10382.5,12122.5,14498.400000095367,19890.300000190735,20634.400000095367]","0.625","0.5714285714285714","0","","","","","","","","","","","","","","","","","","","","","",""
"129526","
    <p><div style='color:white;font-size:35px; line-height:20px;'>词汇评估任务</div></p><br>
    <p><div style='color:white;font-size:25px; line-height:20px;'>请再次回忆该亲密的朋友，你们至少2年前就认识了，并且最近2年经常见面。</div></p>
    <p><div style='color:white;font-size:25px; line-height:20px;'>在本实验中，您将会看到一些形容词。</div></p>
    <p><div style='color:yellow;font-size:25px; line-height:20px;'>您的任务是判断这些形容词是否符合对您自己或您的朋友的描述。</div></p><p style='font-size:35px'>符合按<span style=""color:lightgreen""> j 键</span>，不符合按<span style=""color:red""> f 键</span></p>","0","html-button-response","8","274571","0.0-7.0-0.0","5","6","7","5","6","5","5","5","5","5","5","2","1","1","2","1","2","2","2","5","5","5","5","5","4","4","4","5","5","7","8","8","8","7","9","8","9","8","6","7","4","7","7","7","6","7","7","7","6","7","7","7","6","7","7","7","5","7","7","7","7","7","7","7","7","7","7","7","7","7","7","7","6","7","7","7","7","7","557541487416442880","刘","37","Female","[""好她"",""好我"",""坏她"",""坏我""]","[""强她"",""强我"",""弱她"",""弱我""]","","","","","","","","","","","","","","","","","SRET_EW","EW_instructions","Thu Nov 16 2023 09:28:43 GMT+0800 (中国标准时间)","","","","","","","","","","","","","","","","","","",""
"2413","","j","psychophysics","9","277987","0.0-7.0-1.0-0.0","5","6","7","5","6","5","5","5","5","5","5","2","1","1","2","1","2","2","2","5","5","5","5","5","4","4","4","5","5","7","8","8","8","7","9","8","9","8","6","7","4","7","7","7","6","7","7","7","6","7","7","7","6","7","7","7","5","7","7","7","7","7","7","7","7","7","7","7","7","7","7","7","6","7","7","7","7","7","557541487416442880","刘","37","Female","[""好她"",""好我"",""坏她"",""坏我""]","[""强她"",""强我"",""弱她"",""弱我""]","","","","","","","","yes","","","","","","","","","SRET_EW","EW_practice","","key","j","8.353535452322644","853.3333333333334","476","朋友","忠实","Positive","morality","","","","","","","","","",""
"2287","","f","psychophysics","10","281275","0.0-7.0-1.0-0.1","5","6","7","5","6","5","5","5","5","5","5","2","1","1","2","1","2","2","2","5","5","5","5","5","4","4","4","5","5","7","8","8","8","7","9","8","9","8","6","7","4","7","7","7","6","7","7","7","6","7","7","7","6","7","7","7","5","7","7","7","7","7","7","7","7","7","7","7","7","7","7","7","6","7","7","7","7","7","557541487416442880","刘","37","Female","[""好她"",""好我"",""坏她"",""坏我""]","[""强她"",""强我"",""弱她"",""弱我""]","","","","","","","","no","","","","","","","","","SRET_EW","EW_practice","","key","f","8.333149746193037","853.3333333333334","476","朋友","徇私","Negative","morality","","","","","","","","","",""
"1455","","j","psychophysics","11","283731","0.0-7.0-1.0-0.2","5","6","7","5","6","5","5","5","5","5","5","2","1","1","2","1","2","2","2","5","5","5","5","5","4","4","4","5","5","7","8","8","8","7","9","8","9","8","6","7","4","7","7","7","6","7","7","7","6","7","7","7","6","7","7","7","5","7","7","7","7","7","7","7","7","7","7","7","7","7","7","7","6","7","7","7","7","7","557541487416442880","刘","37","Female","[""好她"",""好我"",""坏她"",""坏我""]","[""强她"",""强我"",""弱她"",""弱我""]","","","","","","","","yes","","","","","","","","","SRET_EW","EW_practice","","key","j","8.333673469387874","853.3333333333334","476","自己","严谨","Positive","ability","","","","","","","","","",""
"3686","","f","psychophysics","12","288419","0.0-7.0-1.0-0.3","5","6","7","5","6","5","5","5","5","5","5","2","1","1","2","1","2","2","2","5","5","5","5","5","4","4","4","5","5","7","8","8","8","7","9","8","9","8","6","7","4","7","7","7","6","7","7","7","6","7","7","7","6","7","7","7","5","7","7","7","7","7","7","7","7","7","7","7","7","7","7","7","6","7","7","7","7","7","557541487416442880","刘","37","Female","[""好她"",""好我"",""坏她"",""坏我""]","[""强她"",""强我"",""弱她"",""弱我""]","","","","","","","","no","","","","","","","","","SRET_EW","EW_practice","","key","f","8.333098039215717","853.3333333333334","476","自己","刻板","Negative","ability","","","","","","","","","",""
"169135","
    <p><div style='color:white;font-size:35px; line-height:20px;'>请您再次阅读实验要求</div></p><br>
    <p><div style='color:white;font-size:25px; line-height:20px;'>请回忆某一个亲密的朋友，你们至少2年前就认识了，并且最近2年经常见面。</div></p>
    <p><div style='color:white;font-size:25px; line-height:20px;'>在本实验中，您将会看到一些形容词。</div></p>
    <p><div style='color:yellow;font-size:25px; line-height:20px;'>您的任务是判断这些形容词是否符合对您自己或您的朋友的描述。</div></p>
    <p><div class='footer' style='font-size:25px; line-height:20px;'>如果对本实验还有不清楚之处，请立即向实验员咨询。</p><p style='font-size:25px; line-height:20px;'>如果您明白了规则：</p><p style='font-size:22px; line-height:20px;'>请按 继续 进入正式实验</p>
    </div>
    <p style='font-size:35px'>符合按<span style=""color:lightgreen""> j 键</span>，不符合按<span style=""color:red""> f 键</span></p>","0","html-button-response","13","457555","0.0-7.0-2.0","5","6","7","5","6","5","5","5","5","5","5","2","1","1","2","1","2","2","2","5","5","5","5","5","4","4","4","5","5","7","8","8","8","7","9","8","9","8","6","7","4","7","7","7","6","7","7","7","6","7","7","7","6","7","7","7","5","7","7","7","7","7","7","7","7","7","7","7","7","7","7","7","6","7","7","7","7","7","557541487416442880","刘","37","Female","[""好她"",""好我"",""坏她"",""坏我""]","[""强她"",""强我"",""弱她"",""弱我""]","","","","","","","","","","","","","","","","","SRET_EW","prac_instructions","Thu Nov 16 2023 09:28:43 GMT+0800 (中国标准时间)","","","","","","","","","","","","","","","","","","",""
"4141","","j","psychophysics","14","462698","0.0-7.0-3.0-0.0","5","6","7","5","6","5","5","5","5","5","5","2","1","1","2","1","2","2","2","5","5","5","5","5","4","4","4","5","5","7","8","8","8","7","9","8","9","8","6","7","4","7","7","7","6","7","7","7","6","7","7","7","6","7","7","7","5","7","7","7","7","7","7","7","7","7","7","7","7","7","7","7","6","7","7","7","7","7","557541487416442880","刘","37","Female","[""好她"",""好我"",""坏她"",""坏我""]","[""强她"",""强我"",""弱她"",""弱我""]","","","","","","","","yes","","","","","","","","","SRET","EW_formal","","key","j","8.332559157212339","853.3333333333334","476","自己","坚贞","Positive","morality","","","","","","","","","",""
"5776","","j","psychophysics","15","469476","0.0-7.0-3.0-0.1","5","6","7","5","6","5","5","5","5","5","5","2","1","1","2","1","2","2","2","5","5","5","5","5","4","4","4","5","5","7","8","8","8","7","9","8","9","8","6","7","4","7","7","7","6","7","7","7","6","7","7","7","6","7","7","7","5","7","7","7","7","7","7","7","7","7","7","7","7","7","7","7","6","7","7","7","7","7","557541487416442880","刘","37","Female","[""好她"",""好我"",""坏她"",""坏我""]","[""强她"",""强我"",""弱她"",""弱我""]","","","","","","","","yes","","","","","","","","","SRET","EW_formal","","key","j","8.332627306273107","853.3333333333334","476","朋友","务实","Positive","ability","","","","","","","","","",""
"7998","","f","psychophysics","16","478475","0.0-7.0-3.0-0.2","5","6","7","5","6","5","5","5","5","5","5","2","1","1","2","1","2","2","2","5","5","5","5","5","4","4","4","5","5","7","8","8","8","7","9","8","9","8","6","7","4","7","7","7","6","7","7","7","6","7","7","7","6","7","7","7","5","7","7","7","7","7","7","7","7","7","7","7","7","7","7","7","6","7","7","7","7","7","557541487416442880","刘","37","Female","[""好她"",""好我"",""坏她"",""坏我""]","[""强她"",""强我"",""弱她"",""弱我""]","","","","","","","","no","","","","","","","","","SRET","EW_formal","","key","f","8.33264318813713","853.3333333333334","476","朋友","迷糊","Negative","ability","","","","","","","","","",""
"3987","","f","psychophysics","17","483466","0.0-7.0-3.0-0.3","5","6","7","5","6","5","5","5","5","5","5","2","1","1","2","1","2","2","2","5","5","5","5","5","4","4","4","5","5","7","8","8","8","7","9","8","9","8","6","7","4","7","7","7","6","7","7","7","6","7","7","7","6","7","7","7","5","7","7","7","7","7","7","7","7","7","7","7","7","7","7","7","6","7","7","7","7","7","557541487416442880","刘","37","Female","[""好她"",""好我"",""坏她"",""坏我""]","[""强她"",""强我"",""弱她"",""弱我""]","","","","","","","","no","","","","","","","","","SRET","EW_formal","","key","f","8.332827759197256","853.3333333333334","476","自己","说谎","Negative","morality","","","","","","","","","",""
"3743","","f","psychophysics","18","488210","0.0-7.0-3.0-0.4","5","6","7","5","6","5","5","5","5","5","5","2","1","1","2","1","2","2","2","5","5","5","5","5","4","4","4","5","5","7","8","8","8","7","9","8","9","8","6","7","4","7","7","7","6","7","7","7","6","7","7","7","6","7","7","7","5","7","7","7","7","7","7","7","7","7","7","7","7","7","7","7","6","7","7","7","7","7","557541487416442880","刘","37","Female","[""好她"",""好我"",""坏她"",""坏我""]","[""强她"",""强我"",""弱她"",""弱我""]","","","","","","","","no","","","","","","","","","SRET","EW_formal","","key","f","8.33288556338033","853.3333333333334","476","朋友","背叛","Negative","morality","","","","","","","","","",""
"3136","","f","psychophysics","19","492347","0.0-7.0-3.0-0.5","5","6","7","5","6","5","5","5","5","5","5","2","1","1","2","1","2","2","2","5","5","5","5","5","4","4","4","5","5","7","8","8","8","7","9","8","9","8","6","7","4","7","7","7","6","7","7","7","6","7","7","7","6","7","7","7","5","7","7","7","7","7","7","7","7","7","7","7","7","7","7","7","6","7","7","7","7","7","557541487416442880","刘","37","Female","[""好她"",""好我"",""坏她"",""坏我""]","[""强她"",""强我"",""弱她"",""弱我""]","","","","","","","","no","","","","","","","","","SRET","EW_formal","","key","f","8.33308266129027","853.3333333333334","476","朋友","拜金","Negative","morality","","","","","","","","","",""
"2494","","j","psychophysics","20","495842","0.0-7.0-3.0-0.6","5","6","7","5","6","5","5","5","5","5","5","2","1","1","2","1","2","2","2","5","5","5","5","5","4","4","4","5","5","7","8","8","8","7","9","8","9","8","6","7","4","7","7","7","6","7","7","7","6","7","7","7","6","7","7","7","5","7","7","7","7","7","7","7","7","7","7","7","7","7","7","7","6","7","7","7","7","7","557541487416442880","刘","37","Female","[""好她"",""好我"",""坏她"",""坏我""]","[""强她"",""强我"",""弱她"",""弱我""]","","","","","","","","yes","","","","","","","","","SRET","EW_formal","","key","j","8.333066985645955","853.3333333333334","476","朋友","诚信","Positive","morality","","","","","","","","","",""
"2782","","f","psychophysics","21","499626","0.0-7.0-3.0-0.7","5","6","7","5","6","5","5","5","5","5","5","2","1","1","2","1","2","2","2","5","5","5","5","5","4","4","4","5","5","7","8","8","8","7","9","8","9","8","6","7","4","7","7","7","6","7","7","7","6","7","7","7","6","7","7","7","5","7","7","7","7","7","7","7","7","7","7","7","7","7","7","7","6","7","7","7","7","7","557541487416442880","刘","37","Female","[""好她"",""好我"",""坏她"",""坏我""]","[""强她"",""强我"",""弱她"",""弱我""]","","","","","","","","no","","","","","","","","","SRET","EW_formal","","key","f","8.332483443708588","853.3333333333334","476","朋友","恶劣","Negative","morality","","","","","","","","","",""
"4735","","j","psychophysics","22","505363","0.0-7.0-3.0-0.8","5","6","7","5","6","5","5","5","5","5","5","2","1","1","2","1","2","2","2","5","5","5","5","5","4","4","4","5","5","7","8","8","8","7","9","8","9","8","6","7","4","7","7","7","6","7","7","7","6","7","7","7","6","7","7","7","5","7","7","7","7","7","7","7","7","7","7","7","7","7","7","7","6","7","7","7","7","7","557541487416442880","刘","37","Female","[""好她"",""好我"",""坏她"",""坏我""]","[""强她"",""强我"",""弱她"",""弱我""]","","","","","","","","yes","","","","","","","","","SRET","EW_formal","","key","j","8.332765988372135","853.3333333333334","476","朋友","专注","Positive","ability","","","","","","","","","",""
"4582","","j","psychophysics","23","510946","0.0-7.0-3.0-0.9","5","6","7","5","6","5","5","5","5","5","5","2","1","1","2","1","2","2","2","5","5","5","5","5","4","4","4","5","5","7","8","8","8","7","9","8","9","8","6","7","4","7","7","7","6","7","7","7","6","7","7","7","6","7","7","7","5","7","7","7","7","7","7","7","7","7","7","7","7","7","7","7","6","7","7","7","7","7","557541487416442880","刘","37","Female","[""好她"",""好我"",""坏她"",""坏我""]","[""强她"",""强我"",""弱她"",""弱我""]","","","","","","","","yes","","","","","","","","","SRET","EW_formal","","key","j","8.332766816143474","853.3333333333334","476","朋友","上进","Positive","ability","","","","","","","","","",""
"2415","","f","psychophysics","24","514362","0.0-7.0-3.0-0.10","5","6","7","5","6","5","5","5","5","5","5","2","1","1","2","1","2","2","2","5","5","5","5","5","4","4","4","5","5","7","8","8","8","7","9","8","9","8","6","7","4","7","7","7","6","7","7","7","6","7","7","7","6","7","7","7","5","7","7","7","7","7","7","7","7","7","7","7","7","7","7","7","6","7","7","7","7","7","557541487416442880","刘","37","Female","[""好她"",""好我"",""坏她"",""坏我""]","[""强她"",""强我"",""弱她"",""弱我""]","","","","","","","","no","","","","","","","","","SRET","EW_formal","","key","f","8.33277750611254","853.3333333333334","476","朋友","逞能","Negative","ability","","","","","","","","","",""
"3135","","j","psychophysics","25","518498","0.0-7.0-3.0-0.11","5","6","7","5","6","5","5","5","5","5","5","2","1","1","2","1","2","2","2","5","5","5","5","5","4","4","4","5","5","7","8","8","8","7","9","8","9","8","6","7","4","7","7","7","6","7","7","7","6","7","7","7","6","7","7","7","5","7","7","7","7","7","7","7","7","7","7","7","7","7","7","7","6","7","7","7","7","7","557541487416442880","刘","37","Female","[""好她"",""好我"",""坏她"",""坏我""]","[""强她"",""强我"",""弱她"",""弱我""]","","","","","","","","yes","","","","","","","","","SRET","EW_formal","","key","j","8.332373737373667","853.3333333333334","476","自己","博学","Positive","ability","","","","","","","","","",""
"5599","","j","psychophysics","26","525098","0.0-7.0-3.0-0.12","5","6","7","5","6","5","5","5","5","5","5","2","1","1","2","1","2","2","2","5","5","5","5","5","4","4","4","5","5","7","8","8","8","7","9","8","9","8","6","7","4","7","7","7","6","7","7","7","6","7","7","7","6","7","7","7","5","7","7","7","7","7","7","7","7","7","7","7","7","7","7","7","6","7","7","7","7","7","557541487416442880","刘","37","Female","[""好她"",""好我"",""坏她"",""坏我""]","[""强她"",""强我"",""弱她"",""弱我""]","","","","","","","","yes","","","","","","","","","SRET","EW_formal","","key","j","8.332733249051882","853.3333333333334","476","自己","勤恳","Positive","morality","","","","","","","","","",""
"3629","","f","psychophysics","27","529730","0.0-7.0-3.0-0.13","5","6","7","5","6","5","5","5","5","5","5","2","1","1","2","1","2","2","2","5","5","5","5","5","4","4","4","5","5","7","8","8","8","7","9","8","9","8","6","7","4","7","7","7","6","7","7","7","6","7","7","7","6","7","7","7","5","7","7","7","7","7","7","7","7","7","7","7","7","7","7","7","6","7","7","7","7","7","557541487416442880","刘","37","Female","[""好她"",""好我"",""坏她"",""坏我""]","[""强她"",""强我"",""弱她"",""弱我""]","","","","","","","","no","","","","","","","","","SRET","EW_formal","","key","f","8.332452252252354","853.3333333333334","476","朋友","无能","Negative","ability","","","","","","","","","",""
"6007","","f","psychophysics","28","536738","0.0-7.0-3.0-0.14","5","6","7","5","6","5","5","5","5","5","5","2","1","1","2","1","2","2","2","5","5","5","5","5","4","4","4","5","5","7","8","8","8","7","9","8","9","8","6","7","4","7","7","7","6","7","7","7","6","7","7","7","6","7","7","7","5","7","7","7","7","7","7","7","7","7","7","7","7","7","7","7","6","7","7","7","7","7","557541487416442880","刘","37","Female","[""好她"",""好我"",""坏她"",""坏我""]","[""强她"",""强我"",""弱她"",""弱我""]","","","","","","","","no","","","","","","","","","SRET","EW_formal","","key","f","8.332502380952272","853.3333333333334","476","朋友","龌龊","Negative","morality","","","","","","","","","",""
"4806","","j","psychophysics","29","542547","0.0-7.0-3.0-0.15","5","6","7","5","6","5","5","5","5","5","5","2","1","1","2","1","2","2","2","5","5","5","5","5","4","4","4","5","5","7","8","8","8","7","9","8","9","8","6","7","4","7","7","7","6","7","7","7","6","7","7","7","6","7","7","7","5","7","7","7","7","7","7","7","7","7","7","7","7","7","7","7","6","7","7","7","7","7","557541487416442880","刘","37","Female","[""好她"",""好我"",""坏她"",""坏我""]","[""强她"",""强我"",""弱她"",""弱我""]","","","","","","","","yes","","","","","","","","","SRET","EW_formal","","key","j","8.332643678160947","853.3333333333334","476","自己","努力","Positive","ability","","","","","","","","","",""
"4855","","j","psychophysics","30","548403","0.0-7.0-3.0-0.16","5","6","7","5","6","5","5","5","5","5","5","2","1","1","2","1","2","2","2","5","5","5","5","5","4","4","4","5","5","7","8","8","8","7","9","8","9","8","6","7","4","7","7","7","6","7","7","7","6","7","7","7","6","7","7","7","5","7","7","7","7","7","7","7","7","7","7","7","7","7","7","7","6","7","7","7","7","7","557541487416442880","刘","37","Female","[""好她"",""好我"",""坏她"",""坏我""]","[""强她"",""强我"",""弱她"",""弱我""]","","","","","","","","yes","","","","","","","","","SRET","EW_formal","","key","j","8.332669515669494","853.3333333333334","476","朋友","忠义","Positive","morality","","","","","","","","","",""
"3744","","j","psychophysics","31","553148","0.0-7.0-3.0-0.17","5","6","7","5","6","5","5","5","5","5","5","2","1","1","2","1","2","2","2","5","5","5","5","5","4","4","4","5","5","7","8","8","8","7","9","8","9","8","6","7","4","7","7","7","6","7","7","7","6","7","7","7","6","7","7","7","5","7","7","7","7","7","7","7","7","7","7","7","7","7","7","7","6","7","7","7","7","7","557541487416442880","刘","37","Female","[""好她"",""好我"",""坏她"",""坏我""]","[""强她"",""强我"",""弱她"",""弱我""]","","","","","","","","yes","","","","","","","","","SRET","EW_formal","","key","j","8.332240773286337","853.3333333333334","476","朋友","奉献","Positive","morality","","","","","","","","","",""
"4893","","f","psychophysics","32","559043","0.0-7.0-3.0-0.18","5","6","7","5","6","5","5","5","5","5","5","2","1","1","2","1","2","2","2","5","5","5","5","5","4","4","4","5","5","7","8","8","8","7","9","8","9","8","6","7","4","7","7","7","6","7","7","7","6","7","7","7","6","7","7","7","5","7","7","7","7","7","7","7","7","7","7","7","7","7","7","7","6","7","7","7","7","7","557541487416442880","刘","37","Female","[""好她"",""好我"",""坏她"",""坏我""]","[""强她"",""强我"",""弱她"",""弱我""]","","","","","","","","no","","","","","","","","","SRET","EW_formal","","key","f","8.332743626062346","853.3333333333334","476","自己","短视","Negative","ability","","","","","","","","","",""
"6807","","j","psychophysics","33","566851","0.0-7.0-3.0-0.19","5","6","7","5","6","5","5","5","5","5","5","2","1","1","2","1","2","2","2","5","5","5","5","5","4","4","4","5","5","7","8","8","8","7","9","8","9","8","6","7","4","7","7","7","6","7","7","7","6","7","7","7","6","7","7","7","5","7","7","7","7","7","7","7","7","7","7","7","7","7","7","7","6","7","7","7","7","7","557541487416442880","刘","37","Female","[""好她"",""好我"",""坏她"",""坏我""]","[""强她"",""强我"",""弱她"",""弱我""]","","","","","","","","yes","","","","","","","","","SRET","EW_formal","","key","j","8.332751068376147","853.3333333333334","476","自己","毅力","Positive","ability","","","","","","","","","",""
"3752","","f","psychophysics","34","571604","0.0-7.0-3.0-0.20","5","6","7","5","6","5","5","5","5","5","5","2","1","1","2","1","2","2","2","5","5","5","5","5","4","4","4","5","5","7","8","8","8","7","9","8","9","8","6","7","4","7","7","7","6","7","7","7","6","7","7","7","6","7","7","7","5","7","7","7","7","7","7","7","7","7","7","7","7","7","7","7","6","7","7","7","7","7","557541487416442880","刘","37","Female","[""好她"",""好我"",""坏她"",""坏我""]","[""强她"",""强我"",""弱她"",""弱我""]","","","","","","","","no","","","","","","","","","SRET","EW_formal","","key","f","8.332478947368278","853.3333333333334","476","自己","歹毒","Negative","morality","","","","","","","","","",""
"4525","","j","psychophysics","35","577130","0.0-7.0-3.0-0.21","5","6","7","5","6","5","5","5","5","5","5","2","1","1","2","1","2","2","2","5","5","5","5","5","4","4","4","5","5","7","8","8","8","7","9","8","9","8","6","7","4","7","7","7","6","7","7","7","6","7","7","7","6","7","7","7","5","7","7","7","7","7","7","7","7","7","7","7","7","7","7","7","6","7","7","7","7","7","557541487416442880","刘","37","Female","[""好她"",""好我"",""坏她"",""坏我""]","[""强她"",""强我"",""弱她"",""弱我""]","","","","","","","","yes","","","","","","","","","SRET","EW_formal","","key","j","8.332223564954552","853.3333333333334","476","朋友","刻苦","Positive","ability","","","","","","","","","",""
"1895","","f","psychophysics","36","580028","0.0-7.0-3.0-0.22","5","6","7","5","6","5","5","5","5","5","5","2","1","1","2","1","2","2","2","5","5","5","5","5","4","4","4","5","5","7","8","8","8","7","9","8","9","8","6","7","4","7","7","7","6","7","7","7","6","7","7","7","6","7","7","7","5","7","7","7","7","7","7","7","7","7","7","7","7","7","7","7","6","7","7","7","7","7","557541487416442880","刘","37","Female","[""好她"",""好我"",""坏她"",""坏我""]","[""强她"",""强我"",""弱她"",""弱我""]","","","","","","","","no","","","","","","","","","SRET","EW_formal","","key","f","8.332706051873263","853.3333333333334","476","自己","笨蛋","Negative","ability","","","","","","","","","",""
"1814","","j","psychophysics","37","582843","0.0-7.0-3.0-0.23","5","6","7","5","6","5","5","5","5","5","5","2","1","1","2","1","2","2","2","5","5","5","5","5","4","4","4","5","5","7","8","8","8","7","9","8","9","8","6","7","4","7","7","7","6","7","7","7","6","7","7","7","6","7","7","7","5","7","7","7","7","7","7","7","7","7","7","7","7","7","7","7","6","7","7","7","7","7","557541487416442880","刘","37","Female","[""好她"",""好我"",""坏她"",""坏我""]","[""强她"",""强我"",""弱她"",""弱我""]","","","","","","","","yes","","","","","","","","","SRET","EW_formal","","key","j","8.332178571428466","853.3333333333334","476","自己","学霸","Positive","ability","","","","","","","","","",""
"918","","j","psychophysics","38","584762","0.0-7.0-3.0-0.24","5","6","7","5","6","5","5","5","5","5","5","2","1","1","2","1","2","2","2","5","5","5","5","5","4","4","4","5","5","7","8","8","8","7","9","8","9","8","6","7","4","7","7","7","6","7","7","7","6","7","7","7","6","7","7","7","5","7","7","7","7","7","7","7","7","7","7","7","7","7","7","7","6","7","7","7","7","7","557541487416442880","刘","37","Female","[""好她"",""好我"",""坏她"",""坏我""]","[""强她"",""强我"",""弱她"",""弱我""]","","","","","","","","yes","","","","","","","","","SRET","EW_formal","","key","j","8.332460869565281","853.3333333333334","476","自己","精干","Positive","ability","","","","","","","","","",""
"848","","j","psychophysics","39","586612","0.0-7.0-3.0-0.25","5","6","7","5","6","5","5","5","5","5","5","2","1","1","2","1","2","2","2","5","5","5","5","5","4","4","4","5","5","7","8","8","8","7","9","8","9","8","6","7","4","7","7","7","6","7","7","7","6","7","7","7","6","7","7","7","5","7","7","7","7","7","7","7","7","7","7","7","7","7","7","7","6","7","7","7","7","7","557541487416442880","刘","37","Female","[""好她"",""好我"",""坏她"",""坏我""]","[""强她"",""强我"",""弱她"",""弱我""]","","","","","","","","yes","","","","","","","","","SRET","EW_formal","","key","j","8.408812785388255","853.3333333333334","476","自己","勤奋","Positive","ability","","","","","","","","","",""
"2257","","f","psychophysics","40","589876","0.0-7.0-3.0-0.26","5","6","7","5","6","5","5","5","5","5","5","2","1","1","2","1","2","2","2","5","5","5","5","5","4","4","4","5","5","7","8","8","8","7","9","8","9","8","6","7","4","7","7","7","6","7","7","7","6","7","7","7","6","7","7","7","5","7","7","7","7","7","7","7","7","7","7","7","7","7","7","7","6","7","7","7","7","7","557541487416442880","刘","37","Female","[""好她"",""好我"",""坏她"",""坏我""]","[""强她"",""强我"",""弱她"",""弱我""]","","","","","","","","no","","","","","","","","","SRET","EW_formal","","key","f","8.419572538860297","853.3333333333334","476","自己","愚蠢","Negative","ability","","","","","","","","","",""
"1493","","f","psychophysics","41","592371","0.0-7.0-3.0-0.27","5","6","7","5","6","5","5","5","5","5","5","2","1","1","2","1","2","2","2","5","5","5","5","5","4","4","4","5","5","7","8","8","8","7","9","8","9","8","6","7","4","7","7","7","6","7","7","7","6","7","7","7","6","7","7","7","5","7","7","7","7","7","7","7","7","7","7","7","7","7","7","7","6","7","7","7","7","7","557541487416442880","刘","37","Female","[""好她"",""好我"",""坏她"",""坏我""]","[""强她"",""强我"",""弱她"",""弱我""]","","","","","","","","no","","","","","","","","","SRET","EW_formal","","key","f","8.333943143812862","853.3333333333334","476","朋友","犹豫","Negative","ability","","","","","","","","","",""
"2080","","f","psychophysics","42","595452","0.0-7.0-3.0-0.28","5","6","7","5","6","5","5","5","5","5","5","2","1","1","2","1","2","2","2","5","5","5","5","5","4","4","4","5","5","7","8","8","8","7","9","8","9","8","6","7","4","7","7","7","6","7","7","7","6","7","7","7","6","7","7","7","5","7","7","7","7","7","7","7","7","7","7","7","7","7","7","7","6","7","7","7","7","7","557541487416442880","刘","37","Female","[""好她"",""好我"",""坏她"",""坏我""]","[""强她"",""强我"",""弱她"",""弱我""]","","","","","","","","no","","","","","","","","","SRET","EW_formal","","key","f","8.333170731707165","853.3333333333334","476","朋友","虚假","Negative","morality","","","","","","","","","",""
"1750","","f","psychophysics","43","598203","0.0-7.0-3.0-0.29","5","6","7","5","6","5","5","5","5","5","5","2","1","1","2","1","2","2","2","5","5","5","5","5","4","4","4","5","5","7","8","8","8","7","9","8","9","8","6","7","4","7","7","7","6","7","7","7","6","7","7","7","6","7","7","7","5","7","7","7","7","7","7","7","7","7","7","7","7","7","7","7","6","7","7","7","7","7","557541487416442880","刘","37","Female","[""好她"",""好我"",""坏她"",""坏我""]","[""强她"",""强我"",""弱她"",""弱我""]","","","","","","","","no","","","","","","","","","SRET","EW_formal","","key","f","8.333313069908913","853.3333333333334","476","自己","外行","Negative","ability","","","","","","","","","",""
"1542","","j","psychophysics","44","600747","0.0-7.0-3.0-0.30","5","6","7","5","6","5","5","5","5","5","5","2","1","1","2","1","2","2","2","5","5","5","5","5","4","4","4","5","5","7","8","8","8","7","9","8","9","8","6","7","4","7","7","7","6","7","7","7","6","7","7","7","6","7","7","7","5","7","7","7","7","7","7","7","7","7","7","7","7","7","7","7","6","7","7","7","7","7","557541487416442880","刘","37","Female","[""好她"",""好我"",""坏她"",""坏我""]","[""强她"",""强我"",""弱她"",""弱我""]","","","","","","","","yes","","","","","","","","","SRET","EW_formal","","key","j","8.3333914473685","853.3333333333334","476","自己","侠义","Positive","morality","","","","","","","","","",""
"4744","","f","psychophysics","45","606492","0.0-7.0-3.0-0.31","5","6","7","5","6","5","5","5","5","5","5","2","1","1","2","1","2","2","2","5","5","5","5","5","4","4","4","5","5","7","8","8","8","7","9","8","9","8","6","7","4","7","7","7","6","7","7","7","6","7","7","7","6","7","7","7","5","7","7","7","7","7","7","7","7","7","7","7","7","7","7","7","6","7","7","7","7","7","557541487416442880","刘","37","Female","[""好她"",""好我"",""坏她"",""坏我""]","[""强她"",""强我"",""弱她"",""弱我""]","","","","","","","","no","","","","","","","","","SRET","EW_formal","","key","f","8.332906976744072","853.3333333333334","476","朋友","愚痴","Negative","ability","","","","","","","","","",""
"883","","j","psychophysics","46","608379","0.0-7.0-3.0-0.32","5","6","7","5","6","5","5","5","5","5","5","2","1","1","2","1","2","2","2","5","5","5","5","5","4","4","4","5","5","7","8","8","8","7","9","8","9","8","6","7","4","7","7","7","6","7","7","7","6","7","7","7","6","7","7","7","5","7","7","7","7","7","7","7","7","7","7","7","7","7","7","7","6","7","7","7","7","7","557541487416442880","刘","37","Female","[""好她"",""好我"",""坏她"",""坏我""]","[""强她"",""强我"",""弱她"",""弱我""]","","","","","","","","yes","","","","","","","","","SRET","EW_formal","","key","j","8.331464601770266","853.3333333333334","476","自己","刚正","Positive","morality","","","","","","","","","",""
"1508","","j","psychophysics","47","610892","0.0-7.0-3.0-0.33","5","6","7","5","6","5","5","5","5","5","5","2","1","1","2","1","2","2","2","5","5","5","5","5","4","4","4","5","5","7","8","8","8","7","9","8","9","8","6","7","4","7","7","7","6","7","7","7","6","7","7","7","6","7","7","7","5","7","7","7","7","7","7","7","7","7","7","7","7","7","7","7","6","7","7","7","7","7","557541487416442880","刘","37","Female","[""好她"",""好我"",""坏她"",""坏我""]","[""强她"",""强我"",""弱她"",""弱我""]","","","","","","","","yes","","","","","","","","","SRET","EW_formal","","key","j","8.333677740863514","853.3333333333334","476","自己","孝顺","Positive","morality","","","","","","","","","",""
"1190","","f","psychophysics","48","613083","0.0-7.0-3.0-0.34","5","6","7","5","6","5","5","5","5","5","5","2","1","1","2","1","2","2","2","5","5","5","5","5","4","4","4","5","5","7","8","8","8","7","9","8","9","8","6","7","4","7","7","7","6","7","7","7","6","7","7","7","6","7","7","7","5","7","7","7","7","7","7","7","7","7","7","7","7","7","7","7","6","7","7","7","7","7","557541487416442880","刘","37","Female","[""好她"",""好我"",""坏她"",""坏我""]","[""强她"",""强我"",""弱她"",""弱我""]","","","","","","","","no","","","","","","","","","SRET","EW_formal","","key","f","8.365019157088193","853.3333333333334","476","自己","不良","Negative","morality","","","","","","","","","",""
"5664","","f","psychophysics","49","619748","0.0-7.0-3.0-0.35","5","6","7","5","6","5","5","5","5","5","5","2","1","1","2","1","2","2","2","5","5","5","5","5","4","4","4","5","5","7","8","8","8","7","9","8","9","8","6","7","4","7","7","7","6","7","7","7","6","7","7","7","6","7","7","7","5","7","7","7","7","7","7","7","7","7","7","7","7","7","7","7","6","7","7","7","7","7","557541487416442880","刘","37","Female","[""好她"",""好我"",""坏她"",""坏我""]","[""强她"",""强我"",""弱她"",""弱我""]","","","","","","","","no","","","","","","","","","SRET","EW_formal","","key","f","8.332431789737187","853.3333333333334","476","自己","马虎","Negative","ability","","","","","","","","","",""
"2102","","j","psychophysics","50","622851","0.0-7.0-3.0-0.36","5","6","7","5","6","5","5","5","5","5","5","2","1","1","2","1","2","2","2","5","5","5","5","5","4","4","4","5","5","7","8","8","8","7","9","8","9","8","6","7","4","7","7","7","6","7","7","7","6","7","7","7","6","7","7","7","5","7","7","7","7","7","7","7","7","7","7","7","7","7","7","7","6","7","7","7","7","7","557541487416442880","刘","37","Female","[""好她"",""好我"",""坏她"",""坏我""]","[""强她"",""强我"",""弱她"",""弱我""]","","","","","","","","yes","","","","","","","","","SRET","EW_formal","","key","j","8.333576819406963","853.3333333333334","476","朋友","黑心","Negative","morality","","","","","","","","","",""
"2367","","j","psychophysics","51","626220","0.0-7.0-3.0-0.37","5","6","7","5","6","5","5","5","5","5","5","2","1","1","2","1","2","2","2","5","5","5","5","5","4","4","4","5","5","7","8","8","8","7","9","8","9","8","6","7","4","7","7","7","6","7","7","7","6","7","7","7","6","7","7","7","5","7","7","7","7","7","7","7","7","7","7","7","7","7","7","7","6","7","7","7","7","7","557541487416442880","刘","37","Female","[""好她"",""好我"",""坏她"",""坏我""]","[""强她"",""强我"",""弱她"",""弱我""]","","","","","","","","yes","","","","","","","","","SRET","EW_formal","","key","j","8.332138957816555","853.3333333333334","476","自己","周到","Positive","ability","","","","","","","","","",""
"1348","","f","psychophysics","52","628572","0.0-7.0-3.0-0.38","5","6","7","5","6","5","5","5","5","5","5","2","1","1","2","1","2","2","2","5","5","5","5","5","4","4","4","5","5","7","8","8","8","7","9","8","9","8","6","7","4","7","7","7","6","7","7","7","6","7","7","7","6","7","7","7","5","7","7","7","7","7","7","7","7","7","7","7","7","7","7","7","6","7","7","7","7","7","557541487416442880","刘","37","Female","[""好她"",""好我"",""坏她"",""坏我""]","[""强她"",""强我"",""弱她"",""弱我""]","","","","","","","","no","","","","","","","","","SRET","EW_formal","","key","f","8.33292882562262","853.3333333333334","476","朋友","独断","Negative","ability","","","","","","","","","",""
"1134","","j","psychophysics","53","630707","0.0-7.0-3.0-0.39","5","6","7","5","6","5","5","5","5","5","5","2","1","1","2","1","2","2","2","5","5","5","5","5","4","4","4","5","5","7","8","8","8","7","9","8","9","8","6","7","4","7","7","7","6","7","7","7","6","7","7","7","6","7","7","7","5","7","7","7","7","7","7","7","7","7","7","7","7","7","7","7","6","7","7","7","7","7","557541487416442880","刘","37","Female","[""好她"",""好我"",""坏她"",""坏我""]","[""强她"",""强我"",""弱她"",""弱我""]","","","","","","","","yes","","","","","","","","","SRET","EW_formal","","key","j","8.331453124999825","853.3333333333334","476","自己","无私","Positive","morality","","","","","","","","","",""
"1920","","j","psychophysics","54","633627","0.0-7.0-3.0-0.40","5","6","7","5","6","5","5","5","5","5","5","2","1","1","2","1","2","2","2","5","5","5","5","5","4","4","4","5","5","7","8","8","8","7","9","8","9","8","6","7","4","7","7","7","6","7","7","7","6","7","7","7","6","7","7","7","5","7","7","7","7","7","7","7","7","7","7","7","7","7","7","7","6","7","7","7","7","7","557541487416442880","刘","37","Female","[""好她"",""好我"",""坏她"",""坏我""]","[""强她"",""强我"",""弱她"",""弱我""]","","","","","","","","yes","","","","","","","","","SRET","EW_formal","","key","j","8.331968481375577","853.3333333333334","476","朋友","智慧","Positive","ability","","","","","","","","","",""
"1455","","j","psychophysics","55","636083","0.0-7.0-3.0-0.41","5","6","7","5","6","5","5","5","5","5","5","2","1","1","2","1","2","2","2","5","5","5","5","5","4","4","4","5","5","7","8","8","8","7","9","8","9","8","6","7","4","7","7","7","6","7","7","7","6","7","7","7","6","7","7","7","5","7","7","7","7","7","7","7","7","7","7","7","7","7","7","7","6","7","7","7","7","7","557541487416442880","刘","37","Female","[""好她"",""好我"",""坏她"",""坏我""]","[""强她"",""强我"",""弱她"",""弱我""]","","","","","","","","yes","","","","","","","","","SRET","EW_formal","","key","j","8.333510204081323","853.3333333333334","476","朋友","独立","Positive","ability","","","","","","","","","",""
"812","","f","psychophysics","56","637899","0.0-7.0-3.0-0.42","5","6","7","5","6","5","5","5","5","5","5","2","1","1","2","1","2","2","2","5","5","5","5","5","4","4","4","5","5","7","8","8","8","7","9","8","9","8","6","7","4","7","7","7","6","7","7","7","6","7","7","7","6","7","7","7","5","7","7","7","7","7","7","7","7","7","7","7","7","7","7","7","6","7","7","7","7","7","557541487416442880","刘","37","Female","[""好她"",""好我"",""坏她"",""坏我""]","[""强她"",""强我"",""弱她"",""弱我""]","","","","","","","","no","","","","","","","","","SRET","EW_formal","","key","f","8.333359447004776","853.3333333333334","476","朋友","弱智","Negative","ability","","","","","","","","","",""
"967","","j","psychophysics","57","639867","0.0-7.0-3.0-0.43","5","6","7","5","6","5","5","5","5","5","5","2","1","1","2","1","2","2","2","5","5","5","5","5","4","4","4","5","5","7","8","8","8","7","9","8","9","8","6","7","4","7","7","7","6","7","7","7","6","7","7","7","6","7","7","7","5","7","7","7","7","7","7","7","7","7","7","7","7","7","7","7","6","7","7","7","7","7","557541487416442880","刘","37","Female","[""好她"",""好我"",""坏她"",""坏我""]","[""强她"",""强我"",""弱她"",""弱我""]","","","","","","","","yes","","","","","","","","","SRET","EW_formal","","key","j","8.332608510638051","853.3333333333334","476","自己","伪善","Negative","morality","","","","","","","","","",""
"999","","j","psychophysics","58","641867","0.0-7.0-3.0-0.44","5","6","7","5","6","5","5","5","5","5","5","2","1","1","2","1","2","2","2","5","5","5","5","5","4","4","4","5","5","7","8","8","8","7","9","8","9","8","6","7","4","7","7","7","6","7","7","7","6","7","7","7","6","7","7","7","5","7","7","7","7","7","7","7","7","7","7","7","7","7","7","7","6","7","7","7","7","7","557541487416442880","刘","37","Female","[""好她"",""好我"",""坏她"",""坏我""]","[""强她"",""强我"",""弱她"",""弱我""]","","","","","","","","yes","","","","","","","","","SRET","EW_formal","","key","j","8.33298744769839","853.3333333333334","476","朋友","爱国","Positive","morality","","","","","","","","","",""
"1119","","f","psychophysics","59","643987","0.0-7.0-3.0-0.45","5","6","7","5","6","5","5","5","5","5","5","2","1","1","2","1","2","2","2","5","5","5","5","5","4","4","4","5","5","7","8","8","8","7","9","8","9","8","6","7","4","7","7","7","6","7","7","7","6","7","7","7","6","7","7","7","5","7","7","7","7","7","7","7","7","7","7","7","7","7","7","7","6","7","7","7","7","7","557541487416442880","刘","37","Female","[""好她"",""好我"",""坏她"",""坏我""]","[""强她"",""强我"",""弱她"",""弱我""]","","","","","","","","no","","","","","","","","","SRET","EW_formal","","key","f","8.333007874015873","853.3333333333334","476","自己","愚钝","Negative","ability","","","","","","","","","",""
"2191","","j","psychophysics","60","647179","0.0-7.0-3.0-0.46","5","6","7","5","6","5","5","5","5","5","5","2","1","1","2","1","2","2","2","5","5","5","5","5","4","4","4","5","5","7","8","8","8","7","9","8","9","8","6","7","4","7","7","7","6","7","7","7","6","7","7","7","6","7","7","7","5","7","7","7","7","7","7","7","7","7","7","7","7","7","7","7","6","7","7","7","7","7","557541487416442880","刘","37","Female","[""好她"",""好我"",""坏她"",""坏我""]","[""强她"",""强我"",""弱她"",""弱我""]","","","","","","","","yes","","","","","","","","","SRET","EW_formal","","key","j","8.333034031413415","853.3333333333334","476","朋友","敬业","Positive","morality","","","","","","","","","",""
"3473","","j","psychophysics","61","651652","0.0-7.0-3.0-0.47","5","6","7","5","6","5","5","5","5","5","5","2","1","1","2","1","2","2","2","5","5","5","5","5","4","4","4","5","5","7","8","8","8","7","9","8","9","8","6","7","4","7","7","7","6","7","7","7","6","7","7","7","6","7","7","7","5","7","7","7","7","7","7","7","7","7","7","7","7","7","7","7","6","7","7","7","7","7","557541487416442880","刘","37","Female","[""好她"",""好我"",""坏她"",""坏我""]","[""强她"",""强我"",""弱她"",""弱我""]","","","","","","","","yes","","","","","","","","","SRET","EW_formal","","key","j","8.332295327102896","853.3333333333334","476","朋友","果决","Positive","ability","","","","","","","","","",""
"933","","f","psychophysics","62","653587","0.0-7.0-3.0-0.48","5","6","7","5","6","5","5","5","5","5","5","2","1","1","2","1","2","2","2","5","5","5","5","5","4","4","4","5","5","7","8","8","8","7","9","8","9","8","6","7","4","7","7","7","6","7","7","7","6","7","7","7","6","7","7","7","5","7","7","7","7","7","7","7","7","7","7","7","7","7","7","7","6","7","7","7","7","7","557541487416442880","刘","37","Female","[""好她"",""好我"",""坏她"",""坏我""]","[""强她"",""强我"",""弱她"",""弱我""]","","","","","","","","no","","","","","","","","","SRET","EW_formal","","key","f","8.331870689654947","853.3333333333334","476","自己","自私","Negative","morality","","","","","","","","","",""
"775","","j","psychophysics","63","655363","0.0-7.0-3.0-0.49","5","6","7","5","6","5","5","5","5","5","5","2","1","1","2","1","2","2","2","5","5","5","5","5","4","4","4","5","5","7","8","8","8","7","9","8","9","8","6","7","4","7","7","7","6","7","7","7","6","7","7","7","6","7","7","7","5","7","7","7","7","7","7","7","7","7","7","7","7","7","7","7","6","7","7","7","7","7","557541487416442880","刘","37","Female","[""好她"",""好我"",""坏她"",""坏我""]","[""强她"",""强我"",""弱她"",""弱我""]","","","","","","","","yes","","","","","","","","","SRET","EW_formal","","key","j","8.33186792452789","853.3333333333334","476","自己","坦荡","Positive","morality","","","","","","","","","",""
"2111","","f","psychophysics","64","658475","0.0-7.0-3.0-0.50","5","6","7","5","6","5","5","5","5","5","5","2","1","1","2","1","2","2","2","5","5","5","5","5","4","4","4","5","5","7","8","8","8","7","9","8","9","8","6","7","4","7","7","7","6","7","7","7","6","7","7","7","6","7","7","7","5","7","7","7","7","7","7","7","7","7","7","7","7","7","7","7","6","7","7","7","7","7","557541487416442880","刘","37","Female","[""好她"",""好我"",""坏她"",""坏我""]","[""强她"",""强我"",""弱她"",""弱我""]","","","","","","","","no","","","","","","","","","SRET","EW_formal","","key","f","8.333032258064298","853.3333333333334","476","自己","不孝","Negative","morality","","","","","","","","","",""
"2997","","j","psychophysics","65","662475","0.0-7.0-3.0-0.51","5","6","7","5","6","5","5","5","5","5","5","2","1","1","2","1","2","2","2","5","5","5","5","5","4","4","4","5","5","7","8","8","8","7","9","8","9","8","6","7","4","7","7","7","6","7","7","7","6","7","7","7","6","7","7","7","5","7","7","7","7","7","7","7","7","7","7","7","7","7","7","7","6","7","7","7","7","7","557541487416442880","刘","37","Female","[""好她"",""好我"",""坏她"",""坏我""]","[""强她"",""强我"",""弱她"",""弱我""]","","","","","","","","yes","","","","","","","","","SRET","EW_formal","","key","j","8.332388308976869","853.3333333333334","476","自己","善良","Positive","morality","","","","","","","","","",""
"3069","","f","psychophysics","66","666546","0.0-7.0-3.0-0.52","5","6","7","5","6","5","5","5","5","5","5","2","1","1","2","1","2","2","2","5","5","5","5","5","4","4","4","5","5","7","8","8","8","7","9","8","9","8","6","7","4","7","7","7","6","7","7","7","6","7","7","7","6","7","7","7","5","7","7","7","7","7","7","7","7","7","7","7","7","7","7","7","6","7","7","7","7","7","557541487416442880","刘","37","Female","[""好她"",""好我"",""坏她"",""坏我""]","[""强她"",""强我"",""弱她"",""弱我""]","","","","","","","","no","","","","","","","","","SRET","EW_formal","","key","f","8.333032786885283","853.3333333333334","476","自己","蛇蝎","Negative","morality","","","","","","","","","",""
"1439","","j","psychophysics","67","668986","0.0-7.0-3.0-0.53","5","6","7","5","6","5","5","5","5","5","5","2","1","1","2","1","2","2","2","5","5","5","5","5","4","4","4","5","5","7","8","8","8","7","9","8","9","8","6","7","4","7","7","7","6","7","7","7","6","7","7","7","6","7","7","7","5","7","7","7","7","7","7","7","7","7","7","7","7","7","7","7","6","7","7","7","7","7","557541487416442880","刘","37","Female","[""好她"",""好我"",""坏她"",""坏我""]","[""强她"",""强我"",""弱她"",""弱我""]","","","","","","","","yes","","","","","","","","","SRET","EW_formal","","key","j","8.333804794520615","853.3333333333334","476","朋友","娴熟","Positive","ability","","","","","","","","","",""
"1855","","f","psychophysics","68","671842","0.0-7.0-3.0-0.54","5","6","7","5","6","5","5","5","5","5","5","2","1","1","2","1","2","2","2","5","5","5","5","5","4","4","4","5","5","7","8","8","8","7","9","8","9","8","6","7","4","7","7","7","6","7","7","7","6","7","7","7","6","7","7","7","5","7","7","7","7","7","7","7","7","7","7","7","7","7","7","7","6","7","7","7","7","7","557541487416442880","刘","37","Female","[""好她"",""好我"",""坏她"",""坏我""]","[""强她"",""强我"",""弱她"",""弱我""]","","","","","","","","no","","","","","","","","","SRET","EW_formal","","key","f","8.333511695906395","853.3333333333334","476","朋友","无耻","Negative","morality","","","","","","","","","",""
"895","","j","psychophysics","69","673738","0.0-7.0-3.0-0.55","5","6","7","5","6","5","5","5","5","5","5","2","1","1","2","1","2","2","2","5","5","5","5","5","4","4","4","5","5","7","8","8","8","7","9","8","9","8","6","7","4","7","7","7","6","7","7","7","6","7","7","7","6","7","7","7","5","7","7","7","7","7","7","7","7","7","7","7","7","7","7","7","6","7","7","7","7","7","557541487416442880","刘","37","Female","[""好她"",""好我"",""坏她"",""坏我""]","[""强她"",""强我"",""弱她"",""弱我""]","","","","","","","","yes","","","","","","","","","SRET","EW_formal","","key","j","8.332601769911784","853.3333333333334","476","朋友","忠诚","Positive","morality","","","","","","","","","",""
"1916","","f","psychophysics","70","676658","0.0-7.0-3.0-0.56","5","6","7","5","6","5","5","5","5","5","5","2","1","1","2","1","2","2","2","5","5","5","5","5","4","4","4","5","5","7","8","8","8","7","9","8","9","8","6","7","4","7","7","7","6","7","7","7","6","7","7","7","6","7","7","7","5","7","7","7","7","7","7","7","7","7","7","7","7","7","7","7","6","7","7","7","7","7","557541487416442880","刘","37","Female","[""好她"",""好我"",""坏她"",""坏我""]","[""强她"",""强我"",""弱她"",""弱我""]","","","","","","","","no","","","","","","","","","SRET","EW_formal","","key","f","8.33322000000027","853.3333333333334","476","自己","狡诈","Negative","morality","","","","","","","","","",""
"1103","","f","psychophysics","71","678762","0.0-7.0-3.0-0.57","5","6","7","5","6","5","5","5","5","5","5","2","1","1","2","1","2","2","2","5","5","5","5","5","4","4","4","5","5","7","8","8","8","7","9","8","9","8","6","7","4","7","7","7","6","7","7","7","6","7","7","7","6","7","7","7","5","7","7","7","7","7","7","7","7","7","7","7","7","7","7","7","6","7","7","7","7","7","557541487416442880","刘","37","Female","[""好她"",""好我"",""坏她"",""坏我""]","[""强她"",""强我"",""弱她"",""弱我""]","","","","","","","","no","","","","","","","","","SRET","EW_formal","","key","f","8.334087649402042","853.3333333333334","476","朋友","业余","Negative","ability","","","","","","","","","",""
"1310","","j","psychophysics","72","681074","0.0-7.0-3.0-0.58","5","6","7","5","6","5","5","5","5","5","5","2","1","1","2","1","2","2","2","5","5","5","5","5","4","4","4","5","5","7","8","8","8","7","9","8","9","8","6","7","4","7","7","7","6","7","7","7","6","7","7","7","6","7","7","7","5","7","7","7","7","7","7","7","7","7","7","7","7","7","7","7","6","7","7","7","7","7","557541487416442880","刘","37","Female","[""好她"",""好我"",""坏她"",""坏我""]","[""强她"",""强我"",""弱她"",""弱我""]","","","","","","","","yes","","","","","","","","","SRET","EW_formal","","key","j","8.332602888086411","853.3333333333334","476","朋友","慷慨","Positive","morality","","","","","","","","","",""
"762","","j","psychophysics","73","682842","0.0-7.0-3.0-0.59","5","6","7","5","6","5","5","5","5","5","5","2","1","1","2","1","2","2","2","5","5","5","5","5","4","4","4","5","5","7","8","8","8","7","9","8","9","8","6","7","4","7","7","7","6","7","7","7","6","7","7","7","6","7","7","7","5","7","7","7","7","7","7","7","7","7","7","7","7","7","7","7","6","7","7","7","7","7","557541487416442880","刘","37","Female","[""好她"",""好我"",""坏她"",""坏我""]","[""强她"",""强我"",""弱她"",""弱我""]","","","","","","","","yes","","","","","","","","","SRET","EW_formal","","key","j","8.335924170616137","853.3333333333334","476","自己","忠勇","Positive","morality","","","","","","","","","",""
"798","","j","psychophysics","74","684642","0.0-7.0-3.0-0.60","5","6","7","5","6","5","5","5","5","5","5","2","1","1","2","1","2","2","2","5","5","5","5","5","4","4","4","5","5","7","8","8","8","7","9","8","9","8","6","7","4","7","7","7","6","7","7","7","6","7","7","7","6","7","7","7","5","7","7","7","7","7","7","7","7","7","7","7","7","7","7","7","6","7","7","7","7","7","557541487416442880","刘","37","Female","[""好她"",""好我"",""坏她"",""坏我""]","[""强她"",""强我"",""弱她"",""弱我""]","","","","","","","","yes","","","","","","","","","SRET","EW_formal","","key","j","8.332213953488809","853.3333333333334","476","朋友","谦逊","Positive","morality","","","","","","","","","",""
"862","","j","psychophysics","75","686506","0.0-7.0-3.0-0.61","5","6","7","5","6","5","5","5","5","5","5","2","1","1","2","1","2","2","2","5","5","5","5","5","4","4","4","5","5","7","8","8","8","7","9","8","9","8","6","7","4","7","7","7","6","7","7","7","6","7","7","7","6","7","7","7","5","7","7","7","7","7","7","7","7","7","7","7","7","7","7","7","6","7","7","7","7","7","557541487416442880","刘","37","Female","[""好她"",""好我"",""坏她"",""坏我""]","[""强她"",""强我"",""弱她"",""弱我""]","","","","","","","","yes","","","","","","","","","SRET","EW_formal","","key","j","8.33235874439479","853.3333333333334","476","朋友","扎实","Positive","ability","","","","","","","","","",""
"759","","j","psychophysics","76","688266","0.0-7.0-3.0-0.62","5","6","7","5","6","5","5","5","5","5","5","2","1","1","2","1","2","2","2","5","5","5","5","5","4","4","4","5","5","7","8","8","8","7","9","8","9","8","6","7","4","7","7","7","6","7","7","7","6","7","7","7","6","7","7","7","5","7","7","7","7","7","7","7","7","7","7","7","7","7","7","7","6","7","7","7","7","7","557541487416442880","刘","37","Female","[""好她"",""好我"",""坏她"",""坏我""]","[""强她"",""强我"",""弱她"",""弱我""]","","","","","","","","yes","","","","","","","","","SRET","EW_formal","","key","j","8.332966666666437","853.3333333333334","476","自己","守信","Positive","morality","","","","","","","","","",""
"926","","j","psychophysics","77","690194","0.0-7.0-3.0-0.63","5","6","7","5","6","5","5","5","5","5","5","2","1","1","2","1","2","2","2","5","5","5","5","5","4","4","4","5","5","7","8","8","8","7","9","8","9","8","6","7","4","7","7","7","6","7","7","7","6","7","7","7","6","7","7","7","5","7","7","7","7","7","7","7","7","7","7","7","7","7","7","7","6","7","7","7","7","7","557541487416442880","刘","37","Female","[""好她"",""好我"",""坏她"",""坏我""]","[""强她"",""强我"",""弱她"",""弱我""]","","","","","","","","yes","","","","","","","","","SRET","EW_formal","","key","j","8.331852173913047","853.3333333333334","476","自己","自律","Positive","ability","","","","","","","","","",""
"655","","f","psychophysics","78","691850","0.0-7.0-3.0-0.64","5","6","7","5","6","5","5","5","5","5","5","2","1","1","2","1","2","2","2","5","5","5","5","5","4","4","4","5","5","7","8","8","8","7","9","8","9","8","6","7","4","7","7","7","6","7","7","7","6","7","7","7","6","7","7","7","5","7","7","7","7","7","7","7","7","7","7","7","7","7","7","7","6","7","7","7","7","7","557541487416442880","刘","37","Female","[""好她"",""好我"",""坏她"",""坏我""]","[""强她"",""强我"",""弱她"",""弱我""]","","","","","","","","no","","","","","","","","","SRET","EW_formal","","key","f","8.334318181817924","853.3333333333334","476","自己","腐败","Negative","morality","","","","","","","","","",""
"1831","","f","psychophysics","79","694682","0.0-7.0-3.0-0.65","5","6","7","5","6","5","5","5","5","5","5","2","1","1","2","1","2","2","2","5","5","5","5","5","4","4","4","5","5","7","8","8","8","7","9","8","9","8","6","7","4","7","7","7","6","7","7","7","6","7","7","7","6","7","7","7","5","7","7","7","7","7","7","7","7","7","7","7","7","7","7","7","6","7","7","7","7","7","557541487416442880","刘","37","Female","[""好她"",""好我"",""坏她"",""坏我""]","[""强她"",""强我"",""弱她"",""弱我""]","","","","","","","","no","","","","","","","","","SRET","EW_formal","","key","f","8.333778761061811","853.3333333333334","476","自己","虚伪","Negative","morality","","","","","","","","","",""
"662","","f","psychophysics","80","696346","0.0-7.0-3.0-0.66","5","6","7","5","6","5","5","5","5","5","5","2","1","1","2","1","2","2","2","5","5","5","5","5","4","4","4","5","5","7","8","8","8","7","9","8","9","8","6","7","4","7","7","7","6","7","7","7","6","7","7","7","6","7","7","7","5","7","7","7","7","7","7","7","7","7","7","7","7","7","7","7","6","7","7","7","7","7","557541487416442880","刘","37","Female","[""好她"",""好我"",""坏她"",""坏我""]","[""强她"",""强我"",""弱她"",""弱我""]","","","","","","","","no","","","","","","","","","SRET","EW_formal","","key","f","8.333829145728792","853.3333333333334","476","自己","贪污","Negative","morality","","","","","","","","","",""
"887","","f","psychophysics","81","698234","0.0-7.0-3.0-0.67","5","6","7","5","6","5","5","5","5","5","5","2","1","1","2","1","2","2","2","5","5","5","5","5","4","4","4","5","5","7","8","8","8","7","9","8","9","8","6","7","4","7","7","7","6","7","7","7","6","7","7","7","6","7","7","7","5","7","7","7","7","7","7","7","7","7","7","7","7","7","7","7","6","7","7","7","7","7","557541487416442880","刘","37","Female","[""好她"",""好我"",""坏她"",""坏我""]","[""强她"",""强我"",""弱她"",""弱我""]","","","","","","","","no","","","","","","","","","SRET","EW_formal","","key","f","8.335386666666405","853.3333333333334","476","朋友","奸诈","Negative","morality","","","","","","","","","",""
"744","","j","psychophysics","82","699979","0.0-7.0-3.0-0.68","5","6","7","5","6","5","5","5","5","5","5","2","1","1","2","1","2","2","2","5","5","5","5","5","4","4","4","5","5","7","8","8","8","7","9","8","9","8","6","7","4","7","7","7","6","7","7","7","6","7","7","7","6","7","7","7","5","7","7","7","7","7","7","7","7","7","7","7","7","7","7","7","6","7","7","7","7","7","557541487416442880","刘","37","Female","[""好她"",""好我"",""坏她"",""坏我""]","[""强她"",""强我"",""弱她"",""弱我""]","","","","","","","","yes","","","","","","","","","SRET","EW_formal","","key","j","8.334023923444914","853.3333333333334","476","自己","宽容","Positive","morality","","","","","","","","","",""
"750","","f","psychophysics","83","701730","0.0-7.0-3.0-0.69","5","6","7","5","6","5","5","5","5","5","5","2","1","1","2","1","2","2","2","5","5","5","5","5","4","4","4","5","5","7","8","8","8","7","9","8","9","8","6","7","4","7","7","7","6","7","7","7","6","7","7","7","6","7","7","7","5","7","7","7","7","7","7","7","7","7","7","7","7","7","7","7","6","7","7","7","7","7","557541487416442880","刘","37","Female","[""好她"",""好我"",""坏她"",""坏我""]","[""强她"",""强我"",""弱她"",""弱我""]","","","","","","","","no","","","","","","","","","SRET","EW_formal","","key","f","8.334416267942219","853.3333333333334","476","朋友","低劣","Negative","morality","","","","","","","","","",""
"1359","","f","psychophysics","84","704090","0.0-7.0-3.0-0.70","5","6","7","5","6","5","5","5","5","5","5","2","1","1","2","1","2","2","2","5","5","5","5","5","4","4","4","5","5","7","8","8","8","7","9","8","9","8","6","7","4","7","7","7","6","7","7","7","6","7","7","7","6","7","7","7","5","7","7","7","7","7","7","7","7","7","7","7","7","7","7","7","6","7","7","7","7","7","557541487416442880","刘","37","Female","[""好她"",""好我"",""坏她"",""坏我""]","[""强她"",""强我"",""弱她"",""弱我""]","","","","","","","","no","","","","","","","","","SRET","EW_formal","","key","f","8.332088652482184","853.3333333333334","476","朋友","罪恶","Negative","morality","","","","","","","","","",""
"1175","","j","psychophysics","85","706266","0.0-7.0-3.0-0.71","5","6","7","5","6","5","5","5","5","5","5","2","1","1","2","1","2","2","2","5","5","5","5","5","4","4","4","5","5","7","8","8","8","7","9","8","9","8","6","7","4","7","7","7","6","7","7","7","6","7","7","7","6","7","7","7","5","7","7","7","7","7","7","7","7","7","7","7","7","7","7","7","6","7","7","7","7","7","557541487416442880","刘","37","Female","[""好她"",""好我"",""坏她"",""坏我""]","[""强她"",""强我"",""弱她"",""弱我""]","","","","","","","","yes","","","","","","","","","SRET","EW_formal","","key","j","8.334011538461514","853.3333333333334","476","自己","新手","Negative","ability","","","","","","","","","",""
"1591","","f","psychophysics","86","708858","0.0-7.0-3.0-0.72","5","6","7","5","6","5","5","5","5","5","5","2","1","1","2","1","2","2","2","5","5","5","5","5","4","4","4","5","5","7","8","8","8","7","9","8","9","8","6","7","4","7","7","7","6","7","7","7","6","7","7","7","6","7","7","7","5","7","7","7","7","7","7","7","7","7","7","7","7","7","7","7","6","7","7","7","7","7","557541487416442880","刘","37","Female","[""好她"",""好我"",""坏她"",""坏我""]","[""强她"",""强我"",""弱她"",""弱我""]","","","","","","","","no","","","","","","","","","SRET","EW_formal","","key","f","8.333764516129234","853.3333333333334","476","自己","差生","Negative","ability","","","","","","","","","",""
"838","","j","psychophysics","87","710698","0.0-7.0-3.0-0.73","5","6","7","5","6","5","5","5","5","5","5","2","1","1","2","1","2","2","2","5","5","5","5","5","4","4","4","5","5","7","8","8","8","7","9","8","9","8","6","7","4","7","7","7","6","7","7","7","6","7","7","7","6","7","7","7","5","7","7","7","7","7","7","7","7","7","7","7","7","7","7","7","6","7","7","7","7","7","557541487416442880","刘","37","Female","[""好她"",""好我"",""坏她"",""坏我""]","[""强她"",""强我"",""弱她"",""弱我""]","","","","","","","","yes","","","","","","","","","SRET","EW_formal","","key","j","8.332495454545345","853.3333333333334","476","朋友","高效","Positive","ability","","","","","","","","","",""
"639","","j","psychophysics","88","712338","0.0-7.0-3.0-0.74","5","6","7","5","6","5","5","5","5","5","5","2","1","1","2","1","2","2","2","5","5","5","5","5","4","4","4","5","5","7","8","8","8","7","9","8","9","8","6","7","4","7","7","7","6","7","7","7","6","7","7","7","6","7","7","7","5","7","7","7","7","7","7","7","7","7","7","7","7","7","7","7","6","7","7","7","7","7","557541487416442880","刘","37","Female","[""好她"",""好我"",""坏她"",""坏我""]","[""强她"",""强我"",""弱她"",""弱我""]","","","","","","","","yes","","","","","","","","","SRET","EW_formal","","key","j","8.3322397959181","853.3333333333334","476","朋友","依靠","Negative","ability","","","","","","","","","",""
"1897","","f","psychophysics","89","715236","0.0-7.0-3.0-0.75","5","6","7","5","6","5","5","5","5","5","5","2","1","1","2","1","2","2","2","5","5","5","5","5","4","4","4","5","5","7","8","8","8","7","9","8","9","8","6","7","4","7","7","7","6","7","7","7","6","7","7","7","6","7","7","7","5","7","7","7","7","7","7","7","7","7","7","7","7","7","7","7","6","7","7","7","7","7","557541487416442880","刘","37","Female","[""好她"",""好我"",""坏她"",""坏我""]","[""强她"",""强我"",""弱她"",""弱我""]","","","","","","","","no","","","","","","","","","SRET","EW_formal","","key","f","8.334086455331287","853.3333333333334","476","自己","畏难","Negative","ability","","","","","","","","","",""
"861","","f","psychophysics","90","717098","0.0-7.0-3.0-0.76","5","6","7","5","6","5","5","5","5","5","5","2","1","1","2","1","2","2","2","5","5","5","5","5","4","4","4","5","5","7","8","8","8","7","9","8","9","8","6","7","4","7","7","7","6","7","7","7","6","7","7","7","6","7","7","7","5","7","7","7","7","7","7","7","7","7","7","7","7","7","7","7","6","7","7","7","7","7","557541487416442880","刘","37","Female","[""好她"",""好我"",""坏她"",""坏我""]","[""强她"",""强我"",""弱她"",""弱我""]","","","","","","","","no","","","","","","","","","SRET","EW_formal","","key","f","8.33329729729716","853.3333333333334","476","朋友","怠惰","Negative","ability","","","","","","","","","",""
"958","","j","psychophysics","91","719060","0.0-7.0-3.0-0.77","5","6","7","5","6","5","5","5","5","5","5","2","1","1","2","1","2","2","2","5","5","5","5","5","4","4","4","5","5","7","8","8","8","7","9","8","9","8","6","7","4","7","7","7","6","7","7","7","6","7","7","7","6","7","7","7","5","7","7","7","7","7","7","7","7","7","7","7","7","7","7","7","6","7","7","7","7","7","557541487416442880","刘","37","Female","[""好她"",""好我"",""坏她"",""坏我""]","[""强她"",""强我"",""弱她"",""弱我""]","","","","","","","","yes","","","","","","","","","SRET","EW_formal","","key","j","8.336414529914613","853.3333333333334","476","自己","全才","Positive","ability","","","","","","","","","",""
"615","","j","psychophysics","92","720676","0.0-7.0-3.0-0.78","5","6","7","5","6","5","5","5","5","5","5","2","1","1","2","1","2","2","2","5","5","5","5","5","4","4","4","5","5","7","8","8","8","7","9","8","9","8","6","7","4","7","7","7","6","7","7","7","6","7","7","7","6","7","7","7","5","7","7","7","7","7","7","7","7","7","7","7","7","7","7","7","6","7","7","7","7","7","557541487416442880","刘","37","Female","[""好她"",""好我"",""坏她"",""坏我""]","[""强她"",""强我"",""弱她"",""弱我""]","","","","","","","","yes","","","","","","","","","SRET","EW_formal","","key","j","8.330963730570195","853.3333333333334","476","朋友","聪明","Positive","ability","","","","","","","","","",""
"790","","j","psychophysics","93","722467","0.0-7.0-3.0-0.79","5","6","7","5","6","5","5","5","5","5","5","2","1","1","2","1","2","2","2","5","5","5","5","5","4","4","4","5","5","7","8","8","8","7","9","8","9","8","6","7","4","7","7","7","6","7","7","7","6","7","7","7","6","7","7","7","5","7","7","7","7","7","7","7","7","7","7","7","7","7","7","7","6","7","7","7","7","7","557541487416442880","刘","37","Female","[""好她"",""好我"",""坏她"",""坏我""]","[""强她"",""强我"",""弱她"",""弱我""]","","","","","","","","yes","","","","","","","","","SRET","EW_formal","","key","j","8.33238785046699","853.3333333333334","476","自己","骁勇","Positive","ability","","","","","","","","","",""
"974","","f","psychophysics","94","724443","0.0-7.0-3.0-0.80","5","6","7","5","6","5","5","5","5","5","5","2","1","1","2","1","2","2","2","5","5","5","5","5","4","4","4","5","5","7","8","8","8","7","9","8","9","8","6","7","4","7","7","7","6","7","7","7","6","7","7","7","6","7","7","7","5","7","7","7","7","7","7","7","7","7","7","7","7","7","7","7","6","7","7","7","7","7","557541487416442880","刘","37","Female","[""好她"",""好我"",""坏她"",""坏我""]","[""强她"",""强我"",""弱她"",""弱我""]","","","","","","","","no","","","","","","","","","SRET","EW_formal","","key","f","8.331257383966374","853.3333333333334","476","朋友","拖拉","Negative","ability","","","","","","","","","",""
"1007","","f","psychophysics","95","726451","0.0-7.0-3.0-0.81","5","6","7","5","6","5","5","5","5","5","5","2","1","1","2","1","2","2","2","5","5","5","5","5","4","4","4","5","5","7","8","8","8","7","9","8","9","8","6","7","4","7","7","7","6","7","7","7","6","7","7","7","6","7","7","7","5","7","7","7","7","7","7","7","7","7","7","7","7","7","7","7","6","7","7","7","7","7","557541487416442880","刘","37","Female","[""好她"",""好我"",""坏她"",""坏我""]","[""强她"",""强我"",""弱她"",""弱我""]","","","","","","","","no","","","","","","","","","SRET","EW_formal","","key","f","8.337288702929209","853.3333333333334","476","自己","盲目","Negative","ability","","","","","","","","","",""
"678","","j","psychophysics","96","728130","0.0-7.0-3.0-0.82","5","6","7","5","6","5","5","5","5","5","5","2","1","1","2","1","2","2","2","5","5","5","5","5","4","4","4","5","5","7","8","8","8","7","9","8","9","8","6","7","4","7","7","7","6","7","7","7","6","7","7","7","6","7","7","7","5","7","7","7","7","7","7","7","7","7","7","7","7","7","7","7","6","7","7","7","7","7","557541487416442880","刘","37","Female","[""好她"",""好我"",""坏她"",""坏我""]","[""强她"",""强我"",""弱她"",""弱我""]","","","","","","","","yes","","","","","","","","","SRET","EW_formal","","key","j","8.331402985074451","853.3333333333334","476","朋友","礼貌","Positive","morality","","","","","","","","","",""
"887","","j","psychophysics","97","730018","0.0-7.0-3.0-0.83","5","6","7","5","6","5","5","5","5","5","5","2","1","1","2","1","2","2","2","5","5","5","5","5","4","4","4","5","5","7","8","8","8","7","9","8","9","8","6","7","4","7","7","7","6","7","7","7","6","7","7","7","6","7","7","7","5","7","7","7","7","7","7","7","7","7","7","7","7","7","7","7","6","7","7","7","7","7","557541487416442880","刘","37","Female","[""好她"",""好我"",""坏她"",""坏我""]","[""强她"",""强我"",""弱她"",""弱我""]","","","","","","","","yes","","","","","","","","","SRET","EW_formal","","key","j","8.332632743363037","853.3333333333334","476","朋友","廉明","Positive","morality","","","","","","","","","",""
"759","","j","psychophysics","98","731778","0.0-7.0-3.0-0.84","5","6","7","5","6","5","5","5","5","5","5","2","1","1","2","1","2","2","2","5","5","5","5","5","4","4","4","5","5","7","8","8","8","7","9","8","9","8","6","7","4","7","7","7","6","7","7","7","6","7","7","7","6","7","7","7","5","7","7","7","7","7","7","7","7","7","7","7","7","7","7","7","6","7","7","7","7","7","557541487416442880","刘","37","Female","[""好她"",""好我"",""坏她"",""坏我""]","[""强她"",""强我"",""弱她"",""弱我""]","","","","","","","","yes","","","","","","","","","SRET","EW_formal","","key","j","8.329519047619154","853.3333333333334","476","自己","主见","Positive","ability","","","","","","","","","",""
"1096","","j","psychophysics","99","733875","0.0-7.0-3.0-0.85","5","6","7","5","6","5","5","5","5","5","5","2","1","1","2","1","2","2","2","5","5","5","5","5","4","4","4","5","5","7","8","8","8","7","9","8","9","8","6","7","4","7","7","7","6","7","7","7","6","7","7","7","6","7","7","7","5","7","7","7","7","7","7","7","7","7","7","7","7","7","7","7","6","7","7","7","7","7","557541487416442880","刘","37","Female","[""好她"",""好我"",""坏她"",""坏我""]","[""强她"",""强我"",""弱她"",""弱我""]","","","","","","","","yes","","","","","","","","","SRET","EW_formal","","key","j","8.33319521912344","853.3333333333334","476","朋友","素养","Positive","morality","","","","","","","","","",""
"1031","","f","psychophysics","100","735908","0.0-7.0-3.0-0.86","5","6","7","5","6","5","5","5","5","5","5","2","1","1","2","1","2","2","2","5","5","5","5","5","4","4","4","5","5","7","8","8","8","7","9","8","9","8","6","7","4","7","7","7","6","7","7","7","6","7","7","7","6","7","7","7","5","7","7","7","7","7","7","7","7","7","7","7","7","7","7","7","6","7","7","7","7","7","557541487416442880","刘","37","Female","[""好她"",""好我"",""坏她"",""坏我""]","[""强她"",""强我"",""弱她"",""弱我""]","","","","","","","","no","","","","","","","","","SRET","EW_formal","","key","f","8.333909465020634","853.3333333333334","476","自己","缓慢","Negative","ability","","","","","","","","","",""
"893","","f","psychophysics","101","737802","0.0-7.0-3.0-0.87","5","6","7","5","6","5","5","5","5","5","5","2","1","1","2","1","2","2","2","5","5","5","5","5","4","4","4","5","5","7","8","8","8","7","9","8","9","8","6","7","4","7","7","7","6","7","7","7","6","7","7","7","6","7","7","7","5","7","7","7","7","7","7","7","7","7","7","7","7","7","7","7","6","7","7","7","7","7","557541487416442880","刘","37","Female","[""好她"",""好我"",""坏她"",""坏我""]","[""强她"",""强我"",""弱她"",""弱我""]","","","","","","","","no","","","","","","","","","SRET","EW_formal","","key","f","8.335314159291855","853.3333333333334","476","朋友","低俗","Negative","morality","","","","","","","","","",""
"73215","
    <p><div style='color:white;font-size:35px; line-height:20px;'>计算任务</div></p><br>
    <p><div style='color:red;font-size:25px; line-height:20px;'>接下来，您将看到一些四则运算题，<b>请从键盘选择 0-9 进行反应。</b></div></p>
    <p><div style='color:red;font-size:25px; line-height:20px;'>请尽可能快地进行计算，计算的速度和正确率将影响报酬的发放。</div></p>
    <p><div class='footer' style='color:white;font-size:25px; line-height:20px;'>如果对本实验还有不清楚之处，请立即向实验员咨询。</p><p style='color:white;font-size:25px; line-height:20px;'>如果您明白了规则：</p><p style='color:white;font-size:22px; line-height:20px;'>请按 继续 进入练习</p>
    </div>
    ","0","html-button-response","102","811019","0.0-7.0-4.0","5","6","7","5","6","5","5","5","5","5","5","2","1","1","2","1","2","2","2","5","5","5","5","5","4","4","4","5","5","7","8","8","8","7","9","8","9","8","6","7","4","7","7","7","6","7","7","7","6","7","7","7","6","7","7","7","5","7","7","7","7","7","7","7","7","7","7","7","7","7","7","7","6","7","7","7","7","7","557541487416442880","刘","37","Female","[""好她"",""好我"",""坏她"",""坏我""]","[""强她"",""强我"",""弱她"",""弱我""]","","","","","","","","","","","","","","","","","SRET_math","math_instructions","Thu Nov 16 2023 09:28:43 GMT+0800 (中国标准时间)","","","","","","","","","","","","","","","","","","",""
"2543","","3","psychophysics","103","813564","0.0-7.0-5.0-0.0","5","6","7","5","6","5","5","5","5","5","5","2","1","1","2","1","2","2","2","5","5","5","5","5","4","4","4","5","5","7","8","8","8","7","9","8","9","8","6","7","4","7","7","7","6","7","7","7","6","7","7","7","6","7","7","7","5","7","7","7","7","7","7","7","7","7","7","7","7","7","7","7","6","7","7","7","7","7","557541487416442880","刘","37","Female","[""好她"",""好我"",""坏她"",""坏我""]","[""强她"",""强我"",""弱她"",""弱我""]","","","","","","","","3","","","","","","","","","SRET","SRET_math_calculate","","key","3","8.362170491803086","853.3333333333334","476","","","","","3*1= ?","3","1","","","","","","",""
"2245","","5","psychophysics","104","815810","0.0-7.0-5.0-0.1","5","6","7","5","6","5","5","5","5","5","5","2","1","1","2","1","2","2","2","5","5","5","5","5","4","4","4","5","5","7","8","8","8","7","9","8","9","8","6","7","4","7","7","7","6","7","7","7","6","7","7","7","6","7","7","7","5","7","7","7","7","7","7","7","7","7","7","7","7","7","7","7","6","7","7","7","7","7","557541487416442880","刘","37","Female","[""好她"",""好我"",""坏她"",""坏我""]","[""强她"",""强我"",""弱她"",""弱我""]","","","","","","","","5","","","","","","","","","SRET","SRET_math_calculate","","key","5","8.332182835820548","853.3333333333334","476","","","","","17-12= ? ","5","1","","","","","","",""
"6334","","1","psychophysics","105","822147","0.0-7.0-5.0-0.2","5","6","7","5","6","5","5","5","5","5","5","2","1","1","2","1","2","2","2","5","5","5","5","5","4","4","4","5","5","7","8","8","8","7","9","8","9","8","6","7","4","7","7","7","6","7","7","7","6","7","7","7","6","7","7","7","5","7","7","7","7","7","7","7","7","7","7","7","7","7","7","7","6","7","7","7","7","7","557541487416442880","刘","37","Female","[""好她"",""好我"",""坏她"",""坏我""]","[""强她"",""强我"",""弱她"",""弱我""]","","","","","","","","1","","","","","","","","","SRET","SRET_math_calculate","","key","1","8.332256578947387","853.3333333333334","476","","","","","30-29= ?","1","1","","","","","","",""
"2041","","3","psychophysics","106","824188","0.0-7.0-5.0-0.3","5","6","7","5","6","5","5","5","5","5","5","2","1","1","2","1","2","2","2","5","5","5","5","5","4","4","4","5","5","7","8","8","8","7","9","8","9","8","6","7","4","7","7","7","6","7","7","7","6","7","7","7","6","7","7","7","5","7","7","7","7","7","7","7","7","7","7","7","7","7","7","7","6","7","7","7","7","7","557541487416442880","刘","37","Female","[""好她"",""好我"",""坏她"",""坏我""]","[""强她"",""强我"",""弱她"",""弱我""]","","","","","","","","3","","","","","","","","","SRET","SRET_math_calculate","","key","3","8.333946721311506","853.3333333333334","476","","","","","3+0= ?","3","1","","","","","","",""
"1877","","2","psychophysics","107","826067","0.0-7.0-5.0-0.4","5","6","7","5","6","5","5","5","5","5","5","2","1","1","2","1","2","2","2","5","5","5","5","5","4","4","4","5","5","7","8","8","8","7","9","8","9","8","6","7","4","7","7","7","6","7","7","7","6","7","7","7","6","7","7","7","5","7","7","7","7","7","7","7","7","7","7","7","7","7","7","7","6","7","7","7","7","7","557541487416442880","刘","37","Female","[""好她"",""好我"",""坏她"",""坏我""]","[""强她"",""强我"",""弱她"",""弱我""]","","","","","","","","2","","","","","","","","","SRET","SRET_math_calculate","","key","2","8.333736607142782","853.3333333333334","476","","","","","8-6= ?","2","1","","","","","","",""
"2509","","8","psychophysics","108","828578","0.0-7.0-5.0-0.5","5","6","7","5","6","5","5","5","5","5","5","2","1","1","2","1","2","2","2","5","5","5","5","5","4","4","4","5","5","7","8","8","8","7","9","8","9","8","6","7","4","7","7","7","6","7","7","7","6","7","7","7","6","7","7","7","5","7","7","7","7","7","7","7","7","7","7","7","7","7","7","7","6","7","7","7","7","7","557541487416442880","刘","37","Female","[""好她"",""好我"",""坏她"",""坏我""]","[""强她"",""强我"",""弱她"",""弱我""]","","","","","","","","8","","","","","","","","","SRET","SRET_math_calculate","","key","8","8.332152823920275","853.3333333333334","476","","","","","9-1= ?","8","1","","","","","","",""
"2591","","5","psychophysics","109","831170","0.0-7.0-5.0-0.6","5","6","7","5","6","5","5","5","5","5","5","2","1","1","2","1","2","2","2","5","5","5","5","5","4","4","4","5","5","7","8","8","8","7","9","8","9","8","6","7","4","7","7","7","6","7","7","7","6","7","7","7","6","7","7","7","5","7","7","7","7","7","7","7","7","7","7","7","7","7","7","7","6","7","7","7","7","7","557541487416442880","刘","37","Female","[""好她"",""好我"",""坏她"",""坏我""]","[""强她"",""强我"",""弱她"",""弱我""]","","","","","","","","5","","","","","","","","","SRET","SRET_math_calculate","","key","5","8.334512903225878","853.3333333333334","476","","","","","12-7= ?","5","1","","","","","","",""
"1967","","3","psychophysics","110","833138","0.0-7.0-5.0-0.7","5","6","7","5","6","5","5","5","5","5","5","2","1","1","2","1","2","2","2","5","5","5","5","5","4","4","4","5","5","7","8","8","8","7","9","8","9","8","6","7","4","7","7","7","6","7","7","7","6","7","7","7","6","7","7","7","5","7","7","7","7","7","7","7","7","7","7","7","7","7","7","7","6","7","7","7","7","7","557541487416442880","刘","37","Female","[""好她"",""好我"",""坏她"",""坏我""]","[""强她"",""强我"",""弱她"",""弱我""]","","","","","","","","3","","","","","","","","","SRET","SRET_math_calculate","","key","3","8.333778723404604","853.3333333333334","476","","","","","9-6= ?","3","1","","","","","","",""
"2120","","6","psychophysics","111","835259","0.0-7.0-5.0-0.8","5","6","7","5","6","5","5","5","5","5","5","2","1","1","2","1","2","2","2","5","5","5","5","5","4","4","4","5","5","7","8","8","8","7","9","8","9","8","6","7","4","7","7","7","6","7","7","7","6","7","7","7","6","7","7","7","5","7","7","7","7","7","7","7","7","7","7","7","7","7","7","7","6","7","7","7","7","7","557541487416442880","刘","37","Female","[""好她"",""好我"",""坏她"",""坏我""]","[""强她"",""强我"",""弱她"",""弱我""]","","","","","","","","6","","","","","","","","","SRET","SRET_math_calculate","","key","6","8.332625984251829","853.3333333333334","476","","","","","11-5= ?","6","1","","","","","","",""
"2294","","0","psychophysics","112","837554","0.0-7.0-5.0-0.9","5","6","7","5","6","5","5","5","5","5","5","2","1","1","2","1","2","2","2","5","5","5","5","5","4","4","4","5","5","7","8","8","8","7","9","8","9","8","6","7","4","7","7","7","6","7","7","7","6","7","7","7","6","7","7","7","5","7","7","7","7","7","7","7","7","7","7","7","7","7","7","7","6","7","7","7","7","7","557541487416442880","刘","37","Female","[""好她"",""好我"",""坏她"",""坏我""]","[""强她"",""强我"",""弱她"",""弱我""]","","","","","","","","0","","","","","","","","","SRET","SRET_math_calculate","","key","0","8.332510948905137","853.3333333333334","476","","","","","9-9= ?","0","1","","","","","","",""
"2672","","7","psychophysics","113","840227","0.0-7.0-5.0-0.10","5","6","7","5","6","5","5","5","5","5","5","2","1","1","2","1","2","2","2","5","5","5","5","5","4","4","4","5","5","7","8","8","8","7","9","8","9","8","6","7","4","7","7","7","6","7","7","7","6","7","7","7","6","7","7","7","5","7","7","7","7","7","7","7","7","7","7","7","7","7","7","7","6","7","7","7","7","7","557541487416442880","刘","37","Female","[""好她"",""好我"",""坏她"",""坏我""]","[""强她"",""强我"",""弱她"",""弱我""]","","","","","","","","7","","","","","","","","","SRET","SRET_math_calculate","","key","7","8.332687500000247","853.3333333333334","476","","","","","6+1= ?","7","1","","","","","","",""
"1998","","3","psychophysics","114","842226","0.0-7.0-5.0-0.11","5","6","7","5","6","5","5","5","5","5","5","2","1","1","2","1","2","2","2","5","5","5","5","5","4","4","4","5","5","7","8","8","8","7","9","8","9","8","6","7","4","7","7","7","6","7","7","7","6","7","7","7","6","7","7","7","5","7","7","7","7","7","7","7","7","7","7","7","7","7","7","7","6","7","7","7","7","7","557541487416442880","刘","37","Female","[""好她"",""好我"",""坏她"",""坏我""]","[""强她"",""强我"",""弱她"",""弱我""]","","","","","","","","3","","","","","","","","","SRET","SRET_math_calculate","","key","3","8.334079497907833","853.3333333333334","476","","","","","2+1= ?","3","1","","","","","","",""
"2839","","8","psychophysics","115","845067","0.0-7.0-5.0-0.12","5","6","7","5","6","5","5","5","5","5","5","2","1","1","2","1","2","2","2","5","5","5","5","5","4","4","4","5","5","7","8","8","8","7","9","8","9","8","6","7","4","7","7","7","6","7","7","7","6","7","7","7","6","7","7","7","5","7","7","7","7","7","7","7","7","7","7","7","7","7","7","7","6","7","7","7","7","7","557541487416442880","刘","37","Female","[""好她"",""好我"",""坏她"",""坏我""]","[""强她"",""强我"",""弱她"",""弱我""]","","","","","","","","8","","","","","","","","","SRET","SRET_math_calculate","","key","8","8.33379999999991","853.3333333333334","476","","","","","4+4= ?","8","1","","","","","","",""
"4774","","4","psychophysics","116","849842","0.0-7.0-5.0-0.13","5","6","7","5","6","5","5","5","5","5","5","2","1","1","2","1","2","2","2","5","5","5","5","5","4","4","4","5","5","7","8","8","8","7","9","8","9","8","6","7","4","7","7","7","6","7","7","7","6","7","7","7","6","7","7","7","5","7","7","7","7","7","7","7","7","7","7","7","7","7","7","7","6","7","7","7","7","7","557541487416442880","刘","37","Female","[""好她"",""好我"",""坏她"",""坏我""]","[""强她"",""强我"",""弱她"",""弱我""]","","","","","","","","4","","","","","","","","","SRET","SRET_math_calculate","","key","4","8.333034965034836","853.3333333333334","476","","","","","3+1= ?","4","1","","","","","","",""
"3711","","9","psychophysics","117","853554","0.0-7.0-5.0-0.14","5","6","7","5","6","5","5","5","5","5","5","2","1","1","2","1","2","2","2","5","5","5","5","5","4","4","4","5","5","7","8","8","8","7","9","8","9","8","6","7","4","7","7","7","6","7","7","7","6","7","7","7","6","7","7","7","5","7","7","7","7","7","7","7","7","7","7","7","7","7","7","7","6","7","7","7","7","7","557541487416442880","刘","37","Female","[""好她"",""好我"",""坏她"",""坏我""]","[""强她"",""强我"",""弱她"",""弱我""]","","","","","","","","9","","","","","","","","","SRET","SRET_math_calculate","","key","9","8.332033783783675","853.3333333333334","476","","","","","5+4= ?","9","1","","","","","","",""
"2120","","7","psychophysics","118","855674","0.0-7.0-5.0-0.15","5","6","7","5","6","5","5","5","5","5","5","2","1","1","2","1","2","2","2","5","5","5","5","5","4","4","4","5","5","7","8","8","8","7","9","8","9","8","6","7","4","7","7","7","6","7","7","7","6","7","7","7","6","7","7","7","5","7","7","7","7","7","7","7","7","7","7","7","7","7","7","7","6","7","7","7","7","7","557541487416442880","刘","37","Female","[""好她"",""好我"",""坏她"",""坏我""]","[""强她"",""强我"",""弱她"",""弱我""]","","","","","","","","7","","","","","","","","","SRET","SRET_math_calculate","","key","7","8.333649606299568","853.3333333333334","476","","","","","4+3= ?","7","1","","","","","","",""
"4158","","3","psychophysics","119","859834","0.0-7.0-5.0-0.16","5","6","7","5","6","5","5","5","5","5","5","2","1","1","2","1","2","2","2","5","5","5","5","5","4","4","4","5","5","7","8","8","8","7","9","8","9","8","6","7","4","7","7","7","6","7","7","7","6","7","7","7","6","7","7","7","5","7","7","7","7","7","7","7","7","7","7","7","7","7","7","7","6","7","7","7","7","7","557541487416442880","刘","37","Female","[""好她"",""好我"",""坏她"",""坏我""]","[""强她"",""强我"",""弱她"",""弱我""]","","","","","","","","3","","","","","","","","","SRET","SRET_math_calculate","","key","3","8.33291365461841","853.3333333333334","476","","","","","1+2= ?","3","1","","","","","","",""
"4583","","8","psychophysics","120","864418","0.0-7.0-5.0-0.17","5","6","7","5","6","5","5","5","5","5","5","2","1","1","2","1","2","2","2","5","5","5","5","5","4","4","4","5","5","7","8","8","8","7","9","8","9","8","6","7","4","7","7","7","6","7","7","7","6","7","7","7","6","7","7","7","5","7","7","7","7","7","7","7","7","7","7","7","7","7","7","7","6","7","7","7","7","7","557541487416442880","刘","37","Female","[""好她"",""好我"",""坏她"",""坏我""]","[""强她"",""强我"",""弱她"",""弱我""]","","","","","","","","8","","","","","","","","","SRET","SRET_math_calculate","","key","8","8.33283060109298","853.3333333333334","476","","","","","5+3= ?","8","1","","","","","","",""
"3383","","6","psychophysics","121","867802","0.0-7.0-5.0-0.18","5","6","7","5","6","5","5","5","5","5","5","2","1","1","2","1","2","2","2","5","5","5","5","5","4","4","4","5","5","7","8","8","8","7","9","8","9","8","6","7","4","7","7","7","6","7","7","7","6","7","7","7","6","7","7","7","5","7","7","7","7","7","7","7","7","7","7","7","7","7","7","7","6","7","7","7","7","7","557541487416442880","刘","37","Female","[""好她"",""好我"",""坏她"",""坏我""]","[""强她"",""强我"",""弱她"",""弱我""]","","","","","","","","6","","","","","","","","","SRET","SRET_math_calculate","","key","6","8.332967901234458","853.3333333333334","476","","","","","3+3= ?","6","1","","","","","","",""
"2791","","9","psychophysics","122","870594","0.0-7.0-5.0-0.19","5","6","7","5","6","5","5","5","5","5","5","2","1","1","2","1","2","2","2","5","5","5","5","5","4","4","4","5","5","7","8","8","8","7","9","8","9","8","6","7","4","7","7","7","6","7","7","7","6","7","7","7","6","7","7","7","5","7","7","7","7","7","7","7","7","7","7","7","7","7","7","7","6","7","7","7","7","7","557541487416442880","刘","37","Female","[""好她"",""好我"",""坏她"",""坏我""]","[""强她"",""强我"",""弱她"",""弱我""]","","","","","","","","9","","","","","","","","","SRET","SRET_math_calculate","","key","9","8.332592814371289","853.3333333333334","476","","","","","7+2= ?","9","1","","","","","","",""
"2774","","3","psychophysics","123","873371","0.0-7.0-5.0-0.20","5","6","7","5","6","5","5","5","5","5","5","2","1","1","2","1","2","2","2","5","5","5","5","5","4","4","4","5","5","7","8","8","8","7","9","8","9","8","6","7","4","7","7","7","6","7","7","7","6","7","7","7","6","7","7","7","5","7","7","7","7","7","7","7","7","7","7","7","7","7","7","7","6","7","7","7","7","7","557541487416442880","刘","37","Female","[""好她"",""好我"",""坏她"",""坏我""]","[""强她"",""强我"",""弱她"",""弱我""]","","","","","","","","3","","","","","","","","","SRET","SRET_math_calculate","","key","3","8.332936936936987","853.3333333333334","476","","","","","9/3= ?","3","1","","","","","","",""
"3254","","0","psychophysics","124","876626","0.0-7.0-5.0-0.21","5","6","7","5","6","5","5","5","5","5","5","2","1","1","2","1","2","2","2","5","5","5","5","5","4","4","4","5","5","7","8","8","8","7","9","8","9","8","6","7","4","7","7","7","6","7","7","7","6","7","7","7","6","7","7","7","5","7","7","7","7","7","7","7","7","7","7","7","7","7","7","7","6","7","7","7","7","7","557541487416442880","刘","37","Female","[""好她"",""好我"",""坏她"",""坏我""]","[""强她"",""强我"",""弱她"",""弱我""]","","","","","","","","0","","","","","","","","","SRET","SRET_math_calculate","","key","0","8.333215938303452","853.3333333333334","476","","","","","12-12= ?","0","1","","","","","","",""
"3287","","8","psychophysics","125","879914","0.0-7.0-5.0-0.22","5","6","7","5","6","5","5","5","5","5","5","2","1","1","2","1","2","2","2","5","5","5","5","5","4","4","4","5","5","7","8","8","8","7","9","8","9","8","6","7","4","7","7","7","6","7","7","7","6","7","7","7","6","7","7","7","5","7","7","7","7","7","7","7","7","7","7","7","7","7","7","7","6","7","7","7","7","7","557541487416442880","刘","37","Female","[""好她"",""好我"",""坏她"",""坏我""]","[""强她"",""强我"",""弱她"",""弱我""]","","","","","","","","8","","","","","","","","","SRET","SRET_math_calculate","","key","8","8.33336040609118","853.3333333333334","476","","","","","1*8= ?","8","1","","","","","","",""
"2303","","0","psychophysics","126","882218","0.0-7.0-5.0-0.23","5","6","7","5","6","5","5","5","5","5","5","2","1","1","2","1","2","2","2","5","5","5","5","5","4","4","4","5","5","7","8","8","8","7","9","8","9","8","6","7","4","7","7","7","6","7","7","7","6","7","7","7","6","7","7","7","5","7","7","7","7","7","7","7","7","7","7","7","7","7","7","7","6","7","7","7","7","7","557541487416442880","刘","37","Female","[""好她"",""好我"",""坏她"",""坏我""]","[""强她"",""强我"",""弱她"",""弱我""]","","","","","","","","0","","","","","","","","","SRET","SRET_math_calculate","","key","0","8.333818181818351","853.3333333333334","476","","","","","32-32= ?","0","1","","","","","","",""
"2101","","2","psychophysics","127","884322","0.0-7.0-5.0-0.24","5","6","7","5","6","5","5","5","5","5","5","2","1","1","2","1","2","2","2","5","5","5","5","5","4","4","4","5","5","7","8","8","8","7","9","8","9","8","6","7","4","7","7","7","6","7","7","7","6","7","7","7","6","7","7","7","5","7","7","7","7","7","7","7","7","7","7","7","7","7","7","7","6","7","7","7","7","7","557541487416442880","刘","37","Female","[""好她"",""好我"",""坏她"",""坏我""]","[""强她"",""强我"",""弱她"",""弱我""]","","","","","","","","2","","","","","","","","","SRET","SRET_math_calculate","","key","2","8.333734126984224","853.3333333333334","476","","","","","9-7= ?","2","1","","","","","","",""
"3055","","2","psychophysics","128","887378","0.0-7.0-5.0-0.25","5","6","7","5","6","5","5","5","5","5","5","2","1","1","2","1","2","2","2","5","5","5","5","5","4","4","4","5","5","7","8","8","8","7","9","8","9","8","6","7","4","7","7","7","6","7","7","7","6","7","7","7","6","7","7","7","5","7","7","7","7","7","7","7","7","7","7","7","7","7","7","7","6","7","7","7","7","7","557541487416442880","刘","37","Female","[""好她"",""好我"",""坏她"",""坏我""]","[""强她"",""强我"",""弱她"",""弱我""]","","","","","","","","2","","","","","","","","","SRET","SRET_math_calculate","","key","2","8.332442622950817","853.3333333333334","476","","","","","8/4= ?","2","1","","","","","","",""
"3862","","9","psychophysics","129","891242","0.0-7.0-5.0-0.26","5","6","7","5","6","5","5","5","5","5","5","2","1","1","2","1","2","2","2","5","5","5","5","5","4","4","4","5","5","7","8","8","8","7","9","8","9","8","6","7","4","7","7","7","6","7","7","7","6","7","7","7","6","7","7","7","5","7","7","7","7","7","7","7","7","7","7","7","7","7","7","7","6","7","7","7","7","7","557541487416442880","刘","37","Female","[""好她"",""好我"",""坏她"",""坏我""]","[""强她"",""强我"",""弱她"",""弱我""]","","","","","","","","9","","","","","","","","","SRET","SRET_math_calculate","","key","9","8.333017316017425","853.3333333333334","476","","","","","43-34= ?","9","1","","","","","","",""
"2093","","1","psychophysics","130","893338","0.0-7.0-5.0-0.27","5","6","7","5","6","5","5","5","5","5","5","2","1","1","2","1","2","2","2","5","5","5","5","5","4","4","4","5","5","7","8","8","8","7","9","8","9","8","6","7","4","7","7","7","6","7","7","7","6","7","7","7","6","7","7","7","5","7","7","7","7","7","7","7","7","7","7","7","7","7","7","7","6","7","7","7","7","7","557541487416442880","刘","37","Female","[""好她"",""好我"",""坏她"",""坏我""]","[""强她"",""强我"",""弱她"",""弱我""]","","","","","","","","1","","","","","","","","","SRET","SRET_math_calculate","","key","1","8.332314741035711","853.3333333333334","476","","","","","10-9= ?","1","1","","","","","","",""
"2296","","7","psychophysics","131","895635","0.0-7.0-5.0-0.28","5","6","7","5","6","5","5","5","5","5","5","2","1","1","2","1","2","2","2","5","5","5","5","5","4","4","4","5","5","7","8","8","8","7","9","8","9","8","6","7","4","7","7","7","6","7","7","7","6","7","7","7","6","7","7","7","5","7","7","7","7","7","7","7","7","7","7","7","7","7","7","7","6","7","7","7","7","7","557541487416442880","刘","37","Female","[""好她"",""好我"",""坏她"",""坏我""]","[""强她"",""强我"",""弱她"",""弱我""]","","","","","","","","7","","","","","","","","","SRET","SRET_math_calculate","","key","7","8.331829090908762","853.3333333333334","476","","","","","7*1=  ?","7","1","","","","","","",""
"2118","","9","psychophysics","132","897754","0.0-7.0-5.0-0.29","5","6","7","5","6","5","5","5","5","5","5","2","1","1","2","1","2","2","2","5","5","5","5","5","4","4","4","5","5","7","8","8","8","7","9","8","9","8","6","7","4","7","7","7","6","7","7","7","6","7","7","7","6","7","7","7","5","7","7","7","7","7","7","7","7","7","7","7","7","7","7","7","6","7","7","7","7","7","557541487416442880","刘","37","Female","[""好她"",""好我"",""坏她"",""坏我""]","[""强她"",""强我"",""弱她"",""弱我""]","","","","","","","","9","","","","","","","","","SRET","SRET_math_calculate","","key","9","8.332280632410761","853.3333333333334","476","","","","","1+8= ?","9","1","","","","","","",""
"2223","","9","psychophysics","133","899978","0.0-7.0-5.0-0.30","5","6","7","5","6","5","5","5","5","5","5","2","1","1","2","1","2","2","2","5","5","5","5","5","4","4","4","5","5","7","8","8","8","7","9","8","9","8","6","7","4","7","7","7","6","7","7","7","6","7","7","7","6","7","7","7","5","7","7","7","7","7","7","7","7","7","7","7","7","7","7","7","6","7","7","7","7","7","557541487416442880","刘","37","Female","[""好她"",""好我"",""坏她"",""坏我""]","[""强她"",""强我"",""弱她"",""弱我""]","","","","","","","","9","","","","","","","","","SRET","SRET_math_calculate","","key","9","8.33434210526293","853.3333333333334","476","","","","","4+5= ?","9","1","","","","","","",""
"1767","","9","psychophysics","134","901746","0.0-7.0-5.0-0.31","5","6","7","5","6","5","5","5","5","5","5","2","1","1","2","1","2","2","2","5","5","5","5","5","4","4","4","5","5","7","8","8","8","7","9","8","9","8","6","7","4","7","7","7","6","7","7","7","6","7","7","7","6","7","7","7","5","7","7","7","7","7","7","7","7","7","7","7","7","7","7","7","6","7","7","7","7","7","557541487416442880","刘","37","Female","[""好她"",""好我"",""坏她"",""坏我""]","[""强她"",""强我"",""弱她"",""弱我""]","","","","","","","","9","","","","","","","","","SRET","SRET_math_calculate","","key","9","8.334293838862386","853.3333333333334","476","","","","","3+6= ?","9","1","","","","","","",""
"2328","","4","psychophysics","135","904076","0.0-7.0-5.0-0.32","5","6","7","5","6","5","5","5","5","5","5","2","1","1","2","1","2","2","2","5","5","5","5","5","4","4","4","5","5","7","8","8","8","7","9","8","9","8","6","7","4","7","7","7","6","7","7","7","6","7","7","7","6","7","7","7","5","7","7","7","7","7","7","7","7","7","7","7","7","7","7","7","6","7","7","7","7","7","557541487416442880","刘","37","Female","[""好她"",""好我"",""坏她"",""坏我""]","[""强她"",""强我"",""弱她"",""弱我""]","","","","","","","","4","","","","","","","","","SRET","SRET_math_calculate","","key","4","8.332569892473158","853.3333333333334","476","","","","","13-9= ?","4","1","","","","","","",""
"2158","","6","psychophysics","136","906235","0.0-7.0-5.0-0.33","5","6","7","5","6","5","5","5","5","5","5","2","1","1","2","1","2","2","2","5","5","5","5","5","4","4","4","5","5","7","8","8","8","7","9","8","9","8","6","7","4","7","7","7","6","7","7","7","6","7","7","7","6","7","7","7","5","7","7","7","7","7","7","7","7","7","7","7","7","7","7","7","6","7","7","7","7","7","557541487416442880","刘","37","Female","[""好她"",""好我"",""坏她"",""坏我""]","[""强她"",""强我"",""弱她"",""弱我""]","","","","","","","","6","","","","","","","","","SRET","SRET_math_calculate","","key","6","8.332050387597329","853.3333333333334","476","","","","","2*3= ?","6","1","","","","","","",""
"2254","","4","psychophysics","137","908490","0.0-7.0-5.0-0.34","5","6","7","5","6","5","5","5","5","5","5","2","1","1","2","1","2","2","2","5","5","5","5","5","4","4","4","5","5","7","8","8","8","7","9","8","9","8","6","7","4","7","7","7","6","7","7","7","6","7","7","7","6","7","7","7","5","7","7","7","7","7","7","7","7","7","7","7","7","7","7","7","6","7","7","7","7","7","557541487416442880","刘","37","Female","[""好她"",""好我"",""坏她"",""坏我""]","[""强她"",""强我"",""弱她"",""弱我""]","","","","","","","","4","","","","","","","","","SRET","SRET_math_calculate","","key","4","8.3320780669146","853.3333333333334","476","","","","","20/5= ?","4","1","","","","","","",""
"2086","","7","psychophysics","138","910578","0.0-7.0-5.0-0.35","5","6","7","5","6","5","5","5","5","5","5","2","1","1","2","1","2","2","2","5","5","5","5","5","4","4","4","5","5","7","8","8","8","7","9","8","9","8","6","7","4","7","7","7","6","7","7","7","6","7","7","7","6","7","7","7","5","7","7","7","7","7","7","7","7","7","7","7","7","7","7","7","6","7","7","7","7","7","557541487416442880","刘","37","Female","[""好她"",""好我"",""坏她"",""坏我""]","[""强她"",""强我"",""弱她"",""弱我""]","","","","","","","","7","","","","","","","","","SRET","SRET_math_calculate","","key","7","8.333752000000327","853.3333333333334","476","","","","","8-1= ?","7","1","","","","","","",""
"2047","","2","psychophysics","139","912626","0.0-7.0-5.0-0.36","5","6","7","5","6","5","5","5","5","5","5","2","1","1","2","1","2","2","2","5","5","5","5","5","4","4","4","5","5","7","8","8","8","7","9","8","9","8","6","7","4","7","7","7","6","7","7","7","6","7","7","7","6","7","7","7","5","7","7","7","7","7","7","7","7","7","7","7","7","7","7","7","6","7","7","7","7","7","557541487416442880","刘","37","Female","[""好她"",""好我"",""坏她"",""坏我""]","[""强她"",""强我"",""弱她"",""弱我""]","","","","","","","","2","","","","","","","","","SRET","SRET_math_calculate","","key","2","8.335448979592066","853.3333333333334","476","","","","","18/9= ?","2","1","","","","","","",""
"2103","","8","psychophysics","140","914730","0.0-7.0-5.0-0.37","5","6","7","5","6","5","5","5","5","5","5","2","1","1","2","1","2","2","2","5","5","5","5","5","4","4","4","5","5","7","8","8","8","7","9","8","9","8","6","7","4","7","7","7","6","7","7","7","6","7","7","7","6","7","7","7","5","7","7","7","7","7","7","7","7","7","7","7","7","7","7","7","6","7","7","7","7","7","557541487416442880","刘","37","Female","[""好她"",""好我"",""坏她"",""坏我""]","[""强她"",""强我"",""弱她"",""弱我""]","","","","","","","","8","","","","","","","","","SRET","SRET_math_calculate","","key","8","8.332258964143415","853.3333333333334","476","","","","","56/7= ?","8","1","","","","","","",""
"2077","","3","psychophysics","141","916810","0.0-7.0-5.0-0.38","5","6","7","5","6","5","5","5","5","5","5","2","1","1","2","1","2","2","2","5","5","5","5","5","4","4","4","5","5","7","8","8","8","7","9","8","9","8","6","7","4","7","7","7","6","7","7","7","6","7","7","7","6","7","7","7","5","7","7","7","7","7","7","7","7","7","7","7","7","7","7","7","6","7","7","7","7","7","557541487416442880","刘","37","Female","[""好她"",""好我"",""坏她"",""坏我""]","[""强她"",""强我"",""弱她"",""弱我""]","","","","","","","","3","","","","","","","","","SRET","SRET_math_calculate","","key","3","8.333859437751213","853.3333333333334","476","","","","","6/2= ?","3","1","","","","","","",""
