"rt","stimulus","response","trial_type","trial_index","time_elapsed","internal_node_id","swb_1","swb_2","swb_3","swb_4","swb_5","LOT_1","LOT_2","LOT_3","LOT_4","LOT_5","LOT_6","IPC_1","IPC_2","IPC_3","IPC_4","IPC_5","IPC_6","IPC_7","IPC_8","MorIden_1","MorIden_2","MorIden_3","MorIden_4","MorIden_5","MorIden_6","MorIden_7","MorIden_8","MorIden_9","MorIden_10","moralSeImag_1","moralSeImag_2","moralSeImag_3","moralSeImag_4","moralSeImag_5","moralSeImag_6","moralSeImag_7","moralSeImag_8","moralSeImag_9","sde_1","sde_2","sde_3","sde_4","sde_5","sde_6","sde_7","sde_8","sde_9","sde_10","sde_11","sde_12","sde_13","sde_14","sde_15","sde_16","sde_17","sde_18","sde_19","sde_20","IM_1","IM_2","IM_3","IM_4","IM_5","IM_6","IM_7","IM_8","IM_9","IM_10","IM_11","IM_12","IM_13","IM_14","IM_15","IM_16","IM_17","IM_18","IM_19","IM_20","subj_idx","friend_name","ParticipantID","Sex","Word","Word2","value","success","timeout","failed_images","failed_audio","failed_video","user_agent","responses","item_order","radio_event_ids","radio_event_times","key_event_times","mouse_event_times","straightlining","zigzagging","honeypot","view_history","response_type","key_press","avg_frame_time","center_x","center_y","correct_response","correct","identity","Image","word","condition","task_id","screen_id","time_stamp","person","valence","domain","math","status","duration","question_order"
"14767","
   <p><div style='color:white; font-size: 25px'>您好，欢迎参加本次实验。</div></p>
   <p><div style='color:white; font-size: 25px'>为充分保障您的权利，请确保您已经知晓并同意《参与实验同意书》以及《数据公开知情同意书》。</div></p>
   <p><div style='color:white; font-size: 25px'>如果您未见过上述内容，请咨询实验员。</div></p>
   <p style='color:white; font-size: 25px'>如果您选择继续实验，则表示您已经清楚两份知情同意书的内容并同意。</p>
   <p><div style = ""color: red;font-size:30px;"">请确保您记得day0的实验编号，您将在本次实验输入该编号，若您忘记，请咨询实验员后作答。</div></p>
   <p> <div style = ""color: green""><按空格键至下页></div> </p>
   "," ","html-keyboard-response","0","14773","0.0-0.0","6","7","5","5","4","5","2","5","4","4","4","1","0","1","2","0","1","2","0","5","5","5","5","5","5","4","4","5","5","7","8","6","8","5","7","8","7","8","6","6","5","6","6","2","5","1","5","2","3","1","5","4","7","7","5","3","6","5","2","7","3","3","2","7","3","6","5","7","6","6","3","5","2","7","3","7","3","6","631127599740878848","刘","225","Male","[""坏我"",""好他"",""坏他"",""好我""]","[""弱我"",""强他"",""弱他"",""强我""]","","","","","","","","","","","","","","","","","","","","","","","","","","","","","","","","","","","","","",""
"","","","call-function","1","14784","0.0-1.0-0.0","6","7","5","5","4","5","2","5","4","4","4","1","0","1","2","0","1","2","0","5","5","5","5","5","5","4","4","5","5","7","8","6","8","5","7","8","7","8","6","6","5","6","6","2","5","1","5","2","3","1","5","4","7","7","5","3","6","5","2","7","3","3","2","7","3","6","5","7","6","6","3","5","2","7","3","7","3","6","631127599740878848","刘","225","Male","[""坏我"",""好他"",""坏他"",""好我""]","[""弱我"",""强他"",""弱他"",""强我""]","","","","","","","","","","","","","","","","","","","","","","","","","","","","","","","","","","","","","",""
"15787","","[{""name"":""Sex"",""value"":""0""},{""name"":""friend_name"",""value"":""刘""},{""name"":""ParticipantID"",""value"":""225""}]","survey-html-form","2","30578","0.0-1.0-1.0","6","7","5","5","4","5","2","5","4","4","4","1","0","1","2","0","1","2","0","5","5","5","5","5","5","4","4","5","5","7","8","6","8","5","7","8","7","8","6","6","5","6","6","2","5","1","5","2","3","1","5","4","7","7","5","3","6","5","2","7","3","3","2","7","3","6","5","7","6","6","3","5","2","7","3","7","3","6","631127599740878848","刘","225","Male","[""坏我"",""好他"",""坏他"",""好我""]","[""弱我"",""强他"",""弱他"",""强我""]","","","","","","","","","","","","","","","","","","","","","","","","","","","","","","","","","","","","","",""
"","","","preload","3","31421","0.0-2.0","6","7","5","5","4","5","2","5","4","4","4","1","0","1","2","0","1","2","0","5","5","5","5","5","5","4","4","5","5","7","8","6","8","5","7","8","7","8","6","6","5","6","6","2","5","1","5","2","3","1","5","4","7","7","5","3","6","5","2","7","3","3","2","7","3","6","5","7","6","6","3","5","2","7","3","7","3","6","631127599740878848","刘","225","Male","[""坏我"",""好他"",""坏他"",""好我""]","[""弱我"",""强他"",""弱他"",""强我""]","","true","false","[]","[]","[]","","","","","","","","","","","","","","","","","","","","","","","","","","","","","","","",""
"","","","fullscreen","4","42639","0.0-3.0","6","7","5","5","4","5","2","5","4","4","4","1","0","1","2","0","1","2","0","5","5","5","5","5","5","4","4","5","5","7","8","6","8","5","7","8","7","8","6","6","5","6","6","2","5","1","5","2","3","1","5","4","7","7","5","3","6","5","2","7","3","3","2","7","3","6","5","7","6","6","3","5","2","7","3","7","3","6","631127599740878848","刘","225","Male","[""坏我"",""好他"",""坏他"",""好我""]","[""弱我"",""强他"",""弱他"",""强我""]","","true","","","","","{}","","","","","","","","","","","","","","","","","","","","","","","","","","","","","","",""
"12970.300000071526","","{""Q01"":""6"",""Q02"":""7"",""Q03"":""5"",""Q04"":""5"",""Q05"":""4""}","survey-template","5","55616","0.0-4.0","6","7","5","5","4","5","2","5","4","4","4","1","0","1","2","0","1","2","0","5","5","5","5","5","5","4","4","5","5","7","8","6","8","5","7","8","7","8","6","6","5","6","6","2","5","1","5","2","3","1","5","4","7","7","5","3","6","5","2","7","3","3","2","7","3","6","5","7","6","6","3","5","2","7","3","7","3","6","631127599740878848","刘","225","Male","[""坏我"",""好他"",""坏他"",""好我""]","[""弱我"",""强他"",""弱他"",""强我""]","","","","","","","","{""Q01"":""6"",""Q02"":""7"",""Q03"":""5"",""Q04"":""5"",""Q05"":""4""}","[0,1,2,3,4]","[""Q01"",""Q02"",""Q03"",""Q03"",""Q04"",""Q05""]","[4168.100000023842,4720.100000023842,6137.400000095367,6159.600000023842,7720.300000071526,12296.200000047684]","[]","[2759.8000000715256,3048.100000023842,4168.100000023842,4720.100000023842,6137.400000095367,6159.600000023842,7720.300000071526,10048.5,11944.5,12296.200000047684,12968.700000047684]","0.4","0.5","0","","","","","","","","","","","","","","","","","","","","","",""
"59297.40000009537","","{""Q01"":""5"",""Q02"":""2"",""Q03"":""5"",""Q04"":""4"",""Q05"":""4"",""Q06"":""4""}","survey-template","6","114919","0.0-5.0","6","7","5","5","4","5","2","5","4","4","4","1","0","1","2","0","1","2","0","5","5","5","5","5","5","4","4","5","5","7","8","6","8","5","7","8","7","8","6","6","5","6","6","2","5","1","5","2","3","1","5","4","7","7","5","3","6","5","2","7","3","3","2","7","3","6","5","7","6","6","3","5","2","7","3","7","3","6","631127599740878848","刘","225","Male","[""坏我"",""好他"",""坏他"",""好我""]","[""弱我"",""强他"",""弱他"",""强我""]","","","","","","","","{""Q01"":""5"",""Q02"":""2"",""Q03"":""5"",""Q04"":""4"",""Q05"":""4"",""Q06"":""4""}","[0,1,2,3,4,5]","[""Q01"",""Q02"",""Q03"",""Q04"",""Q05"",""Q05"",""Q06""]","[24936.700000047684,27256.700000047684,28792.900000095367,30248.5,32408.700000047684,56673.300000071526,58520.40000009537]","[]","[24336.700000047684,24584.600000023842,24936.700000047684,27256.700000047684,28512.5,28792.900000095367,30248.5,32144.400000095367,32408.700000047684,55642.90000009537,56384.60000002384,56673.300000071526,57928.90000009537,58520.40000009537,59296.40000009537]","0.3333333333333333","0.4","0","","","","","","","","","","","","","","","","","","","","","",""
"20675.299999952316","","{""Q01"":""1"",""Q02"":""0"",""Q03"":""1"",""Q04"":""2"",""Q05"":""0"",""Q06"":""1"",""Q07"":""2"",""Q08"":""0""}","survey-template","7","135600","0.0-6.0","6","7","5","5","4","5","2","5","4","4","4","1","0","1","2","0","1","2","0","5","5","5","5","5","5","4","4","5","5","7","8","6","8","5","7","8","7","8","6","6","5","6","6","2","5","1","5","2","3","1","5","4","7","7","5","3","6","5","2","7","3","3","2","7","3","6","5","7","6","6","3","5","2","7","3","7","3","6","631127599740878848","刘","225","Male","[""坏我"",""好他"",""坏他"",""好我""]","[""弱我"",""强他"",""弱他"",""强我""]","","","","","","","","{""Q01"":""1"",""Q02"":""0"",""Q03"":""1"",""Q04"":""2"",""Q05"":""0"",""Q06"":""1"",""Q07"":""2"",""Q08"":""0""}","[0,1,2,3,4,5,6,7]","[""Q01"",""Q02"",""Q03"",""Q03"",""Q04"",""Q05"",""Q06"",""Q07"",""Q08"",""Q08""]","[1946.1000000238419,3043.100000023842,4904.799999952316,5859.5,7587.299999952316,9305.600000023842,11698.199999928474,15714,18490.100000023842,19185.699999928474]","[]","[1513.6000000238419,1946.1000000238419,3043.100000023842,4904.799999952316,5859.5,7587.299999952316,9041.399999976158,9305.600000023842,11241.799999952316,11698.199999928474,14902.699999928474,15219.399999976158,15714,16977.899999976158,17434.699999928474,18490.100000023842,18819.199999928474,19185.699999928474,20674.100000023842]","0.375","0.7142857142857143","0","","","","","","","","","","","","","","","","","","","","","",""
"3291","","","instructions","8","138893","0.0-7.0","6","7","5","5","4","5","2","5","4","4","4","1","0","1","2","0","1","2","0","5","5","5","5","5","5","4","4","5","5","7","8","6","8","5","7","8","7","8","6","6","5","6","6","2","5","1","5","2","3","1","5","4","7","7","5","3","6","5","2","7","3","3","2","7","3","6","5","7","6","6","3","5","2","7","3","7","3","6","631127599740878848","刘","225","Male","[""坏我"",""好他"",""坏他"",""好我""]","[""弱我"",""强他"",""弱他"",""强我""]","","","","","","","","","","","","","","","","","[{""page_index"":0,""viewing_time"":3291}]","","","","","","","","","","","","","","","","","","","","",""
"22545","","","instructions","9","161440","0.0-8.0-0.0-0.0","6","7","5","5","4","5","2","5","4","4","4","1","0","1","2","0","1","2","0","5","5","5","5","5","5","4","4","5","5","7","8","6","8","5","7","8","7","8","6","6","5","6","6","2","5","1","5","2","3","1","5","4","7","7","5","3","6","5","2","7","3","3","2","7","3","6","5","7","6","6","3","5","2","7","3","7","3","6","631127599740878848","刘","225","Male","[""坏我"",""好他"",""坏他"",""好我""]","[""弱我"",""强他"",""弱他"",""强我""]","","","","","","","","","","","","","","","","","[{""page_index"":0,""viewing_time"":4039},{""page_index"":1,""viewing_time"":16392},{""page_index"":2,""viewing_time"":1042},{""page_index"":3,""viewing_time"":1073}]","","","","","","","","","","","","","","","","","","","","",""
"787","","f","psychophysics","10","163237","0.0-8.0-0.0-1.0-0.0-0.0","6","7","5","5","4","5","2","5","4","4","4","1","0","1","2","0","1","2","0","5","5","5","5","5","5","4","4","5","5","7","8","6","8","5","7","8","7","8","6","6","5","6","6","2","5","1","5","2","3","1","5","4","7","7","5","3","6","5","2","7","3","3","2","7","3","6","5","7","6","6","3","5","2","7","3","7","3","6","631127599740878848","刘","225","Male","[""坏我"",""好他"",""坏他"",""好我""]","[""弱我"",""强他"",""弱他"",""强我""]","","","","","","","","nonmatch","","","","","","","","","","key","f","16.83531428571441","758.3333534223067","422.22223340729164","f","true","nonmatch","img/circle.png","好他","好我","prac_ALT2_moral","practice_moral","","","","","","","",""
"null","<span style='color:GreenYellow; font-size: 70px;'>正确! </span>","null","html-keyboard-response","11","163756","0.0-8.0-0.0-1.0-0.0-1.0","6","7","5","5","4","5","2","5","4","4","4","1","0","1","2","0","1","2","0","5","5","5","5","5","5","4","4","5","5","7","8","6","8","5","7","8","7","8","6","6","5","6","6","2","5","1","5","2","3","1","5","4","7","7","5","3","6","5","2","7","3","3","2","7","3","6","5","7","6","6","3","5","2","7","3","7","3","6","631127599740878848","刘","225","Male","[""坏我"",""好他"",""坏他"",""好我""]","[""弱我"",""强他"",""弱他"",""强我""]","","","","","","","","","","","","","","","","","","","","","","","","","","","","","","feedback_test","","","","","","","",""
"701","","f","psychophysics","12","165466","0.0-8.0-0.0-1.0-0.0-0.1","6","7","5","5","4","5","2","5","4","4","4","1","0","1","2","0","1","2","0","5","5","5","5","5","5","4","4","5","5","7","8","6","8","5","7","8","7","8","6","6","5","6","6","2","5","1","5","2","3","1","5","4","7","7","5","3","6","5","2","7","3","3","2","7","3","6","5","7","6","6","3","5","2","7","3","7","3","6","631127599740878848","刘","225","Male","[""坏我"",""好他"",""坏他"",""好我""]","[""弱我"",""强他"",""弱他"",""强我""]","","","","","","","","nonmatch","","","","","","","","","","key","f","16.67400980392139","758.3333534223067","422.22223340729164","f","true","nonmatch","img/trapezoid.png","好我","坏他","prac_ALT2_moral","practice_moral","","","","","","","",""
"null","<span style='color:GreenYellow; font-size: 70px;'>正确! </span>","null","html-keyboard-response","13","165968","0.0-8.0-0.0-1.0-0.0-1.1","6","7","5","5","4","5","2","5","4","4","4","1","0","1","2","0","1","2","0","5","5","5","5","5","5","4","4","5","5","7","8","6","8","5","7","8","7","8","6","6","5","6","6","2","5","1","5","2","3","1","5","4","7","7","5","3","6","5","2","7","3","3","2","7","3","6","5","7","6","6","3","5","2","7","3","7","3","6","631127599740878848","刘","225","Male","[""坏我"",""好他"",""坏他"",""好我""]","[""弱我"",""强他"",""弱他"",""强我""]","","","","","","","","","","","","","","","","","","","","","","","","","","","","","","feedback_test","","","","","","","",""
"769","","j","psychophysics","14","167741","0.0-8.0-0.0-1.0-0.0-0.2","6","7","5","5","4","5","2","5","4","4","4","1","0","1","2","0","1","2","0","5","5","5","5","5","5","4","4","5","5","7","8","6","8","5","7","8","7","8","6","6","5","6","6","2","5","1","5","2","3","1","5","4","7","7","5","3","6","5","2","7","3","3","2","7","3","6","5","7","6","6","3","5","2","7","3","7","3","6","631127599740878848","刘","225","Male","[""坏我"",""好他"",""坏他"",""好我""]","[""弱我"",""强他"",""弱他"",""强我""]","","","","","","","","match","","","","","","","","","","key","j","16.676085714285726","758.3333534223067","422.22223340729164","j","true","match","img/square.png","坏我","坏我","prac_ALT2_moral","practice_moral","","","","","","","",""
"null","<span style='color:GreenYellow; font-size: 70px;'>正确! </span>","null","html-keyboard-response","15","168243","0.0-8.0-0.0-1.0-0.0-1.2","6","7","5","5","4","5","2","5","4","4","4","1","0","1","2","0","1","2","0","5","5","5","5","5","5","4","4","5","5","7","8","6","8","5","7","8","7","8","6","6","5","6","6","2","5","1","5","2","3","1","5","4","7","7","5","3","6","5","2","7","3","3","2","7","3","6","5","7","6","6","3","5","2","7","3","7","3","6","631127599740878848","刘","225","Male","[""坏我"",""好他"",""坏他"",""好我""]","[""弱我"",""强他"",""弱他"",""强我""]","","","","","","","","","","","","","","","","","","","","","","","","","","","","","","feedback_test","","","","","","","",""
"1027","","f","psychophysics","16","170275","0.0-8.0-0.0-1.0-0.0-0.3","6","7","5","5","4","5","2","5","4","4","4","1","0","1","2","0","1","2","0","5","5","5","5","5","5","4","4","5","5","7","8","6","8","5","7","8","7","8","6","6","5","6","6","2","5","1","5","2","3","1","5","4","7","7","5","3","6","5","2","7","3","3","2","7","3","6","5","7","6","6","3","5","2","7","3","7","3","6","631127599740878848","刘","225","Male","[""坏我"",""好他"",""坏他"",""好我""]","[""弱我"",""强他"",""弱他"",""强我""]","","","","","","","","nonmatch","","","","","","","","","","key","f","16.66838333333338","758.3333534223067","422.22223340729164","f","true","nonmatch","img/square.png","坏他","坏我","prac_ALT2_moral","practice_moral","","","","","","","",""
"null","<span style='color:GreenYellow; font-size: 70px;'>正确! </span>","null","html-keyboard-response","17","170778","0.0-8.0-0.0-1.0-0.0-1.3","6","7","5","5","4","5","2","5","4","4","4","1","0","1","2","0","1","2","0","5","5","5","5","5","5","4","4","5","5","7","8","6","8","5","7","8","7","8","6","6","5","6","6","2","5","1","5","2","3","1","5","4","7","7","5","3","6","5","2","7","3","3","2","7","3","6","5","7","6","6","3","5","2","7","3","7","3","6","631127599740878848","刘","225","Male","[""坏我"",""好他"",""坏他"",""好我""]","[""弱我"",""强他"",""弱他"",""强我""]","","","","","","","","","","","","","","","","","","","","","","","","","","","","","","feedback_test","","","","","","","",""
"732","","j","psychophysics","18","172514","0.0-8.0-0.0-1.0-0.0-0.4","6","7","5","5","4","5","2","5","4","4","4","1","0","1","2","0","1","2","0","5","5","5","5","5","5","4","4","5","5","7","8","6","8","5","7","8","7","8","6","6","5","6","6","2","5","1","5","2","3","1","5","4","7","7","5","3","6","5","2","7","3","3","2","7","3","6","5","7","6","6","3","5","2","7","3","7","3","6","631127599740878848","刘","225","Male","[""坏我"",""好他"",""坏他"",""好我""]","[""弱我"",""强他"",""弱他"",""强我""]","","","","","","","","match","","","","","","","","","","key","j","16.66255882352918","758.3333534223067","422.22223340729164","j","true","match","img/square.png","坏我","坏我","prac_ALT2_moral","practice_moral","","","","","","","",""
"null","<span style='color:GreenYellow; font-size: 70px;'>正确! </span>","null","html-keyboard-response","19","173027","0.0-8.0-0.0-1.0-0.0-1.4","6","7","5","5","4","5","2","5","4","4","4","1","0","1","2","0","1","2","0","5","5","5","5","5","5","4","4","5","5","7","8","6","8","5","7","8","7","8","6","6","5","6","6","2","5","1","5","2","3","1","5","4","7","7","5","3","6","5","2","7","3","3","2","7","3","6","5","7","6","6","3","5","2","7","3","7","3","6","631127599740878848","刘","225","Male","[""坏我"",""好他"",""坏他"",""好我""]","[""弱我"",""强他"",""弱他"",""强我""]","","","","","","","","","","","","","","","","","","","","","","","","","","","","","","feedback_test","","","","","","","",""
"710","","f","psychophysics","20","174743","0.0-8.0-0.0-1.0-0.0-0.5","6","7","5","5","4","5","2","5","4","4","4","1","0","1","2","0","1","2","0","5","5","5","5","5","5","4","4","5","5","7","8","6","8","5","7","8","7","8","6","6","5","6","6","2","5","1","5","2","3","1","5","4","7","7","5","3","6","5","2","7","3","3","2","7","3","6","5","7","6","6","3","5","2","7","3","7","3","6","631127599740878848","刘","225","Male","[""坏我"",""好他"",""坏他"",""好我""]","[""弱我"",""强他"",""弱他"",""强我""]","","","","","","","","nonmatch","","","","","","","","","","key","f","16.839049504950555","758.3333534223067","422.22223340729164","f","true","nonmatch","img/square.png","好他","坏我","prac_ALT2_moral","practice_moral","","","","","","","",""
"null","<span style='color:GreenYellow; font-size: 70px;'>正确! </span>","null","html-keyboard-response","21","175245","0.0-8.0-0.0-1.0-0.0-1.5","6","7","5","5","4","5","2","5","4","4","4","1","0","1","2","0","1","2","0","5","5","5","5","5","5","4","4","5","5","7","8","6","8","5","7","8","7","8","6","6","5","6","6","2","5","1","5","2","3","1","5","4","7","7","5","3","6","5","2","7","3","3","2","7","3","6","5","7","6","6","3","5","2","7","3","7","3","6","631127599740878848","刘","225","Male","[""坏我"",""好他"",""坏他"",""好我""]","[""弱我"",""强他"",""弱他"",""强我""]","","","","","","","","","","","","","","","","","","","","","","","","","","","","","","feedback_test","","","","","","","",""
"712","","j","psychophysics","22","176963","0.0-8.0-0.0-1.0-0.0-0.6","6","7","5","5","4","5","2","5","4","4","4","1","0","1","2","0","1","2","0","5","5","5","5","5","5","4","4","5","5","7","8","6","8","5","7","8","7","8","6","6","5","6","6","2","5","1","5","2","3","1","5","4","7","7","5","3","6","5","2","7","3","3","2","7","3","6","5","7","6","6","3","5","2","7","3","7","3","6","631127599740878848","刘","225","Male","[""坏我"",""好他"",""坏他"",""好我""]","[""弱我"",""强他"",""弱他"",""强我""]","","","","","","","","match","","","","","","","","","","key","j","16.674921568627493","758.3333534223067","422.22223340729164","j","true","match","img/trapezoid.png","坏他","坏他","prac_ALT2_moral","practice_moral","","","","","","","",""
"null","<span style='color:GreenYellow; font-size: 70px;'>正确! </span>","null","html-keyboard-response","23","177465","0.0-8.0-0.0-1.0-0.0-1.6","6","7","5","5","4","5","2","5","4","4","4","1","0","1","2","0","1","2","0","5","5","5","5","5","5","4","4","5","5","7","8","6","8","5","7","8","7","8","6","6","5","6","6","2","5","1","5","2","3","1","5","4","7","7","5","3","6","5","2","7","3","3","2","7","3","6","5","7","6","6","3","5","2","7","3","7","3","6","631127599740878848","刘","225","Male","[""坏我"",""好他"",""坏他"",""好我""]","[""弱我"",""强他"",""弱他"",""强我""]","","","","","","","","","","","","","","","","","","","","","","","","","","","","","","feedback_test","","","","","","","",""
"841","","j","psychophysics","24","179310","0.0-8.0-0.0-1.0-0.0-0.7","6","7","5","5","4","5","2","5","4","4","4","1","0","1","2","0","1","2","0","5","5","5","5","5","5","4","4","5","5","7","8","6","8","5","7","8","7","8","6","6","5","6","6","2","5","1","5","2","3","1","5","4","7","7","5","3","6","5","2","7","3","3","2","7","3","6","5","7","6","6","3","5","2","7","3","7","3","6","631127599740878848","刘","225","Male","[""坏我"",""好他"",""坏他"",""好我""]","[""弱我"",""强他"",""弱他"",""强我""]","","","","","","","","match","","","","","","","","","","key","j","16.675376146789073","758.3333534223067","422.22223340729164","j","true","match","img/hexagon.png","好他","好他","prac_ALT2_moral","practice_moral","","","","","","","",""
"null","<span style='color:GreenYellow; font-size: 70px;'>正确! </span>","null","html-keyboard-response","25","179812","0.0-8.0-0.0-1.0-0.0-1.7","6","7","5","5","4","5","2","5","4","4","4","1","0","1","2","0","1","2","0","5","5","5","5","5","5","4","4","5","5","7","8","6","8","5","7","8","7","8","6","6","5","6","6","2","5","1","5","2","3","1","5","4","7","7","5","3","6","5","2","7","3","3","2","7","3","6","5","7","6","6","3","5","2","7","3","7","3","6","631127599740878848","刘","225","Male","[""坏我"",""好他"",""坏他"",""好我""]","[""弱我"",""强他"",""弱他"",""强我""]","","","","","","","","","","","","","","","","","","","","","","","","","","","","","","feedback_test","","","","","","","",""
"763","","j","psychophysics","26","181579","0.0-8.0-0.0-1.0-0.0-0.8","6","7","5","5","4","5","2","5","4","4","4","1","0","1","2","0","1","2","0","5","5","5","5","5","5","4","4","5","5","7","8","6","8","5","7","8","7","8","6","6","5","6","6","2","5","1","5","2","3","1","5","4","7","7","5","3","6","5","2","7","3","3","2","7","3","6","5","7","6","6","3","5","2","7","3","7","3","6","631127599740878848","刘","225","Male","[""坏我"",""好他"",""坏他"",""好我""]","[""弱我"",""强他"",""弱他"",""强我""]","","","","","","","","match","","","","","","","","","","key","j","16.67496190476176","758.3333534223067","422.22223340729164","j","true","match","img/hexagon.png","好他","好他","prac_ALT2_moral","practice_moral","","","","","","","",""
"null","<span style='color:GreenYellow; font-size: 70px;'>正确! </span>","null","html-keyboard-response","27","182082","0.0-8.0-0.0-1.0-0.0-1.8","6","7","5","5","4","5","2","5","4","4","4","1","0","1","2","0","1","2","0","5","5","5","5","5","5","4","4","5","5","7","8","6","8","5","7","8","7","8","6","6","5","6","6","2","5","1","5","2","3","1","5","4","7","7","5","3","6","5","2","7","3","3","2","7","3","6","5","7","6","6","3","5","2","7","3","7","3","6","631127599740878848","刘","225","Male","[""坏我"",""好他"",""坏他"",""好我""]","[""弱我"",""强他"",""弱他"",""强我""]","","","","","","","","","","","","","","","","","","","","","","","","","","","","","","feedback_test","","","","","","","",""
"806","","j","psychophysics","28","183892","0.0-8.0-0.0-1.0-0.0-0.9","6","7","5","5","4","5","2","5","4","4","4","1","0","1","2","0","1","2","0","5","5","5","5","5","5","4","4","5","5","7","8","6","8","5","7","8","7","8","6","6","5","6","6","2","5","1","5","2","3","1","5","4","7","7","5","3","6","5","2","7","3","3","2","7","3","6","5","7","6","6","3","5","2","7","3","7","3","6","631127599740878848","刘","225","Male","[""坏我"",""好他"",""坏他"",""好我""]","[""弱我"",""强他"",""弱他"",""强我""]","","","","","","","","match","","","","","","","","","","key","j","16.673407407407435","758.3333534223067","422.22223340729164","f","false","nonmatch","img/trapezoid.png","坏我","坏他","prac_ALT2_moral","practice_moral","","","","","","","",""
"null","<span style='color:red; font-size: 70px;'>错误! </span>","null","html-keyboard-response","29","184394","0.0-8.0-0.0-1.0-0.0-1.9","6","7","5","5","4","5","2","5","4","4","4","1","0","1","2","0","1","2","0","5","5","5","5","5","5","4","4","5","5","7","8","6","8","5","7","8","7","8","6","6","5","6","6","2","5","1","5","2","3","1","5","4","7","7","5","3","6","5","2","7","3","3","2","7","3","6","5","7","6","6","3","5","2","7","3","7","3","6","631127599740878848","刘","225","Male","[""坏我"",""好他"",""坏他"",""好我""]","[""弱我"",""强他"",""弱他"",""强我""]","","","","","","","","","","","","","","","","","","","","","","","","","","","","","","feedback_test","","","","","","","",""
"729","","f","psychophysics","30","186127","0.0-8.0-0.0-1.0-0.0-0.10","6","7","5","5","4","5","2","5","4","4","4","1","0","1","2","0","1","2","0","5","5","5","5","5","5","4","4","5","5","7","8","6","8","5","7","8","7","8","6","6","5","6","6","2","5","1","5","2","3","1","5","4","7","7","5","3","6","5","2","7","3","3","2","7","3","6","5","7","6","6","3","5","2","7","3","7","3","6","631127599740878848","刘","225","Male","[""坏我"",""好他"",""坏他"",""好我""]","[""弱我"",""强他"",""弱他"",""强我""]","","","","","","","","nonmatch","","","","","","","","","","key","f","16.676446601941738","758.3333534223067","422.22223340729164","j","false","match","img/hexagon.png","好他","好他","prac_ALT2_moral","practice_moral","","","","","","","",""
"null","<span style='color:red; font-size: 70px;'>错误! </span>","null","html-keyboard-response","31","186630","0.0-8.0-0.0-1.0-0.0-1.10","6","7","5","5","4","5","2","5","4","4","4","1","0","1","2","0","1","2","0","5","5","5","5","5","5","4","4","5","5","7","8","6","8","5","7","8","7","8","6","6","5","6","6","2","5","1","5","2","3","1","5","4","7","7","5","3","6","5","2","7","3","3","2","7","3","6","5","7","6","6","3","5","2","7","3","7","3","6","631127599740878848","刘","225","Male","[""坏我"",""好他"",""坏他"",""好我""]","[""弱我"",""强他"",""弱他"",""强我""]","","","","","","","","","","","","","","","","","","","","","","","","","","","","","","feedback_test","","","","","","","",""
"775","","j","psychophysics","32","188410","0.0-8.0-0.0-1.0-0.0-0.11","6","7","5","5","4","5","2","5","4","4","4","1","0","1","2","0","1","2","0","5","5","5","5","5","5","4","4","5","5","7","8","6","8","5","7","8","7","8","6","6","5","6","6","2","5","1","5","2","3","1","5","4","7","7","5","3","6","5","2","7","3","3","2","7","3","6","5","7","6","6","3","5","2","7","3","7","3","6","631127599740878848","刘","225","Male","[""坏我"",""好他"",""坏他"",""好我""]","[""弱我"",""强他"",""弱他"",""强我""]","","","","","","","","match","","","","","","","","","","key","j","16.675613207547357","758.3333534223067","422.22223340729164","j","true","match","img/circle.png","好我","好我","prac_ALT2_moral","practice_moral","","","","","","","",""
"null","<span style='color:GreenYellow; font-size: 70px;'>正确! </span>","null","html-keyboard-response","33","188913","0.0-8.0-0.0-1.0-0.0-1.11","6","7","5","5","4","5","2","5","4","4","4","1","0","1","2","0","1","2","0","5","5","5","5","5","5","4","4","5","5","7","8","6","8","5","7","8","7","8","6","6","5","6","6","2","5","1","5","2","3","1","5","4","7","7","5","3","6","5","2","7","3","3","2","7","3","6","5","7","6","6","3","5","2","7","3","7","3","6","631127599740878848","刘","225","Male","[""坏我"",""好他"",""坏他"",""好我""]","[""弱我"",""强他"",""弱他"",""强我""]","","","","","","","","","","","","","","","","","","","","","","","","","","","","","","feedback_test","","","","","","","",""
"860","","j","psychophysics","34","190776","0.0-8.0-0.0-1.0-0.0-0.12","6","7","5","5","4","5","2","5","4","4","4","1","0","1","2","0","1","2","0","5","5","5","5","5","5","4","4","5","5","7","8","6","8","5","7","8","7","8","6","6","5","6","6","2","5","1","5","2","3","1","5","4","7","7","5","3","6","5","2","7","3","3","2","7","3","6","5","7","6","6","3","5","2","7","3","7","3","6","631127599740878848","刘","225","Male","[""坏我"",""好他"",""坏他"",""好我""]","[""弱我"",""强他"",""弱他"",""强我""]","","","","","","","","match","","","","","","","","","","key","j","16.674594594594637","758.3333534223067","422.22223340729164","j","true","match","img/trapezoid.png","坏他","坏他","prac_ALT2_moral","practice_moral","","","","","","","",""
"null","<span style='color:GreenYellow; font-size: 70px;'>正确! </span>","null","html-keyboard-response","35","191281","0.0-8.0-0.0-1.0-0.0-1.12","6","7","5","5","4","5","2","5","4","4","4","1","0","1","2","0","1","2","0","5","5","5","5","5","5","4","4","5","5","7","8","6","8","5","7","8","7","8","6","6","5","6","6","2","5","1","5","2","3","1","5","4","7","7","5","3","6","5","2","7","3","3","2","7","3","6","5","7","6","6","3","5","2","7","3","7","3","6","631127599740878848","刘","225","Male","[""坏我"",""好他"",""坏他"",""好我""]","[""弱我"",""强他"",""弱他"",""强我""]","","","","","","","","","","","","","","","","","","","","","","","","","","","","","","feedback_test","","","","","","","",""
"922","","f","psychophysics","36","193208","0.0-8.0-0.0-1.0-0.0-0.13","6","7","5","5","4","5","2","5","4","4","4","1","0","1","2","0","1","2","0","5","5","5","5","5","5","4","4","5","5","7","8","6","8","5","7","8","7","8","6","6","5","6","6","2","5","1","5","2","3","1","5","4","7","7","5","3","6","5","2","7","3","3","2","7","3","6","5","7","6","6","3","5","2","7","3","7","3","6","631127599740878848","刘","225","Male","[""坏我"",""好他"",""坏他"",""好我""]","[""弱我"",""强他"",""弱他"",""强我""]","","","","","","","","nonmatch","","","","","","","","","","key","f","16.674640350877063","758.3333534223067","422.22223340729164","f","true","nonmatch","img/circle.png","坏我","好我","prac_ALT2_moral","practice_moral","","","","","","","",""
"null","<span style='color:GreenYellow; font-size: 70px;'>正确! </span>","null","html-keyboard-response","37","193712","0.0-8.0-0.0-1.0-0.0-1.13","6","7","5","5","4","5","2","5","4","4","4","1","0","1","2","0","1","2","0","5","5","5","5","5","5","4","4","5","5","7","8","6","8","5","7","8","7","8","6","6","5","6","6","2","5","1","5","2","3","1","5","4","7","7","5","3","6","5","2","7","3","3","2","7","3","6","5","7","6","6","3","5","2","7","3","7","3","6","631127599740878848","刘","225","Male","[""坏我"",""好他"",""坏他"",""好我""]","[""弱我"",""强他"",""弱他"",""强我""]","","","","","","","","","","","","","","","","","","","","","","","","","","","","","","feedback_test","","","","","","","",""
"934","","f","psychophysics","38","195650","0.0-8.0-0.0-1.0-0.0-0.14","6","7","5","5","4","5","2","5","4","4","4","1","0","1","2","0","1","2","0","5","5","5","5","5","5","4","4","5","5","7","8","6","8","5","7","8","7","8","6","6","5","6","6","2","5","1","5","2","3","1","5","4","7","7","5","3","6","5","2","7","3","3","2","7","3","6","5","7","6","6","3","5","2","7","3","7","3","6","631127599740878848","刘","225","Male","[""坏我"",""好他"",""坏他"",""好我""]","[""弱我"",""强他"",""弱他"",""强我""]","","","","","","","","nonmatch","","","","","","","","","","key","f","16.82248245614015","758.3333534223067","422.22223340729164","f","true","nonmatch","img/trapezoid.png","好他","坏他","prac_ALT2_moral","practice_moral","","","","","","","",""
"null","<span style='color:GreenYellow; font-size: 70px;'>正确! </span>","null","html-keyboard-response","39","196152","0.0-8.0-0.0-1.0-0.0-1.14","6","7","5","5","4","5","2","5","4","4","4","1","0","1","2","0","1","2","0","5","5","5","5","5","5","4","4","5","5","7","8","6","8","5","7","8","7","8","6","6","5","6","6","2","5","1","5","2","3","1","5","4","7","7","5","3","6","5","2","7","3","3","2","7","3","6","5","7","6","6","3","5","2","7","3","7","3","6","631127599740878848","刘","225","Male","[""坏我"",""好他"",""坏他"",""好我""]","[""弱我"",""强他"",""弱他"",""强我""]","","","","","","","","","","","","","","","","","","","","","","","","","","","","","","feedback_test","","","","","","","",""
"791","","j","psychophysics","40","197954","0.0-8.0-0.0-1.0-0.0-0.15","6","7","5","5","4","5","2","5","4","4","4","1","0","1","2","0","1","2","0","5","5","5","5","5","5","4","4","5","5","7","8","6","8","5","7","8","7","8","6","6","5","6","6","2","5","1","5","2","3","1","5","4","7","7","5","3","6","5","2","7","3","3","2","7","3","6","5","7","6","6","3","5","2","7","3","7","3","6","631127599740878848","刘","225","Male","[""坏我"",""好他"",""坏他"",""好我""]","[""弱我"",""强他"",""弱他"",""强我""]","","","","","","","","match","","","","","","","","","","key","j","16.676271028037153","758.3333534223067","422.22223340729164","j","true","match","img/circle.png","好我","好我","prac_ALT2_moral","practice_moral","","","","","","","",""
"null","<span style='color:GreenYellow; font-size: 70px;'>正确! </span>","null","html-keyboard-response","41","198460","0.0-8.0-0.0-1.0-0.0-1.15","6","7","5","5","4","5","2","5","4","4","4","1","0","1","2","0","1","2","0","5","5","5","5","5","5","4","4","5","5","7","8","6","8","5","7","8","7","8","6","6","5","6","6","2","5","1","5","2","3","1","5","4","7","7","5","3","6","5","2","7","3","3","2","7","3","6","5","7","6","6","3","5","2","7","3","7","3","6","631127599740878848","刘","225","Male","[""坏我"",""好他"",""坏他"",""好我""]","[""弱我"",""强他"",""弱他"",""强我""]","","","","","","","","","","","","","","","","","","","","","","","","","","","","","","feedback_test","","","","","","","",""
"773","","f","psychophysics","42","200237","0.0-8.0-0.0-1.0-0.0-0.16","6","7","5","5","4","5","2","5","4","4","4","1","0","1","2","0","1","2","0","5","5","5","5","5","5","4","4","5","5","7","8","6","8","5","7","8","7","8","6","6","5","6","6","2","5","1","5","2","3","1","5","4","7","7","5","3","6","5","2","7","3","3","2","7","3","6","5","7","6","6","3","5","2","7","3","7","3","6","631127599740878848","刘","225","Male","[""坏我"",""好他"",""坏他"",""好我""]","[""弱我"",""强他"",""弱他"",""强我""]","","","","","","","","nonmatch","","","","","","","","","","key","f","16.674676190476333","758.3333534223067","422.22223340729164","f","true","nonmatch","img/hexagon.png","坏我","好他","prac_ALT2_moral","practice_moral","","","","","","","",""
"null","<span style='color:GreenYellow; font-size: 70px;'>正确! </span>","null","html-keyboard-response","43","200744","0.0-8.0-0.0-1.0-0.0-1.16","6","7","5","5","4","5","2","5","4","4","4","1","0","1","2","0","1","2","0","5","5","5","5","5","5","4","4","5","5","7","8","6","8","5","7","8","7","8","6","6","5","6","6","2","5","1","5","2","3","1","5","4","7","7","5","3","6","5","2","7","3","3","2","7","3","6","5","7","6","6","3","5","2","7","3","7","3","6","631127599740878848","刘","225","Male","[""坏我"",""好他"",""坏他"",""好我""]","[""弱我"",""强他"",""弱他"",""强我""]","","","","","","","","","","","","","","","","","","","","","","","","","","","","","","feedback_test","","","","","","","",""
"716","","j","psychophysics","44","202465","0.0-8.0-0.0-1.0-0.0-0.17","6","7","5","5","4","5","2","5","4","4","4","1","0","1","2","0","1","2","0","5","5","5","5","5","5","4","4","5","5","7","8","6","8","5","7","8","7","8","6","6","5","6","6","2","5","1","5","2","3","1","5","4","7","7","5","3","6","5","2","7","3","3","2","7","3","6","5","7","6","6","3","5","2","7","3","7","3","6","631127599740878848","刘","225","Male","[""坏我"",""好他"",""坏他"",""好我""]","[""弱我"",""强他"",""弱他"",""强我""]","","","","","","","","match","","","","","","","","","","key","j","16.674823529411714","758.3333534223067","422.22223340729164","j","true","match","img/square.png","坏我","坏我","prac_ALT2_moral","practice_moral","","","","","","","",""
"null","<span style='color:GreenYellow; font-size: 70px;'>正确! </span>","null","html-keyboard-response","45","202968","0.0-8.0-0.0-1.0-0.0-1.17","6","7","5","5","4","5","2","5","4","4","4","1","0","1","2","0","1","2","0","5","5","5","5","5","5","4","4","5","5","7","8","6","8","5","7","8","7","8","6","6","5","6","6","2","5","1","5","2","3","1","5","4","7","7","5","3","6","5","2","7","3","3","2","7","3","6","5","7","6","6","3","5","2","7","3","7","3","6","631127599740878848","刘","225","Male","[""坏我"",""好他"",""坏他"",""好我""]","[""弱我"",""强他"",""弱他"",""强我""]","","","","","","","","","","","","","","","","","","","","","","","","","","","","","","feedback_test","","","","","","","",""
"713","","f","psychophysics","46","204685","0.0-8.0-0.0-1.0-0.0-0.18","6","7","5","5","4","5","2","5","4","4","4","1","0","1","2","0","1","2","0","5","5","5","5","5","5","4","4","5","5","7","8","6","8","5","7","8","7","8","6","6","5","6","6","2","5","1","5","2","3","1","5","4","7","7","5","3","6","5","2","7","3","3","2","7","3","6","5","7","6","6","3","5","2","7","3","7","3","6","631127599740878848","刘","225","Male","[""坏我"",""好他"",""坏他"",""好我""]","[""弱我"",""强他"",""弱他"",""强我""]","","","","","","","","nonmatch","","","","","","","","","","key","f","16.668235294117682","758.3333534223067","422.22223340729164","f","true","nonmatch","img/square.png","好我","坏我","prac_ALT2_moral","practice_moral","","","","","","","",""
"null","<span style='color:GreenYellow; font-size: 70px;'>正确! </span>","null","html-keyboard-response","47","205190","0.0-8.0-0.0-1.0-0.0-1.18","6","7","5","5","4","5","2","5","4","4","4","1","0","1","2","0","1","2","0","5","5","5","5","5","5","4","4","5","5","7","8","6","8","5","7","8","7","8","6","6","5","6","6","2","5","1","5","2","3","1","5","4","7","7","5","3","6","5","2","7","3","3","2","7","3","6","5","7","6","6","3","5","2","7","3","7","3","6","631127599740878848","刘","225","Male","[""坏我"",""好他"",""坏他"",""好我""]","[""弱我"",""强他"",""弱他"",""强我""]","","","","","","","","","","","","","","","","","","","","","","","","","","","","","","feedback_test","","","","","","","",""
"715","","j","psychophysics","48","206907","0.0-8.0-0.0-1.0-0.0-0.19","6","7","5","5","4","5","2","5","4","4","4","1","0","1","2","0","1","2","0","5","5","5","5","5","5","4","4","5","5","7","8","6","8","5","7","8","7","8","6","6","5","6","6","2","5","1","5","2","3","1","5","4","7","7","5","3","6","5","2","7","3","3","2","7","3","6","5","7","6","6","3","5","2","7","3","7","3","6","631127599740878848","刘","225","Male","[""坏我"",""好他"",""坏他"",""好我""]","[""弱我"",""强他"",""弱他"",""强我""]","","","","","","","","match","","","","","","","","","","key","j","16.67538235294142","758.3333534223067","422.22223340729164","f","false","nonmatch","img/circle.png","坏他","好我","prac_ALT2_moral","practice_moral","","","","","","","",""
"null","<span style='color:red; font-size: 70px;'>错误! </span>","null","html-keyboard-response","49","207410","0.0-8.0-0.0-1.0-0.0-1.19","6","7","5","5","4","5","2","5","4","4","4","1","0","1","2","0","1","2","0","5","5","5","5","5","5","4","4","5","5","7","8","6","8","5","7","8","7","8","6","6","5","6","6","2","5","1","5","2","3","1","5","4","7","7","5","3","6","5","2","7","3","3","2","7","3","6","5","7","6","6","3","5","2","7","3","7","3","6","631127599740878848","刘","225","Male","[""坏我"",""好他"",""坏他"",""好我""]","[""弱我"",""强他"",""弱他"",""强我""]","","","","","","","","","","","","","","","","","","","","","","","","","","","","","","feedback_test","","","","","","","",""
"856","","f","psychophysics","50","209271","0.0-8.0-0.0-1.0-0.0-0.20","6","7","5","5","4","5","2","5","4","4","4","1","0","1","2","0","1","2","0","5","5","5","5","5","5","4","4","5","5","7","8","6","8","5","7","8","7","8","6","6","5","6","6","2","5","1","5","2","3","1","5","4","7","7","5","3","6","5","2","7","3","3","2","7","3","6","5","7","6","6","3","5","2","7","3","7","3","6","631127599740878848","刘","225","Male","[""坏我"",""好他"",""坏他"",""好我""]","[""弱我"",""强他"",""弱他"",""强我""]","","","","","","","","nonmatch","","","","","","","","","","key","f","16.676855855855802","758.3333534223067","422.22223340729164","f","true","nonmatch","img/hexagon.png","坏他","好他","prac_ALT2_moral","practice_moral","","","","","","","",""
"null","<span style='color:GreenYellow; font-size: 70px;'>正确! </span>","null","html-keyboard-response","51","209774","0.0-8.0-0.0-1.0-0.0-1.20","6","7","5","5","4","5","2","5","4","4","4","1","0","1","2","0","1","2","0","5","5","5","5","5","5","4","4","5","5","7","8","6","8","5","7","8","7","8","6","6","5","6","6","2","5","1","5","2","3","1","5","4","7","7","5","3","6","5","2","7","3","3","2","7","3","6","5","7","6","6","3","5","2","7","3","7","3","6","631127599740878848","刘","225","Male","[""坏我"",""好他"",""坏他"",""好我""]","[""弱我"",""强他"",""弱他"",""强我""]","","","","","","","","","","","","","","","","","","","","","","","","","","","","","","feedback_test","","","","","","","",""
"830","","f","psychophysics","52","211606","0.0-8.0-0.0-1.0-0.0-0.21","6","7","5","5","4","5","2","5","4","4","4","1","0","1","2","0","1","2","0","5","5","5","5","5","5","4","4","5","5","7","8","6","8","5","7","8","7","8","6","6","5","6","6","2","5","1","5","2","3","1","5","4","7","7","5","3","6","5","2","7","3","3","2","7","3","6","5","7","6","6","3","5","2","7","3","7","3","6","631127599740878848","刘","225","Male","[""坏我"",""好他"",""坏他"",""好我""]","[""弱我"",""强他"",""弱他"",""强我""]","","","","","","","","nonmatch","","","","","","","","","","key","f","16.673926605504708","758.3333534223067","422.22223340729164","f","true","nonmatch","img/hexagon.png","好我","好他","prac_ALT2_moral","practice_moral","","","","","","","",""
"null","<span style='color:GreenYellow; font-size: 70px;'>正确! </span>","null","html-keyboard-response","53","212113","0.0-8.0-0.0-1.0-0.0-1.21","6","7","5","5","4","5","2","5","4","4","4","1","0","1","2","0","1","2","0","5","5","5","5","5","5","4","4","5","5","7","8","6","8","5","7","8","7","8","6","6","5","6","6","2","5","1","5","2","3","1","5","4","7","7","5","3","6","5","2","7","3","3","2","7","3","6","5","7","6","6","3","5","2","7","3","7","3","6","631127599740878848","刘","225","Male","[""坏我"",""好他"",""坏他"",""好我""]","[""弱我"",""强他"",""弱他"",""强我""]","","","","","","","","","","","","","","","","","","","","","","","","","","","","","","feedback_test","","","","","","","",""
"675","","j","psychophysics","54","213794","0.0-8.0-0.0-1.0-0.0-0.22","6","7","5","5","4","5","2","5","4","4","4","1","0","1","2","0","1","2","0","5","5","5","5","5","5","4","4","5","5","7","8","6","8","5","7","8","7","8","6","6","5","6","6","2","5","1","5","2","3","1","5","4","7","7","5","3","6","5","2","7","3","3","2","7","3","6","5","7","6","6","3","5","2","7","3","7","3","6","631127599740878848","刘","225","Male","[""坏我"",""好他"",""坏他"",""好我""]","[""弱我"",""强他"",""弱他"",""强我""]","","","","","","","","match","","","","","","","","","","key","j","16.674869999999938","758.3333534223067","422.22223340729164","j","true","match","img/circle.png","好我","好我","prac_ALT2_moral","practice_moral","","","","","","","",""
"null","<span style='color:GreenYellow; font-size: 70px;'>正确! </span>","null","html-keyboard-response","55","214297","0.0-8.0-0.0-1.0-0.0-1.22","6","7","5","5","4","5","2","5","4","4","4","1","0","1","2","0","1","2","0","5","5","5","5","5","5","4","4","5","5","7","8","6","8","5","7","8","7","8","6","6","5","6","6","2","5","1","5","2","3","1","5","4","7","7","5","3","6","5","2","7","3","3","2","7","3","6","5","7","6","6","3","5","2","7","3","7","3","6","631127599740878848","刘","225","Male","[""坏我"",""好他"",""坏他"",""好我""]","[""弱我"",""强他"",""弱他"",""强我""]","","","","","","","","","","","","","","","","","","","","","","","","","","","","","","feedback_test","","","","","","","",""
"742","","j","psychophysics","56","216042","0.0-8.0-0.0-1.0-0.0-0.23","6","7","5","5","4","5","2","5","4","4","4","1","0","1","2","0","1","2","0","5","5","5","5","5","5","4","4","5","5","7","8","6","8","5","7","8","7","8","6","6","5","6","6","2","5","1","5","2","3","1","5","4","7","7","5","3","6","5","2","7","3","3","2","7","3","6","5","7","6","6","3","5","2","7","3","7","3","6","631127599740878848","刘","225","Male","[""坏我"",""好他"",""坏他"",""好我""]","[""弱我"",""强他"",""弱他"",""强我""]","","","","","","","","match","","","","","","","","","","key","j","16.674894230769358","758.3333534223067","422.22223340729164","j","true","match","img/trapezoid.png","坏他","坏他","prac_ALT2_moral","practice_moral","","","","","","","",""
"null","<span style='color:GreenYellow; font-size: 70px;'>正确! </span>","null","html-keyboard-response","57","216544","0.0-8.0-0.0-1.0-0.0-1.23","6","7","5","5","4","5","2","5","4","4","4","1","0","1","2","0","1","2","0","5","5","5","5","5","5","4","4","5","5","7","8","6","8","5","7","8","7","8","6","6","5","6","6","2","5","1","5","2","3","1","5","4","7","7","5","3","6","5","2","7","3","3","2","7","3","6","5","7","6","6","3","5","2","7","3","7","3","6","631127599740878848","刘","225","Male","[""坏我"",""好他"",""坏他"",""好我""]","[""弱我"",""强他"",""弱他"",""强我""]","","","","","","","","","","","","","","","","","","","","","","","","","","","","","","feedback_test","","","","","","","",""
"772","","f","psychophysics","58","218329","0.0-8.0-0.0-1.0-0.0-0.24","6","7","5","5","4","5","2","5","4","4","4","1","0","1","2","0","1","2","0","5","5","5","5","5","5","4","4","5","5","7","8","6","8","5","7","8","7","8","6","6","5","6","6","2","5","1","5","2","3","1","5","4","7","7","5","3","6","5","2","7","3","3","2","7","3","6","5","7","6","6","3","5","2","7","3","7","3","6","631127599740878848","刘","225","Male","[""坏我"",""好他"",""坏他"",""好我""]","[""弱我"",""强他"",""弱他"",""强我""]","","","","","","","","nonmatch","","","","","","","","","","key","f","16.674962264150963","758.3333534223067","422.22223340729164","j","false","match","img/hexagon.png","好他","好他","prac_ALT2_moral","practice_moral","","","","","","","",""
"null","<span style='color:red; font-size: 70px;'>错误! </span>","null","html-keyboard-response","59","218832","0.0-8.0-0.0-1.0-0.0-1.24","6","7","5","5","4","5","2","5","4","4","4","1","0","1","2","0","1","2","0","5","5","5","5","5","5","4","4","5","5","7","8","6","8","5","7","8","7","8","6","6","5","6","6","2","5","1","5","2","3","1","5","4","7","7","5","3","6","5","2","7","3","3","2","7","3","6","5","7","6","6","3","5","2","7","3","7","3","6","631127599740878848","刘","225","Male","[""坏我"",""好他"",""坏他"",""好我""]","[""弱我"",""强他"",""弱他"",""强我""]","","","","","","","","","","","","","","","","","","","","","","","","","","","","","","feedback_test","","","","","","","",""
"697","","j","psychophysics","60","220536","0.0-8.0-0.0-1.0-0.0-0.25","6","7","5","5","4","5","2","5","4","4","4","1","0","1","2","0","1","2","0","5","5","5","5","5","5","4","4","5","5","7","8","6","8","5","7","8","7","8","6","6","5","6","6","2","5","1","5","2","3","1","5","4","7","7","5","3","6","5","2","7","3","3","2","7","3","6","5","7","6","6","3","5","2","7","3","7","3","6","631127599740878848","刘","225","Male","[""坏我"",""好他"",""坏他"",""好我""]","[""弱我"",""强他"",""弱他"",""强我""]","","","","","","","","match","","","","","","","","","","key","j","16.6757623762377","758.3333534223067","422.22223340729164","j","true","match","img/circle.png","好我","好我","prac_ALT2_moral","practice_moral","","","","","","","",""
"null","<span style='color:GreenYellow; font-size: 70px;'>正确! </span>","null","html-keyboard-response","61","221041","0.0-8.0-0.0-1.0-0.0-1.25","6","7","5","5","4","5","2","5","4","4","4","1","0","1","2","0","1","2","0","5","5","5","5","5","5","4","4","5","5","7","8","6","8","5","7","8","7","8","6","6","5","6","6","2","5","1","5","2","3","1","5","4","7","7","5","3","6","5","2","7","3","3","2","7","3","6","5","7","6","6","3","5","2","7","3","7","3","6","631127599740878848","刘","225","Male","[""坏我"",""好他"",""坏他"",""好我""]","[""弱我"",""强他"",""弱他"",""强我""]","","","","","","","","","","","","","","","","","","","","","","","","","","","","","","feedback_test","","","","","","","",""
"702","","j","psychophysics","62","222748","0.0-8.0-0.0-1.0-0.0-0.26","6","7","5","5","4","5","2","5","4","4","4","1","0","1","2","0","1","2","0","5","5","5","5","5","5","4","4","5","5","7","8","6","8","5","7","8","7","8","6","6","5","6","6","2","5","1","5","2","3","1","5","4","7","7","5","3","6","5","2","7","3","3","2","7","3","6","5","7","6","6","3","5","2","7","3","7","3","6","631127599740878848","刘","225","Male","[""坏我"",""好他"",""坏他"",""好我""]","[""弱我"",""强他"",""弱他"",""强我""]","","","","","","","","match","","","","","","","","","","key","j","16.676772277227933","758.3333534223067","422.22223340729164","j","true","match","img/square.png","坏我","坏我","prac_ALT2_moral","practice_moral","","","","","","","",""
"null","<span style='color:GreenYellow; font-size: 70px;'>正确! </span>","null","html-keyboard-response","63","223251","0.0-8.0-0.0-1.0-0.0-1.26","6","7","5","5","4","5","2","5","4","4","4","1","0","1","2","0","1","2","0","5","5","5","5","5","5","4","4","5","5","7","8","6","8","5","7","8","7","8","6","6","5","6","6","2","5","1","5","2","3","1","5","4","7","7","5","3","6","5","2","7","3","3","2","7","3","6","5","7","6","6","3","5","2","7","3","7","3","6","631127599740878848","刘","225","Male","[""坏我"",""好他"",""坏他"",""好我""]","[""弱我"",""强他"",""弱他"",""强我""]","","","","","","","","","","","","","","","","","","","","","","","","","","","","","","feedback_test","","","","","","","",""
"821","","f","psychophysics","64","225081","0.0-8.0-0.0-1.0-0.0-0.27","6","7","5","5","4","5","2","5","4","4","4","1","0","1","2","0","1","2","0","5","5","5","5","5","5","4","4","5","5","7","8","6","8","5","7","8","7","8","6","6","5","6","6","2","5","1","5","2","3","1","5","4","7","7","5","3","6","5","2","7","3","3","2","7","3","6","5","7","6","6","3","5","2","7","3","7","3","6","631127599740878848","刘","225","Male","[""坏我"",""好他"",""坏他"",""好我""]","[""弱我"",""强他"",""弱他"",""强我""]","","","","","","","","nonmatch","","","","","","","","","","key","f","16.676770642201667","758.3333534223067","422.22223340729164","f","true","nonmatch","img/square.png","好他","坏我","prac_ALT2_moral","practice_moral","","","","","","","",""
"null","<span style='color:GreenYellow; font-size: 70px;'>正确! </span>","null","html-keyboard-response","65","225582","0.0-8.0-0.0-1.0-0.0-1.27","6","7","5","5","4","5","2","5","4","4","4","1","0","1","2","0","1","2","0","5","5","5","5","5","5","4","4","5","5","7","8","6","8","5","7","8","7","8","6","6","5","6","6","2","5","1","5","2","3","1","5","4","7","7","5","3","6","5","2","7","3","3","2","7","3","6","5","7","6","6","3","5","2","7","3","7","3","6","631127599740878848","刘","225","Male","[""坏我"",""好他"",""坏他"",""好我""]","[""弱我"",""强他"",""弱他"",""强我""]","","","","","","","","","","","","","","","","","","","","","","","","","","","","","","feedback_test","","","","","","","",""
"681","","f","psychophysics","66","227267","0.0-8.0-0.0-1.0-0.0-0.28","6","7","5","5","4","5","2","5","4","4","4","1","0","1","2","0","1","2","0","5","5","5","5","5","5","4","4","5","5","7","8","6","8","5","7","8","7","8","6","6","5","6","6","2","5","1","5","2","3","1","5","4","7","7","5","3","6","5","2","7","3","3","2","7","3","6","5","7","6","6","3","5","2","7","3","7","3","6","631127599740878848","刘","225","Male","[""坏我"",""好他"",""坏他"",""好我""]","[""弱我"",""强他"",""弱他"",""强我""]","","","","","","","","nonmatch","","","","","","","","","","key","f","16.6746100000001","758.3333534223067","422.22223340729164","f","true","nonmatch","img/square.png","好我","坏我","prac_ALT2_moral","practice_moral","","","","","","","",""
"null","<span style='color:GreenYellow; font-size: 70px;'>正确! </span>","null","html-keyboard-response","67","227771","0.0-8.0-0.0-1.0-0.0-1.28","6","7","5","5","4","5","2","5","4","4","4","1","0","1","2","0","1","2","0","5","5","5","5","5","5","4","4","5","5","7","8","6","8","5","7","8","7","8","6","6","5","6","6","2","5","1","5","2","3","1","5","4","7","7","5","3","6","5","2","7","3","3","2","7","3","6","5","7","6","6","3","5","2","7","3","7","3","6","631127599740878848","刘","225","Male","[""坏我"",""好他"",""坏他"",""好我""]","[""弱我"",""强他"",""弱他"",""强我""]","","","","","","","","","","","","","","","","","","","","","","","","","","","","","","feedback_test","","","","","","","",""
"653","","j","psychophysics","68","229430","0.0-8.0-0.0-1.0-0.0-0.29","6","7","5","5","4","5","2","5","4","4","4","1","0","1","2","0","1","2","0","5","5","5","5","5","5","4","4","5","5","7","8","6","8","5","7","8","7","8","6","6","5","6","6","2","5","1","5","2","3","1","5","4","7","7","5","3","6","5","2","7","3","3","2","7","3","6","5","7","6","6","3","5","2","7","3","7","3","6","631127599740878848","刘","225","Male","[""坏我"",""好他"",""坏他"",""好我""]","[""弱我"",""强他"",""弱他"",""强我""]","","","","","","","","match","","","","","","","","","","key","j","16.66494897959192","758.3333534223067","422.22223340729164","j","true","match","img/circle.png","好我","好我","prac_ALT2_moral","practice_moral","","","","","","","",""
"null","<span style='color:GreenYellow; font-size: 70px;'>正确! </span>","null","html-keyboard-response","69","229935","0.0-8.0-0.0-1.0-0.0-1.29","6","7","5","5","4","5","2","5","4","4","4","1","0","1","2","0","1","2","0","5","5","5","5","5","5","4","4","5","5","7","8","6","8","5","7","8","7","8","6","6","5","6","6","2","5","1","5","2","3","1","5","4","7","7","5","3","6","5","2","7","3","3","2","7","3","6","5","7","6","6","3","5","2","7","3","7","3","6","631127599740878848","刘","225","Male","[""坏我"",""好他"",""坏他"",""好我""]","[""弱我"",""强他"",""弱他"",""强我""]","","","","","","","","","","","","","","","","","","","","","","","","","","","","","","feedback_test","","","","","","","",""
"578","","f","psychophysics","70","231517","0.0-8.0-0.0-1.0-0.0-0.30","6","7","5","5","4","5","2","5","4","4","4","1","0","1","2","0","1","2","0","5","5","5","5","5","5","4","4","5","5","7","8","6","8","5","7","8","7","8","6","6","5","6","6","2","5","1","5","2","3","1","5","4","7","7","5","3","6","5","2","7","3","3","2","7","3","6","5","7","6","6","3","5","2","7","3","7","3","6","631127599740878848","刘","225","Male","[""坏我"",""好他"",""坏他"",""好我""]","[""弱我"",""强他"",""弱他"",""强我""]","","","","","","","","nonmatch","","","","","","","","","","key","f","16.67544680851062","758.3333534223067","422.22223340729164","j","false","match","img/trapezoid.png","坏他","坏他","prac_ALT2_moral","practice_moral","","","","","","","",""
"null","<span style='color:red; font-size: 70px;'>错误! </span>","null","html-keyboard-response","71","232020","0.0-8.0-0.0-1.0-0.0-1.30","6","7","5","5","4","5","2","5","4","4","4","1","0","1","2","0","1","2","0","5","5","5","5","5","5","4","4","5","5","7","8","6","8","5","7","8","7","8","6","6","5","6","6","2","5","1","5","2","3","1","5","4","7","7","5","3","6","5","2","7","3","3","2","7","3","6","5","7","6","6","3","5","2","7","3","7","3","6","631127599740878848","刘","225","Male","[""坏我"",""好他"",""坏他"",""好我""]","[""弱我"",""强他"",""弱他"",""强我""]","","","","","","","","","","","","","","","","","","","","","","","","","","","","","","feedback_test","","","","","","","",""
"543","","j","psychophysics","72","233568","0.0-8.0-0.0-1.0-0.0-0.31","6","7","5","5","4","5","2","5","4","4","4","1","0","1","2","0","1","2","0","5","5","5","5","5","5","4","4","5","5","7","8","6","8","5","7","8","7","8","6","6","5","6","6","2","5","1","5","2","3","1","5","4","7","7","5","3","6","5","2","7","3","3","2","7","3","6","5","7","6","6","3","5","2","7","3","7","3","6","631127599740878848","刘","225","Male","[""坏我"",""好他"",""坏他"",""好我""]","[""弱我"",""强他"",""弱他"",""强我""]","","","","","","","","match","","","","","","","","","","key","j","16.674108695652293","758.3333534223067","422.22223340729164","j","true","match","img/hexagon.png","好他","好他","prac_ALT2_moral","practice_moral","","","","","","","",""
"null","<span style='color:GreenYellow; font-size: 70px;'>正确! </span>","null","html-keyboard-response","73","234071","0.0-8.0-0.0-1.0-0.0-1.31","6","7","5","5","4","5","2","5","4","4","4","1","0","1","2","0","1","2","0","5","5","5","5","5","5","4","4","5","5","7","8","6","8","5","7","8","7","8","6","6","5","6","6","2","5","1","5","2","3","1","5","4","7","7","5","3","6","5","2","7","3","3","2","7","3","6","5","7","6","6","3","5","2","7","3","7","3","6","631127599740878848","刘","225","Male","[""坏我"",""好他"",""坏他"",""好我""]","[""弱我"",""强他"",""弱他"",""强我""]","","","","","","","","","","","","","","","","","","","","","","","","","","","","","","feedback_test","","","","","","","",""
"637","","f","psychophysics","74","235712","0.0-8.0-0.0-1.0-0.0-0.32","6","7","5","5","4","5","2","5","4","4","4","1","0","1","2","0","1","2","0","5","5","5","5","5","5","4","4","5","5","7","8","6","8","5","7","8","7","8","6","6","5","6","6","2","5","1","5","2","3","1","5","4","7","7","5","3","6","5","2","7","3","3","2","7","3","6","5","7","6","6","3","5","2","7","3","7","3","6","631127599740878848","刘","225","Male","[""坏我"",""好他"",""坏他"",""好我""]","[""弱我"",""强他"",""弱他"",""强我""]","","","","","","","","nonmatch","","","","","","","","","","key","f","16.675216494845504","758.3333534223067","422.22223340729164","f","true","nonmatch","img/trapezoid.png","坏我","坏他","prac_ALT2_moral","practice_moral","","","","","","","",""
"null","<span style='color:GreenYellow; font-size: 70px;'>正确! </span>","null","html-keyboard-response","75","236216","0.0-8.0-0.0-1.0-0.0-1.32","6","7","5","5","4","5","2","5","4","4","4","1","0","1","2","0","1","2","0","5","5","5","5","5","5","4","4","5","5","7","8","6","8","5","7","8","7","8","6","6","5","6","6","2","5","1","5","2","3","1","5","4","7","7","5","3","6","5","2","7","3","3","2","7","3","6","5","7","6","6","3","5","2","7","3","7","3","6","631127599740878848","刘","225","Male","[""坏我"",""好他"",""坏他"",""好我""]","[""弱我"",""强他"",""弱他"",""强我""]","","","","","","","","","","","","","","","","","","","","","","","","","","","","","","feedback_test","","","","","","","",""
"639","","j","psychophysics","76","237858","0.0-8.0-0.0-1.0-0.0-0.33","6","7","5","5","4","5","2","5","4","4","4","1","0","1","2","0","1","2","0","5","5","5","5","5","5","4","4","5","5","7","8","6","8","5","7","8","7","8","6","6","5","6","6","2","5","1","5","2","3","1","5","4","7","7","5","3","6","5","2","7","3","3","2","7","3","6","5","7","6","6","3","5","2","7","3","7","3","6","631127599740878848","刘","225","Male","[""坏我"",""好他"",""坏他"",""好我""]","[""弱我"",""强他"",""弱他"",""强我""]","","","","","","","","match","","","","","","","","","","key","j","16.67515463917546","758.3333534223067","422.22223340729164","f","false","nonmatch","img/hexagon.png","坏他","好他","prac_ALT2_moral","practice_moral","","","","","","","",""
"null","<span style='color:red; font-size: 70px;'>错误! </span>","null","html-keyboard-response","77","238361","0.0-8.0-0.0-1.0-0.0-1.33","6","7","5","5","4","5","2","5","4","4","4","1","0","1","2","0","1","2","0","5","5","5","5","5","5","4","4","5","5","7","8","6","8","5","7","8","7","8","6","6","5","6","6","2","5","1","5","2","3","1","5","4","7","7","5","3","6","5","2","7","3","3","2","7","3","6","5","7","6","6","3","5","2","7","3","7","3","6","631127599740878848","刘","225","Male","[""坏我"",""好他"",""坏他"",""好我""]","[""弱我"",""强他"",""弱他"",""强我""]","","","","","","","","","","","","","","","","","","","","","","","","","","","","","","feedback_test","","","","","","","",""
"803","","f","psychophysics","78","240168","0.0-8.0-0.0-1.0-0.0-0.34","6","7","5","5","4","5","2","5","4","4","4","1","0","1","2","0","1","2","0","5","5","5","5","5","5","4","4","5","5","7","8","6","8","5","7","8","7","8","6","6","5","6","6","2","5","1","5","2","3","1","5","4","7","7","5","3","6","5","2","7","3","3","2","7","3","6","5","7","6","6","3","5","2","7","3","7","3","6","631127599740878848","刘","225","Male","[""坏我"",""好他"",""坏他"",""好我""]","[""弱我"",""强他"",""弱他"",""强我""]","","","","","","","","nonmatch","","","","","","","","","","key","f","16.673112149532585","758.3333534223067","422.22223340729164","j","false","match","img/trapezoid.png","坏他","坏他","prac_ALT2_moral","practice_moral","","","","","","","",""
"null","<span style='color:red; font-size: 70px;'>错误! </span>","null","html-keyboard-response","79","240670","0.0-8.0-0.0-1.0-0.0-1.34","6","7","5","5","4","5","2","5","4","4","4","1","0","1","2","0","1","2","0","5","5","5","5","5","5","4","4","5","5","7","8","6","8","5","7","8","7","8","6","6","5","6","6","2","5","1","5","2","3","1","5","4","7","7","5","3","6","5","2","7","3","3","2","7","3","6","5","7","6","6","3","5","2","7","3","7","3","6","631127599740878848","刘","225","Male","[""坏我"",""好他"",""坏他"",""好我""]","[""弱我"",""强他"",""弱他"",""强我""]","","","","","","","","","","","","","","","","","","","","","","","","","","","","","","feedback_test","","","","","","","",""
"938","","j","psychophysics","80","242611","0.0-8.0-0.0-1.0-0.0-0.35","6","7","5","5","4","5","2","5","4","4","4","1","0","1","2","0","1","2","0","5","5","5","5","5","5","4","4","5","5","7","8","6","8","5","7","8","7","8","6","6","5","6","6","2","5","1","5","2","3","1","5","4","7","7","5","3","6","5","2","7","3","3","2","7","3","6","5","7","6","6","3","5","2","7","3","7","3","6","631127599740878848","刘","225","Male","[""坏我"",""好他"",""坏他"",""好我""]","[""弱我"",""强他"",""弱他"",""强我""]","","","","","","","","match","","","","","","","","","","key","j","16.674400000000098","758.3333534223067","422.22223340729164","f","false","nonmatch","img/hexagon.png","坏我","好他","prac_ALT2_moral","practice_moral","","","","","","","",""
"null","<span style='color:red; font-size: 70px;'>错误! </span>","null","html-keyboard-response","81","243114","0.0-8.0-0.0-1.0-0.0-1.35","6","7","5","5","4","5","2","5","4","4","4","1","0","1","2","0","1","2","0","5","5","5","5","5","5","4","4","5","5","7","8","6","8","5","7","8","7","8","6","6","5","6","6","2","5","1","5","2","3","1","5","4","7","7","5","3","6","5","2","7","3","3","2","7","3","6","5","7","6","6","3","5","2","7","3","7","3","6","631127599740878848","刘","225","Male","[""坏我"",""好他"",""坏他"",""好我""]","[""弱我"",""强他"",""弱他"",""强我""]","","","","","","","","","","","","","","","","","","","","","","","","","","","","","","feedback_test","","","","","","","",""
"835","","f","psychophysics","82","244953","0.0-8.0-0.0-1.0-0.0-0.36","6","7","5","5","4","5","2","5","4","4","4","1","0","1","2","0","1","2","0","5","5","5","5","5","5","4","4","5","5","7","8","6","8","5","7","8","7","8","6","6","5","6","6","2","5","1","5","2","3","1","5","4","7","7","5","3","6","5","2","7","3","3","2","7","3","6","5","7","6","6","3","5","2","7","3","7","3","6","631127599740878848","刘","225","Male","[""坏我"",""好他"",""坏他"",""好我""]","[""弱我"",""强他"",""弱他"",""强我""]","","","","","","","","nonmatch","","","","","","","","","","key","f","16.67463302752297","758.3333534223067","422.22223340729164","f","true","nonmatch","img/circle.png","坏我","好我","prac_ALT2_moral","practice_moral","","","","","","","",""
"null","<span style='color:GreenYellow; font-size: 70px;'>正确! </span>","null","html-keyboard-response","83","245456","0.0-8.0-0.0-1.0-0.0-1.36","6","7","5","5","4","5","2","5","4","4","4","1","0","1","2","0","1","2","0","5","5","5","5","5","5","4","4","5","5","7","8","6","8","5","7","8","7","8","6","6","5","6","6","2","5","1","5","2","3","1","5","4","7","7","5","3","6","5","2","7","3","3","2","7","3","6","5","7","6","6","3","5","2","7","3","7","3","6","631127599740878848","刘","225","Male","[""坏我"",""好他"",""坏他"",""好我""]","[""弱我"",""强他"",""弱他"",""强我""]","","","","","","","","","","","","","","","","","","","","","","","","","","","","","","feedback_test","","","","","","","",""
"768","","j","psychophysics","84","247228","0.0-8.0-0.0-1.0-0.0-0.37","6","7","5","5","4","5","2","5","4","4","4","1","0","1","2","0","1","2","0","5","5","5","5","5","5","4","4","5","5","7","8","6","8","5","7","8","7","8","6","6","5","6","6","2","5","1","5","2","3","1","5","4","7","7","5","3","6","5","2","7","3","3","2","7","3","6","5","7","6","6","3","5","2","7","3","7","3","6","631127599740878848","刘","225","Male","[""坏我"",""好他"",""坏他"",""好我""]","[""弱我"",""强他"",""弱他"",""强我""]","","","","","","","","match","","","","","","","","","","key","j","16.67539047619045","758.3333534223067","422.22223340729164","f","false","nonmatch","img/hexagon.png","好我","好他","prac_ALT2_moral","practice_moral","","","","","","","",""
"null","<span style='color:red; font-size: 70px;'>错误! </span>","null","html-keyboard-response","85","247744","0.0-8.0-0.0-1.0-0.0-1.37","6","7","5","5","4","5","2","5","4","4","4","1","0","1","2","0","1","2","0","5","5","5","5","5","5","4","4","5","5","7","8","6","8","5","7","8","7","8","6","6","5","6","6","2","5","1","5","2","3","1","5","4","7","7","5","3","6","5","2","7","3","3","2","7","3","6","5","7","6","6","3","5","2","7","3","7","3","6","631127599740878848","刘","225","Male","[""坏我"",""好他"",""坏他"",""好我""]","[""弱我"",""强他"",""弱他"",""强我""]","","","","","","","","","","","","","","","","","","","","","","","","","","","","","","feedback_test","","","","","","","",""
"1188","","j","psychophysics","86","249937","0.0-8.0-0.0-1.0-0.0-0.38","6","7","5","5","4","5","2","5","4","4","4","1","0","1","2","0","1","2","0","5","5","5","5","5","5","4","4","5","5","7","8","6","8","5","7","8","7","8","6","6","5","6","6","2","5","1","5","2","3","1","5","4","7","7","5","3","6","5","2","7","3","3","2","7","3","6","5","7","6","6","3","5","2","7","3","7","3","6","631127599740878848","刘","225","Male","[""坏我"",""好他"",""坏他"",""好我""]","[""弱我"",""强他"",""弱他"",""强我""]","","","","","","","","match","","","","","","","","","","key","j","16.673709923664298","758.3333534223067","422.22223340729164","j","true","match","img/square.png","坏我","坏我","prac_ALT2_moral","practice_moral","","","","","","","",""
"null","<span style='color:GreenYellow; font-size: 70px;'>正确! </span>","null","html-keyboard-response","87","250438","0.0-8.0-0.0-1.0-0.0-1.38","6","7","5","5","4","5","2","5","4","4","4","1","0","1","2","0","1","2","0","5","5","5","5","5","5","4","4","5","5","7","8","6","8","5","7","8","7","8","6","6","5","6","6","2","5","1","5","2","3","1","5","4","7","7","5","3","6","5","2","7","3","3","2","7","3","6","5","7","6","6","3","5","2","7","3","7","3","6","631127599740878848","刘","225","Male","[""坏我"",""好他"",""坏他"",""好我""]","[""弱我"",""强他"",""弱他"",""强我""]","","","","","","","","","","","","","","","","","","","","","","","","","","","","","","feedback_test","","","","","","","",""
"667","","j","psychophysics","88","252109","0.0-8.0-0.0-1.0-0.0-0.39","6","7","5","5","4","5","2","5","4","4","4","1","0","1","2","0","1","2","0","5","5","5","5","5","5","4","4","5","5","7","8","6","8","5","7","8","7","8","6","6","5","6","6","2","5","1","5","2","3","1","5","4","7","7","5","3","6","5","2","7","3","3","2","7","3","6","5","7","6","6","3","5","2","7","3","7","3","6","631127599740878848","刘","225","Male","[""坏我"",""好他"",""坏他"",""好我""]","[""弱我"",""强他"",""弱他"",""强我""]","","","","","","","","match","","","","","","","","","","key","j","16.67658585858604","758.3333534223067","422.22223340729164","j","true","match","img/circle.png","好我","好我","prac_ALT2_moral","practice_moral","","","","","","","",""
"null","<span style='color:GreenYellow; font-size: 70px;'>正确! </span>","null","html-keyboard-response","89","252611","0.0-8.0-0.0-1.0-0.0-1.39","6","7","5","5","4","5","2","5","4","4","4","1","0","1","2","0","1","2","0","5","5","5","5","5","5","4","4","5","5","7","8","6","8","5","7","8","7","8","6","6","5","6","6","2","5","1","5","2","3","1","5","4","7","7","5","3","6","5","2","7","3","3","2","7","3","6","5","7","6","6","3","5","2","7","3","7","3","6","631127599740878848","刘","225","Male","[""坏我"",""好他"",""坏他"",""好我""]","[""弱我"",""强他"",""弱他"",""强我""]","","","","","","","","","","","","","","","","","","","","","","","","","","","","","","feedback_test","","","","","","","",""
"730","","f","psychophysics","90","254346","0.0-8.0-0.0-1.0-0.0-0.40","6","7","5","5","4","5","2","5","4","4","4","1","0","1","2","0","1","2","0","5","5","5","5","5","5","4","4","5","5","7","8","6","8","5","7","8","7","8","6","6","5","6","6","2","5","1","5","2","3","1","5","4","7","7","5","3","6","5","2","7","3","3","2","7","3","6","5","7","6","6","3","5","2","7","3","7","3","6","631127599740878848","刘","225","Male","[""坏我"",""好他"",""坏他"",""好我""]","[""弱我"",""强他"",""弱他"",""强我""]","","","","","","","","nonmatch","","","","","","","","","","key","f","16.67533980582522","758.3333534223067","422.22223340729164","f","true","nonmatch","img/circle.png","坏他","好我","prac_ALT2_moral","practice_moral","","","","","","","",""
"null","<span style='color:GreenYellow; font-size: 70px;'>正确! </span>","null","html-keyboard-response","91","254854","0.0-8.0-0.0-1.0-0.0-1.40","6","7","5","5","4","5","2","5","4","4","4","1","0","1","2","0","1","2","0","5","5","5","5","5","5","4","4","5","5","7","8","6","8","5","7","8","7","8","6","6","5","6","6","2","5","1","5","2","3","1","5","4","7","7","5","3","6","5","2","7","3","3","2","7","3","6","5","7","6","6","3","5","2","7","3","7","3","6","631127599740878848","刘","225","Male","[""坏我"",""好他"",""坏他"",""好我""]","[""弱我"",""强他"",""弱他"",""强我""]","","","","","","","","","","","","","","","","","","","","","","","","","","","","","","feedback_test","","","","","","","",""
"899","","f","psychophysics","92","256757","0.0-8.0-0.0-1.0-0.0-0.41","6","7","5","5","4","5","2","5","4","4","4","1","0","1","2","0","1","2","0","5","5","5","5","5","5","4","4","5","5","7","8","6","8","5","7","8","7","8","6","6","5","6","6","2","5","1","5","2","3","1","5","4","7","7","5","3","6","5","2","7","3","3","2","7","3","6","5","7","6","6","3","5","2","7","3","7","3","6","631127599740878848","刘","225","Male","[""坏我"",""好他"",""坏他"",""好我""]","[""弱我"",""强他"",""弱他"",""强我""]","","","","","","","","nonmatch","","","","","","","","","","key","f","16.676663716814062","758.3333534223067","422.22223340729164","f","true","nonmatch","img/trapezoid.png","好他","坏他","prac_ALT2_moral","practice_moral","","","","","","","",""
"null","<span style='color:GreenYellow; font-size: 70px;'>正确! </span>","null","html-keyboard-response","93","257260","0.0-8.0-0.0-1.0-0.0-1.41","6","7","5","5","4","5","2","5","4","4","4","1","0","1","2","0","1","2","0","5","5","5","5","5","5","4","4","5","5","7","8","6","8","5","7","8","7","8","6","6","5","6","6","2","5","1","5","2","3","1","5","4","7","7","5","3","6","5","2","7","3","3","2","7","3","6","5","7","6","6","3","5","2","7","3","7","3","6","631127599740878848","刘","225","Male","[""坏我"",""好他"",""坏他"",""好我""]","[""弱我"",""强他"",""弱他"",""强我""]","","","","","","","","","","","","","","","","","","","","","","","","","","","","","","feedback_test","","","","","","","",""
"662","","f","psychophysics","94","258927","0.0-8.0-0.0-1.0-0.0-0.42","6","7","5","5","4","5","2","5","4","4","4","1","0","1","2","0","1","2","0","5","5","5","5","5","5","4","4","5","5","7","8","6","8","5","7","8","7","8","6","6","5","6","6","2","5","1","5","2","3","1","5","4","7","7","5","3","6","5","2","7","3","3","2","7","3","6","5","7","6","6","3","5","2","7","3","7","3","6","631127599740878848","刘","225","Male","[""坏我"",""好他"",""坏他"",""好我""]","[""弱我"",""强他"",""弱他"",""强我""]","","","","","","","","nonmatch","","","","","","","","","","key","f","16.67640404040382","758.3333534223067","422.22223340729164","f","true","nonmatch","img/square.png","坏他","坏我","prac_ALT2_moral","practice_moral","","","","","","","",""
"null","<span style='color:GreenYellow; font-size: 70px;'>正确! </span>","null","html-keyboard-response","95","259430","0.0-8.0-0.0-1.0-0.0-1.42","6","7","5","5","4","5","2","5","4","4","4","1","0","1","2","0","1","2","0","5","5","5","5","5","5","4","4","5","5","7","8","6","8","5","7","8","7","8","6","6","5","6","6","2","5","1","5","2","3","1","5","4","7","7","5","3","6","5","2","7","3","3","2","7","3","6","5","7","6","6","3","5","2","7","3","7","3","6","631127599740878848","刘","225","Male","[""坏我"",""好他"",""坏他"",""好我""]","[""弱我"",""强他"",""弱他"",""强我""]","","","","","","","","","","","","","","","","","","","","","","","","","","","","","","feedback_test","","","","","","","",""
"678","","j","psychophysics","96","261111","0.0-8.0-0.0-1.0-0.0-0.43","6","7","5","5","4","5","2","5","4","4","4","1","0","1","2","0","1","2","0","5","5","5","5","5","5","4","4","5","5","7","8","6","8","5","7","8","7","8","6","6","5","6","6","2","5","1","5","2","3","1","5","4","7","7","5","3","6","5","2","7","3","3","2","7","3","6","5","7","6","6","3","5","2","7","3","7","3","6","631127599740878848","刘","225","Male","[""坏我"",""好他"",""坏他"",""好我""]","[""弱我"",""强他"",""弱他"",""强我""]","","","","","","","","match","","","","","","","","","","key","j","16.676419999999926","758.3333534223067","422.22223340729164","j","true","match","img/square.png","坏我","坏我","prac_ALT2_moral","practice_moral","","","","","","","",""
"null","<span style='color:GreenYellow; font-size: 70px;'>正确! </span>","null","html-keyboard-response","97","261614","0.0-8.0-0.0-1.0-0.0-1.43","6","7","5","5","4","5","2","5","4","4","4","1","0","1","2","0","1","2","0","5","5","5","5","5","5","4","4","5","5","7","8","6","8","5","7","8","7","8","6","6","5","6","6","2","5","1","5","2","3","1","5","4","7","7","5","3","6","5","2","7","3","3","2","7","3","6","5","7","6","6","3","5","2","7","3","7","3","6","631127599740878848","刘","225","Male","[""坏我"",""好他"",""坏他"",""好我""]","[""弱我"",""强他"",""弱他"",""强我""]","","","","","","","","","","","","","","","","","","","","","","","","","","","","","","feedback_test","","","","","","","",""
"818","","j","psychophysics","98","263436","0.0-8.0-0.0-1.0-0.0-0.44","6","7","5","5","4","5","2","5","4","4","4","1","0","1","2","0","1","2","0","5","5","5","5","5","5","4","4","5","5","7","8","6","8","5","7","8","7","8","6","6","5","6","6","2","5","1","5","2","3","1","5","4","7","7","5","3","6","5","2","7","3","3","2","7","3","6","5","7","6","6","3","5","2","7","3","7","3","6","631127599740878848","刘","225","Male","[""坏我"",""好他"",""坏他"",""好我""]","[""弱我"",""强他"",""弱他"",""强我""]","","","","","","","","match","","","","","","","","","","key","j","16.675657407407588","758.3333534223067","422.22223340729164","j","true","match","img/trapezoid.png","坏他","坏他","prac_ALT2_moral","practice_moral","","","","","","","",""
"null","<span style='color:GreenYellow; font-size: 70px;'>正确! </span>","null","html-keyboard-response","99","263940","0.0-8.0-0.0-1.0-0.0-1.44","6","7","5","5","4","5","2","5","4","4","4","1","0","1","2","0","1","2","0","5","5","5","5","5","5","4","4","5","5","7","8","6","8","5","7","8","7","8","6","6","5","6","6","2","5","1","5","2","3","1","5","4","7","7","5","3","6","5","2","7","3","3","2","7","3","6","5","7","6","6","3","5","2","7","3","7","3","6","631127599740878848","刘","225","Male","[""坏我"",""好他"",""坏他"",""好我""]","[""弱我"",""强他"",""弱他"",""强我""]","","","","","","","","","","","","","","","","","","","","","","","","","","","","","","feedback_test","","","","","","","",""
"736","","f","psychophysics","100","265681","0.0-8.0-0.0-1.0-0.0-0.45","6","7","5","5","4","5","2","5","4","4","4","1","0","1","2","0","1","2","0","5","5","5","5","5","5","4","4","5","5","7","8","6","8","5","7","8","7","8","6","6","5","6","6","2","5","1","5","2","3","1","5","4","7","7","5","3","6","5","2","7","3","3","2","7","3","6","5","7","6","6","3","5","2","7","3","7","3","6","631127599740878848","刘","225","Male","[""坏我"",""好他"",""坏他"",""好我""]","[""弱我"",""强他"",""弱他"",""强我""]","","","","","","","","nonmatch","","","","","","","","","","key","f","16.677524271844977","758.3333534223067","422.22223340729164","f","true","nonmatch","img/trapezoid.png","好我","坏他","prac_ALT2_moral","practice_moral","","","","","","","",""
"null","<span style='color:GreenYellow; font-size: 70px;'>正确! </span>","null","html-keyboard-response","101","266184","0.0-8.0-0.0-1.0-0.0-1.45","6","7","5","5","4","5","2","5","4","4","4","1","0","1","2","0","1","2","0","5","5","5","5","5","5","4","4","5","5","7","8","6","8","5","7","8","7","8","6","6","5","6","6","2","5","1","5","2","3","1","5","4","7","7","5","3","6","5","2","7","3","3","2","7","3","6","5","7","6","6","3","5","2","7","3","7","3","6","631127599740878848","刘","225","Male","[""坏我"",""好他"",""坏他"",""好我""]","[""弱我"",""强他"",""弱他"",""强我""]","","","","","","","","","","","","","","","","","","","","","","","","","","","","","","feedback_test","","","","","","","",""
"659","","j","psychophysics","102","267847","0.0-8.0-0.0-1.0-0.0-0.46","6","7","5","5","4","5","2","5","4","4","4","1","0","1","2","0","1","2","0","5","5","5","5","5","5","4","4","5","5","7","8","6","8","5","7","8","7","8","6","6","5","6","6","2","5","1","5","2","3","1","5","4","7","7","5","3","6","5","2","7","3","3","2","7","3","6","5","7","6","6","3","5","2","7","3","7","3","6","631127599740878848","刘","225","Male","[""坏我"",""好他"",""坏他"",""好我""]","[""弱我"",""强他"",""弱他"",""强我""]","","","","","","","","match","","","","","","","","","","key","j","16.674474747474612","758.3333534223067","422.22223340729164","j","true","match","img/hexagon.png","好他","好他","prac_ALT2_moral","practice_moral","","","","","","","",""
"null","<span style='color:GreenYellow; font-size: 70px;'>正确! </span>","null","html-keyboard-response","103","268350","0.0-8.0-0.0-1.0-0.0-1.46","6","7","5","5","4","5","2","5","4","4","4","1","0","1","2","0","1","2","0","5","5","5","5","5","5","4","4","5","5","7","8","6","8","5","7","8","7","8","6","6","5","6","6","2","5","1","5","2","3","1","5","4","7","7","5","3","6","5","2","7","3","3","2","7","3","6","5","7","6","6","3","5","2","7","3","7","3","6","631127599740878848","刘","225","Male","[""坏我"",""好他"",""坏他"",""好我""]","[""弱我"",""强他"",""弱他"",""强我""]","","","","","","","","","","","","","","","","","","","","","","","","","","","","","","feedback_test","","","","","","","",""
"646","","j","psychophysics","104","270000","0.0-8.0-0.0-1.0-0.0-0.47","6","7","5","5","4","5","2","5","4","4","4","1","0","1","2","0","1","2","0","5","5","5","5","5","5","4","4","5","5","7","8","6","8","5","7","8","7","8","6","6","5","6","6","2","5","1","5","2","3","1","5","4","7","7","5","3","6","5","2","7","3","3","2","7","3","6","5","7","6","6","3","5","2","7","3","7","3","6","631127599740878848","刘","225","Male","[""坏我"",""好他"",""坏他"",""好我""]","[""弱我"",""强他"",""弱他"",""强我""]","","","","","","","","match","","","","","","","","","","key","j","16.67683673469345","758.3333534223067","422.22223340729164","f","false","nonmatch","img/circle.png","好他","好我","prac_ALT2_moral","practice_moral","","","","","","","",""
"null","<span style='color:red; font-size: 70px;'>错误! </span>","null","html-keyboard-response","105","270504","0.0-8.0-0.0-1.0-0.0-1.47","6","7","5","5","4","5","2","5","4","4","4","1","0","1","2","0","1","2","0","5","5","5","5","5","5","4","4","5","5","7","8","6","8","5","7","8","7","8","6","6","5","6","6","2","5","1","5","2","3","1","5","4","7","7","5","3","6","5","2","7","3","3","2","7","3","6","5","7","6","6","3","5","2","7","3","7","3","6","631127599740878848","刘","225","Male","[""坏我"",""好他"",""坏他"",""好我""]","[""弱我"",""强他"",""弱他"",""强我""]","","","","","","","","","","","","","","","","","","","","","","","","","","","","","","feedback_test","","","","","","","",""
"950","<style>.context{color:white; font-size: 35px; line-height:40px}</style>                            <div><p class='context'>您正确回答了79% 的试次。</p><p class='context'>您的平均反应时为769毫秒。</p><p class='context'>恭喜您完成练习。按空格键进入正式实验。</p><p class='footer' style='font-size: 35px; line-height:40px;'>请在进入正式实验实验之前将您的<span style='color: lightgreen;'>食指</span>放在电脑键盘的相应键位上进行按键。</p>"," ","html-keyboard-response","106","271466","0.0-8.0-0.0-2.0","6","7","5","5","4","5","2","5","4","4","4","1","0","1","2","0","1","2","0","5","5","5","5","5","5","4","4","5","5","7","8","6","8","5","7","8","7","8","6","6","5","6","6","2","5","1","5","2","3","1","5","4","7","7","5","3","6","5","2","7","3","3","2","7","3","6","5","7","6","6","3","5","2","7","3","7","3","6","631127599740878848","刘","225","Male","[""坏我"",""好他"",""坏他"",""好我""]","[""弱我"",""强他"",""弱他"",""强我""]","","","","","","","","","","","","","","","","","","","","","","","","","","","","","","","","","","","","","",""
"1509","
    <p style='color: white; font-size: 22px'>请您将手指放在按键上，准备进入正式的匹配任务。</p>
    <p> <div style = ""color: green""><按空格键进入下一阶段的匹配任务></div></p>
    "," ","html-keyboard-response","107","272982","0.0-8.0-0.0-3.0","6","7","5","5","4","5","2","5","4","4","4","1","0","1","2","0","1","2","0","5","5","5","5","5","5","4","4","5","5","7","8","6","8","5","7","8","7","8","6","6","5","6","6","2","5","1","5","2","3","1","5","4","7","7","5","3","6","5","2","7","3","3","2","7","3","6","5","7","6","6","3","5","2","7","3","7","3","6","631127599740878848","刘","225","Male","[""坏我"",""好他"",""坏他"",""好我""]","[""弱我"",""强他"",""弱他"",""强我""]","","","","","","","","","","","","","","","","","","","","","","","","","","","","","","","","","","","","","",""
"652","","j","psychophysics","108","274636","0.0-8.0-0.0-4.0-0.0-0.0","6","7","5","5","4","5","2","5","4","4","4","1","0","1","2","0","1","2","0","5","5","5","5","5","5","4","4","5","5","7","8","6","8","5","7","8","7","8","6","6","5","6","6","2","5","1","5","2","3","1","5","4","7","7","5","3","6","5","2","7","3","3","2","7","3","6","5","7","6","6","3","5","2","7","3","7","3","6","631127599740878848","刘","225","Male","[""坏我"",""好他"",""坏他"",""好我""]","[""弱我"",""强他"",""弱他"",""强我""]","","","","","","","","match","","","","","","","","","","key","j","16.6767244897961","758.3333534223067","422.22223340729164","j","true","match","img/circle.png","好我","好我","ALT2","moral","","","","","","","",""
"null","<span style='color:GreenYellow; font-size: 70px;'>正确! </span>","null","html-keyboard-response","109","275138","0.0-8.0-0.0-4.0-0.0-1.0","6","7","5","5","4","5","2","5","4","4","4","1","0","1","2","0","1","2","0","5","5","5","5","5","5","4","4","5","5","7","8","6","8","5","7","8","7","8","6","6","5","6","6","2","5","1","5","2","3","1","5","4","7","7","5","3","6","5","2","7","3","3","2","7","3","6","5","7","6","6","3","5","2","7","3","7","3","6","631127599740878848","刘","225","Male","[""坏我"",""好他"",""坏他"",""好我""]","[""弱我"",""强他"",""弱他"",""强我""]","","","","","","","","","","","","","","","","","","","","","","","","","","","","","","feedback_test","","","","","","","",""
"677","","f","psychophysics","110","276819","0.0-8.0-0.0-4.0-0.0-0.1","6","7","5","5","4","5","2","5","4","4","4","1","0","1","2","0","1","2","0","5","5","5","5","5","5","4","4","5","5","7","8","6","8","5","7","8","7","8","6","6","5","6","6","2","5","1","5","2","3","1","5","4","7","7","5","3","6","5","2","7","3","3","2","7","3","6","5","7","6","6","3","5","2","7","3","7","3","6","631127599740878848","刘","225","Male","[""坏我"",""好他"",""坏他"",""好我""]","[""弱我"",""强他"",""弱他"",""强我""]","","","","","","","","nonmatch","","","","","","","","","","key","f","16.67564000000013","758.3333534223067","422.22223340729164","f","true","nonmatch","img/trapezoid.png","好我","坏他","ALT2","moral","","","","","","","",""
"null","<span style='color:GreenYellow; font-size: 70px;'>正确! </span>","null","html-keyboard-response","111","277323","0.0-8.0-0.0-4.0-0.0-1.1","6","7","5","5","4","5","2","5","4","4","4","1","0","1","2","0","1","2","0","5","5","5","5","5","5","4","4","5","5","7","8","6","8","5","7","8","7","8","6","6","5","6","6","2","5","1","5","2","3","1","5","4","7","7","5","3","6","5","2","7","3","3","2","7","3","6","5","7","6","6","3","5","2","7","3","7","3","6","631127599740878848","刘","225","Male","[""坏我"",""好他"",""坏他"",""好我""]","[""弱我"",""强他"",""弱他"",""强我""]","","","","","","","","","","","","","","","","","","","","","","","","","","","","","","feedback_test","","","","","","","",""
"683","","f","psychophysics","112","279009","0.0-8.0-0.0-4.0-0.0-0.2","6","7","5","5","4","5","2","5","4","4","4","1","0","1","2","0","1","2","0","5","5","5","5","5","5","4","4","5","5","7","8","6","8","5","7","8","7","8","6","6","5","6","6","2","5","1","5","2","3","1","5","4","7","7","5","3","6","5","2","7","3","3","2","7","3","6","5","7","6","6","3","5","2","7","3","7","3","6","631127599740878848","刘","225","Male","[""坏我"",""好他"",""坏他"",""好我""]","[""弱我"",""强他"",""弱他"",""强我""]","","","","","","","","nonmatch","","","","","","","","","","key","f","16.673570000000183","758.3333534223067","422.22223340729164","j","false","match","img/hexagon.png","好他","好他","ALT2","moral","","","","","","","",""
"null","<span style='color:red; font-size: 70px;'>错误! </span>","null","html-keyboard-response","113","279511","0.0-8.0-0.0-4.0-0.0-1.2","6","7","5","5","4","5","2","5","4","4","4","1","0","1","2","0","1","2","0","5","5","5","5","5","5","4","4","5","5","7","8","6","8","5","7","8","7","8","6","6","5","6","6","2","5","1","5","2","3","1","5","4","7","7","5","3","6","5","2","7","3","3","2","7","3","6","5","7","6","6","3","5","2","7","3","7","3","6","631127599740878848","刘","225","Male","[""坏我"",""好他"",""坏他"",""好我""]","[""弱我"",""强他"",""弱他"",""强我""]","","","","","","","","","","","","","","","","","","","","","","","","","","","","","","feedback_test","","","","","","","",""
"674","","j","psychophysics","114","281194","0.0-8.0-0.0-4.0-0.0-0.3","6","7","5","5","4","5","2","5","4","4","4","1","0","1","2","0","1","2","0","5","5","5","5","5","5","4","4","5","5","7","8","6","8","5","7","8","7","8","6","6","5","6","6","2","5","1","5","2","3","1","5","4","7","7","5","3","6","5","2","7","3","3","2","7","3","6","5","7","6","6","3","5","2","7","3","7","3","6","631127599740878848","刘","225","Male","[""坏我"",""好他"",""坏他"",""好我""]","[""弱我"",""强他"",""弱他"",""强我""]","","","","","","","","match","","","","","","","","","","key","j","16.66680808080833","758.3333534223067","422.22223340729164","j","true","match","img/hexagon.png","好他","好他","ALT2","moral","","","","","","","",""
"null","<span style='color:GreenYellow; font-size: 70px;'>正确! </span>","null","html-keyboard-response","115","281706","0.0-8.0-0.0-4.0-0.0-1.3","6","7","5","5","4","5","2","5","4","4","4","1","0","1","2","0","1","2","0","5","5","5","5","5","5","4","4","5","5","7","8","6","8","5","7","8","7","8","6","6","5","6","6","2","5","1","5","2","3","1","5","4","7","7","5","3","6","5","2","7","3","3","2","7","3","6","5","7","6","6","3","5","2","7","3","7","3","6","631127599740878848","刘","225","Male","[""坏我"",""好他"",""坏他"",""好我""]","[""弱我"",""强他"",""弱他"",""强我""]","","","","","","","","","","","","","","","","","","","","","","","","","","","","","","feedback_test","","","","","","","",""
"669","","j","psychophysics","116","283378","0.0-8.0-0.0-4.0-0.0-0.4","6","7","5","5","4","5","2","5","4","4","4","1","0","1","2","0","1","2","0","5","5","5","5","5","5","4","4","5","5","7","8","6","8","5","7","8","7","8","6","6","5","6","6","2","5","1","5","2","3","1","5","4","7","7","5","3","6","5","2","7","3","3","2","7","3","6","5","7","6","6","3","5","2","7","3","7","3","6","631127599740878848","刘","225","Male","[""坏我"",""好他"",""坏他"",""好我""]","[""弱我"",""强他"",""弱他"",""强我""]","","","","","","","","match","","","","","","","","","","key","j","16.67669696969714","758.3333534223067","422.22223340729164","j","true","match","img/circle.png","好我","好我","ALT2","moral","","","","","","","",""
"null","<span style='color:GreenYellow; font-size: 70px;'>正确! </span>","null","html-keyboard-response","117","283880","0.0-8.0-0.0-4.0-0.0-1.4","6","7","5","5","4","5","2","5","4","4","4","1","0","1","2","0","1","2","0","5","5","5","5","5","5","4","4","5","5","7","8","6","8","5","7","8","7","8","6","6","5","6","6","2","5","1","5","2","3","1","5","4","7","7","5","3","6","5","2","7","3","3","2","7","3","6","5","7","6","6","3","5","2","7","3","7","3","6","631127599740878848","刘","225","Male","[""坏我"",""好他"",""坏他"",""好我""]","[""弱我"",""强他"",""弱他"",""强我""]","","","","","","","","","","","","","","","","","","","","","","","","","","","","","","feedback_test","","","","","","","",""
"659","","j","psychophysics","118","285541","0.0-8.0-0.0-4.0-0.0-0.5","6","7","5","5","4","5","2","5","4","4","4","1","0","1","2","0","1","2","0","5","5","5","5","5","5","4","4","5","5","7","8","6","8","5","7","8","7","8","6","6","5","6","6","2","5","1","5","2","3","1","5","4","7","7","5","3","6","5","2","7","3","3","2","7","3","6","5","7","6","6","3","5","2","7","3","7","3","6","631127599740878848","刘","225","Male","[""坏我"",""好他"",""坏他"",""好我""]","[""弱我"",""强他"",""弱他"",""强我""]","","","","","","","","match","","","","","","","","","","key","j","16.67565306122486","758.3333534223067","422.22223340729164","f","false","nonmatch","img/hexagon.png","好我","好他","ALT2","moral","","","","","","","",""
"null","<span style='color:red; font-size: 70px;'>错误! </span>","null","html-keyboard-response","119","286044","0.0-8.0-0.0-4.0-0.0-1.5","6","7","5","5","4","5","2","5","4","4","4","1","0","1","2","0","1","2","0","5","5","5","5","5","5","4","4","5","5","7","8","6","8","5","7","8","7","8","6","6","5","6","6","2","5","1","5","2","3","1","5","4","7","7","5","3","6","5","2","7","3","3","2","7","3","6","5","7","6","6","3","5","2","7","3","7","3","6","631127599740878848","刘","225","Male","[""坏我"",""好他"",""坏他"",""好我""]","[""弱我"",""强他"",""弱他"",""强我""]","","","","","","","","","","","","","","","","","","","","","","","","","","","","","","feedback_test","","","","","","","",""
"848","","f","psychophysics","120","287896","0.0-8.0-0.0-4.0-0.0-0.6","6","7","5","5","4","5","2","5","4","4","4","1","0","1","2","0","1","2","0","5","5","5","5","5","5","4","4","5","5","7","8","6","8","5","7","8","7","8","6","6","5","6","6","2","5","1","5","2","3","1","5","4","7","7","5","3","6","5","2","7","3","3","2","7","3","6","5","7","6","6","3","5","2","7","3","7","3","6","631127599740878848","刘","225","Male","[""坏我"",""好他"",""坏他"",""好我""]","[""弱我"",""强他"",""弱他"",""强我""]","","","","","","","","nonmatch","","","","","","","","","","key","f","16.6776000000002","758.3333534223067","422.22223340729164","j","false","match","img/hexagon.png","好他","好他","ALT2","moral","","","","","","","",""
"null","<span style='color:red; font-size: 70px;'>错误! </span>","null","html-keyboard-response","121","288399","0.0-8.0-0.0-4.0-0.0-1.6","6","7","5","5","4","5","2","5","4","4","4","1","0","1","2","0","1","2","0","5","5","5","5","5","5","4","4","5","5","7","8","6","8","5","7","8","7","8","6","6","5","6","6","2","5","1","5","2","3","1","5","4","7","7","5","3","6","5","2","7","3","3","2","7","3","6","5","7","6","6","3","5","2","7","3","7","3","6","631127599740878848","刘","225","Male","[""坏我"",""好他"",""坏他"",""好我""]","[""弱我"",""强他"",""弱他"",""强我""]","","","","","","","","","","","","","","","","","","","","","","","","","","","","","","feedback_test","","","","","","","",""
"719","","j","psychophysics","122","290126","0.0-8.0-0.0-4.0-0.0-0.7","6","7","5","5","4","5","2","5","4","4","4","1","0","1","2","0","1","2","0","5","5","5","5","5","5","4","4","5","5","7","8","6","8","5","7","8","7","8","6","6","5","6","6","2","5","1","5","2","3","1","5","4","7","7","5","3","6","5","2","7","3","3","2","7","3","6","5","7","6","6","3","5","2","7","3","7","3","6","631127599740878848","刘","225","Male","[""坏我"",""好他"",""坏他"",""好我""]","[""弱我"",""强他"",""弱他"",""强我""]","","","","","","","","match","","","","","","","","","","key","j","16.67716666666663","758.3333534223067","422.22223340729164","j","true","match","img/square.png","坏我","坏我","ALT2","moral","","","","","","","",""
"null","<span style='color:GreenYellow; font-size: 70px;'>正确! </span>","null","html-keyboard-response","123","290629","0.0-8.0-0.0-4.0-0.0-1.7","6","7","5","5","4","5","2","5","4","4","4","1","0","1","2","0","1","2","0","5","5","5","5","5","5","4","4","5","5","7","8","6","8","5","7","8","7","8","6","6","5","6","6","2","5","1","5","2","3","1","5","4","7","7","5","3","6","5","2","7","3","3","2","7","3","6","5","7","6","6","3","5","2","7","3","7","3","6","631127599740878848","刘","225","Male","[""坏我"",""好他"",""坏他"",""好我""]","[""弱我"",""强他"",""弱他"",""强我""]","","","","","","","","","","","","","","","","","","","","","","","","","","","","","","feedback_test","","","","","","","",""
"662","","j","psychophysics","124","292295","0.0-8.0-0.0-4.0-0.0-0.8","6","7","5","5","4","5","2","5","4","4","4","1","0","1","2","0","1","2","0","5","5","5","5","5","5","4","4","5","5","7","8","6","8","5","7","8","7","8","6","6","5","6","6","2","5","1","5","2","3","1","5","4","7","7","5","3","6","5","2","7","3","3","2","7","3","6","5","7","6","6","3","5","2","7","3","7","3","6","631127599740878848","刘","225","Male","[""坏我"",""好他"",""坏他"",""好我""]","[""弱我"",""强他"",""弱他"",""强我""]","","","","","","","","match","","","","","","","","","","key","j","16.6734040404042","758.3333534223067","422.22223340729164","j","true","match","img/circle.png","好我","好我","ALT2","moral","","","","","","","",""
"null","<span style='color:GreenYellow; font-size: 70px;'>正确! </span>","null","html-keyboard-response","125","292797","0.0-8.0-0.0-4.0-0.0-1.8","6","7","5","5","4","5","2","5","4","4","4","1","0","1","2","0","1","2","0","5","5","5","5","5","5","4","4","5","5","7","8","6","8","5","7","8","7","8","6","6","5","6","6","2","5","1","5","2","3","1","5","4","7","7","5","3","6","5","2","7","3","3","2","7","3","6","5","7","6","6","3","5","2","7","3","7","3","6","631127599740878848","刘","225","Male","[""坏我"",""好他"",""坏他"",""好我""]","[""弱我"",""强他"",""弱他"",""强我""]","","","","","","","","","","","","","","","","","","","","","","","","","","","","","","feedback_test","","","","","","","",""
"677","","f","psychophysics","126","294477","0.0-8.0-0.0-4.0-0.0-0.9","6","7","5","5","4","5","2","5","4","4","4","1","0","1","2","0","1","2","0","5","5","5","5","5","5","4","4","5","5","7","8","6","8","5","7","8","7","8","6","6","5","6","6","2","5","1","5","2","3","1","5","4","7","7","5","3","6","5","2","7","3","3","2","7","3","6","5","7","6","6","3","5","2","7","3","7","3","6","631127599740878848","刘","225","Male","[""坏我"",""好他"",""坏他"",""好我""]","[""弱我"",""强他"",""弱他"",""强我""]","","","","","","","","nonmatch","","","","","","","","","","key","f","16.676140000000014","758.3333534223067","422.22223340729164","f","true","nonmatch","img/circle.png","坏他","好我","ALT2","moral","","","","","","","",""
"null","<span style='color:GreenYellow; font-size: 70px;'>正确! </span>","null","html-keyboard-response","127","294980","0.0-8.0-0.0-4.0-0.0-1.9","6","7","5","5","4","5","2","5","4","4","4","1","0","1","2","0","1","2","0","5","5","5","5","5","5","4","4","5","5","7","8","6","8","5","7","8","7","8","6","6","5","6","6","2","5","1","5","2","3","1","5","4","7","7","5","3","6","5","2","7","3","3","2","7","3","6","5","7","6","6","3","5","2","7","3","7","3","6","631127599740878848","刘","225","Male","[""坏我"",""好他"",""坏他"",""好我""]","[""弱我"",""强他"",""弱他"",""强我""]","","","","","","","","","","","","","","","","","","","","","","","","","","","","","","feedback_test","","","","","","","",""
"777","","f","psychophysics","128","296761","0.0-8.0-0.0-4.0-0.0-0.10","6","7","5","5","4","5","2","5","4","4","4","1","0","1","2","0","1","2","0","5","5","5","5","5","5","4","4","5","5","7","8","6","8","5","7","8","7","8","6","6","5","6","6","2","5","1","5","2","3","1","5","4","7","7","5","3","6","5","2","7","3","3","2","7","3","6","5","7","6","6","3","5","2","7","3","7","3","6","631127599740878848","刘","225","Male","[""坏我"",""好他"",""坏他"",""好我""]","[""弱我"",""强他"",""弱他"",""强我""]","","","","","","","","nonmatch","","","","","","","","","","key","f","16.674641509433847","758.3333534223067","422.22223340729164","f","true","nonmatch","img/trapezoid.png","坏我","坏他","ALT2","moral","","","","","","","",""
"null","<span style='color:GreenYellow; font-size: 70px;'>正确! </span>","null","html-keyboard-response","129","297265","0.0-8.0-0.0-4.0-0.0-1.10","6","7","5","5","4","5","2","5","4","4","4","1","0","1","2","0","1","2","0","5","5","5","5","5","5","4","4","5","5","7","8","6","8","5","7","8","7","8","6","6","5","6","6","2","5","1","5","2","3","1","5","4","7","7","5","3","6","5","2","7","3","3","2","7","3","6","5","7","6","6","3","5","2","7","3","7","3","6","631127599740878848","刘","225","Male","[""坏我"",""好他"",""坏他"",""好我""]","[""弱我"",""强他"",""弱他"",""强我""]","","","","","","","","","","","","","","","","","","","","","","","","","","","","","","feedback_test","","","","","","","",""
"627","","j","psychophysics","130","298896","0.0-8.0-0.0-4.0-0.0-0.11","6","7","5","5","4","5","2","5","4","4","4","1","0","1","2","0","1","2","0","5","5","5","5","5","5","4","4","5","5","7","8","6","8","5","7","8","7","8","6","6","5","6","6","2","5","1","5","2","3","1","5","4","7","7","5","3","6","5","2","7","3","3","2","7","3","6","5","7","6","6","3","5","2","7","3","7","3","6","631127599740878848","刘","225","Male","[""坏我"",""好他"",""坏他"",""好我""]","[""弱我"",""强他"",""弱他"",""强我""]","","","","","","","","match","","","","","","","","","","key","j","16.675298969072323","758.3333534223067","422.22223340729164","f","false","nonmatch","img/circle.png","好他","好我","ALT2","moral","","","","","","","",""
"null","<span style='color:red; font-size: 70px;'>错误! </span>","null","html-keyboard-response","131","299399","0.0-8.0-0.0-4.0-0.0-1.11","6","7","5","5","4","5","2","5","4","4","4","1","0","1","2","0","1","2","0","5","5","5","5","5","5","4","4","5","5","7","8","6","8","5","7","8","7","8","6","6","5","6","6","2","5","1","5","2","3","1","5","4","7","7","5","3","6","5","2","7","3","3","2","7","3","6","5","7","6","6","3","5","2","7","3","7","3","6","631127599740878848","刘","225","Male","[""坏我"",""好他"",""坏他"",""好我""]","[""弱我"",""强他"",""弱他"",""强我""]","","","","","","","","","","","","","","","","","","","","","","","","","","","","","","feedback_test","","","","","","","",""
"615","","j","psychophysics","132","301017","0.0-8.0-0.0-4.0-0.0-0.12","6","7","5","5","4","5","2","5","4","4","4","1","0","1","2","0","1","2","0","5","5","5","5","5","5","4","4","5","5","7","8","6","8","5","7","8","7","8","6","6","5","6","6","2","5","1","5","2","3","1","5","4","7","7","5","3","6","5","2","7","3","3","2","7","3","6","5","7","6","6","3","5","2","7","3","7","3","6","631127599740878848","刘","225","Male","[""坏我"",""好他"",""坏他"",""好我""]","[""弱我"",""强他"",""弱他"",""强我""]","","","","","","","","match","","","","","","","","","","key","j","16.674468749999505","758.3333534223067","422.22223340729164","j","true","match","img/square.png","坏我","坏我","ALT2","moral","","","","","","","",""
"null","<span style='color:GreenYellow; font-size: 70px;'>正确! </span>","null","html-keyboard-response","133","301519","0.0-8.0-0.0-4.0-0.0-1.12","6","7","5","5","4","5","2","5","4","4","4","1","0","1","2","0","1","2","0","5","5","5","5","5","5","4","4","5","5","7","8","6","8","5","7","8","7","8","6","6","5","6","6","2","5","1","5","2","3","1","5","4","7","7","5","3","6","5","2","7","3","3","2","7","3","6","5","7","6","6","3","5","2","7","3","7","3","6","631127599740878848","刘","225","Male","[""坏我"",""好他"",""坏他"",""好我""]","[""弱我"",""强他"",""弱他"",""强我""]","","","","","","","","","","","","","","","","","","","","","","","","","","","","","","feedback_test","","","","","","","",""
"722","","f","psychophysics","134","303245","0.0-8.0-0.0-4.0-0.0-0.13","6","7","5","5","4","5","2","5","4","4","4","1","0","1","2","0","1","2","0","5","5","5","5","5","5","4","4","5","5","7","8","6","8","5","7","8","7","8","6","6","5","6","6","2","5","1","5","2","3","1","5","4","7","7","5","3","6","5","2","7","3","3","2","7","3","6","5","7","6","6","3","5","2","7","3","7","3","6","631127599740878848","刘","225","Male","[""坏我"",""好他"",""坏他"",""好我""]","[""弱我"",""强他"",""弱他"",""强我""]","","","","","","","","nonmatch","","","","","","","","","","key","f","16.675077669902873","758.3333534223067","422.22223340729164","f","true","nonmatch","img/trapezoid.png","好他","坏他","ALT2","moral","","","","","","","",""
"null","<span style='color:GreenYellow; font-size: 70px;'>正确! </span>","null","html-keyboard-response","135","303758","0.0-8.0-0.0-4.0-0.0-1.13","6","7","5","5","4","5","2","5","4","4","4","1","0","1","2","0","1","2","0","5","5","5","5","5","5","4","4","5","5","7","8","6","8","5","7","8","7","8","6","6","5","6","6","2","5","1","5","2","3","1","5","4","7","7","5","3","6","5","2","7","3","3","2","7","3","6","5","7","6","6","3","5","2","7","3","7","3","6","631127599740878848","刘","225","Male","[""坏我"",""好他"",""坏他"",""好我""]","[""弱我"",""强他"",""弱他"",""强我""]","","","","","","","","","","","","","","","","","","","","","","","","","","","","","","feedback_test","","","","","","","",""
"672","","j","psychophysics","136","305434","0.0-8.0-0.0-4.0-0.0-0.14","6","7","5","5","4","5","2","5","4","4","4","1","0","1","2","0","1","2","0","5","5","5","5","5","5","4","4","5","5","7","8","6","8","5","7","8","7","8","6","6","5","6","6","2","5","1","5","2","3","1","5","4","7","7","5","3","6","5","2","7","3","3","2","7","3","6","5","7","6","6","3","5","2","7","3","7","3","6","631127599740878848","刘","225","Male","[""坏我"",""好他"",""坏他"",""好我""]","[""弱我"",""强他"",""弱他"",""强我""]","","","","","","","","match","","","","","","","","","","key","j","16.67341414141419","758.3333534223067","422.22223340729164","f","false","nonmatch","img/square.png","好我","坏我","ALT2","moral","","","","","","","",""
"null","<span style='color:red; font-size: 70px;'>错误! </span>","null","html-keyboard-response","137","305938","0.0-8.0-0.0-4.0-0.0-1.14","6","7","5","5","4","5","2","5","4","4","4","1","0","1","2","0","1","2","0","5","5","5","5","5","5","4","4","5","5","7","8","6","8","5","7","8","7","8","6","6","5","6","6","2","5","1","5","2","3","1","5","4","7","7","5","3","6","5","2","7","3","3","2","7","3","6","5","7","6","6","3","5","2","7","3","7","3","6","631127599740878848","刘","225","Male","[""坏我"",""好他"",""坏他"",""好我""]","[""弱我"",""强他"",""弱他"",""强我""]","","","","","","","","","","","","","","","","","","","","","","","","","","","","","","feedback_test","","","","","","","",""
