"rt","stimulus","response","trial_type","trial_index","time_elapsed","internal_node_id","swb_1","swb_2","swb_3","swb_4","swb_5","LOT_1","LOT_2","LOT_3","LOT_4","LOT_5","LOT_6","IPC_1","IPC_2","IPC_3","IPC_4","IPC_5","IPC_6","IPC_7","IPC_8","MorIden_1","MorIden_2","MorIden_3","MorIden_4","MorIden_5","MorIden_6","MorIden_7","MorIden_8","MorIden_9","MorIden_10","moralSeImag_1","moralSeImag_2","moralSeImag_3","moralSeImag_4","moralSeImag_5","moralSeImag_6","moralSeImag_7","moralSeImag_8","moralSeImag_9","sde_1","sde_2","sde_3","sde_4","sde_5","sde_6","sde_7","sde_8","sde_9","sde_10","sde_11","sde_12","sde_13","sde_14","sde_15","sde_16","sde_17","sde_18","sde_19","sde_20","IM_1","IM_2","IM_3","IM_4","IM_5","IM_6","IM_7","IM_8","IM_9","IM_10","IM_11","IM_12","IM_13","IM_14","IM_15","IM_16","IM_17","IM_18","IM_19","IM_20","subj_idx","friend_name","ParticipantID","Sex","Word","Word2","value","success","timeout","failed_images","failed_audio","failed_video","user_agent","responses","item_order","radio_event_ids","radio_event_times","key_event_times","mouse_event_times","straightlining","zigzagging","honeypot","view_history","response_type","key_press","avg_frame_time","center_x","center_y","correct_response","correct","identity","Image","word","condition","task_id","screen_id","time_stamp","person","valence","domain","math","status","duration","question_order"
"2116","
   <p><div style='color:white; font-size: 25px'>您好，欢迎参加本次实验。</div></p>
   <p><div style='color:white; font-size: 25px'>为充分保障您的权利，请确保您已经知晓并同意《参与实验同意书》以及《数据公开知情同意书》。</div></p>
   <p><div style='color:white; font-size: 25px'>如果您未见过上述内容，请咨询实验员。</div></p>
   <p style='color:white; font-size: 25px'>如果您选择继续实验，则表示您已经清楚两份知情同意书的内容并同意。</p>
   <p><div style = ""color: red;font-size:30px;"">请确保您记得day0的实验编号，您将在本次实验输入该编号，若您忘记，请咨询实验员后作答。</div></p>
   <p> <div style = ""color: green""><按空格键至下页></div> </p>
   "," ","html-keyboard-response","0","2117","0.0-0.0","6","6","7","5","6","5","5","5","5","5","5","2","1","2","2","1","2","2","2","5","5","5","5","5","4","4","4","5","5","7","8","8","8","7","8","7","9","8","6","7","4","7","7","7","7","7","7","7","6","7","7","7","6","7","7","7","5","7","7","7","7","7","7","7","7","7","7","7","7","7","7","7","6","7","7","7","6","7","590502391271391232","李","498","Female","[""坏她"",""好我"",""坏我"",""好她""]","[""弱她"",""强我"",""弱我"",""强她""]","","","","","","","","","","","","","","","","","","","","","","","","","","","","","","","","","","","","","",""
"","","","call-function","1","2118","0.0-1.0-0.0","6","6","7","5","6","5","5","5","5","5","5","2","1","2","2","1","2","2","2","5","5","5","5","5","4","4","4","5","5","7","8","8","8","7","8","7","9","8","6","7","4","7","7","7","7","7","7","7","6","7","7","7","6","7","7","7","5","7","7","7","7","7","7","7","7","7","7","7","7","7","7","7","6","7","7","7","6","7","590502391271391232","李","498","Female","[""坏她"",""好我"",""坏我"",""好她""]","[""弱她"",""强我"",""弱我"",""强她""]","","","","","","","","","","","","","","","","","","","","","","","","","","","","","","","","","","","","","",""
"43831","","[{""name"":""Sex"",""value"":""1""},{""name"":""friend_name"",""value"":""李""},{""name"":""ParticipantID"",""value"":""498""}]","survey-html-form","2","45940","0.0-1.0-1.0","6","6","7","5","6","5","5","5","5","5","5","2","1","2","2","1","2","2","2","5","5","5","5","5","4","4","4","5","5","7","8","8","8","7","8","7","9","8","6","7","4","7","7","7","7","7","7","7","6","7","7","7","6","7","7","7","5","7","7","7","7","7","7","7","7","7","7","7","7","7","7","7","6","7","7","7","6","7","590502391271391232","李","498","Female","[""坏她"",""好我"",""坏我"",""好她""]","[""弱她"",""强我"",""弱我"",""强她""]","","","","","","","","","","","","","","","","","","","","","","","","","","","","","","","","","","","","","",""
"","","","preload","3","46356","0.0-2.0","6","6","7","5","6","5","5","5","5","5","5","2","1","2","2","1","2","2","2","5","5","5","5","5","4","4","4","5","5","7","8","8","8","7","8","7","9","8","6","7","4","7","7","7","7","7","7","7","6","7","7","7","6","7","7","7","5","7","7","7","7","7","7","7","7","7","7","7","7","7","7","7","6","7","7","7","6","7","590502391271391232","李","498","Female","[""坏她"",""好我"",""坏我"",""好她""]","[""弱她"",""强我"",""弱我"",""强她""]","","true","false","[]","[]","[]","","","","","","","","","","","","","","","","","","","","","","","","","","","","","","","",""
"","","","fullscreen","4","122521","0.0-3.0","6","6","7","5","6","5","5","5","5","5","5","2","1","2","2","1","2","2","2","5","5","5","5","5","4","4","4","5","5","7","8","8","8","7","8","7","9","8","6","7","4","7","7","7","7","7","7","7","6","7","7","7","6","7","7","7","5","7","7","7","7","7","7","7","7","7","7","7","7","7","7","7","6","7","7","7","6","7","590502391271391232","李","498","Female","[""坏她"",""好我"",""坏我"",""好她""]","[""弱她"",""强我"",""弱我"",""强她""]","","true","","","","","{}","","","","","","","","","","","","","","","","","","","","","","","","","","","","","","",""
"22354.199999809265","","{""Q01"":""6"",""Q02"":""6"",""Q03"":""7"",""Q04"":""5"",""Q05"":""6""}","survey-template","5","144877","0.0-4.0","6","6","7","5","6","5","5","5","5","5","5","2","1","2","2","1","2","2","2","5","5","5","5","5","4","4","4","5","5","7","8","8","8","7","8","7","9","8","6","7","4","7","7","7","7","7","7","7","6","7","7","7","6","7","7","7","5","7","7","7","7","7","7","7","7","7","7","7","7","7","7","7","6","7","7","7","6","7","590502391271391232","李","498","Female","[""坏她"",""好我"",""坏我"",""好她""]","[""弱她"",""强我"",""弱我"",""强她""]","","","","","","","","{""Q01"":""6"",""Q02"":""6"",""Q03"":""7"",""Q04"":""5"",""Q05"":""6""}","[0,1,2,3,4]","[""Q01"",""Q02"",""Q03"",""Q04"",""Q05""]","[11494,14493.5,16573.199999809265,17461.699999809265,18342.099999904633]","[]","[11494,14493.5,15677.799999713898,16573.199999809265,17461.699999809265,18342.099999904633,22353.5]","0.6","0.5","0","","","","","","","","","","","","","","","","","","","","","",""
"57586","","{""Q01"":""5"",""Q02"":""5"",""Q03"":""5"",""Q04"":""5"",""Q05"":""5"",""Q06"":""5""}","survey-template","6","202464","0.0-5.0","6","6","7","5","6","5","5","5","5","5","5","2","1","2","2","1","2","2","2","5","5","5","5","5","4","4","4","5","5","7","8","8","8","7","8","7","9","8","6","7","4","7","7","7","7","7","7","7","6","7","7","7","6","7","7","7","5","7","7","7","7","7","7","7","7","7","7","7","7","7","7","7","6","7","7","7","6","7","590502391271391232","李","498","Female","[""坏她"",""好我"",""坏我"",""好她""]","[""弱她"",""强我"",""弱我"",""强她""]","","","","","","","","{""Q01"":""5"",""Q02"":""5"",""Q03"":""5"",""Q04"":""5"",""Q05"":""5"",""Q06"":""5""}","[0,1,2,3,4,5]","[""Q01"",""Q02"",""Q03"",""Q04"",""Q05"",""Q06""]","[2081.300000190735,4777.5,6777.300000190735,13065.099999904633,20497.300000190735,33745.2000002861]","[]","[2081.300000190735,4777.5,6777.300000190735,13065.099999904633,20497.300000190735,33745.2000002861,57585.40000009537]","0.5","0.8","0","","","","","","","","","","","","","","","","","","","","","",""
"18118.099999904633","","{""Q01"":""2"",""Q02"":""1"",""Q03"":""2"",""Q04"":""2"",""Q05"":""1"",""Q06"":""2"",""Q07"":""2"",""Q08"":""2""}","survey-template","7","220584","0.0-6.0","6","6","7","5","6","5","5","5","5","5","5","2","1","2","2","1","2","2","2","5","5","5","5","5","4","4","4","5","5","7","8","8","8","7","8","7","9","8","6","7","4","7","7","7","7","7","7","7","6","7","7","7","6","7","7","7","5","7","7","7","7","7","7","7","7","7","7","7","7","7","7","7","6","7","7","7","6","7","590502391271391232","李","498","Female","[""坏她"",""好我"",""坏我"",""好她""]","[""弱她"",""强我"",""弱我"",""强她""]","","","","","","","","{""Q01"":""2"",""Q02"":""1"",""Q03"":""2"",""Q04"":""2"",""Q05"":""1"",""Q06"":""2"",""Q07"":""2"",""Q08"":""2""}","[0,1,2,3,4,5,6,7]","[""Q01"",""Q02"",""Q03"",""Q04"",""Q05"",""Q06"",""Q07"",""Q08""]","[2157.4000000953674,3981.4000000953674,6045.400000095367,8085.699999809265,9617.699999809265,10741.699999809265,12125.5,13277.5]","[]","[2157.4000000953674,3981.4000000953674,6045.400000095367,8085.699999809265,9617.699999809265,10741.699999809265,12125.5,13277.5,18117.5]","0.75","0.5714285714285714","0","","","","","","","","","","","","","","","","","","","","","",""
"20142","","","instructions","8","240727","0.0-7.0","6","6","7","5","6","5","5","5","5","5","5","2","1","2","2","1","2","2","2","5","5","5","5","5","4","4","4","5","5","7","8","8","8","7","8","7","9","8","6","7","4","7","7","7","7","7","7","7","6","7","7","7","6","7","7","7","5","7","7","7","7","7","7","7","7","7","7","7","7","7","7","7","6","7","7","7","6","7","590502391271391232","李","498","Female","[""坏她"",""好我"",""坏我"",""好她""]","[""弱她"",""强我"",""弱我"",""强她""]","","","","","","","","","","","","","","","","","[{""page_index"":0,""viewing_time"":20142}]","","","","","","","","","","","","","","","","","","","","",""
"88323","","","instructions","9","329052","0.0-8.0-1.0-0.0","6","6","7","5","6","5","5","5","5","5","5","2","1","2","2","1","2","2","2","5","5","5","5","5","4","4","4","5","5","7","8","8","8","7","8","7","9","8","6","7","4","7","7","7","7","7","7","7","6","7","7","7","6","7","7","7","5","7","7","7","7","7","7","7","7","7","7","7","7","7","7","7","6","7","7","7","6","7","590502391271391232","李","498","Female","[""坏她"",""好我"",""坏我"",""好她""]","[""弱她"",""强我"",""弱我"",""强她""]","","","","","","","","","","","","","","","","","[{""page_index"":0,""viewing_time"":9079},{""page_index"":1,""viewing_time"":76300},{""page_index"":2,""viewing_time"":1048},{""page_index"":3,""viewing_time"":1896}]","","","","","","","","","","","","","","","","","","","","",""
"644","","f","psychophysics","10","330701","0.0-8.0-1.0-1.0-0.0-0.0","6","6","7","5","6","5","5","5","5","5","5","2","1","2","2","1","2","2","2","5","5","5","5","5","4","4","4","5","5","7","8","8","8","7","8","7","9","8","6","7","4","7","7","7","7","7","7","7","6","7","7","7","6","7","7","7","5","7","7","7","7","7","7","7","7","7","7","7","7","7","7","7","6","7","7","7","6","7","590502391271391232","李","498","Female","[""坏她"",""好我"",""坏我"",""好她""]","[""弱她"",""强我"",""弱我"",""强她""]","","","","","","","","match","","","","","","","","","","key","f","8.332225641025863","853.3333333333334","476","f","true","match","img/circle.png","强她","强她","prac_ALT2_ability","practice_ability","","","","","","","",""
"null","<span style='color:GreenYellow; font-size: 70px;'>正确! </span>","null","html-keyboard-response","11","331209","0.0-8.0-1.0-1.0-0.0-1.0","6","6","7","5","6","5","5","5","5","5","5","2","1","2","2","1","2","2","2","5","5","5","5","5","4","4","4","5","5","7","8","8","8","7","8","7","9","8","6","7","4","7","7","7","7","7","7","7","6","7","7","7","6","7","7","7","5","7","7","7","7","7","7","7","7","7","7","7","7","7","7","7","6","7","7","7","6","7","590502391271391232","李","498","Female","[""坏她"",""好我"",""坏我"",""好她""]","[""弱她"",""强我"",""弱我"",""强她""]","","","","","","","","","","","","","","","","","","","","","","","","","","","","","","feedback_test","","","","","","","",""
"1098","","j","psychophysics","12","333308","0.0-8.0-1.0-1.0-0.0-0.1","6","6","7","5","6","5","5","5","5","5","5","2","1","2","2","1","2","2","2","5","5","5","5","5","4","4","4","5","5","7","8","8","8","7","8","7","9","8","6","7","4","7","7","7","7","7","7","7","6","7","7","7","6","7","7","7","5","7","7","7","7","7","7","7","7","7","7","7","7","7","7","7","6","7","7","7","6","7","590502391271391232","李","498","Female","[""坏她"",""好我"",""坏我"",""好她""]","[""弱她"",""强我"",""弱我"",""强她""]","","","","","","","","nonmatch","","","","","","","","","","key","j","8.332276000000071","853.3333333333334","476","j","true","nonmatch","img/pentagon.png","强我","弱我","prac_ALT2_ability","practice_ability","","","","","","","",""
"null","<span style='color:GreenYellow; font-size: 70px;'>正确! </span>","null","html-keyboard-response","13","333809","0.0-8.0-1.0-1.0-0.0-1.1","6","6","7","5","6","5","5","5","5","5","5","2","1","2","2","1","2","2","2","5","5","5","5","5","4","4","4","5","5","7","8","8","8","7","8","7","9","8","6","7","4","7","7","7","7","7","7","7","6","7","7","7","6","7","7","7","5","7","7","7","7","7","7","7","7","7","7","7","7","7","7","7","6","7","7","7","6","7","590502391271391232","李","498","Female","[""坏她"",""好我"",""坏我"",""好她""]","[""弱她"",""强我"",""弱我"",""强她""]","","","","","","","","","","","","","","","","","","","","","","","","","","","","","","feedback_test","","","","","","","",""
"913","","j","psychophysics","14","335724","0.0-8.0-1.0-1.0-0.0-0.2","6","6","7","5","6","5","5","5","5","5","5","2","1","2","2","1","2","2","2","5","5","5","5","5","4","4","4","5","5","7","8","8","8","7","8","7","9","8","6","7","4","7","7","7","7","7","7","7","6","7","7","7","6","7","7","7","5","7","7","7","7","7","7","7","7","7","7","7","7","7","7","7","6","7","7","7","6","7","590502391271391232","李","498","Female","[""坏她"",""好我"",""坏我"",""好她""]","[""弱她"",""强我"",""弱我"",""强她""]","","","","","","","","nonmatch","","","","","","","","","","key","j","8.334694323144186","853.3333333333334","476","j","true","nonmatch","img/circle.png","强我","强她","prac_ALT2_ability","practice_ability","","","","","","","",""
"null","<span style='color:GreenYellow; font-size: 70px;'>正确! </span>","null","html-keyboard-response","15","336230","0.0-8.0-1.0-1.0-0.0-1.2","6","6","7","5","6","5","5","5","5","5","5","2","1","2","2","1","2","2","2","5","5","5","5","5","4","4","4","5","5","7","8","8","8","7","8","7","9","8","6","7","4","7","7","7","7","7","7","7","6","7","7","7","6","7","7","7","5","7","7","7","7","7","7","7","7","7","7","7","7","7","7","7","6","7","7","7","6","7","590502391271391232","李","498","Female","[""坏她"",""好我"",""坏我"",""好她""]","[""弱她"",""强我"",""弱我"",""强她""]","","","","","","","","","","","","","","","","","","","","","","","","","","","","","","feedback_test","","","","","","","",""
"1085","","j","psychophysics","16","338316","0.0-8.0-1.0-1.0-0.0-0.3","6","6","7","5","6","5","5","5","5","5","5","2","1","2","2","1","2","2","2","5","5","5","5","5","4","4","4","5","5","7","8","8","8","7","8","7","9","8","6","7","4","7","7","7","7","7","7","7","6","7","7","7","6","7","7","7","5","7","7","7","7","7","7","7","7","7","7","7","7","7","7","7","6","7","7","7","6","7","590502391271391232","李","498","Female","[""坏她"",""好我"",""坏我"",""好她""]","[""弱她"",""强我"",""弱我"",""强她""]","","","","","","","","nonmatch","","","","","","","","","","key","j","8.334678714859288","853.3333333333334","476","f","false","match","img/circle.png","强她","强她","prac_ALT2_ability","practice_ability","","","","","","","",""
"null","<span style='color:red; font-size: 70px;'>错误! </span>","null","html-keyboard-response","17","338817","0.0-8.0-1.0-1.0-0.0-1.3","6","6","7","5","6","5","5","5","5","5","5","2","1","2","2","1","2","2","2","5","5","5","5","5","4","4","4","5","5","7","8","8","8","7","8","7","9","8","6","7","4","7","7","7","7","7","7","7","6","7","7","7","6","7","7","7","5","7","7","7","7","7","7","7","7","7","7","7","7","7","7","7","6","7","7","7","6","7","590502391271391232","李","498","Female","[""坏她"",""好我"",""坏我"",""好她""]","[""弱她"",""强我"",""弱我"",""强她""]","","","","","","","","","","","","","","","","","","","","","","","","","","","","","","feedback_test","","","","","","","",""
"793","","j","psychophysics","18","340612","0.0-8.0-1.0-1.0-0.0-0.4","6","6","7","5","6","5","5","5","5","5","5","2","1","2","2","1","2","2","2","5","5","5","5","5","4","4","4","5","5","7","8","8","8","7","8","7","9","8","6","7","4","7","7","7","7","7","7","7","6","7","7","7","6","7","7","7","5","7","7","7","7","7","7","7","7","7","7","7","7","7","7","7","6","7","7","7","6","7","590502391271391232","李","498","Female","[""坏她"",""好我"",""坏我"",""好她""]","[""弱她"",""强我"",""弱我"",""强她""]","","","","","","","","nonmatch","","","","","","","","","","key","j","8.335224299065477","853.3333333333334","476","j","true","nonmatch","img/pentagon.png","强她","弱我","prac_ALT2_ability","practice_ability","","","","","","","",""
"null","<span style='color:GreenYellow; font-size: 70px;'>正确! </span>","null","html-keyboard-response","19","341120","0.0-8.0-1.0-1.0-0.0-1.4","6","6","7","5","6","5","5","5","5","5","5","2","1","2","2","1","2","2","2","5","5","5","5","5","4","4","4","5","5","7","8","8","8","7","8","7","9","8","6","7","4","7","7","7","7","7","7","7","6","7","7","7","6","7","7","7","5","7","7","7","7","7","7","7","7","7","7","7","7","7","7","7","6","7","7","7","6","7","590502391271391232","李","498","Female","[""坏她"",""好我"",""坏我"",""好她""]","[""弱她"",""强我"",""弱我"",""强她""]","","","","","","","","","","","","","","","","","","","","","","","","","","","","","","feedback_test","","","","","","","",""
"771","","f","psychophysics","20","342892","0.0-8.0-1.0-1.0-0.0-0.5","6","6","7","5","6","5","5","5","5","5","5","2","1","2","2","1","2","2","2","5","5","5","5","5","4","4","4","5","5","7","8","8","8","7","8","7","9","8","6","7","4","7","7","7","7","7","7","7","6","7","7","7","6","7","7","7","5","7","7","7","7","7","7","7","7","7","7","7","7","7","7","7","6","7","7","7","6","7","590502391271391232","李","498","Female","[""坏她"",""好我"",""坏我"",""好她""]","[""弱她"",""强我"",""弱我"",""强她""]","","","","","","","","match","","","","","","","","","","key","f","8.335123222748864","853.3333333333334","476","f","true","match","img/trapezoid.png","强我","强我","prac_ALT2_ability","practice_ability","","","","","","","",""
"null","<span style='color:GreenYellow; font-size: 70px;'>正确! </span>","null","html-keyboard-response","21","343399","0.0-8.0-1.0-1.0-0.0-1.5","6","6","7","5","6","5","5","5","5","5","5","2","1","2","2","1","2","2","2","5","5","5","5","5","4","4","4","5","5","7","8","8","8","7","8","7","9","8","6","7","4","7","7","7","7","7","7","7","6","7","7","7","6","7","7","7","5","7","7","7","7","7","7","7","7","7","7","7","7","7","7","7","6","7","7","7","6","7","590502391271391232","李","498","Female","[""坏她"",""好我"",""坏我"",""好她""]","[""弱她"",""强我"",""弱我"",""强她""]","","","","","","","","","","","","","","","","","","","","","","","","","","","","","","feedback_test","","","","","","","",""
"820","","j","psychophysics","22","345220","0.0-8.0-1.0-1.0-0.0-0.6","6","6","7","5","6","5","5","5","5","5","5","2","1","2","2","1","2","2","2","5","5","5","5","5","4","4","4","5","5","7","8","8","8","7","8","7","9","8","6","7","4","7","7","7","7","7","7","7","6","7","7","7","6","7","7","7","5","7","7","7","7","7","7","7","7","7","7","7","7","7","7","7","6","7","7","7","6","7","590502391271391232","李","498","Female","[""坏她"",""好我"",""坏我"",""好她""]","[""弱她"",""强我"",""弱我"",""强她""]","","","","","","","","nonmatch","","","","","","","","","","key","j","8.334138248848069","853.3333333333334","476","j","true","nonmatch","img/square.png","强她","弱她","prac_ALT2_ability","practice_ability","","","","","","","",""
"null","<span style='color:GreenYellow; font-size: 70px;'>正确! </span>","null","html-keyboard-response","23","345727","0.0-8.0-1.0-1.0-0.0-1.6","6","6","7","5","6","5","5","5","5","5","5","2","1","2","2","1","2","2","2","5","5","5","5","5","4","4","4","5","5","7","8","8","8","7","8","7","9","8","6","7","4","7","7","7","7","7","7","7","6","7","7","7","6","7","7","7","5","7","7","7","7","7","7","7","7","7","7","7","7","7","7","7","6","7","7","7","6","7","590502391271391232","李","498","Female","[""坏她"",""好我"",""坏我"",""好她""]","[""弱她"",""强我"",""弱我"",""强她""]","","","","","","","","","","","","","","","","","","","","","","","","","","","","","","feedback_test","","","","","","","",""
"1044","","f","psychophysics","24","347772","0.0-8.0-1.0-1.0-0.0-0.7","6","6","7","5","6","5","5","5","5","5","5","2","1","2","2","1","2","2","2","5","5","5","5","5","4","4","4","5","5","7","8","8","8","7","8","7","9","8","6","7","4","7","7","7","7","7","7","7","6","7","7","7","6","7","7","7","5","7","7","7","7","7","7","7","7","7","7","7","7","7","7","7","6","7","7","7","6","7","590502391271391232","李","498","Female","[""坏她"",""好我"",""坏我"",""好她""]","[""弱她"",""强我"",""弱我"",""强她""]","","","","","","","","match","","","","","","","","","","key","f","8.334885245901637","853.3333333333334","476","f","true","match","img/pentagon.png","弱我","弱我","prac_ALT2_ability","practice_ability","","","","","","","",""
"null","<span style='color:GreenYellow; font-size: 70px;'>正确! </span>","null","html-keyboard-response","25","348278","0.0-8.0-1.0-1.0-0.0-1.7","6","6","7","5","6","5","5","5","5","5","5","2","1","2","2","1","2","2","2","5","5","5","5","5","4","4","4","5","5","7","8","8","8","7","8","7","9","8","6","7","4","7","7","7","7","7","7","7","6","7","7","7","6","7","7","7","5","7","7","7","7","7","7","7","7","7","7","7","7","7","7","7","6","7","7","7","6","7","590502391271391232","李","498","Female","[""坏她"",""好我"",""坏我"",""好她""]","[""弱她"",""强我"",""弱我"",""强她""]","","","","","","","","","","","","","","","","","","","","","","","","","","","","","","feedback_test","","","","","","","",""
"1052","","j","psychophysics","26","350332","0.0-8.0-1.0-1.0-0.0-0.8","6","6","7","5","6","5","5","5","5","5","5","2","1","2","2","1","2","2","2","5","5","5","5","5","4","4","4","5","5","7","8","8","8","7","8","7","9","8","6","7","4","7","7","7","7","7","7","7","6","7","7","7","6","7","7","7","5","7","7","7","7","7","7","7","7","7","7","7","7","7","7","7","6","7","7","7","6","7","590502391271391232","李","498","Female","[""坏她"",""好我"",""坏我"",""好她""]","[""弱她"",""强我"",""弱我"",""强她""]","","","","","","","","nonmatch","","","","","","","","","","key","j","8.333918367346929","853.3333333333334","476","j","true","nonmatch","img/circle.png","弱她","强她","prac_ALT2_ability","practice_ability","","","","","","","",""
"null","<span style='color:GreenYellow; font-size: 70px;'>正确! </span>","null","html-keyboard-response","27","350842","0.0-8.0-1.0-1.0-0.0-1.8","6","6","7","5","6","5","5","5","5","5","5","2","1","2","2","1","2","2","2","5","5","5","5","5","4","4","4","5","5","7","8","8","8","7","8","7","9","8","6","7","4","7","7","7","7","7","7","7","6","7","7","7","6","7","7","7","5","7","7","7","7","7","7","7","7","7","7","7","7","7","7","7","6","7","7","7","6","7","590502391271391232","李","498","Female","[""坏她"",""好我"",""坏我"",""好她""]","[""弱她"",""强我"",""弱我"",""强她""]","","","","","","","","","","","","","","","","","","","","","","","","","","","","","","feedback_test","","","","","","","",""
"834","","f","psychophysics","28","352676","0.0-8.0-1.0-1.0-0.0-0.9","6","6","7","5","6","5","5","5","5","5","5","2","1","2","2","1","2","2","2","5","5","5","5","5","4","4","4","5","5","7","8","8","8","7","8","7","9","8","6","7","4","7","7","7","7","7","7","7","6","7","7","7","6","7","7","7","5","7","7","7","7","7","7","7","7","7","7","7","7","7","7","7","6","7","7","7","6","7","590502391271391232","李","498","Female","[""坏她"",""好我"",""坏我"",""好她""]","[""弱她"",""强我"",""弱我"",""强她""]","","","","","","","","match","","","","","","","","","","key","f","8.335168949771697","853.3333333333334","476","f","true","match","img/trapezoid.png","强我","强我","prac_ALT2_ability","practice_ability","","","","","","","",""
"null","<span style='color:GreenYellow; font-size: 70px;'>正确! </span>","null","html-keyboard-response","29","353184","0.0-8.0-1.0-1.0-0.0-1.9","6","6","7","5","6","5","5","5","5","5","5","2","1","2","2","1","2","2","2","5","5","5","5","5","4","4","4","5","5","7","8","8","8","7","8","7","9","8","6","7","4","7","7","7","7","7","7","7","6","7","7","7","6","7","7","7","5","7","7","7","7","7","7","7","7","7","7","7","7","7","7","7","6","7","7","7","6","7","590502391271391232","李","498","Female","[""坏她"",""好我"",""坏我"",""好她""]","[""弱她"",""强我"",""弱我"",""强她""]","","","","","","","","","","","","","","","","","","","","","","","","","","","","","","feedback_test","","","","","","","",""
"835","","f","psychophysics","30","355020","0.0-8.0-1.0-1.0-0.0-0.10","6","6","7","5","6","5","5","5","5","5","5","2","1","2","2","1","2","2","2","5","5","5","5","5","4","4","4","5","5","7","8","8","8","7","8","7","9","8","6","7","4","7","7","7","7","7","7","7","6","7","7","7","6","7","7","7","5","7","7","7","7","7","7","7","7","7","7","7","7","7","7","7","6","7","7","7","6","7","590502391271391232","李","498","Female","[""坏她"",""好我"",""坏我"",""好她""]","[""弱她"",""强我"",""弱我"",""强她""]","","","","","","","","match","","","","","","","","","","key","f","8.334616438355978","853.3333333333334","476","f","true","match","img/pentagon.png","弱我","弱我","prac_ALT2_ability","practice_ability","","","","","","","",""
"null","<span style='color:GreenYellow; font-size: 70px;'>正确! </span>","null","html-keyboard-response","31","355528","0.0-8.0-1.0-1.0-0.0-1.10","6","6","7","5","6","5","5","5","5","5","5","2","1","2","2","1","2","2","2","5","5","5","5","5","4","4","4","5","5","7","8","8","8","7","8","7","9","8","6","7","4","7","7","7","7","7","7","7","6","7","7","7","6","7","7","7","5","7","7","7","7","7","7","7","7","7","7","7","7","7","7","7","6","7","7","7","6","7","590502391271391232","李","498","Female","[""坏她"",""好我"",""坏我"",""好她""]","[""弱她"",""强我"",""弱我"",""强她""]","","","","","","","","","","","","","","","","","","","","","","","","","","","","","","feedback_test","","","","","","","",""
"779","","f","psychophysics","32","357308","0.0-8.0-1.0-1.0-0.0-0.11","6","6","7","5","6","5","5","5","5","5","5","2","1","2","2","1","2","2","2","5","5","5","5","5","4","4","4","5","5","7","8","8","8","7","8","7","9","8","6","7","4","7","7","7","7","7","7","7","6","7","7","7","6","7","7","7","5","7","7","7","7","7","7","7","7","7","7","7","7","7","7","7","6","7","7","7","6","7","590502391271391232","李","498","Female","[""坏她"",""好我"",""坏我"",""好她""]","[""弱她"",""强我"",""弱我"",""强她""]","","","","","","","","match","","","","","","","","","","key","f","8.334707547169737","853.3333333333334","476","f","true","match","img/pentagon.png","弱我","弱我","prac_ALT2_ability","practice_ability","","","","","","","",""
"null","<span style='color:GreenYellow; font-size: 70px;'>正确! </span>","null","html-keyboard-response","33","357814","0.0-8.0-1.0-1.0-0.0-1.11","6","6","7","5","6","5","5","5","5","5","5","2","1","2","2","1","2","2","2","5","5","5","5","5","4","4","4","5","5","7","8","8","8","7","8","7","9","8","6","7","4","7","7","7","7","7","7","7","6","7","7","7","6","7","7","7","5","7","7","7","7","7","7","7","7","7","7","7","7","7","7","7","6","7","7","7","6","7","590502391271391232","李","498","Female","[""坏她"",""好我"",""坏我"",""好她""]","[""弱她"",""强我"",""弱我"",""强她""]","","","","","","","","","","","","","","","","","","","","","","","","","","","","","","feedback_test","","","","","","","",""
"981","","j","psychophysics","34","359796","0.0-8.0-1.0-1.0-0.0-0.12","6","6","7","5","6","5","5","5","5","5","5","2","1","2","2","1","2","2","2","5","5","5","5","5","4","4","4","5","5","7","8","8","8","7","8","7","9","8","6","7","4","7","7","7","7","7","7","7","6","7","7","7","6","7","7","7","5","7","7","7","7","7","7","7","7","7","7","7","7","7","7","7","6","7","7","7","6","7","590502391271391232","李","498","Female","[""坏她"",""好我"",""坏我"",""好她""]","[""弱她"",""强我"",""弱我"",""强她""]","","","","","","","","nonmatch","","","","","","","","","","key","j","8.333389830508445","853.3333333333334","476","f","false","match","img/square.png","弱她","弱她","prac_ALT2_ability","practice_ability","","","","","","","",""
"null","<span style='color:red; font-size: 70px;'>错误! </span>","null","html-keyboard-response","35","360303","0.0-8.0-1.0-1.0-0.0-1.12","6","6","7","5","6","5","5","5","5","5","5","2","1","2","2","1","2","2","2","5","5","5","5","5","4","4","4","5","5","7","8","8","8","7","8","7","9","8","6","7","4","7","7","7","7","7","7","7","6","7","7","7","6","7","7","7","5","7","7","7","7","7","7","7","7","7","7","7","7","7","7","7","6","7","7","7","6","7","590502391271391232","李","498","Female","[""坏她"",""好我"",""坏我"",""好她""]","[""弱她"",""强我"",""弱我"",""强她""]","","","","","","","","","","","","","","","","","","","","","","","","","","","","","","feedback_test","","","","","","","",""
"755","","f","psychophysics","36","362060","0.0-8.0-1.0-1.0-0.0-0.13","6","6","7","5","6","5","5","5","5","5","5","2","1","2","2","1","2","2","2","5","5","5","5","5","4","4","4","5","5","7","8","8","8","7","8","7","9","8","6","7","4","7","7","7","7","7","7","7","6","7","7","7","6","7","7","7","5","7","7","7","7","7","7","7","7","7","7","7","7","7","7","7","6","7","7","7","6","7","590502391271391232","李","498","Female","[""坏她"",""好我"",""坏我"",""好她""]","[""弱她"",""强我"",""弱我"",""强她""]","","","","","","","","match","","","","","","","","","","key","f","8.33216746411488","853.3333333333334","476","f","true","match","img/trapezoid.png","强我","强我","prac_ALT2_ability","practice_ability","","","","","","","",""
"null","<span style='color:GreenYellow; font-size: 70px;'>正确! </span>","null","html-keyboard-response","37","362566","0.0-8.0-1.0-1.0-0.0-1.13","6","6","7","5","6","5","5","5","5","5","5","2","1","2","2","1","2","2","2","5","5","5","5","5","4","4","4","5","5","7","8","8","8","7","8","7","9","8","6","7","4","7","7","7","7","7","7","7","6","7","7","7","6","7","7","7","5","7","7","7","7","7","7","7","7","7","7","7","7","7","7","7","6","7","7","7","6","7","590502391271391232","李","498","Female","[""坏她"",""好我"",""坏我"",""好她""]","[""弱她"",""强我"",""弱我"",""强她""]","","","","","","","","","","","","","","","","","","","","","","","","","","","","","","feedback_test","","","","","","","",""
"828","","j","psychophysics","38","364396","0.0-8.0-1.0-1.0-0.0-0.14","6","6","7","5","6","5","5","5","5","5","5","2","1","2","2","1","2","2","2","5","5","5","5","5","4","4","4","5","5","7","8","8","8","7","8","7","9","8","6","7","4","7","7","7","7","7","7","7","6","7","7","7","6","7","7","7","5","7","7","7","7","7","7","7","7","7","7","7","7","7","7","7","6","7","7","7","6","7","590502391271391232","李","498","Female","[""坏她"",""好我"",""坏我"",""好她""]","[""弱她"",""强我"",""弱我"",""强她""]","","","","","","","","nonmatch","","","","","","","","","","key","j","8.333963302752311","853.3333333333334","476","j","true","nonmatch","img/square.png","弱我","弱她","prac_ALT2_ability","practice_ability","","","","","","","",""
"null","<span style='color:GreenYellow; font-size: 70px;'>正确! </span>","null","html-keyboard-response","39","364900","0.0-8.0-1.0-1.0-0.0-1.14","6","6","7","5","6","5","5","5","5","5","5","2","1","2","2","1","2","2","2","5","5","5","5","5","4","4","4","5","5","7","8","8","8","7","8","7","9","8","6","7","4","7","7","7","7","7","7","7","6","7","7","7","6","7","7","7","5","7","7","7","7","7","7","7","7","7","7","7","7","7","7","7","6","7","7","7","6","7","590502391271391232","李","498","Female","[""坏她"",""好我"",""坏我"",""好她""]","[""弱她"",""强我"",""弱我"",""强她""]","","","","","","","","","","","","","","","","","","","","","","","","","","","","","","feedback_test","","","","","","","",""
"750","","j","psychophysics","40","366652","0.0-8.0-1.0-1.0-0.0-0.15","6","6","7","5","6","5","5","5","5","5","5","2","1","2","2","1","2","2","2","5","5","5","5","5","4","4","4","5","5","7","8","8","8","7","8","7","9","8","6","7","4","7","7","7","7","7","7","7","6","7","7","7","6","7","7","7","5","7","7","7","7","7","7","7","7","7","7","7","7","7","7","7","6","7","7","7","6","7","590502391271391232","李","498","Female","[""坏她"",""好我"",""坏我"",""好她""]","[""弱她"",""强我"",""弱我"",""强她""]","","","","","","","","nonmatch","","","","","","","","","","key","j","8.332442307692244","853.3333333333334","476","j","true","nonmatch","img/circle.png","弱我","强她","prac_ALT2_ability","practice_ability","","","","","","","",""
"null","<span style='color:GreenYellow; font-size: 70px;'>正确! </span>","null","html-keyboard-response","41","367152","0.0-8.0-1.0-1.0-0.0-1.15","6","6","7","5","6","5","5","5","5","5","5","2","1","2","2","1","2","2","2","5","5","5","5","5","4","4","4","5","5","7","8","8","8","7","8","7","9","8","6","7","4","7","7","7","7","7","7","7","6","7","7","7","6","7","7","7","5","7","7","7","7","7","7","7","7","7","7","7","7","7","7","7","6","7","7","7","6","7","590502391271391232","李","498","Female","[""坏她"",""好我"",""坏我"",""好她""]","[""弱她"",""强我"",""弱我"",""强她""]","","","","","","","","","","","","","","","","","","","","","","","","","","","","","","feedback_test","","","","","","","",""
"706","","j","psychophysics","42","368860","0.0-8.0-1.0-1.0-0.0-0.16","6","6","7","5","6","5","5","5","5","5","5","2","1","2","2","1","2","2","2","5","5","5","5","5","4","4","4","5","5","7","8","8","8","7","8","7","9","8","6","7","4","7","7","7","7","7","7","7","6","7","7","7","6","7","7","7","5","7","7","7","7","7","7","7","7","7","7","7","7","7","7","7","6","7","7","7","6","7","590502391271391232","李","498","Female","[""坏她"",""好我"",""坏我"",""好她""]","[""弱她"",""强我"",""弱我"",""强她""]","","","","","","","","nonmatch","","","","","","","","","","key","j","8.33315763546795","853.3333333333334","476","f","false","match","img/square.png","弱她","弱她","prac_ALT2_ability","practice_ability","","","","","","","",""
"null","<span style='color:red; font-size: 70px;'>错误! </span>","null","html-keyboard-response","43","369361","0.0-8.0-1.0-1.0-0.0-1.16","6","6","7","5","6","5","5","5","5","5","5","2","1","2","2","1","2","2","2","5","5","5","5","5","4","4","4","5","5","7","8","8","8","7","8","7","9","8","6","7","4","7","7","7","7","7","7","7","6","7","7","7","6","7","7","7","5","7","7","7","7","7","7","7","7","7","7","7","7","7","7","7","6","7","7","7","6","7","590502391271391232","李","498","Female","[""坏她"",""好我"",""坏我"",""好她""]","[""弱她"",""强我"",""弱我"",""强她""]","","","","","","","","","","","","","","","","","","","","","","","","","","","","","","feedback_test","","","","","","","",""
"634","","f","psychophysics","44","370996","0.0-8.0-1.0-1.0-0.0-0.17","6","6","7","5","6","5","5","5","5","5","5","2","1","2","2","1","2","2","2","5","5","5","5","5","4","4","4","5","5","7","8","8","8","7","8","7","9","8","6","7","4","7","7","7","7","7","7","7","6","7","7","7","6","7","7","7","5","7","7","7","7","7","7","7","7","7","7","7","7","7","7","7","6","7","7","7","6","7","590502391271391232","李","498","Female","[""坏她"",""好我"",""坏我"",""好她""]","[""弱她"",""强我"",""弱我"",""强她""]","","","","","","","","match","","","","","","","","","","key","f","8.332211340206301","853.3333333333334","476","f","true","match","img/circle.png","强她","强她","prac_ALT2_ability","practice_ability","","","","","","","",""
"null","<span style='color:GreenYellow; font-size: 70px;'>正确! </span>","null","html-keyboard-response","45","371503","0.0-8.0-1.0-1.0-0.0-1.17","6","6","7","5","6","5","5","5","5","5","5","2","1","2","2","1","2","2","2","5","5","5","5","5","4","4","4","5","5","7","8","8","8","7","8","7","9","8","6","7","4","7","7","7","7","7","7","7","6","7","7","7","6","7","7","7","5","7","7","7","7","7","7","7","7","7","7","7","7","7","7","7","6","7","7","7","6","7","590502391271391232","李","498","Female","[""坏她"",""好我"",""坏我"",""好她""]","[""弱她"",""强我"",""弱我"",""强她""]","","","","","","","","","","","","","","","","","","","","","","","","","","","","","","feedback_test","","","","","","","",""
"700","","j","psychophysics","46","373204","0.0-8.0-1.0-1.0-0.0-0.18","6","6","7","5","6","5","5","5","5","5","5","2","1","2","2","1","2","2","2","5","5","5","5","5","4","4","4","5","5","7","8","8","8","7","8","7","9","8","6","7","4","7","7","7","7","7","7","7","6","7","7","7","6","7","7","7","5","7","7","7","7","7","7","7","7","7","7","7","7","7","7","7","6","7","7","7","6","7","590502391271391232","李","498","Female","[""坏她"",""好我"",""坏我"",""好她""]","[""弱她"",""强我"",""弱我"",""强她""]","","","","","","","","nonmatch","","","","","","","","","","key","j","8.333532019704409","853.3333333333334","476","j","true","nonmatch","img/trapezoid.png","弱她","强我","prac_ALT2_ability","practice_ability","","","","","","","",""
"null","<span style='color:GreenYellow; font-size: 70px;'>正确! </span>","null","html-keyboard-response","47","373714","0.0-8.0-1.0-1.0-0.0-1.18","6","6","7","5","6","5","5","5","5","5","5","2","1","2","2","1","2","2","2","5","5","5","5","5","4","4","4","5","5","7","8","8","8","7","8","7","9","8","6","7","4","7","7","7","7","7","7","7","6","7","7","7","6","7","7","7","5","7","7","7","7","7","7","7","7","7","7","7","7","7","7","7","6","7","7","7","6","7","590502391271391232","李","498","Female","[""坏她"",""好我"",""坏我"",""好她""]","[""弱她"",""强我"",""弱我"",""强她""]","","","","","","","","","","","","","","","","","","","","","","","","","","","","","","feedback_test","","","","","","","",""
"849","","f","psychophysics","48","375564","0.0-8.0-1.0-1.0-0.0-0.19","6","6","7","5","6","5","5","5","5","5","5","2","1","2","2","1","2","2","2","5","5","5","5","5","4","4","4","5","5","7","8","8","8","7","8","7","9","8","6","7","4","7","7","7","7","7","7","7","6","7","7","7","6","7","7","7","5","7","7","7","7","7","7","7","7","7","7","7","7","7","7","7","6","7","7","7","6","7","590502391271391232","李","498","Female","[""坏她"",""好我"",""坏我"",""好她""]","[""弱她"",""强我"",""弱我"",""强她""]","","","","","","","","match","","","","","","","","","","key","f","8.333772727272695","853.3333333333334","476","f","true","match","img/square.png","弱她","弱她","prac_ALT2_ability","practice_ability","","","","","","","",""
"null","<span style='color:GreenYellow; font-size: 70px;'>正确! </span>","null","html-keyboard-response","49","376071","0.0-8.0-1.0-1.0-0.0-1.19","6","6","7","5","6","5","5","5","5","5","5","2","1","2","2","1","2","2","2","5","5","5","5","5","4","4","4","5","5","7","8","8","8","7","8","7","9","8","6","7","4","7","7","7","7","7","7","7","6","7","7","7","6","7","7","7","5","7","7","7","7","7","7","7","7","7","7","7","7","7","7","7","6","7","7","7","6","7","590502391271391232","李","498","Female","[""坏她"",""好我"",""坏我"",""好她""]","[""弱她"",""强我"",""弱我"",""强她""]","","","","","","","","","","","","","","","","","","","","","","","","","","","","","","feedback_test","","","","","","","",""
"884","","j","psychophysics","50","377956","0.0-8.0-1.0-1.0-0.0-0.20","6","6","7","5","6","5","5","5","5","5","5","2","1","2","2","1","2","2","2","5","5","5","5","5","4","4","4","5","5","7","8","8","8","7","8","7","9","8","6","7","4","7","7","7","7","7","7","7","6","7","7","7","6","7","7","7","5","7","7","7","7","7","7","7","7","7","7","7","7","7","7","7","6","7","7","7","6","7","590502391271391232","李","498","Female","[""坏她"",""好我"",""坏我"",""好她""]","[""弱她"",""强我"",""弱我"",""强她""]","","","","","","","","nonmatch","","","","","","","","","","key","j","8.33276444444433","853.3333333333334","476","j","true","nonmatch","img/trapezoid.png","弱我","强我","prac_ALT2_ability","practice_ability","","","","","","","",""
"null","<span style='color:GreenYellow; font-size: 70px;'>正确! </span>","null","html-keyboard-response","51","378464","0.0-8.0-1.0-1.0-0.0-1.20","6","6","7","5","6","5","5","5","5","5","5","2","1","2","2","1","2","2","2","5","5","5","5","5","4","4","4","5","5","7","8","8","8","7","8","7","9","8","6","7","4","7","7","7","7","7","7","7","6","7","7","7","6","7","7","7","5","7","7","7","7","7","7","7","7","7","7","7","7","7","7","7","6","7","7","7","6","7","590502391271391232","李","498","Female","[""坏她"",""好我"",""坏我"",""好她""]","[""弱她"",""强我"",""弱我"",""强她""]","","","","","","","","","","","","","","","","","","","","","","","","","","","","","","feedback_test","","","","","","","",""
"779","","j","psychophysics","52","380244","0.0-8.0-1.0-1.0-0.0-0.21","6","6","7","5","6","5","5","5","5","5","5","2","1","2","2","1","2","2","2","5","5","5","5","5","4","4","4","5","5","7","8","8","8","7","8","7","9","8","6","7","4","7","7","7","7","7","7","7","6","7","7","7","6","7","7","7","5","7","7","7","7","7","7","7","7","7","7","7","7","7","7","7","6","7","7","7","6","7","590502391271391232","李","498","Female","[""坏她"",""好我"",""坏我"",""好她""]","[""弱她"",""强我"",""弱我"",""强她""]","","","","","","","","nonmatch","","","","","","","","","","key","j","8.333863207547077","853.3333333333334","476","j","true","nonmatch","img/trapezoid.png","强她","强我","prac_ALT2_ability","practice_ability","","","","","","","",""
"null","<span style='color:GreenYellow; font-size: 70px;'>正确! </span>","null","html-keyboard-response","53","380750","0.0-8.0-1.0-1.0-0.0-1.21","6","6","7","5","6","5","5","5","5","5","5","2","1","2","2","1","2","2","2","5","5","5","5","5","4","4","4","5","5","7","8","8","8","7","8","7","9","8","6","7","4","7","7","7","7","7","7","7","6","7","7","7","6","7","7","7","5","7","7","7","7","7","7","7","7","7","7","7","7","7","7","7","6","7","7","7","6","7","590502391271391232","李","498","Female","[""坏她"",""好我"",""坏我"",""好她""]","[""弱她"",""强我"",""弱我"",""强她""]","","","","","","","","","","","","","","","","","","","","","","","","","","","","","","feedback_test","","","","","","","",""
"893","","j","psychophysics","54","382644","0.0-8.0-1.0-1.0-0.0-0.22","6","6","7","5","6","5","5","5","5","5","5","2","1","2","2","1","2","2","2","5","5","5","5","5","4","4","4","5","5","7","8","8","8","7","8","7","9","8","6","7","4","7","7","7","7","7","7","7","6","7","7","7","6","7","7","7","5","7","7","7","7","7","7","7","7","7","7","7","7","7","7","7","6","7","7","7","6","7","590502391271391232","李","498","Female","[""坏她"",""好我"",""坏我"",""好她""]","[""弱她"",""强我"",""弱我"",""强她""]","","","","","","","","nonmatch","","","","","","","","","","key","j","8.334703539823186","853.3333333333334","476","j","true","nonmatch","img/square.png","强我","弱她","prac_ALT2_ability","practice_ability","","","","","","","",""
"null","<span style='color:GreenYellow; font-size: 70px;'>正确! </span>","null","html-keyboard-response","55","383151","0.0-8.0-1.0-1.0-0.0-1.22","6","6","7","5","6","5","5","5","5","5","5","2","1","2","2","1","2","2","2","5","5","5","5","5","4","4","4","5","5","7","8","8","8","7","8","7","9","8","6","7","4","7","7","7","7","7","7","7","6","7","7","7","6","7","7","7","5","7","7","7","7","7","7","7","7","7","7","7","7","7","7","7","6","7","7","7","6","7","590502391271391232","李","498","Female","[""坏她"",""好我"",""坏我"",""好她""]","[""弱她"",""强我"",""弱我"",""强她""]","","","","","","","","","","","","","","","","","","","","","","","","","","","","","","feedback_test","","","","","","","",""
"853","","j","psychophysics","56","385005","0.0-8.0-1.0-1.0-0.0-0.23","6","6","7","5","6","5","5","5","5","5","5","2","1","2","2","1","2","2","2","5","5","5","5","5","4","4","4","5","5","7","8","8","8","7","8","7","9","8","6","7","4","7","7","7","7","7","7","7","6","7","7","7","6","7","7","7","5","7","7","7","7","7","7","7","7","7","7","7","7","7","7","7","6","7","7","7","6","7","590502391271391232","李","498","Female","[""坏她"",""好我"",""坏我"",""好她""]","[""弱她"",""强我"",""弱我"",""强她""]","","","","","","","","nonmatch","","","","","","","","","","key","j","8.334086363636148","853.3333333333334","476","j","true","nonmatch","img/pentagon.png","弱她","弱我","prac_ALT2_ability","practice_ability","","","","","","","",""
"null","<span style='color:GreenYellow; font-size: 70px;'>正确! </span>","null","html-keyboard-response","57","385511","0.0-8.0-1.0-1.0-0.0-1.23","6","6","7","5","6","5","5","5","5","5","5","2","1","2","2","1","2","2","2","5","5","5","5","5","4","4","4","5","5","7","8","8","8","7","8","7","9","8","6","7","4","7","7","7","7","7","7","7","6","7","7","7","6","7","7","7","5","7","7","7","7","7","7","7","7","7","7","7","7","7","7","7","6","7","7","7","6","7","590502391271391232","李","498","Female","[""坏她"",""好我"",""坏我"",""好她""]","[""弱她"",""强我"",""弱我"",""强她""]","","","","","","","","","","","","","","","","","","","","","","","","","","","","","","feedback_test","","","","","","","",""
"763","","j","psychophysics","58","387275","0.0-8.0-1.0-1.0-0.0-0.24","6","6","7","5","6","5","5","5","5","5","5","2","1","2","2","1","2","2","2","5","5","5","5","5","4","4","4","5","5","7","8","8","8","7","8","7","9","8","6","7","4","7","7","7","7","7","7","7","6","7","7","7","6","7","7","7","5","7","7","7","7","7","7","7","7","7","7","7","7","7","7","7","6","7","7","7","6","7","590502391271391232","李","498","Female","[""坏她"",""好我"",""坏我"",""好她""]","[""弱她"",""强我"",""弱我"",""强她""]","","","","","","","","nonmatch","","","","","","","","","","key","j","8.333942857142981","853.3333333333334","476","f","false","match","img/square.png","弱她","弱她","prac_ALT2_ability","practice_ability","","","","","","","",""
"null","<span style='color:red; font-size: 70px;'>错误! </span>","null","html-keyboard-response","59","387782","0.0-8.0-1.0-1.0-0.0-1.24","6","6","7","5","6","5","5","5","5","5","5","2","1","2","2","1","2","2","2","5","5","5","5","5","4","4","4","5","5","7","8","8","8","7","8","7","9","8","6","7","4","7","7","7","7","7","7","7","6","7","7","7","6","7","7","7","5","7","7","7","7","7","7","7","7","7","7","7","7","7","7","7","6","7","7","7","6","7","590502391271391232","李","498","Female","[""坏她"",""好我"",""坏我"",""好她""]","[""弱她"",""强我"",""弱我"",""强她""]","","","","","","","","","","","","","","","","","","","","","","","","","","","","","","feedback_test","","","","","","","",""
"860","","j","psychophysics","60","389644","0.0-8.0-1.0-1.0-0.0-0.25","6","6","7","5","6","5","5","5","5","5","5","2","1","2","2","1","2","2","2","5","5","5","5","5","4","4","4","5","5","7","8","8","8","7","8","7","9","8","6","7","4","7","7","7","7","7","7","7","6","7","7","7","6","7","7","7","5","7","7","7","7","7","7","7","7","7","7","7","7","7","7","7","6","7","7","7","6","7","590502391271391232","李","498","Female","[""坏她"",""好我"",""坏我"",""好她""]","[""弱她"",""强我"",""弱我"",""强她""]","","","","","","","","nonmatch","","","","","","","","","","key","j","8.334324324324198","853.3333333333334","476","j","true","nonmatch","img/circle.png","强我","强她","prac_ALT2_ability","practice_ability","","","","","","","",""
"null","<span style='color:GreenYellow; font-size: 70px;'>正确! </span>","null","html-keyboard-response","61","390150","0.0-8.0-1.0-1.0-0.0-1.25","6","6","7","5","6","5","5","5","5","5","5","2","1","2","2","1","2","2","2","5","5","5","5","5","4","4","4","5","5","7","8","8","8","7","8","7","9","8","6","7","4","7","7","7","7","7","7","7","6","7","7","7","6","7","7","7","5","7","7","7","7","7","7","7","7","7","7","7","7","7","7","7","6","7","7","7","6","7","590502391271391232","李","498","Female","[""坏她"",""好我"",""坏我"",""好她""]","[""弱她"",""强我"",""弱我"",""强她""]","","","","","","","","","","","","","","","","","","","","","","","","","","","","","","feedback_test","","","","","","","",""
"764","","f","psychophysics","62","391915","0.0-8.0-1.0-1.0-0.0-0.26","6","6","7","5","6","5","5","5","5","5","5","2","1","2","2","1","2","2","2","5","5","5","5","5","4","4","4","5","5","7","8","8","8","7","8","7","9","8","6","7","4","7","7","7","7","7","7","7","6","7","7","7","6","7","7","7","5","7","7","7","7","7","7","7","7","7","7","7","7","7","7","7","6","7","7","7","6","7","590502391271391232","李","498","Female","[""坏她"",""好我"",""坏我"",""好她""]","[""弱她"",""强我"",""弱我"",""强她""]","","","","","","","","match","","","","","","","","","","key","f","8.334071428571285","853.3333333333334","476","f","true","match","img/pentagon.png","弱我","弱我","prac_ALT2_ability","practice_ability","","","","","","","",""
"null","<span style='color:GreenYellow; font-size: 70px;'>正确! </span>","null","html-keyboard-response","63","392423","0.0-8.0-1.0-1.0-0.0-1.26","6","6","7","5","6","5","5","5","5","5","5","2","1","2","2","1","2","2","2","5","5","5","5","5","4","4","4","5","5","7","8","8","8","7","8","7","9","8","6","7","4","7","7","7","7","7","7","7","6","7","7","7","6","7","7","7","5","7","7","7","7","7","7","7","7","7","7","7","7","7","7","7","6","7","7","7","6","7","590502391271391232","李","498","Female","[""坏她"",""好我"",""坏我"",""好她""]","[""弱她"",""强我"",""弱我"",""强她""]","","","","","","","","","","","","","","","","","","","","","","","","","","","","","","feedback_test","","","","","","","",""
"764","","j","psychophysics","64","394187","0.0-8.0-1.0-1.0-0.0-0.27","6","6","7","5","6","5","5","5","5","5","5","2","1","2","2","1","2","2","2","5","5","5","5","5","4","4","4","5","5","7","8","8","8","7","8","7","9","8","6","7","4","7","7","7","7","7","7","7","6","7","7","7","6","7","7","7","5","7","7","7","7","7","7","7","7","7","7","7","7","7","7","7","6","7","7","7","6","7","590502391271391232","李","498","Female","[""坏她"",""好我"",""坏我"",""好她""]","[""弱她"",""强我"",""弱我"",""强她""]","","","","","","","","nonmatch","","","","","","","","","","key","j","8.332614285714225","853.3333333333334","476","j","true","nonmatch","img/pentagon.png","强她","弱我","prac_ALT2_ability","practice_ability","","","","","","","",""
"null","<span style='color:GreenYellow; font-size: 70px;'>正确! </span>","null","html-keyboard-response","65","394694","0.0-8.0-1.0-1.0-0.0-1.27","6","6","7","5","6","5","5","5","5","5","5","2","1","2","2","1","2","2","2","5","5","5","5","5","4","4","4","5","5","7","8","8","8","7","8","7","9","8","6","7","4","7","7","7","7","7","7","7","6","7","7","7","6","7","7","7","5","7","7","7","7","7","7","7","7","7","7","7","7","7","7","7","6","7","7","7","6","7","590502391271391232","李","498","Female","[""坏她"",""好我"",""坏我"",""好她""]","[""弱她"",""强我"",""弱我"",""强她""]","","","","","","","","","","","","","","","","","","","","","","","","","","","","","","feedback_test","","","","","","","",""
"828","","f","psychophysics","66","396524","0.0-8.0-1.0-1.0-0.0-0.28","6","6","7","5","6","5","5","5","5","5","5","2","1","2","2","1","2","2","2","5","5","5","5","5","4","4","4","5","5","7","8","8","8","7","8","7","9","8","6","7","4","7","7","7","7","7","7","7","6","7","7","7","6","7","7","7","5","7","7","7","7","7","7","7","7","7","7","7","7","7","7","7","6","7","7","7","6","7","590502391271391232","李","498","Female","[""坏她"",""好我"",""坏我"",""好她""]","[""弱她"",""强我"",""弱我"",""强她""]","","","","","","","","match","","","","","","","","","","key","f","8.333931192660645","853.3333333333334","476","j","false","nonmatch","img/circle.png","弱我","强她","prac_ALT2_ability","practice_ability","","","","","","","",""
"null","<span style='color:red; font-size: 70px;'>错误! </span>","null","html-keyboard-response","67","397031","0.0-8.0-1.0-1.0-0.0-1.28","6","6","7","5","6","5","5","5","5","5","5","2","1","2","2","1","2","2","2","5","5","5","5","5","4","4","4","5","5","7","8","8","8","7","8","7","9","8","6","7","4","7","7","7","7","7","7","7","6","7","7","7","6","7","7","7","5","7","7","7","7","7","7","7","7","7","7","7","7","7","7","7","6","7","7","7","6","7","590502391271391232","李","498","Female","[""坏她"",""好我"",""坏我"",""好她""]","[""弱她"",""强我"",""弱我"",""强她""]","","","","","","","","","","","","","","","","","","","","","","","","","","","","","","feedback_test","","","","","","","",""
"787","","j","psychophysics","68","398820","0.0-8.0-1.0-1.0-0.0-0.29","6","6","7","5","6","5","5","5","5","5","5","2","1","2","2","1","2","2","2","5","5","5","5","5","4","4","4","5","5","7","8","8","8","7","8","7","9","8","6","7","4","7","7","7","7","7","7","7","6","7","7","7","6","7","7","7","5","7","7","7","7","7","7","7","7","7","7","7","7","7","7","7","6","7","7","7","6","7","590502391271391232","李","498","Female","[""坏她"",""好我"",""坏我"",""好她""]","[""弱她"",""强我"",""弱我"",""强她""]","","","","","","","","nonmatch","","","","","","","","","","key","j","8.33353521126763","853.3333333333334","476","j","true","nonmatch","img/pentagon.png","弱她","弱我","prac_ALT2_ability","practice_ability","","","","","","","",""
"null","<span style='color:GreenYellow; font-size: 70px;'>正确! </span>","null","html-keyboard-response","69","399333","0.0-8.0-1.0-1.0-0.0-1.29","6","6","7","5","6","5","5","5","5","5","5","2","1","2","2","1","2","2","2","5","5","5","5","5","4","4","4","5","5","7","8","8","8","7","8","7","9","8","6","7","4","7","7","7","7","7","7","7","6","7","7","7","6","7","7","7","5","7","7","7","7","7","7","7","7","7","7","7","7","7","7","7","6","7","7","7","6","7","590502391271391232","李","498","Female","[""坏她"",""好我"",""坏我"",""好她""]","[""弱她"",""强我"",""弱我"",""强她""]","","","","","","","","","","","","","","","","","","","","","","","","","","","","","","feedback_test","","","","","","","",""
"886","","f","psychophysics","70","401219","0.0-8.0-1.0-1.0-0.0-0.30","6","6","7","5","6","5","5","5","5","5","5","2","1","2","2","1","2","2","2","5","5","5","5","5","4","4","4","5","5","7","8","8","8","7","8","7","9","8","6","7","4","7","7","7","7","7","7","7","6","7","7","7","6","7","7","7","5","7","7","7","7","7","7","7","7","7","7","7","7","7","7","7","6","7","7","7","6","7","590502391271391232","李","498","Female","[""坏她"",""好我"",""坏我"",""好她""]","[""弱她"",""强我"",""弱我"",""强她""]","","","","","","","","match","","","","","","","","","","key","f","8.332399999999907","853.3333333333334","476","f","true","match","img/square.png","弱她","弱她","prac_ALT2_ability","practice_ability","","","","","","","",""
"null","<span style='color:GreenYellow; font-size: 70px;'>正确! </span>","null","html-keyboard-response","71","401726","0.0-8.0-1.0-1.0-0.0-1.30","6","6","7","5","6","5","5","5","5","5","5","2","1","2","2","1","2","2","2","5","5","5","5","5","4","4","4","5","5","7","8","8","8","7","8","7","9","8","6","7","4","7","7","7","7","7","7","7","6","7","7","7","6","7","7","7","5","7","7","7","7","7","7","7","7","7","7","7","7","7","7","7","6","7","7","7","6","7","590502391271391232","李","498","Female","[""坏她"",""好我"",""坏我"",""好她""]","[""弱她"",""强我"",""弱我"",""强她""]","","","","","","","","","","","","","","","","","","","","","","","","","","","","","","feedback_test","","","","","","","",""
"724","","f","psychophysics","72","403452","0.0-8.0-1.0-1.0-0.0-0.31","6","6","7","5","6","5","5","5","5","5","5","2","1","2","2","1","2","2","2","5","5","5","5","5","4","4","4","5","5","7","8","8","8","7","8","7","9","8","6","7","4","7","7","7","7","7","7","7","6","7","7","7","6","7","7","7","5","7","7","7","7","7","7","7","7","7","7","7","7","7","7","7","6","7","7","7","6","7","590502391271391232","李","498","Female","[""坏她"",""好我"",""坏我"",""好她""]","[""弱她"",""强我"",""弱我"",""强她""]","","","","","","","","match","","","","","","","","","","key","f","8.332395121951235","853.3333333333334","476","f","true","match","img/pentagon.png","弱我","弱我","prac_ALT2_ability","practice_ability","","","","","","","",""
"null","<span style='color:GreenYellow; font-size: 70px;'>正确! </span>","null","html-keyboard-response","73","403958","0.0-8.0-1.0-1.0-0.0-1.31","6","6","7","5","6","5","5","5","5","5","5","2","1","2","2","1","2","2","2","5","5","5","5","5","4","4","4","5","5","7","8","8","8","7","8","7","9","8","6","7","4","7","7","7","7","7","7","7","6","7","7","7","6","7","7","7","5","7","7","7","7","7","7","7","7","7","7","7","7","7","7","7","6","7","7","7","6","7","590502391271391232","李","498","Female","[""坏她"",""好我"",""坏我"",""好她""]","[""弱她"",""强我"",""弱我"",""强她""]","","","","","","","","","","","","","","","","","","","","","","","","","","","","","","feedback_test","","","","","","","",""
"732","","f","psychophysics","74","405692","0.0-8.0-1.0-1.0-0.0-0.32","6","6","7","5","6","5","5","5","5","5","5","2","1","2","2","1","2","2","2","5","5","5","5","5","4","4","4","5","5","7","8","8","8","7","8","7","9","8","6","7","4","7","7","7","7","7","7","7","6","7","7","7","6","7","7","7","5","7","7","7","7","7","7","7","7","7","7","7","7","7","7","7","6","7","7","7","6","7","590502391271391232","李","498","Female","[""坏她"",""好我"",""坏我"",""好她""]","[""弱她"",""强我"",""弱我"",""强她""]","","","","","","","","match","","","","","","","","","","key","f","8.334927184465997","853.3333333333334","476","f","true","match","img/trapezoid.png","强我","强我","prac_ALT2_ability","practice_ability","","","","","","","",""
"null","<span style='color:GreenYellow; font-size: 70px;'>正确! </span>","null","html-keyboard-response","75","406193","0.0-8.0-1.0-1.0-0.0-1.32","6","6","7","5","6","5","5","5","5","5","5","2","1","2","2","1","2","2","2","5","5","5","5","5","4","4","4","5","5","7","8","8","8","7","8","7","9","8","6","7","4","7","7","7","7","7","7","7","6","7","7","7","6","7","7","7","5","7","7","7","7","7","7","7","7","7","7","7","7","7","7","7","6","7","7","7","6","7","590502391271391232","李","498","Female","[""坏她"",""好我"",""坏我"",""好她""]","[""弱她"",""强我"",""弱我"",""强她""]","","","","","","","","","","","","","","","","","","","","","","","","","","","","","","feedback_test","","","","","","","",""
"770","","f","psychophysics","76","407964","0.0-8.0-1.0-1.0-0.0-0.33","6","6","7","5","6","5","5","5","5","5","5","2","1","2","2","1","2","2","2","5","5","5","5","5","4","4","4","5","5","7","8","8","8","7","8","7","9","8","6","7","4","7","7","7","7","7","7","7","6","7","7","7","6","7","7","7","5","7","7","7","7","7","7","7","7","7","7","7","7","7","7","7","6","7","7","7","6","7","590502391271391232","李","498","Female","[""坏她"",""好我"",""坏我"",""好她""]","[""弱她"",""强我"",""弱我"",""强她""]","","","","","","","","match","","","","","","","","","","key","f","8.3345896226416","853.3333333333334","476","j","false","nonmatch","img/square.png","强我","弱她","prac_ALT2_ability","practice_ability","","","","","","","",""
"null","<span style='color:red; font-size: 70px;'>错误! </span>","null","html-keyboard-response","77","408471","0.0-8.0-1.0-1.0-0.0-1.33","6","6","7","5","6","5","5","5","5","5","5","2","1","2","2","1","2","2","2","5","5","5","5","5","4","4","4","5","5","7","8","8","8","7","8","7","9","8","6","7","4","7","7","7","7","7","7","7","6","7","7","7","6","7","7","7","5","7","7","7","7","7","7","7","7","7","7","7","7","7","7","7","6","7","7","7","6","7","590502391271391232","李","498","Female","[""坏她"",""好我"",""坏我"",""好她""]","[""弱她"",""强我"",""弱我"",""强她""]","","","","","","","","","","","","","","","","","","","","","","","","","","","","","","feedback_test","","","","","","","",""
"853","","f","psychophysics","78","410325","0.0-8.0-1.0-1.0-0.0-0.34","6","6","7","5","6","5","5","5","5","5","5","2","1","2","2","1","2","2","2","5","5","5","5","5","4","4","4","5","5","7","8","8","8","7","8","7","9","8","6","7","4","7","7","7","7","7","7","7","6","7","7","7","6","7","7","7","5","7","7","7","7","7","7","7","7","7","7","7","7","7","7","7","6","7","7","7","6","7","590502391271391232","李","498","Female","[""坏她"",""好我"",""坏我"",""好她""]","[""弱她"",""强我"",""弱我"",""强她""]","","","","","","","","match","","","","","","","","","","key","f","8.333140271493262","853.3333333333334","476","f","true","match","img/circle.png","强她","强她","prac_ALT2_ability","practice_ability","","","","","","","",""
"null","<span style='color:GreenYellow; font-size: 70px;'>正确! </span>","null","html-keyboard-response","79","410843","0.0-8.0-1.0-1.0-0.0-1.34","6","6","7","5","6","5","5","5","5","5","5","2","1","2","2","1","2","2","2","5","5","5","5","5","4","4","4","5","5","7","8","8","8","7","8","7","9","8","6","7","4","7","7","7","7","7","7","7","6","7","7","7","6","7","7","7","5","7","7","7","7","7","7","7","7","7","7","7","7","7","7","7","6","7","7","7","6","7","590502391271391232","李","498","Female","[""坏她"",""好我"",""坏我"",""好她""]","[""弱她"",""强我"",""弱我"",""强她""]","","","","","","","","","","","","","","","","","","","","","","","","","","","","","","feedback_test","","","","","","","",""
"769","","j","psychophysics","80","412613","0.0-8.0-1.0-1.0-0.0-0.35","6","6","7","5","6","5","5","5","5","5","5","2","1","2","2","1","2","2","2","5","5","5","5","5","4","4","4","5","5","7","8","8","8","7","8","7","9","8","6","7","4","7","7","7","7","7","7","7","6","7","7","7","6","7","7","7","5","7","7","7","7","7","7","7","7","7","7","7","7","7","7","7","6","7","7","7","6","7","590502391271391232","李","498","Female","[""坏她"",""好我"",""坏我"",""好她""]","[""弱她"",""强我"",""弱我"",""强她""]","","","","","","","","nonmatch","","","","","","","","","","key","j","8.333995260663498","853.3333333333334","476","j","true","nonmatch","img/trapezoid.png","弱她","强我","prac_ALT2_ability","practice_ability","","","","","","","",""
"null","<span style='color:GreenYellow; font-size: 70px;'>正确! </span>","null","html-keyboard-response","81","413120","0.0-8.0-1.0-1.0-0.0-1.35","6","6","7","5","6","5","5","5","5","5","5","2","1","2","2","1","2","2","2","5","5","5","5","5","4","4","4","5","5","7","8","8","8","7","8","7","9","8","6","7","4","7","7","7","7","7","7","7","6","7","7","7","6","7","7","7","5","7","7","7","7","7","7","7","7","7","7","7","7","7","7","7","6","7","7","7","6","7","590502391271391232","李","498","Female","[""坏她"",""好我"",""坏我"",""好她""]","[""弱她"",""强我"",""弱我"",""强她""]","","","","","","","","","","","","","","","","","","","","","","","","","","","","","","feedback_test","","","","","","","",""
"762","","f","psychophysics","82","414884","0.0-8.0-1.0-1.0-0.0-0.36","6","6","7","5","6","5","5","5","5","5","5","2","1","2","2","1","2","2","2","5","5","5","5","5","4","4","4","5","5","7","8","8","8","7","8","7","9","8","6","7","4","7","7","7","7","7","7","7","6","7","7","7","6","7","7","7","5","7","7","7","7","7","7","7","7","7","7","7","7","7","7","7","6","7","7","7","6","7","590502391271391232","李","498","Female","[""坏她"",""好我"",""坏我"",""好她""]","[""弱她"",""强我"",""弱我"",""强她""]","","","","","","","","match","","","","","","","","","","key","f","8.3348142857145","853.3333333333334","476","f","true","match","img/trapezoid.png","强我","强我","prac_ALT2_ability","practice_ability","","","","","","","",""
"null","<span style='color:GreenYellow; font-size: 70px;'>正确! </span>","null","html-keyboard-response","83","415390","0.0-8.0-1.0-1.0-0.0-1.36","6","6","7","5","6","5","5","5","5","5","5","2","1","2","2","1","2","2","2","5","5","5","5","5","4","4","4","5","5","7","8","8","8","7","8","7","9","8","6","7","4","7","7","7","7","7","7","7","6","7","7","7","6","7","7","7","5","7","7","7","7","7","7","7","7","7","7","7","7","7","7","7","6","7","7","7","6","7","590502391271391232","李","498","Female","[""坏她"",""好我"",""坏我"",""好她""]","[""弱她"",""强我"",""弱我"",""强她""]","","","","","","","","","","","","","","","","","","","","","","","","","","","","","","feedback_test","","","","","","","",""
"797","","f","psychophysics","84","417188","0.0-8.0-1.0-1.0-0.0-0.37","6","6","7","5","6","5","5","5","5","5","5","2","1","2","2","1","2","2","2","5","5","5","5","5","4","4","4","5","5","7","8","8","8","7","8","7","9","8","6","7","4","7","7","7","7","7","7","7","6","7","7","7","6","7","7","7","5","7","7","7","7","7","7","7","7","7","7","7","7","7","7","7","6","7","7","7","6","7","590502391271391232","李","498","Female","[""坏她"",""好我"",""坏我"",""好她""]","[""弱她"",""强我"",""弱我"",""强她""]","","","","","","","","match","","","","","","","","","","key","f","8.33181775700944","853.3333333333334","476","f","true","match","img/square.png","弱她","弱她","prac_ALT2_ability","practice_ability","","","","","","","",""
"null","<span style='color:GreenYellow; font-size: 70px;'>正确! </span>","null","html-keyboard-response","85","417695","0.0-8.0-1.0-1.0-0.0-1.37","6","6","7","5","6","5","5","5","5","5","5","2","1","2","2","1","2","2","2","5","5","5","5","5","4","4","4","5","5","7","8","8","8","7","8","7","9","8","6","7","4","7","7","7","7","7","7","7","6","7","7","7","6","7","7","7","5","7","7","7","7","7","7","7","7","7","7","7","7","7","7","7","6","7","7","7","6","7","590502391271391232","李","498","Female","[""坏她"",""好我"",""坏我"",""好她""]","[""弱她"",""强我"",""弱我"",""强她""]","","","","","","","","","","","","","","","","","","","","","","","","","","","","","","feedback_test","","","","","","","",""
"739","","f","psychophysics","86","419436","0.0-8.0-1.0-1.0-0.0-0.38","6","6","7","5","6","5","5","5","5","5","5","2","1","2","2","1","2","2","2","5","5","5","5","5","4","4","4","5","5","7","8","8","8","7","8","7","9","8","6","7","4","7","7","7","7","7","7","7","6","7","7","7","6","7","7","7","5","7","7","7","7","7","7","7","7","7","7","7","7","7","7","7","6","7","7","7","6","7","590502391271391232","李","498","Female","[""坏她"",""好我"",""坏我"",""好她""]","[""弱她"",""强我"",""弱我"",""强她""]","","","","","","","","match","","","","","","","","","","key","f","8.335434782608685","853.3333333333334","476","f","true","match","img/circle.png","强她","强她","prac_ALT2_ability","practice_ability","","","","","","","",""
"null","<span style='color:GreenYellow; font-size: 70px;'>正确! </span>","null","html-keyboard-response","87","419943","0.0-8.0-1.0-1.0-0.0-1.38","6","6","7","5","6","5","5","5","5","5","5","2","1","2","2","1","2","2","2","5","5","5","5","5","4","4","4","5","5","7","8","8","8","7","8","7","9","8","6","7","4","7","7","7","7","7","7","7","6","7","7","7","6","7","7","7","5","7","7","7","7","7","7","7","7","7","7","7","7","7","7","7","6","7","7","7","6","7","590502391271391232","李","498","Female","[""坏她"",""好我"",""坏我"",""好她""]","[""弱她"",""强我"",""弱我"",""强她""]","","","","","","","","","","","","","","","","","","","","","","","","","","","","","","feedback_test","","","","","","","",""
"780","","f","psychophysics","88","421724","0.0-8.0-1.0-1.0-0.0-0.39","6","6","7","5","6","5","5","5","5","5","5","2","1","2","2","1","2","2","2","5","5","5","5","5","4","4","4","5","5","7","8","8","8","7","8","7","9","8","6","7","4","7","7","7","7","7","7","7","6","7","7","7","6","7","7","7","5","7","7","7","7","7","7","7","7","7","7","7","7","7","7","7","6","7","7","7","6","7","590502391271391232","李","498","Female","[""坏她"",""好我"",""坏我"",""好她""]","[""弱她"",""强我"",""弱我"",""强她""]","","","","","","","","match","","","","","","","","","","key","f","8.335452830188585","853.3333333333334","476","j","false","nonmatch","img/square.png","强她","弱她","prac_ALT2_ability","practice_ability","","","","","","","",""
"null","<span style='color:red; font-size: 70px;'>错误! </span>","null","html-keyboard-response","89","422224","0.0-8.0-1.0-1.0-0.0-1.39","6","6","7","5","6","5","5","5","5","5","5","2","1","2","2","1","2","2","2","5","5","5","5","5","4","4","4","5","5","7","8","8","8","7","8","7","9","8","6","7","4","7","7","7","7","7","7","7","6","7","7","7","6","7","7","7","5","7","7","7","7","7","7","7","7","7","7","7","7","7","7","7","6","7","7","7","6","7","590502391271391232","李","498","Female","[""坏她"",""好我"",""坏我"",""好她""]","[""弱她"",""强我"",""弱我"",""强她""]","","","","","","","","","","","","","","","","","","","","","","","","","","","","","","feedback_test","","","","","","","",""
"650","","f","psychophysics","90","423875","0.0-8.0-1.0-1.0-0.0-0.40","6","6","7","5","6","5","5","5","5","5","5","2","1","2","2","1","2","2","2","5","5","5","5","5","4","4","4","5","5","7","8","8","8","7","8","7","9","8","6","7","4","7","7","7","7","7","7","7","6","7","7","7","6","7","7","7","5","7","7","7","7","7","7","7","7","7","7","7","7","7","7","7","6","7","7","7","6","7","590502391271391232","李","498","Female","[""坏她"",""好我"",""坏我"",""好她""]","[""弱她"",""强我"",""弱我"",""强她""]","","","","","","","","match","","","","","","","","","","key","f","8.335131979695472","853.3333333333334","476","f","true","match","img/pentagon.png","弱我","弱我","prac_ALT2_ability","practice_ability","","","","","","","",""
"null","<span style='color:GreenYellow; font-size: 70px;'>正确! </span>","null","html-keyboard-response","91","424383","0.0-8.0-1.0-1.0-0.0-1.40","6","6","7","5","6","5","5","5","5","5","5","2","1","2","2","1","2","2","2","5","5","5","5","5","4","4","4","5","5","7","8","8","8","7","8","7","9","8","6","7","4","7","7","7","7","7","7","7","6","7","7","7","6","7","7","7","5","7","7","7","7","7","7","7","7","7","7","7","7","7","7","7","6","7","7","7","6","7","590502391271391232","李","498","Female","[""坏她"",""好我"",""坏我"",""好她""]","[""弱她"",""强我"",""弱我"",""强她""]","","","","","","","","","","","","","","","","","","","","","","","","","","","","","","feedback_test","","","","","","","",""
"611","","f","psychophysics","92","425995","0.0-8.0-1.0-1.0-0.0-0.41","6","6","7","5","6","5","5","5","5","5","5","2","1","2","2","1","2","2","2","5","5","5","5","5","4","4","4","5","5","7","8","8","8","7","8","7","9","8","6","7","4","7","7","7","7","7","7","7","6","7","7","7","6","7","7","7","5","7","7","7","7","7","7","7","7","7","7","7","7","7","7","7","6","7","7","7","6","7","590502391271391232","李","498","Female","[""坏她"",""好我"",""坏我"",""好她""]","[""弱她"",""强我"",""弱我"",""强她""]","","","","","","","","match","","","","","","","","","","key","f","8.334848958333472","853.3333333333334","476","f","true","match","img/trapezoid.png","强我","强我","prac_ALT2_ability","practice_ability","","","","","","","",""
"null","<span style='color:GreenYellow; font-size: 70px;'>正确! </span>","null","html-keyboard-response","93","426504","0.0-8.0-1.0-1.0-0.0-1.41","6","6","7","5","6","5","5","5","5","5","5","2","1","2","2","1","2","2","2","5","5","5","5","5","4","4","4","5","5","7","8","8","8","7","8","7","9","8","6","7","4","7","7","7","7","7","7","7","6","7","7","7","6","7","7","7","5","7","7","7","7","7","7","7","7","7","7","7","7","7","7","7","6","7","7","7","6","7","590502391271391232","李","498","Female","[""坏她"",""好我"",""坏我"",""好她""]","[""弱她"",""强我"",""弱我"",""强她""]","","","","","","","","","","","","","","","","","","","","","","","","","","","","","","feedback_test","","","","","","","",""
"812","","j","psychophysics","94","428317","0.0-8.0-1.0-1.0-0.0-0.42","6","6","7","5","6","5","5","5","5","5","5","2","1","2","2","1","2","2","2","5","5","5","5","5","4","4","4","5","5","7","8","8","8","7","8","7","9","8","6","7","4","7","7","7","7","7","7","7","6","7","7","7","6","7","7","7","5","7","7","7","7","7","7","7","7","7","7","7","7","7","7","7","6","7","7","7","6","7","590502391271391232","李","498","Female","[""坏她"",""好我"",""坏我"",""好她""]","[""弱她"",""强我"",""弱我"",""强她""]","","","","","","","","nonmatch","","","","","","","","","","key","j","8.335263888888692","853.3333333333334","476","j","true","nonmatch","img/square.png","弱我","弱她","prac_ALT2_ability","practice_ability","","","","","","","",""
"null","<span style='color:GreenYellow; font-size: 70px;'>正确! </span>","null","html-keyboard-response","95","428824","0.0-8.0-1.0-1.0-0.0-1.42","6","6","7","5","6","5","5","5","5","5","5","2","1","2","2","1","2","2","2","5","5","5","5","5","4","4","4","5","5","7","8","8","8","7","8","7","9","8","6","7","4","7","7","7","7","7","7","7","6","7","7","7","6","7","7","7","5","7","7","7","7","7","7","7","7","7","7","7","7","7","7","7","6","7","7","7","6","7","590502391271391232","李","498","Female","[""坏她"",""好我"",""坏我"",""好她""]","[""弱她"",""强我"",""弱我"",""强她""]","","","","","","","","","","","","","","","","","","","","","","","","","","","","","","feedback_test","","","","","","","",""
"754","","j","psychophysics","96","430580","0.0-8.0-1.0-1.0-0.0-0.43","6","6","7","5","6","5","5","5","5","5","5","2","1","2","2","1","2","2","2","5","5","5","5","5","4","4","4","5","5","7","8","8","8","7","8","7","9","8","6","7","4","7","7","7","7","7","7","7","6","7","7","7","6","7","7","7","5","7","7","7","7","7","7","7","7","7","7","7","7","7","7","7","6","7","7","7","6","7","590502391271391232","李","498","Female","[""坏她"",""好我"",""坏我"",""好她""]","[""弱她"",""强我"",""弱我"",""强她""]","","","","","","","","nonmatch","","","","","","","","","","key","j","8.332387559808808","853.3333333333334","476","j","true","nonmatch","img/trapezoid.png","强她","强我","prac_ALT2_ability","practice_ability","","","","","","","",""
"null","<span style='color:GreenYellow; font-size: 70px;'>正确! </span>","null","html-keyboard-response","97","431087","0.0-8.0-1.0-1.0-0.0-1.43","6","6","7","5","6","5","5","5","5","5","5","2","1","2","2","1","2","2","2","5","5","5","5","5","4","4","4","5","5","7","8","8","8","7","8","7","9","8","6","7","4","7","7","7","7","7","7","7","6","7","7","7","6","7","7","7","5","7","7","7","7","7","7","7","7","7","7","7","7","7","7","7","6","7","7","7","6","7","590502391271391232","李","498","Female","[""坏她"",""好我"",""坏我"",""好她""]","[""弱她"",""强我"",""弱我"",""强她""]","","","","","","","","","","","","","","","","","","","","","","","","","","","","","","feedback_test","","","","","","","",""
"756","","j","psychophysics","98","432844","0.0-8.0-1.0-1.0-0.0-0.44","6","6","7","5","6","5","5","5","5","5","5","2","1","2","2","1","2","2","2","5","5","5","5","5","4","4","4","5","5","7","8","8","8","7","8","7","9","8","6","7","4","7","7","7","7","7","7","7","6","7","7","7","6","7","7","7","5","7","7","7","7","7","7","7","7","7","7","7","7","7","7","7","6","7","7","7","6","7","590502391271391232","李","498","Female","[""坏她"",""好我"",""坏我"",""好她""]","[""弱她"",""强我"",""弱我"",""强她""]","","","","","","","","nonmatch","","","","","","","","","","key","j","8.33407177033491","853.3333333333334","476","j","true","nonmatch","img/circle.png","弱她","强她","prac_ALT2_ability","practice_ability","","","","","","","",""
"null","<span style='color:GreenYellow; font-size: 70px;'>正确! </span>","null","html-keyboard-response","99","433345","0.0-8.0-1.0-1.0-0.0-1.44","6","6","7","5","6","5","5","5","5","5","5","2","1","2","2","1","2","2","2","5","5","5","5","5","4","4","4","5","5","7","8","8","8","7","8","7","9","8","6","7","4","7","7","7","7","7","7","7","6","7","7","7","6","7","7","7","5","7","7","7","7","7","7","7","7","7","7","7","7","7","7","7","6","7","7","7","6","7","590502391271391232","李","498","Female","[""坏她"",""好我"",""坏我"",""好她""]","[""弱她"",""强我"",""弱我"",""强她""]","","","","","","","","","","","","","","","","","","","","","","","","","","","","","","feedback_test","","","","","","","",""
"594","","f","psychophysics","100","434939","0.0-8.0-1.0-1.0-0.0-0.45","6","6","7","5","6","5","5","5","5","5","5","2","1","2","2","1","2","2","2","5","5","5","5","5","4","4","4","5","5","7","8","8","8","7","8","7","9","8","6","7","4","7","7","7","7","7","7","7","6","7","7","7","6","7","7","7","5","7","7","7","7","7","7","7","7","7","7","7","7","7","7","7","6","7","7","7","6","7","590502391271391232","李","498","Female","[""坏她"",""好我"",""坏我"",""好她""]","[""弱她"",""强我"",""弱我"",""强她""]","","","","","","","","match","","","","","","","","","","key","f","8.362412698412617","853.3333333333334","476","f","true","match","img/circle.png","强她","强她","prac_ALT2_ability","practice_ability","","","","","","","",""
"null","<span style='color:GreenYellow; font-size: 70px;'>正确! </span>","null","html-keyboard-response","101","435447","0.0-8.0-1.0-1.0-0.0-1.45","6","6","7","5","6","5","5","5","5","5","5","2","1","2","2","1","2","2","2","5","5","5","5","5","4","4","4","5","5","7","8","8","8","7","8","7","9","8","6","7","4","7","7","7","7","7","7","7","6","7","7","7","6","7","7","7","5","7","7","7","7","7","7","7","7","7","7","7","7","7","7","7","6","7","7","7","6","7","590502391271391232","李","498","Female","[""坏她"",""好我"",""坏我"",""好她""]","[""弱她"",""强我"",""弱我"",""强她""]","","","","","","","","","","","","","","","","","","","","","","","","","","","","","","feedback_test","","","","","","","",""
"940","","f","psychophysics","102","437388","0.0-8.0-1.0-1.0-0.0-0.46","6","6","7","5","6","5","5","5","5","5","5","2","1","2","2","1","2","2","2","5","5","5","5","5","4","4","4","5","5","7","8","8","8","7","8","7","9","8","6","7","4","7","7","7","7","7","7","7","6","7","7","7","6","7","7","7","5","7","7","7","7","7","7","7","7","7","7","7","7","7","7","7","6","7","7","7","6","7","590502391271391232","李","498","Female","[""坏她"",""好我"",""坏我"",""好她""]","[""弱她"",""强我"",""弱我"",""强她""]","","","","","","","","match","","","","","","","","","","key","f","8.334285714285846","853.3333333333334","476","j","false","nonmatch","img/pentagon.png","强我","弱我","prac_ALT2_ability","practice_ability","","","","","","","",""
"null","<span style='color:red; font-size: 70px;'>错误! </span>","null","html-keyboard-response","103","437895","0.0-8.0-1.0-1.0-0.0-1.46","6","6","7","5","6","5","5","5","5","5","5","2","1","2","2","1","2","2","2","5","5","5","5","5","4","4","4","5","5","7","8","8","8","7","8","7","9","8","6","7","4","7","7","7","7","7","7","7","6","7","7","7","6","7","7","7","5","7","7","7","7","7","7","7","7","7","7","7","7","7","7","7","6","7","7","7","6","7","590502391271391232","李","498","Female","[""坏她"",""好我"",""坏我"",""好她""]","[""弱她"",""强我"",""弱我"",""强她""]","","","","","","","","","","","","","","","","","","","","","","","","","","","","","","feedback_test","","","","","","","",""
"779","","f","psychophysics","104","439676","0.0-8.0-1.0-1.0-0.0-0.47","6","6","7","5","6","5","5","5","5","5","5","2","1","2","2","1","2","2","2","5","5","5","5","5","4","4","4","5","5","7","8","8","8","7","8","7","9","8","6","7","4","7","7","7","7","7","7","7","6","7","7","7","6","7","7","7","5","7","7","7","7","7","7","7","7","7","7","7","7","7","7","7","6","7","7","7","6","7","590502391271391232","李","498","Female","[""坏她"",""好我"",""坏我"",""好她""]","[""弱她"",""强我"",""弱我"",""强她""]","","","","","","","","match","","","","","","","","","","key","f","8.33475000000002","853.3333333333334","476","j","false","nonmatch","img/trapezoid.png","弱我","强我","prac_ALT2_ability","practice_ability","","","","","","","",""
"null","<span style='color:red; font-size: 70px;'>错误! </span>","null","html-keyboard-response","105","440183","0.0-8.0-1.0-1.0-0.0-1.47","6","6","7","5","6","5","5","5","5","5","5","2","1","2","2","1","2","2","2","5","5","5","5","5","4","4","4","5","5","7","8","8","8","7","8","7","9","8","6","7","4","7","7","7","7","7","7","7","6","7","7","7","6","7","7","7","5","7","7","7","7","7","7","7","7","7","7","7","7","7","7","7","6","7","7","7","6","7","590502391271391232","李","498","Female","[""坏她"",""好我"",""坏我"",""好她""]","[""弱她"",""强我"",""弱我"",""强她""]","","","","","","","","","","","","","","","","","","","","","","","","","","","","","","feedback_test","","","","","","","",""
"2595","<style>.context{color:white; font-size: 35px; line-height:40px}</style>                          <div><p class='context'>您正确回答了81% 的试次。</p><p class='context'>您的平均反应时为798毫秒。</p><p class='context'>恭喜您完成练习。按空格键进入正式实验。</p><p class='footer' style='color:white;font-size: 35px; line-height:40px;'>请在进入正式实验实验之前将您的<span style='color: lightgreen;'>食指</span>放在电脑键盘的相应键位上进行按键。</p>"," ","html-keyboard-response","106","442780","0.0-8.0-1.0-2.0","6","6","7","5","6","5","5","5","5","5","5","2","1","2","2","1","2","2","2","5","5","5","5","5","4","4","4","5","5","7","8","8","8","7","8","7","9","8","6","7","4","7","7","7","7","7","7","7","6","7","7","7","6","7","7","7","5","7","7","7","7","7","7","7","7","7","7","7","7","7","7","7","6","7","7","7","6","7","590502391271391232","李","498","Female","[""坏她"",""好我"",""坏我"",""好她""]","[""弱她"",""强我"",""弱我"",""强她""]","","","","","","","","","","","","","","","","","","","","","","","","","","","","","","","","","","","","","",""
"494","
  <p style='color: white; font-size: 22px'>请您将手指放在按键上，准备进入正式的匹配任务。</p>
  <p> <div style = ""color: green""><按空格键进入下一阶段的匹配任务></div></p>
  "," ","html-keyboard-response","107","443275","0.0-8.0-1.0-3.0","6","6","7","5","6","5","5","5","5","5","5","2","1","2","2","1","2","2","2","5","5","5","5","5","4","4","4","5","5","7","8","8","8","7","8","7","9","8","6","7","4","7","7","7","7","7","7","7","6","7","7","7","6","7","7","7","5","7","7","7","7","7","7","7","7","7","7","7","7","7","7","7","6","7","7","7","6","7","590502391271391232","李","498","Female","[""坏她"",""好我"",""坏我"",""好她""]","[""弱她"",""强我"",""弱我"",""强她""]","","","","","","","","","","","","","","","","","","","","","","","","","","","","","","","","","","","","","",""
"847","","j","psychophysics","108","445123","0.0-8.0-1.0-4.0-0.0-0.0","6","6","7","5","6","5","5","5","5","5","5","2","1","2","2","1","2","2","2","5","5","5","5","5","4","4","4","5","5","7","8","8","8","7","8","7","9","8","6","7","4","7","7","7","7","7","7","7","6","7","7","7","6","7","7","7","5","7","7","7","7","7","7","7","7","7","7","7","7","7","7","7","6","7","7","7","6","7","590502391271391232","李","498","Female","[""坏她"",""好我"",""坏我"",""好她""]","[""弱她"",""强我"",""弱我"",""强她""]","","","","","","","","nonmatch","","","","","","","","","","key","j","8.333415525114072","853.3333333333334","476","j","true","nonmatch","img/pentagon.png","弱她","弱我","ALT2","ability","","","","","","","",""
"null","<span style='color:GreenYellow; font-size: 70px;'>正确! </span>","null","html-keyboard-response","109","445631","0.0-8.0-1.0-4.0-0.0-1.0","6","6","7","5","6","5","5","5","5","5","5","2","1","2","2","1","2","2","2","5","5","5","5","5","4","4","4","5","5","7","8","8","8","7","8","7","9","8","6","7","4","7","7","7","7","7","7","7","6","7","7","7","6","7","7","7","5","7","7","7","7","7","7","7","7","7","7","7","7","7","7","7","6","7","7","7","6","7","590502391271391232","李","498","Female","[""坏她"",""好我"",""坏我"",""好她""]","[""弱她"",""强我"",""弱我"",""强她""]","","","","","","","","","","","","","","","","","","","","","","","","","","","","","","feedback_test","","","","","","","",""
"755","","j","psychophysics","110","447388","0.0-8.0-1.0-4.0-0.0-0.1","6","6","7","5","6","5","5","5","5","5","5","2","1","2","2","1","2","2","2","5","5","5","5","5","4","4","4","5","5","7","8","8","8","7","8","7","9","8","6","7","4","7","7","7","7","7","7","7","6","7","7","7","6","7","7","7","5","7","7","7","7","7","7","7","7","7","7","7","7","7","7","7","6","7","7","7","6","7","590502391271391232","李","498","Female","[""坏她"",""好我"",""坏我"",""好她""]","[""弱她"",""强我"",""弱我"",""强她""]","","","","","","","","nonmatch","","","","","","","","","","key","j","8.332071770334887","853.3333333333334","476","j","true","nonmatch","img/circle.png","强我","强她","ALT2","ability","","","","","","","",""
"null","<span style='color:GreenYellow; font-size: 70px;'>正确! </span>","null","html-keyboard-response","111","447890","0.0-8.0-1.0-4.0-0.0-1.1","6","6","7","5","6","5","5","5","5","5","5","2","1","2","2","1","2","2","2","5","5","5","5","5","4","4","4","5","5","7","8","8","8","7","8","7","9","8","6","7","4","7","7","7","7","7","7","7","6","7","7","7","6","7","7","7","5","7","7","7","7","7","7","7","7","7","7","7","7","7","7","7","6","7","7","7","6","7","590502391271391232","李","498","Female","[""坏她"",""好我"",""坏我"",""好她""]","[""弱她"",""强我"",""弱我"",""强她""]","","","","","","","","","","","","","","","","","","","","","","","","","","","","","","feedback_test","","","","","","","",""
"576","","f","psychophysics","112","449468","0.0-8.0-1.0-4.0-0.0-0.2","6","6","7","5","6","5","5","5","5","5","5","2","1","2","2","1","2","2","2","5","5","5","5","5","4","4","4","5","5","7","8","8","8","7","8","7","9","8","6","7","4","7","7","7","7","7","7","7","6","7","7","7","6","7","7","7","5","7","7","7","7","7","7","7","7","7","7","7","7","7","7","7","6","7","7","7","6","7","590502391271391232","李","498","Female","[""坏她"",""好我"",""坏我"",""好她""]","[""弱她"",""强我"",""弱我"",""强她""]","","","","","","","","match","","","","","","","","","","key","f","8.334159574468009","853.3333333333334","476","f","true","match","img/circle.png","强她","强她","ALT2","ability","","","","","","","",""
"null","<span style='color:GreenYellow; font-size: 70px;'>正确! </span>","null","html-keyboard-response","113","449974","0.0-8.0-1.0-4.0-0.0-1.2","6","6","7","5","6","5","5","5","5","5","5","2","1","2","2","1","2","2","2","5","5","5","5","5","4","4","4","5","5","7","8","8","8","7","8","7","9","8","6","7","4","7","7","7","7","7","7","7","6","7","7","7","6","7","7","7","5","7","7","7","7","7","7","7","7","7","7","7","7","7","7","7","6","7","7","7","6","7","590502391271391232","李","498","Female","[""坏她"",""好我"",""坏我"",""好她""]","[""弱她"",""强我"",""弱我"",""强她""]","","","","","","","","","","","","","","","","","","","","","","","","","","","","","","feedback_test","","","","","","","",""
"1013","","f","psychophysics","114","451988","0.0-8.0-1.0-4.0-0.0-0.3","6","6","7","5","6","5","5","5","5","5","5","2","1","2","2","1","2","2","2","5","5","5","5","5","4","4","4","5","5","7","8","8","8","7","8","7","9","8","6","7","4","7","7","7","7","7","7","7","6","7","7","7","6","7","7","7","5","7","7","7","7","7","7","7","7","7","7","7","7","7","7","7","6","7","7","7","6","7","590502391271391232","李","498","Female","[""坏她"",""好我"",""坏我"",""好她""]","[""弱她"",""强我"",""弱我"",""强她""]","","","","","","","","match","","","","","","","","","","key","f","8.33322916666657","853.3333333333334","476","j","false","nonmatch","img/square.png","弱我","弱她","ALT2","ability","","","","","","","",""
"null","<span style='color:red; font-size: 70px;'>错误! </span>","null","html-keyboard-response","115","452494","0.0-8.0-1.0-4.0-0.0-1.3","6","6","7","5","6","5","5","5","5","5","5","2","1","2","2","1","2","2","2","5","5","5","5","5","4","4","4","5","5","7","8","8","8","7","8","7","9","8","6","7","4","7","7","7","7","7","7","7","6","7","7","7","6","7","7","7","5","7","7","7","7","7","7","7","7","7","7","7","7","7","7","7","6","7","7","7","6","7","590502391271391232","李","498","Female","[""坏她"",""好我"",""坏我"",""好她""]","[""弱她"",""强我"",""弱我"",""强她""]","","","","","","","","","","","","","","","","","","","","","","","","","","","","","","feedback_test","","","","","","","",""
"661","","j","psychophysics","116","454155","0.0-8.0-1.0-4.0-0.0-0.4","6","6","7","5","6","5","5","5","5","5","5","2","1","2","2","1","2","2","2","5","5","5","5","5","4","4","4","5","5","7","8","8","8","7","8","7","9","8","6","7","4","7","7","7","7","7","7","7","6","7","7","7","6","7","7","7","5","7","7","7","7","7","7","7","7","7","7","7","7","7","7","7","6","7","7","7","6","7","590502391271391232","李","498","Female","[""坏她"",""好我"",""坏我"",""好她""]","[""弱她"",""强我"",""弱我"",""强她""]","","","","","","","","nonmatch","","","","","","","","","","key","j","8.332797979798128","853.3333333333334","476","j","true","nonmatch","img/circle.png","弱我","强她","ALT2","ability","","","","","","","",""
"null","<span style='color:GreenYellow; font-size: 70px;'>正确! </span>","null","html-keyboard-response","117","454661","0.0-8.0-1.0-4.0-0.0-1.4","6","6","7","5","6","5","5","5","5","5","5","2","1","2","2","1","2","2","2","5","5","5","5","5","4","4","4","5","5","7","8","8","8","7","8","7","9","8","6","7","4","7","7","7","7","7","7","7","6","7","7","7","6","7","7","7","5","7","7","7","7","7","7","7","7","7","7","7","7","7","7","7","6","7","7","7","6","7","590502391271391232","李","498","Female","[""坏她"",""好我"",""坏我"",""好她""]","[""弱她"",""强我"",""弱我"",""强她""]","","","","","","","","","","","","","","","","","","","","","","","","","","","","","","feedback_test","","","","","","","",""
"725","","f","psychophysics","118","456387","0.0-8.0-1.0-4.0-0.0-0.5","6","6","7","5","6","5","5","5","5","5","5","2","1","2","2","1","2","2","2","5","5","5","5","5","4","4","4","5","5","7","8","8","8","7","8","7","9","8","6","7","4","7","7","7","7","7","7","7","6","7","7","7","6","7","7","7","5","7","7","7","7","7","7","7","7","7","7","7","7","7","7","7","6","7","7","7","6","7","590502391271391232","李","498","Female","[""坏她"",""好我"",""坏我"",""好她""]","[""弱她"",""强我"",""弱我"",""强她""]","","","","","","","","match","","","","","","","","","","key","f","8.332780487805026","853.3333333333334","476","f","true","match","img/trapezoid.png","强我","强我","ALT2","ability","","","","","","","",""
"null","<span style='color:GreenYellow; font-size: 70px;'>正确! </span>","null","html-keyboard-response","119","456895","0.0-8.0-1.0-4.0-0.0-1.5","6","6","7","5","6","5","5","5","5","5","5","2","1","2","2","1","2","2","2","5","5","5","5","5","4","4","4","5","5","7","8","8","8","7","8","7","9","8","6","7","4","7","7","7","7","7","7","7","6","7","7","7","6","7","7","7","5","7","7","7","7","7","7","7","7","7","7","7","7","7","7","7","6","7","7","7","6","7","590502391271391232","李","498","Female","[""坏她"",""好我"",""坏我"",""好她""]","[""弱她"",""强我"",""弱我"",""强她""]","","","","","","","","","","","","","","","","","","","","","","","","","","","","","","feedback_test","","","","","","","",""
"1011","","f","psychophysics","120","458907","0.0-8.0-1.0-4.0-0.0-0.6","6","6","7","5","6","5","5","5","5","5","5","2","1","2","2","1","2","2","2","5","5","5","5","5","4","4","4","5","5","7","8","8","8","7","8","7","9","8","6","7","4","7","7","7","7","7","7","7","6","7","7","7","6","7","7","7","5","7","7","7","7","7","7","7","7","7","7","7","7","7","7","7","6","7","7","7","6","7","590502391271391232","李","498","Female","[""坏她"",""好我"",""坏我"",""好她""]","[""弱她"",""强我"",""弱我"",""强她""]","","","","","","","","match","","","","","","","","","","key","f","8.331925000000046","853.3333333333334","476","f","true","match","img/circle.png","强她","强她","ALT2","ability","","","","","","","",""
"null","<span style='color:GreenYellow; font-size: 70px;'>正确! </span>","null","html-keyboard-response","121","459408","0.0-8.0-1.0-4.0-0.0-1.6","6","6","7","5","6","5","5","5","5","5","5","2","1","2","2","1","2","2","2","5","5","5","5","5","4","4","4","5","5","7","8","8","8","7","8","7","9","8","6","7","4","7","7","7","7","7","7","7","6","7","7","7","6","7","7","7","5","7","7","7","7","7","7","7","7","7","7","7","7","7","7","7","6","7","7","7","6","7","590502391271391232","李","498","Female","[""坏她"",""好我"",""坏我"",""好她""]","[""弱她"",""强我"",""弱我"",""强她""]","","","","","","","","","","","","","","","","","","","","","","","","","","","","","","feedback_test","","","","","","","",""
"null","","null","psychophysics","122","461610","0.0-8.0-1.0-4.0-0.0-0.7","6","6","7","5","6","5","5","5","5","5","5","2","1","2","2","1","2","2","2","5","5","5","5","5","4","4","4","5","5","7","8","8","8","7","8","7","9","8","6","7","4","7","7","7","7","7","7","7","6","7","7","7","6","7","7","7","5","7","7","7","7","7","7","7","7","7","7","7","7","7","7","7","6","7","7","7","6","7","590502391271391232","李","498","Female","[""坏她"",""好我"",""坏我"",""好她""]","[""弱她"",""强我"",""弱我"",""强她""]","","","","","","","","null","","","","","","","","","","key","null","8.332585551330693","853.3333333333334","476","j","false","nonmatch","img/trapezoid.png","弱我","强我","ALT2","ability","","","","","","","",""
"null","<span class='add_' style='color:yellow; font-size: 70px;'> 太慢! </span>","null","html-keyboard-response","123","462117","0.0-8.0-1.0-4.0-0.0-1.7","6","6","7","5","6","5","5","5","5","5","5","2","1","2","2","1","2","2","2","5","5","5","5","5","4","4","4","5","5","7","8","8","8","7","8","7","9","8","6","7","4","7","7","7","7","7","7","7","6","7","7","7","6","7","7","7","5","7","7","7","7","7","7","7","7","7","7","7","7","7","7","7","6","7","7","7","6","7","590502391271391232","李","498","Female","[""坏她"",""好我"",""坏我"",""好她""]","[""弱她"",""强我"",""弱我"",""强她""]","","","","","","","","","","","","","","","","","","","","","","","","","","","","","","feedback_test","","","","","","","",""
"669","","f","psychophysics","124","463788","0.0-8.0-1.0-4.0-0.0-0.8","6","6","7","5","6","5","5","5","5","5","5","2","1","2","2","1","2","2","2","5","5","5","5","5","4","4","4","5","5","7","8","8","8","7","8","7","9","8","6","7","4","7","7","7","7","7","7","7","6","7","7","7","6","7","7","7","5","7","7","7","7","7","7","7","7","7","7","7","7","7","7","7","6","7","7","7","6","7","590502391271391232","李","498","Female","[""坏她"",""好我"",""坏我"",""好她""]","[""弱她"",""强我"",""弱我"",""强她""]","","","","","","","","match","","","","","","","","","","key","f","8.333738693467286","853.3333333333334","476","f","true","match","img/pentagon.png","弱我","弱我","ALT2","ability","","","","","","","",""
"null","<span style='color:GreenYellow; font-size: 70px;'>正确! </span>","null","html-keyboard-response","125","464295","0.0-8.0-1.0-4.0-0.0-1.8","6","6","7","5","6","5","5","5","5","5","5","2","1","2","2","1","2","2","2","5","5","5","5","5","4","4","4","5","5","7","8","8","8","7","8","7","9","8","6","7","4","7","7","7","7","7","7","7","6","7","7","7","6","7","7","7","5","7","7","7","7","7","7","7","7","7","7","7","7","7","7","7","6","7","7","7","6","7","590502391271391232","李","498","Female","[""坏她"",""好我"",""坏我"",""好她""]","[""弱她"",""强我"",""弱我"",""强她""]","","","","","","","","","","","","","","","","","","","","","","","","","","","","","","feedback_test","","","","","","","",""
"619","","f","psychophysics","126","465915","0.0-8.0-1.0-4.0-0.0-0.9","6","6","7","5","6","5","5","5","5","5","5","2","1","2","2","1","2","2","2","5","5","5","5","5","4","4","4","5","5","7","8","8","8","7","8","7","9","8","6","7","4","7","7","7","7","7","7","7","6","7","7","7","6","7","7","7","5","7","7","7","7","7","7","7","7","7","7","7","7","7","7","7","6","7","7","7","6","7","590502391271391232","李","498","Female","[""坏她"",""好我"",""坏我"",""好她""]","[""弱她"",""强我"",""弱我"",""强她""]","","","","","","","","match","","","","","","","","","","key","f","8.335103626943246","853.3333333333334","476","f","true","match","img/trapezoid.png","强我","强我","ALT2","ability","","","","","","","",""
"null","<span style='color:GreenYellow; font-size: 70px;'>正确! </span>","null","html-keyboard-response","127","466422","0.0-8.0-1.0-4.0-0.0-1.9","6","6","7","5","6","5","5","5","5","5","5","2","1","2","2","1","2","2","2","5","5","5","5","5","4","4","4","5","5","7","8","8","8","7","8","7","9","8","6","7","4","7","7","7","7","7","7","7","6","7","7","7","6","7","7","7","5","7","7","7","7","7","7","7","7","7","7","7","7","7","7","7","6","7","7","7","6","7","590502391271391232","李","498","Female","[""坏她"",""好我"",""坏我"",""好她""]","[""弱她"",""强我"",""弱我"",""强她""]","","","","","","","","","","","","","","","","","","","","","","","","","","","","","","feedback_test","","","","","","","",""
"740","","j","psychophysics","128","468163","0.0-8.0-1.0-4.0-0.0-0.10","6","6","7","5","6","5","5","5","5","5","5","2","1","2","2","1","2","2","2","5","5","5","5","5","4","4","4","5","5","7","8","8","8","7","8","7","9","8","6","7","4","7","7","7","7","7","7","7","6","7","7","7","6","7","7","7","5","7","7","7","7","7","7","7","7","7","7","7","7","7","7","7","6","7","7","7","6","7","590502391271391232","李","498","Female","[""坏她"",""好我"",""坏我"",""好她""]","[""弱她"",""强我"",""弱我"",""强她""]","","","","","","","","nonmatch","","","","","","","","","","key","j","8.334937198067609","853.3333333333334","476","j","true","nonmatch","img/pentagon.png","强她","弱我","ALT2","ability","","","","","","","",""
"null","<span style='color:GreenYellow; font-size: 70px;'>正确! </span>","null","html-keyboard-response","129","468671","0.0-8.0-1.0-4.0-0.0-1.10","6","6","7","5","6","5","5","5","5","5","5","2","1","2","2","1","2","2","2","5","5","5","5","5","4","4","4","5","5","7","8","8","8","7","8","7","9","8","6","7","4","7","7","7","7","7","7","7","6","7","7","7","6","7","7","7","5","7","7","7","7","7","7","7","7","7","7","7","7","7","7","7","6","7","7","7","6","7","590502391271391232","李","498","Female","[""坏她"",""好我"",""坏我"",""好她""]","[""弱她"",""强我"",""弱我"",""强她""]","","","","","","","","","","","","","","","","","","","","","","","","","","","","","","feedback_test","","","","","","","",""
"843","","j","psychophysics","130","470515","0.0-8.0-1.0-4.0-0.0-0.11","6","6","7","5","6","5","5","5","5","5","5","2","1","2","2","1","2","2","2","5","5","5","5","5","4","4","4","5","5","7","8","8","8","7","8","7","9","8","6","7","4","7","7","7","7","7","7","7","6","7","7","7","6","7","7","7","5","7","7","7","7","7","7","7","7","7","7","7","7","7","7","7","6","7","7","7","6","7","590502391271391232","李","498","Female","[""坏她"",""好我"",""坏我"",""好她""]","[""弱她"",""强我"",""弱我"",""强她""]","","","","","","","","nonmatch","","","","","","","","","","key","j","8.333513636363733","853.3333333333334","476","j","true","nonmatch","img/circle.png","弱她","强她","ALT2","ability","","","","","","","",""
"null","<span style='color:GreenYellow; font-size: 70px;'>正确! </span>","null","html-keyboard-response","131","471022","0.0-8.0-1.0-4.0-0.0-1.11","6","6","7","5","6","5","5","5","5","5","5","2","1","2","2","1","2","2","2","5","5","5","5","5","4","4","4","5","5","7","8","8","8","7","8","7","9","8","6","7","4","7","7","7","7","7","7","7","6","7","7","7","6","7","7","7","5","7","7","7","7","7","7","7","7","7","7","7","7","7","7","7","6","7","7","7","6","7","590502391271391232","李","498","Female","[""坏她"",""好我"",""坏我"",""好她""]","[""弱她"",""强我"",""弱我"",""强她""]","","","","","","","","","","","","","","","","","","","","","","","","","","","","","","feedback_test","","","","","","","",""
"844","","f","psychophysics","132","472867","0.0-8.0-1.0-4.0-0.0-0.12","6","6","7","5","6","5","5","5","5","5","5","2","1","2","2","1","2","2","2","5","5","5","5","5","4","4","4","5","5","7","8","8","8","7","8","7","9","8","6","7","4","7","7","7","7","7","7","7","6","7","7","7","6","7","7","7","5","7","7","7","7","7","7","7","7","7","7","7","7","7","7","7","6","7","7","7","6","7","590502391271391232","李","498","Female","[""坏她"",""好我"",""坏我"",""好她""]","[""弱她"",""强我"",""弱我"",""强她""]","","","","","","","","match","","","","","","","","","","key","f","8.3315863636362","853.3333333333334","476","f","true","match","img/pentagon.png","弱我","弱我","ALT2","ability","","","","","","","",""
"null","<span style='color:GreenYellow; font-size: 70px;'>正确! </span>","null","html-keyboard-response","133","473374","0.0-8.0-1.0-4.0-0.0-1.12","6","6","7","5","6","5","5","5","5","5","5","2","1","2","2","1","2","2","2","5","5","5","5","5","4","4","4","5","5","7","8","8","8","7","8","7","9","8","6","7","4","7","7","7","7","7","7","7","6","7","7","7","6","7","7","7","5","7","7","7","7","7","7","7","7","7","7","7","7","7","7","7","6","7","7","7","6","7","590502391271391232","李","498","Female","[""坏她"",""好我"",""坏我"",""好她""]","[""弱她"",""强我"",""弱我"",""强她""]","","","","","","","","","","","","","","","","","","","","","","","","","","","","","","feedback_test","","","","","","","",""
"748","","f","psychophysics","134","475123","0.0-8.0-1.0-4.0-0.0-0.13","6","6","7","5","6","5","5","5","5","5","5","2","1","2","2","1","2","2","2","5","5","5","5","5","4","4","4","5","5","7","8","8","8","7","8","7","9","8","6","7","4","7","7","7","7","7","7","7","6","7","7","7","6","7","7","7","5","7","7","7","7","7","7","7","7","7","7","7","7","7","7","7","6","7","7","7","6","7","590502391271391232","李","498","Female","[""坏她"",""好我"",""坏我"",""好她""]","[""弱她"",""强我"",""弱我"",""强她""]","","","","","","","","match","","","","","","","","","","key","f","8.332504807692413","853.3333333333334","476","j","false","nonmatch","img/square.png","强我","弱她","ALT2","ability","","","","","","","",""
"null","<span style='color:red; font-size: 70px;'>错误! </span>","null","html-keyboard-response","135","475630","0.0-8.0-1.0-4.0-0.0-1.13","6","6","7","5","6","5","5","5","5","5","5","2","1","2","2","1","2","2","2","5","5","5","5","5","4","4","4","5","5","7","8","8","8","7","8","7","9","8","6","7","4","7","7","7","7","7","7","7","6","7","7","7","6","7","7","7","5","7","7","7","7","7","7","7","7","7","7","7","7","7","7","7","6","7","7","7","6","7","590502391271391232","李","498","Female","[""坏她"",""好我"",""坏我"",""好她""]","[""弱她"",""强我"",""弱我"",""强她""]","","","","","","","","","","","","","","","","","","","","","","","","","","","","","","feedback_test","","","","","","","",""
"634","","f","psychophysics","136","477291","0.0-8.0-1.0-4.0-0.0-0.14","6","6","7","5","6","5","5","5","5","5","5","2","1","2","2","1","2","2","2","5","5","5","5","5","4","4","4","5","5","7","8","8","8","7","8","7","9","8","6","7","4","7","7","7","7","7","7","7","6","7","7","7","6","7","7","7","5","7","7","7","7","7","7","7","7","7","7","7","7","7","7","7","6","7","7","7","6","7","590502391271391232","李","498","Female","[""坏她"",""好我"",""坏我"",""好她""]","[""弱她"",""强我"",""弱我"",""强她""]","","","","","","","","match","","","","","","","","","","key","f","8.730619047619046","853.3333333333334","476","f","true","match","img/trapezoid.png","强我","强我","ALT2","ability","","","","","","","",""
"null","<span style='color:GreenYellow; font-size: 70px;'>正确! </span>","null","html-keyboard-response","137","477799","0.0-8.0-1.0-4.0-0.0-1.14","6","6","7","5","6","5","5","5","5","5","5","2","1","2","2","1","2","2","2","5","5","5","5","5","4","4","4","5","5","7","8","8","8","7","8","7","9","8","6","7","4","7","7","7","7","7","7","7","6","7","7","7","6","7","7","7","5","7","7","7","7","7","7","7","7","7","7","7","7","7","7","7","6","7","7","7","6","7","590502391271391232","李","498","Female","[""坏她"",""好我"",""坏我"",""好她""]","[""弱她"",""强我"",""弱我"",""强她""]","","","","","","","","","","","","","","","","","","","","","","","","","","","","","","feedback_test","","","","","","","",""
"828","","j","psychophysics","138","479627","0.0-8.0-1.0-4.0-0.0-0.15","6","6","7","5","6","5","5","5","5","5","5","2","1","2","2","1","2","2","2","5","5","5","5","5","4","4","4","5","5","7","8","8","8","7","8","7","9","8","6","7","4","7","7","7","7","7","7","7","6","7","7","7","6","7","7","7","5","7","7","7","7","7","7","7","7","7","7","7","7","7","7","7","6","7","7","7","6","7","590502391271391232","李","498","Female","[""坏她"",""好我"",""坏我"",""好她""]","[""弱她"",""强我"",""弱我"",""强她""]","","","","","","","","nonmatch","","","","","","","","","","key","j","8.332830275229494","853.3333333333334","476","f","false","match","img/square.png","弱她","弱她","ALT2","ability","","","","","","","",""
