"rt","stimulus","response","trial_type","trial_index","time_elapsed","internal_node_id","swb_1","swb_2","swb_3","swb_4","swb_5","LOT_1","LOT_2","LOT_3","LOT_4","LOT_5","LOT_6","IPC_1","IPC_2","IPC_3","IPC_4","IPC_5","IPC_6","IPC_7","IPC_8","MorIden_1","MorIden_2","MorIden_3","MorIden_4","MorIden_5","MorIden_6","MorIden_7","MorIden_8","MorIden_9","MorIden_10","moralSeImag_1","moralSeImag_2","moralSeImag_3","moralSeImag_4","moralSeImag_5","moralSeImag_6","moralSeImag_7","moralSeImag_8","moralSeImag_9","sde_1","sde_2","sde_3","sde_4","sde_5","sde_6","sde_7","sde_8","sde_9","sde_10","sde_11","sde_12","sde_13","sde_14","sde_15","sde_16","sde_17","sde_18","sde_19","sde_20","IM_1","IM_2","IM_3","IM_4","IM_5","IM_6","IM_7","IM_8","IM_9","IM_10","IM_11","IM_12","IM_13","IM_14","IM_15","IM_16","IM_17","IM_18","IM_19","IM_20","subj_idx","friend_name","ParticipantID","Sex","Word","Word2","value","success","timeout","failed_images","failed_audio","failed_video","user_agent","responses","item_order","radio_event_ids","radio_event_times","key_event_times","mouse_event_times","straightlining","zigzagging","honeypot","view_history","response_type","key_press","avg_frame_time","center_x","center_y","correct_response","correct","identity","Image","word","condition","task_id","screen_id","time_stamp","person","valence","domain","math","status","duration","question_order"
"1987","
   <p><div style='color:white; font-size: 25px'>您好，欢迎参加本次实验。</div></p>
   <p><div style='color:white; font-size: 25px'>为充分保障您的权利，请确保您已经知晓并同意《参与实验同意书》以及《数据公开知情同意书》。</div></p>
   <p><div style='color:white; font-size: 25px'>如果您未见过上述内容，请咨询实验员。</div></p>
   <p style='color:white; font-size: 25px'>如果您选择继续实验，则表示您已经清楚两份知情同意书的内容并同意。</p>
   <p><div style = ""color: red;font-size:30px;"">请确保您记得day0的实验编号，您将在本次实验输入该编号，若您忘记，请咨询实验员后作答。</div></p>
   <p> <div style = ""color: green""><按空格键至下页></div> </p>
   "," ","html-keyboard-response","0","1989","0.0-0.0","7","6","7","5","5","5","2","5","4","5","4","-2","-1","2","1","-3","1","2","1","5","5","5","5","4","5","4","5","5","4","8","7","8","7","4","8","8","8","9","5","7","6","6","5","1","6","7","7","6","5","3","7","2","7","5","6","6","5","7","6","5","2","3","3","7","5","6","6","7","7","2","6","5","2","6","6","5","4","7","718788150628974592","刘","570","Male","[""坏他"",""好我"",""坏我"",""好他""]","[""弱他"",""强我"",""弱我"",""强他""]","","","","","","","","","","","","","","","","","","","","","","","","","","","","","","","","","","","","","",""
"","","","call-function","1","1989","0.0-1.0-0.0","7","6","7","5","5","5","2","5","4","5","4","-2","-1","2","1","-3","1","2","1","5","5","5","5","4","5","4","5","5","4","8","7","8","7","4","8","8","8","9","5","7","6","6","5","1","6","7","7","6","5","3","7","2","7","5","6","6","5","7","6","5","2","3","3","7","5","6","6","7","7","2","6","5","2","6","6","5","4","7","718788150628974592","刘","570","Male","[""坏他"",""好我"",""坏我"",""好他""]","[""弱他"",""强我"",""弱我"",""强他""]","","","","","","","","","","","","","","","","","","","","","","","","","","","","","","","","","","","","","",""
"31127","","[{""name"":""Sex"",""value"":""0""},{""name"":""friend_name"",""value"":""刘""},{""name"":""ParticipantID"",""value"":""570""}]","survey-html-form","2","33117","0.0-1.0-1.0","7","6","7","5","5","5","2","5","4","5","4","-2","-1","2","1","-3","1","2","1","5","5","5","5","4","5","4","5","5","4","8","7","8","7","4","8","8","8","9","5","7","6","6","5","1","6","7","7","6","5","3","7","2","7","5","6","6","5","7","6","5","2","3","3","7","5","6","6","7","7","2","6","5","2","6","6","5","4","7","718788150628974592","刘","570","Male","[""坏他"",""好我"",""坏我"",""好他""]","[""弱他"",""强我"",""弱我"",""强他""]","","","","","","","","","","","","","","","","","","","","","","","","","","","","","","","","","","","","","",""
"","","","preload","3","33199","0.0-2.0","7","6","7","5","5","5","2","5","4","5","4","-2","-1","2","1","-3","1","2","1","5","5","5","5","4","5","4","5","5","4","8","7","8","7","4","8","8","8","9","5","7","6","6","5","1","6","7","7","6","5","3","7","2","7","5","6","6","5","7","6","5","2","3","3","7","5","6","6","7","7","2","6","5","2","6","6","5","4","7","718788150628974592","刘","570","Male","[""坏他"",""好我"",""坏我"",""好他""]","[""弱他"",""强我"",""弱我"",""强他""]","","true","false","[]","[]","[]","","","","","","","","","","","","","","","","","","","","","","","","","","","","","","","",""
"","","","fullscreen","4","34617","0.0-3.0","7","6","7","5","5","5","2","5","4","5","4","-2","-1","2","1","-3","1","2","1","5","5","5","5","4","5","4","5","5","4","8","7","8","7","4","8","8","8","9","5","7","6","6","5","1","6","7","7","6","5","3","7","2","7","5","6","6","5","7","6","5","2","3","3","7","5","6","6","7","7","2","6","5","2","6","6","5","4","7","718788150628974592","刘","570","Male","[""坏他"",""好我"",""坏我"",""好他""]","[""弱他"",""强我"",""弱我"",""强他""]","","true","","","","","{}","","","","","","","","","","","","","","","","","","","","","","","","","","","","","","",""
"13924.60000000149","","{""Q01"":""7"",""Q02"":""6"",""Q03"":""7"",""Q04"":""5"",""Q05"":""5""}","survey-template","5","48543","0.0-4.0","7","6","7","5","5","5","2","5","4","5","4","-2","-1","2","1","-3","1","2","1","5","5","5","5","4","5","4","5","5","4","8","7","8","7","4","8","8","8","9","5","7","6","6","5","1","6","7","7","6","5","3","7","2","7","5","6","6","5","7","6","5","2","3","3","7","5","6","6","7","7","2","6","5","2","6","6","5","4","7","718788150628974592","刘","570","Male","[""坏他"",""好我"",""坏我"",""好他""]","[""弱他"",""强我"",""弱我"",""强他""]","","","","","","","","{""Q01"":""7"",""Q02"":""6"",""Q03"":""7"",""Q04"":""5"",""Q05"":""5""}","[0,1,2,3,4]","[""Q01"",""Q02"",""Q03"",""Q04"",""Q05"",""Q03""]","[4602,5602.300000000745,6346.300000000745,9130.89999999851,10714.10000000149,13122.199999999255]","[]","[4602,5602.300000000745,6346.300000000745,9130.89999999851,10714.10000000149,13122.199999999255,13923.800000000745]","0.4","0.5","0","","","","","","","","","","","","","","","","","","","","","",""
"32986.900000002235","","{""Q01"":""5"",""Q02"":""2"",""Q03"":""5"",""Q04"":""4"",""Q05"":""5"",""Q06"":""4""}","survey-template","6","81533","0.0-5.0","7","6","7","5","5","5","2","5","4","5","4","-2","-1","2","1","-3","1","2","1","5","5","5","5","4","5","4","5","5","4","8","7","8","7","4","8","8","8","9","5","7","6","6","5","1","6","7","7","6","5","3","7","2","7","5","6","6","5","7","6","5","2","3","3","7","5","6","6","7","7","2","6","5","2","6","6","5","4","7","718788150628974592","刘","570","Male","[""坏他"",""好我"",""坏我"",""好他""]","[""弱他"",""强我"",""弱我"",""强他""]","","","","","","","","{""Q01"":""5"",""Q02"":""2"",""Q03"":""5"",""Q04"":""4"",""Q05"":""5"",""Q06"":""4""}","[0,1,2,3,4,5]","[""Q01"",""Q02"",""Q03"",""Q04"",""Q05"",""Q06""]","[2602.10000000149,9922.20000000298,11418.10000000149,13562.10000000149,16386.20000000298,22002.10000000149]","[]","[674.3000000007451,2602.10000000149,4810.5,9922.20000000298,11418.10000000149,13562.10000000149,16386.20000000298,22002.10000000149,23002.400000002235,26314,28250.300000000745,29954.20000000298,32986.400000002235]","0.3333333333333333","0.6","0","","","","","","","","","","","","","","","","","","","","","",""
"22885.699999999255","","{""Q01"":""-2"",""Q02"":""-1"",""Q03"":""2"",""Q04"":""1"",""Q05"":""-3"",""Q06"":""1"",""Q07"":""2"",""Q08"":""1""}","survey-template","7","104422","0.0-6.0","7","6","7","5","5","5","2","5","4","5","4","-2","-1","2","1","-3","1","2","1","5","5","5","5","4","5","4","5","5","4","8","7","8","7","4","8","8","8","9","5","7","6","6","5","1","6","7","7","6","5","3","7","2","7","5","6","6","5","7","6","5","2","3","3","7","5","6","6","7","7","2","6","5","2","6","6","5","4","7","718788150628974592","刘","570","Male","[""坏他"",""好我"",""坏我"",""好他""]","[""弱他"",""强我"",""弱我"",""强他""]","","","","","","","","{""Q01"":""-2"",""Q02"":""-1"",""Q03"":""2"",""Q04"":""1"",""Q05"":""-3"",""Q06"":""1"",""Q07"":""2"",""Q08"":""1""}","[0,1,2,3,4,5,6,7]","[""Q01"",""Q02"",""Q03"",""Q04"",""Q05"",""Q06"",""Q07"",""Q08""]","[3284.89999999851,7140.699999999255,9732.699999999255,11924.39999999851,14588.89999999851,15980.5,18676.39999999851,21716.5]","[]","[668.3000000007451,3284.89999999851,5036.699999999255,7140.699999999255,9732.699999999255,11924.39999999851,14588.89999999851,15980.5,18676.39999999851,21716.5,22884.800000000745]","0.375","0.5714285714285714","0","","","","","","","","","","","","","","","","","","","","","",""
"39789","","","instructions","8","144213","0.0-7.0","7","6","7","5","5","5","2","5","4","5","4","-2","-1","2","1","-3","1","2","1","5","5","5","5","4","5","4","5","5","4","8","7","8","7","4","8","8","8","9","5","7","6","6","5","1","6","7","7","6","5","3","7","2","7","5","6","6","5","7","6","5","2","3","3","7","5","6","6","7","7","2","6","5","2","6","6","5","4","7","718788150628974592","刘","570","Male","[""坏他"",""好我"",""坏我"",""好他""]","[""弱他"",""强我"",""弱我"",""强他""]","","","","","","","","","","","","","","","","","[{""page_index"":0,""viewing_time"":39789}]","","","","","","","","","","","","","","","","","","","","",""
"102399","","","instructions","9","246612","0.0-8.0-1.0-0.0","7","6","7","5","5","5","2","5","4","5","4","-2","-1","2","1","-3","1","2","1","5","5","5","5","4","5","4","5","5","4","8","7","8","7","4","8","8","8","9","5","7","6","6","5","1","6","7","7","6","5","3","7","2","7","5","6","6","5","7","6","5","2","3","3","7","5","6","6","7","7","2","6","5","2","6","6","5","4","7","718788150628974592","刘","570","Male","[""坏他"",""好我"",""坏我"",""好他""]","[""弱他"",""强我"",""弱我"",""强他""]","","","","","","","","","","","","","","","","","[{""page_index"":0,""viewing_time"":13623},{""page_index"":1,""viewing_time"":79984},{""page_index"":2,""viewing_time"":3432},{""page_index"":3,""viewing_time"":5360}]","","","","","","","","","","","","","","","","","","","","",""
"989","","j","psychophysics","10","248604","0.0-8.0-1.0-1.0-0.0-0.0","7","6","7","5","5","5","2","5","4","5","4","-2","-1","2","1","-3","1","2","1","5","5","5","5","4","5","4","5","5","4","8","7","8","7","4","8","8","8","9","5","7","6","6","5","1","6","7","7","6","5","3","7","2","7","5","6","6","5","7","6","5","2","3","3","7","5","6","6","7","7","2","6","5","2","6","6","5","4","7","718788150628974592","刘","570","Male","[""坏他"",""好我"",""坏我"",""好他""]","[""弱他"",""强我"",""弱我"",""强他""]","","","","","","","","nonmatch","","","","","","","","","","key","j","16.66112711864412","768","428","j","true","nonmatch","img/ellipse.png","强我","强他","prac_ALT2_ability","practice_ability","","","","","","","",""
"null","<span style='color:GreenYellow; font-size: 70px;'>正确! </span>","null","html-keyboard-response","11","249105","0.0-8.0-1.0-1.0-0.0-1.0","7","6","7","5","5","5","2","5","4","5","4","-2","-1","2","1","-3","1","2","1","5","5","5","5","4","5","4","5","5","4","8","7","8","7","4","8","8","8","9","5","7","6","6","5","1","6","7","7","6","5","3","7","2","7","5","6","6","5","7","6","5","2","3","3","7","5","6","6","7","7","2","6","5","2","6","6","5","4","7","718788150628974592","刘","570","Male","[""坏他"",""好我"",""坏我"",""好他""]","[""弱他"",""强我"",""弱我"",""强他""]","","","","","","","","","","","","","","","","","","","","","","","","","","","","","","feedback_test","","","","","","","",""
"899","","j","psychophysics","12","251005","0.0-8.0-1.0-1.0-0.0-0.1","7","6","7","5","5","5","2","5","4","5","4","-2","-1","2","1","-3","1","2","1","5","5","5","5","4","5","4","5","5","4","8","7","8","7","4","8","8","8","9","5","7","6","6","5","1","6","7","7","6","5","3","7","2","7","5","6","6","5","7","6","5","2","3","3","7","5","6","6","7","7","2","6","5","2","6","6","5","4","7","718788150628974592","刘","570","Male","[""坏他"",""好我"",""坏我"",""好他""]","[""弱他"",""强我"",""弱我"",""强他""]","","","","","","","","nonmatch","","","","","","","","","","key","j","16.66245132743353","768","428","j","true","nonmatch","img/triangle.png","强他","弱我","prac_ALT2_ability","practice_ability","","","","","","","",""
"null","<span style='color:GreenYellow; font-size: 70px;'>正确! </span>","null","html-keyboard-response","13","251506","0.0-8.0-1.0-1.0-0.0-1.1","7","6","7","5","5","5","2","5","4","5","4","-2","-1","2","1","-3","1","2","1","5","5","5","5","4","5","4","5","5","4","8","7","8","7","4","8","8","8","9","5","7","6","6","5","1","6","7","7","6","5","3","7","2","7","5","6","6","5","7","6","5","2","3","3","7","5","6","6","7","7","2","6","5","2","6","6","5","4","7","718788150628974592","刘","570","Male","[""坏他"",""好我"",""坏我"",""好他""]","[""弱他"",""强我"",""弱我"",""强他""]","","","","","","","","","","","","","","","","","","","","","","","","","","","","","","feedback_test","","","","","","","",""
"770","","j","psychophysics","14","253277","0.0-8.0-1.0-1.0-0.0-0.2","7","6","7","5","5","5","2","5","4","5","4","-2","-1","2","1","-3","1","2","1","5","5","5","5","4","5","4","5","5","4","8","7","8","7","4","8","8","8","9","5","7","6","6","5","1","6","7","7","6","5","3","7","2","7","5","6","6","5","7","6","5","2","3","3","7","5","6","6","7","7","2","6","5","2","6","6","5","4","7","718788150628974592","刘","570","Male","[""坏他"",""好我"",""坏我"",""好他""]","[""弱他"",""强我"",""弱我"",""强他""]","","","","","","","","nonmatch","","","","","","","","","","key","j","16.66151428571431","768","428","f","false","match","img/ellipse.png","强他","强他","prac_ALT2_ability","practice_ability","","","","","","","",""
"null","<span style='color:red; font-size: 70px;'>错误! </span>","null","html-keyboard-response","15","253777","0.0-8.0-1.0-1.0-0.0-1.2","7","6","7","5","5","5","2","5","4","5","4","-2","-1","2","1","-3","1","2","1","5","5","5","5","4","5","4","5","5","4","8","7","8","7","4","8","8","8","9","5","7","6","6","5","1","6","7","7","6","5","3","7","2","7","5","6","6","5","7","6","5","2","3","3","7","5","6","6","7","7","2","6","5","2","6","6","5","4","7","718788150628974592","刘","570","Male","[""坏他"",""好我"",""坏我"",""好他""]","[""弱他"",""强我"",""弱我"",""强他""]","","","","","","","","","","","","","","","","","","","","","","","","","","","","","","feedback_test","","","","","","","",""
"null","","null","psychophysics","16","255979","0.0-8.0-1.0-1.0-0.0-0.3","7","6","7","5","5","5","2","5","4","5","4","-2","-1","2","1","-3","1","2","1","5","5","5","5","4","5","4","5","5","4","8","7","8","7","4","8","8","8","9","5","7","6","6","5","1","6","7","7","6","5","3","7","2","7","5","6","6","5","7","6","5","2","3","3","7","5","6","6","7","7","2","6","5","2","6","6","5","4","7","718788150628974592","刘","570","Male","[""坏他"",""好我"",""坏我"",""好他""]","[""弱他"",""强我"",""弱我"",""强他""]","","","","","","","","null","","","","","","","","","","key","null","16.662312977099283","768","428","f","false","match","img/diamond.png","弱他","弱他","prac_ALT2_ability","practice_ability","","","","","","","",""
"null","<span class='add_' style='color:yellow; font-size: 70px;'> 太慢! </span>","null","html-keyboard-response","17","256480","0.0-8.0-1.0-1.0-0.0-1.3","7","6","7","5","5","5","2","5","4","5","4","-2","-1","2","1","-3","1","2","1","5","5","5","5","4","5","4","5","5","4","8","7","8","7","4","8","8","8","9","5","7","6","6","5","1","6","7","7","6","5","3","7","2","7","5","6","6","5","7","6","5","2","3","3","7","5","6","6","7","7","2","6","5","2","6","6","5","4","7","718788150628974592","刘","570","Male","[""坏他"",""好我"",""坏我"",""好他""]","[""弱他"",""强我"",""弱我"",""强他""]","","","","","","","","","","","","","","","","","","","","","","","","","","","","","","feedback_test","","","","","","","",""
"939","","f","psychophysics","18","258421","0.0-8.0-1.0-1.0-0.0-0.4","7","6","7","5","5","5","2","5","4","5","4","-2","-1","2","1","-3","1","2","1","5","5","5","5","4","5","4","5","5","4","8","7","8","7","4","8","8","8","9","5","7","6","6","5","1","6","7","7","6","5","3","7","2","7","5","6","6","5","7","6","5","2","3","3","7","5","6","6","7","7","2","6","5","2","6","6","5","4","7","718788150628974592","刘","570","Male","[""坏他"",""好我"",""坏我"",""好他""]","[""弱他"",""强我"",""弱我"",""强他""]","","","","","","","","match","","","","","","","","","","key","f","16.661286956521824","768","428","f","true","match","img/hexagon.png","强我","强我","prac_ALT2_ability","practice_ability","","","","","","","",""
"null","<span style='color:GreenYellow; font-size: 70px;'>正确! </span>","null","html-keyboard-response","19","258921","0.0-8.0-1.0-1.0-0.0-1.4","7","6","7","5","5","5","2","5","4","5","4","-2","-1","2","1","-3","1","2","1","5","5","5","5","4","5","4","5","5","4","8","7","8","7","4","8","8","8","9","5","7","6","6","5","1","6","7","7","6","5","3","7","2","7","5","6","6","5","7","6","5","2","3","3","7","5","6","6","7","7","2","6","5","2","6","6","5","4","7","718788150628974592","刘","570","Male","[""坏他"",""好我"",""坏我"",""好他""]","[""弱他"",""强我"",""弱我"",""强他""]","","","","","","","","","","","","","","","","","","","","","","","","","","","","","","feedback_test","","","","","","","",""
"761","","f","psychophysics","20","260684","0.0-8.0-1.0-1.0-0.0-0.5","7","6","7","5","5","5","2","5","4","5","4","-2","-1","2","1","-3","1","2","1","5","5","5","5","4","5","4","5","5","4","8","7","8","7","4","8","8","8","9","5","7","6","6","5","1","6","7","7","6","5","3","7","2","7","5","6","6","5","7","6","5","2","3","3","7","5","6","6","7","7","2","6","5","2","6","6","5","4","7","718788150628974592","刘","570","Male","[""坏他"",""好我"",""坏我"",""好他""]","[""弱他"",""强我"",""弱我"",""强他""]","","","","","","","","match","","","","","","","","","","key","f","16.663038095237876","768","428","f","true","match","img/triangle.png","弱我","弱我","prac_ALT2_ability","practice_ability","","","","","","","",""
"null","<span style='color:GreenYellow; font-size: 70px;'>正确! </span>","null","html-keyboard-response","21","261185","0.0-8.0-1.0-1.0-0.0-1.5","7","6","7","5","5","5","2","5","4","5","4","-2","-1","2","1","-3","1","2","1","5","5","5","5","4","5","4","5","5","4","8","7","8","7","4","8","8","8","9","5","7","6","6","5","1","6","7","7","6","5","3","7","2","7","5","6","6","5","7","6","5","2","3","3","7","5","6","6","7","7","2","6","5","2","6","6","5","4","7","718788150628974592","刘","570","Male","[""坏他"",""好我"",""坏我"",""好他""]","[""弱他"",""强我"",""弱我"",""强他""]","","","","","","","","","","","","","","","","","","","","","","","","","","","","","","feedback_test","","","","","","","",""
"874","","j","psychophysics","22","263060","0.0-8.0-1.0-1.0-0.0-0.6","7","6","7","5","5","5","2","5","4","5","4","-2","-1","2","1","-3","1","2","1","5","5","5","5","4","5","4","5","5","4","8","7","8","7","4","8","8","8","9","5","7","6","6","5","1","6","7","7","6","5","3","7","2","7","5","6","6","5","7","6","5","2","3","3","7","5","6","6","7","7","2","6","5","2","6","6","5","4","7","718788150628974592","刘","570","Male","[""坏他"",""好我"",""坏我"",""好他""]","[""弱他"",""强我"",""弱我"",""强他""]","","","","","","","","nonmatch","","","","","","","","","","key","j","16.661446428571384","768","428","j","true","nonmatch","img/hexagon.png","强他","强我","prac_ALT2_ability","practice_ability","","","","","","","",""
"null","<span style='color:GreenYellow; font-size: 70px;'>正确! </span>","null","html-keyboard-response","23","263561","0.0-8.0-1.0-1.0-0.0-1.6","7","6","7","5","5","5","2","5","4","5","4","-2","-1","2","1","-3","1","2","1","5","5","5","5","4","5","4","5","5","4","8","7","8","7","4","8","8","8","9","5","7","6","6","5","1","6","7","7","6","5","3","7","2","7","5","6","6","5","7","6","5","2","3","3","7","5","6","6","7","7","2","6","5","2","6","6","5","4","7","718788150628974592","刘","570","Male","[""坏他"",""好我"",""坏我"",""好他""]","[""弱他"",""强我"",""弱我"",""强他""]","","","","","","","","","","","","","","","","","","","","","","","","","","","","","","feedback_test","","","","","","","",""
"1042","","j","psychophysics","24","265606","0.0-8.0-1.0-1.0-0.0-0.7","7","6","7","5","5","5","2","5","4","5","4","-2","-1","2","1","-3","1","2","1","5","5","5","5","4","5","4","5","5","4","8","7","8","7","4","8","8","8","9","5","7","6","6","5","1","6","7","7","6","5","3","7","2","7","5","6","6","5","7","6","5","2","3","3","7","5","6","6","7","7","2","6","5","2","6","6","5","4","7","718788150628974592","刘","570","Male","[""坏他"",""好我"",""坏我"",""好他""]","[""弱他"",""强我"",""弱我"",""强他""]","","","","","","","","nonmatch","","","","","","","","","","key","j","16.661082644628415","768","428","j","true","nonmatch","img/ellipse.png","弱他","强他","prac_ALT2_ability","practice_ability","","","","","","","",""
"null","<span style='color:GreenYellow; font-size: 70px;'>正确! </span>","null","html-keyboard-response","25","266106","0.0-8.0-1.0-1.0-0.0-1.7","7","6","7","5","5","5","2","5","4","5","4","-2","-1","2","1","-3","1","2","1","5","5","5","5","4","5","4","5","5","4","8","7","8","7","4","8","8","8","9","5","7","6","6","5","1","6","7","7","6","5","3","7","2","7","5","6","6","5","7","6","5","2","3","3","7","5","6","6","7","7","2","6","5","2","6","6","5","4","7","718788150628974592","刘","570","Male","[""坏他"",""好我"",""坏我"",""好他""]","[""弱他"",""强我"",""弱我"",""强他""]","","","","","","","","","","","","","","","","","","","","","","","","","","","","","","feedback_test","","","","","","","",""
"905","","j","psychophysics","26","268012","0.0-8.0-1.0-1.0-0.0-0.8","7","6","7","5","5","5","2","5","4","5","4","-2","-1","2","1","-3","1","2","1","5","5","5","5","4","5","4","5","5","4","8","7","8","7","4","8","8","8","9","5","7","6","6","5","1","6","7","7","6","5","3","7","2","7","5","6","6","5","7","6","5","2","3","3","7","5","6","6","7","7","2","6","5","2","6","6","5","4","7","718788150628974592","刘","570","Male","[""坏他"",""好我"",""坏我"",""好他""]","[""弱他"",""强我"",""弱我"",""强他""]","","","","","","","","nonmatch","","","","","","","","","","key","j","16.66140707964603","768","428","j","true","nonmatch","img/ellipse.png","弱我","强他","prac_ALT2_ability","practice_ability","","","","","","","",""
"null","<span style='color:GreenYellow; font-size: 70px;'>正确! </span>","null","html-keyboard-response","27","268513","0.0-8.0-1.0-1.0-0.0-1.8","7","6","7","5","5","5","2","5","4","5","4","-2","-1","2","1","-3","1","2","1","5","5","5","5","4","5","4","5","5","4","8","7","8","7","4","8","8","8","9","5","7","6","6","5","1","6","7","7","6","5","3","7","2","7","5","6","6","5","7","6","5","2","3","3","7","5","6","6","7","7","2","6","5","2","6","6","5","4","7","718788150628974592","刘","570","Male","[""坏他"",""好我"",""坏我"",""好他""]","[""弱他"",""强我"",""弱我"",""强他""]","","","","","","","","","","","","","","","","","","","","","","","","","","","","","","feedback_test","","","","","","","",""
"817","","j","psychophysics","28","270332","0.0-8.0-1.0-1.0-0.0-0.9","7","6","7","5","5","5","2","5","4","5","4","-2","-1","2","1","-3","1","2","1","5","5","5","5","4","5","4","5","5","4","8","7","8","7","4","8","8","8","9","5","7","6","6","5","1","6","7","7","6","5","3","7","2","7","5","6","6","5","7","6","5","2","3","3","7","5","6","6","7","7","2","6","5","2","6","6","5","4","7","718788150628974592","刘","570","Male","[""坏他"",""好我"",""坏我"",""好他""]","[""弱他"",""强我"",""弱我"",""强他""]","","","","","","","","nonmatch","","","","","","","","","","key","j","16.659851851851542","768","428","j","true","nonmatch","img/triangle.png","弱他","弱我","prac_ALT2_ability","practice_ability","","","","","","","",""
"null","<span style='color:GreenYellow; font-size: 70px;'>正确! </span>","null","html-keyboard-response","29","270833","0.0-8.0-1.0-1.0-0.0-1.9","7","6","7","5","5","5","2","5","4","5","4","-2","-1","2","1","-3","1","2","1","5","5","5","5","4","5","4","5","5","4","8","7","8","7","4","8","8","8","9","5","7","6","6","5","1","6","7","7","6","5","3","7","2","7","5","6","6","5","7","6","5","2","3","3","7","5","6","6","7","7","2","6","5","2","6","6","5","4","7","718788150628974592","刘","570","Male","[""坏他"",""好我"",""坏我"",""好他""]","[""弱他"",""强我"",""弱我"",""强他""]","","","","","","","","","","","","","","","","","","","","","","","","","","","","","","feedback_test","","","","","","","",""
"932","","f","psychophysics","30","272765","0.0-8.0-1.0-1.0-0.0-0.10","7","6","7","5","5","5","2","5","4","5","4","-2","-1","2","1","-3","1","2","1","5","5","5","5","4","5","4","5","5","4","8","7","8","7","4","8","8","8","9","5","7","6","6","5","1","6","7","7","6","5","3","7","2","7","5","6","6","5","7","6","5","2","3","3","7","5","6","6","7","7","2","6","5","2","6","6","5","4","7","718788150628974592","刘","570","Male","[""坏他"",""好我"",""坏我"",""好他""]","[""弱他"",""强我"",""弱我"",""强他""]","","","","","","","","match","","","","","","","","","","key","f","16.661426086956634","768","428","j","false","nonmatch","img/triangle.png","强我","弱我","prac_ALT2_ability","practice_ability","","","","","","","",""
"null","<span style='color:red; font-size: 70px;'>错误! </span>","null","html-keyboard-response","31","273267","0.0-8.0-1.0-1.0-0.0-1.10","7","6","7","5","5","5","2","5","4","5","4","-2","-1","2","1","-3","1","2","1","5","5","5","5","4","5","4","5","5","4","8","7","8","7","4","8","8","8","9","5","7","6","6","5","1","6","7","7","6","5","3","7","2","7","5","6","6","5","7","6","5","2","3","3","7","5","6","6","7","7","2","6","5","2","6","6","5","4","7","718788150628974592","刘","570","Male","[""坏他"",""好我"",""坏我"",""好他""]","[""弱他"",""强我"",""弱我"",""强他""]","","","","","","","","","","","","","","","","","","","","","","","","","","","","","","feedback_test","","","","","","","",""
"961","","j","psychophysics","32","275228","0.0-8.0-1.0-1.0-0.0-0.11","7","6","7","5","5","5","2","5","4","5","4","-2","-1","2","1","-3","1","2","1","5","5","5","5","4","5","4","5","5","4","8","7","8","7","4","8","8","8","9","5","7","6","6","5","1","6","7","7","6","5","3","7","2","7","5","6","6","5","7","6","5","2","3","3","7","5","6","6","7","7","2","6","5","2","6","6","5","4","7","718788150628974592","刘","570","Male","[""坏他"",""好我"",""坏我"",""好他""]","[""弱他"",""强我"",""弱我"",""强他""]","","","","","","","","nonmatch","","","","","","","","","","key","j","16.662829059829367","768","428","j","true","nonmatch","img/diamond.png","弱我","弱他","prac_ALT2_ability","practice_ability","","","","","","","",""
"null","<span style='color:GreenYellow; font-size: 70px;'>正确! </span>","null","html-keyboard-response","33","275729","0.0-8.0-1.0-1.0-0.0-1.11","7","6","7","5","5","5","2","5","4","5","4","-2","-1","2","1","-3","1","2","1","5","5","5","5","4","5","4","5","5","4","8","7","8","7","4","8","8","8","9","5","7","6","6","5","1","6","7","7","6","5","3","7","2","7","5","6","6","5","7","6","5","2","3","3","7","5","6","6","7","7","2","6","5","2","6","6","5","4","7","718788150628974592","刘","570","Male","[""坏他"",""好我"",""坏我"",""好他""]","[""弱他"",""强我"",""弱我"",""强他""]","","","","","","","","","","","","","","","","","","","","","","","","","","","","","","feedback_test","","","","","","","",""
"910","","f","psychophysics","34","277639","0.0-8.0-1.0-1.0-0.0-0.12","7","6","7","5","5","5","2","5","4","5","4","-2","-1","2","1","-3","1","2","1","5","5","5","5","4","5","4","5","5","4","8","7","8","7","4","8","8","8","9","5","7","6","6","5","1","6","7","7","6","5","3","7","2","7","5","6","6","5","7","6","5","2","3","3","7","5","6","6","7","7","2","6","5","2","6","6","5","4","7","718788150628974592","刘","570","Male","[""坏他"",""好我"",""坏我"",""好他""]","[""弱他"",""强我"",""弱我"",""强他""]","","","","","","","","match","","","","","","","","","","key","f","16.661535087719116","768","428","f","true","match","img/diamond.png","弱他","弱他","prac_ALT2_ability","practice_ability","","","","","","","",""
"null","<span style='color:GreenYellow; font-size: 70px;'>正确! </span>","null","html-keyboard-response","35","278140","0.0-8.0-1.0-1.0-0.0-1.12","7","6","7","5","5","5","2","5","4","5","4","-2","-1","2","1","-3","1","2","1","5","5","5","5","4","5","4","5","5","4","8","7","8","7","4","8","8","8","9","5","7","6","6","5","1","6","7","7","6","5","3","7","2","7","5","6","6","5","7","6","5","2","3","3","7","5","6","6","7","7","2","6","5","2","6","6","5","4","7","718788150628974592","刘","570","Male","[""坏他"",""好我"",""坏我"",""好他""]","[""弱他"",""强我"",""弱我"",""强他""]","","","","","","","","","","","","","","","","","","","","","","","","","","","","","","feedback_test","","","","","","","",""
"846","","j","psychophysics","36","279988","0.0-8.0-1.0-1.0-0.0-0.13","7","6","7","5","5","5","2","5","4","5","4","-2","-1","2","1","-3","1","2","1","5","5","5","5","4","5","4","5","5","4","8","7","8","7","4","8","8","8","9","5","7","6","6","5","1","6","7","7","6","5","3","7","2","7","5","6","6","5","7","6","5","2","3","3","7","5","6","6","7","7","2","6","5","2","6","6","5","4","7","718788150628974592","刘","570","Male","[""坏他"",""好我"",""坏我"",""好他""]","[""弱他"",""强我"",""弱我"",""强他""]","","","","","","","","nonmatch","","","","","","","","","","key","j","16.662409090909534","768","428","f","false","match","img/triangle.png","弱我","弱我","prac_ALT2_ability","practice_ability","","","","","","","",""
"null","<span style='color:red; font-size: 70px;'>错误! </span>","null","html-keyboard-response","37","280490","0.0-8.0-1.0-1.0-0.0-1.13","7","6","7","5","5","5","2","5","4","5","4","-2","-1","2","1","-3","1","2","1","5","5","5","5","4","5","4","5","5","4","8","7","8","7","4","8","8","8","9","5","7","6","6","5","1","6","7","7","6","5","3","7","2","7","5","6","6","5","7","6","5","2","3","3","7","5","6","6","7","7","2","6","5","2","6","6","5","4","7","718788150628974592","刘","570","Male","[""坏他"",""好我"",""坏我"",""好他""]","[""弱他"",""强我"",""弱我"",""强他""]","","","","","","","","","","","","","","","","","","","","","","","","","","","","","","feedback_test","","","","","","","",""
"649","","f","psychophysics","38","282139","0.0-8.0-1.0-1.0-0.0-0.14","7","6","7","5","5","5","2","5","4","5","4","-2","-1","2","1","-3","1","2","1","5","5","5","5","4","5","4","5","5","4","8","7","8","7","4","8","8","8","9","5","7","6","6","5","1","6","7","7","6","5","3","7","2","7","5","6","6","5","7","6","5","2","3","3","7","5","6","6","7","7","2","6","5","2","6","6","5","4","7","718788150628974592","刘","570","Male","[""坏他"",""好我"",""坏我"",""好他""]","[""弱他"",""强我"",""弱我"",""强他""]","","","","","","","","match","","","","","","","","","","key","f","16.66099999999991","768","428","f","true","match","img/hexagon.png","强我","强我","prac_ALT2_ability","practice_ability","","","","","","","",""
"null","<span style='color:GreenYellow; font-size: 70px;'>正确! </span>","null","html-keyboard-response","39","282640","0.0-8.0-1.0-1.0-0.0-1.14","7","6","7","5","5","5","2","5","4","5","4","-2","-1","2","1","-3","1","2","1","5","5","5","5","4","5","4","5","5","4","8","7","8","7","4","8","8","8","9","5","7","6","6","5","1","6","7","7","6","5","3","7","2","7","5","6","6","5","7","6","5","2","3","3","7","5","6","6","7","7","2","6","5","2","6","6","5","4","7","718788150628974592","刘","570","Male","[""坏他"",""好我"",""坏我"",""好他""]","[""弱他"",""强我"",""弱我"",""强他""]","","","","","","","","","","","","","","","","","","","","","","","","","","","","","","feedback_test","","","","","","","",""
"778","","j","psychophysics","40","284420","0.0-8.0-1.0-1.0-0.0-0.15","7","6","7","5","5","5","2","5","4","5","4","-2","-1","2","1","-3","1","2","1","5","5","5","5","4","5","4","5","5","4","8","7","8","7","4","8","8","8","9","5","7","6","6","5","1","6","7","7","6","5","3","7","2","7","5","6","6","5","7","6","5","2","3","3","7","5","6","6","7","7","2","6","5","2","6","6","5","4","7","718788150628974592","刘","570","Male","[""坏他"",""好我"",""坏我"",""好他""]","[""弱他"",""强我"",""弱我"",""强他""]","","","","","","","","nonmatch","","","","","","","","","","key","j","16.661103773584813","768","428","j","true","nonmatch","img/hexagon.png","弱我","强我","prac_ALT2_ability","practice_ability","","","","","","","",""
"null","<span style='color:GreenYellow; font-size: 70px;'>正确! </span>","null","html-keyboard-response","41","284920","0.0-8.0-1.0-1.0-0.0-1.15","7","6","7","5","5","5","2","5","4","5","4","-2","-1","2","1","-3","1","2","1","5","5","5","5","4","5","4","5","5","4","8","7","8","7","4","8","8","8","9","5","7","6","6","5","1","6","7","7","6","5","3","7","2","7","5","6","6","5","7","6","5","2","3","3","7","5","6","6","7","7","2","6","5","2","6","6","5","4","7","718788150628974592","刘","570","Male","[""坏他"",""好我"",""坏我"",""好他""]","[""弱他"",""强我"",""弱我"",""强他""]","","","","","","","","","","","","","","","","","","","","","","","","","","","","","","feedback_test","","","","","","","",""
"947","","j","psychophysics","42","286867","0.0-8.0-1.0-1.0-0.0-0.16","7","6","7","5","5","5","2","5","4","5","4","-2","-1","2","1","-3","1","2","1","5","5","5","5","4","5","4","5","5","4","8","7","8","7","4","8","8","8","9","5","7","6","6","5","1","6","7","7","6","5","3","7","2","7","5","6","6","5","7","6","5","2","3","3","7","5","6","6","7","7","2","6","5","2","6","6","5","4","7","718788150628974592","刘","570","Male","[""坏他"",""好我"",""坏我"",""好他""]","[""弱他"",""强我"",""弱我"",""强他""]","","","","","","","","nonmatch","","","","","","","","","","key","j","16.66231034482741","768","428","j","true","nonmatch","img/diamond.png","强我","弱他","prac_ALT2_ability","practice_ability","","","","","","","",""
"null","<span style='color:GreenYellow; font-size: 70px;'>正确! </span>","null","html-keyboard-response","43","287369","0.0-8.0-1.0-1.0-0.0-1.16","7","6","7","5","5","5","2","5","4","5","4","-2","-1","2","1","-3","1","2","1","5","5","5","5","4","5","4","5","5","4","8","7","8","7","4","8","8","8","9","5","7","6","6","5","1","6","7","7","6","5","3","7","2","7","5","6","6","5","7","6","5","2","3","3","7","5","6","6","7","7","2","6","5","2","6","6","5","4","7","718788150628974592","刘","570","Male","[""坏他"",""好我"",""坏我"",""好他""]","[""弱他"",""强我"",""弱我"",""强他""]","","","","","","","","","","","","","","","","","","","","","","","","","","","","","","feedback_test","","","","","","","",""
"809","","j","psychophysics","44","289180","0.0-8.0-1.0-1.0-0.0-0.17","7","6","7","5","5","5","2","5","4","5","4","-2","-1","2","1","-3","1","2","1","5","5","5","5","4","5","4","5","5","4","8","7","8","7","4","8","8","8","9","5","7","6","6","5","1","6","7","7","6","5","3","7","2","7","5","6","6","5","7","6","5","2","3","3","7","5","6","6","7","7","2","6","5","2","6","6","5","4","7","718788150628974592","刘","570","Male","[""坏他"",""好我"",""坏我"",""好他""]","[""弱他"",""强我"",""弱我"",""强他""]","","","","","","","","nonmatch","","","","","","","","","","key","j","16.661242990653907","768","428","f","false","match","img/diamond.png","弱他","弱他","prac_ALT2_ability","practice_ability","","","","","","","",""
"null","<span style='color:red; font-size: 70px;'>错误! </span>","null","html-keyboard-response","45","289681","0.0-8.0-1.0-1.0-0.0-1.17","7","6","7","5","5","5","2","5","4","5","4","-2","-1","2","1","-3","1","2","1","5","5","5","5","4","5","4","5","5","4","8","7","8","7","4","8","8","8","9","5","7","6","6","5","1","6","7","7","6","5","3","7","2","7","5","6","6","5","7","6","5","2","3","3","7","5","6","6","7","7","2","6","5","2","6","6","5","4","7","718788150628974592","刘","570","Male","[""坏他"",""好我"",""坏我"",""好他""]","[""弱他"",""强我"",""弱我"",""强他""]","","","","","","","","","","","","","","","","","","","","","","","","","","","","","","feedback_test","","","","","","","",""
"867","","j","psychophysics","46","291548","0.0-8.0-1.0-1.0-0.0-0.18","7","6","7","5","5","5","2","5","4","5","4","-2","-1","2","1","-3","1","2","1","5","5","5","5","4","5","4","5","5","4","8","7","8","7","4","8","8","8","9","5","7","6","6","5","1","6","7","7","6","5","3","7","2","7","5","6","6","5","7","6","5","2","3","3","7","5","6","6","7","7","2","6","5","2","6","6","5","4","7","718788150628974592","刘","570","Male","[""坏他"",""好我"",""坏我"",""好他""]","[""弱他"",""强我"",""弱我"",""强他""]","","","","","","","","nonmatch","","","","","","","","","","key","j","16.659801801801912","768","428","j","true","nonmatch","img/hexagon.png","弱他","强我","prac_ALT2_ability","practice_ability","","","","","","","",""
"null","<span style='color:GreenYellow; font-size: 70px;'>正确! </span>","null","html-keyboard-response","47","292049","0.0-8.0-1.0-1.0-0.0-1.18","7","6","7","5","5","5","2","5","4","5","4","-2","-1","2","1","-3","1","2","1","5","5","5","5","4","5","4","5","5","4","8","7","8","7","4","8","8","8","9","5","7","6","6","5","1","6","7","7","6","5","3","7","2","7","5","6","6","5","7","6","5","2","3","3","7","5","6","6","7","7","2","6","5","2","6","6","5","4","7","718788150628974592","刘","570","Male","[""坏他"",""好我"",""坏我"",""好他""]","[""弱他"",""强我"",""弱我"",""强他""]","","","","","","","","","","","","","","","","","","","","","","","","","","","","","","feedback_test","","","","","","","",""
"1049","","j","psychophysics","48","294100","0.0-8.0-1.0-1.0-0.0-0.19","7","6","7","5","5","5","2","5","4","5","4","-2","-1","2","1","-3","1","2","1","5","5","5","5","4","5","4","5","5","4","8","7","8","7","4","8","8","8","9","5","7","6","6","5","1","6","7","7","6","5","3","7","2","7","5","6","6","5","7","6","5","2","3","3","7","5","6","6","7","7","2","6","5","2","6","6","5","4","7","718788150628974592","刘","570","Male","[""坏他"",""好我"",""坏我"",""好他""]","[""弱他"",""强我"",""弱我"",""强他""]","","","","","","","","nonmatch","","","","","","","","","","key","j","16.661836065573343","768","428","j","true","nonmatch","img/diamond.png","强他","弱他","prac_ALT2_ability","practice_ability","","","","","","","",""
"null","<span style='color:GreenYellow; font-size: 70px;'>正确! </span>","null","html-keyboard-response","49","294600","0.0-8.0-1.0-1.0-0.0-1.19","7","6","7","5","5","5","2","5","4","5","4","-2","-1","2","1","-3","1","2","1","5","5","5","5","4","5","4","5","5","4","8","7","8","7","4","8","8","8","9","5","7","6","6","5","1","6","7","7","6","5","3","7","2","7","5","6","6","5","7","6","5","2","3","3","7","5","6","6","7","7","2","6","5","2","6","6","5","4","7","718788150628974592","刘","570","Male","[""坏他"",""好我"",""坏我"",""好他""]","[""弱他"",""强我"",""弱我"",""强他""]","","","","","","","","","","","","","","","","","","","","","","","","","","","","","","feedback_test","","","","","","","",""
"899","","f","psychophysics","50","296501","0.0-8.0-1.0-1.0-0.0-0.20","7","6","7","5","5","5","2","5","4","5","4","-2","-1","2","1","-3","1","2","1","5","5","5","5","4","5","4","5","5","4","8","7","8","7","4","8","8","8","9","5","7","6","6","5","1","6","7","7","6","5","3","7","2","7","5","6","6","5","7","6","5","2","3","3","7","5","6","6","7","7","2","6","5","2","6","6","5","4","7","718788150628974592","刘","570","Male","[""坏他"",""好我"",""坏我"",""好他""]","[""弱他"",""强我"",""弱我"",""强他""]","","","","","","","","match","","","","","","","","","","key","f","16.66114159292012","768","428","f","true","match","img/ellipse.png","强他","强他","prac_ALT2_ability","practice_ability","","","","","","","",""
"null","<span style='color:GreenYellow; font-size: 70px;'>正确! </span>","null","html-keyboard-response","51","297003","0.0-8.0-1.0-1.0-0.0-1.20","7","6","7","5","5","5","2","5","4","5","4","-2","-1","2","1","-3","1","2","1","5","5","5","5","4","5","4","5","5","4","8","7","8","7","4","8","8","8","9","5","7","6","6","5","1","6","7","7","6","5","3","7","2","7","5","6","6","5","7","6","5","2","3","3","7","5","6","6","7","7","2","6","5","2","6","6","5","4","7","718788150628974592","刘","570","Male","[""坏他"",""好我"",""坏我"",""好他""]","[""弱他"",""强我"",""弱我"",""强他""]","","","","","","","","","","","","","","","","","","","","","","","","","","","","","","feedback_test","","","","","","","",""
"678","","f","psychophysics","52","298683","0.0-8.0-1.0-1.0-0.0-0.21","7","6","7","5","5","5","2","5","4","5","4","-2","-1","2","1","-3","1","2","1","5","5","5","5","4","5","4","5","5","4","8","7","8","7","4","8","8","8","9","5","7","6","6","5","1","6","7","7","6","5","3","7","2","7","5","6","6","5","7","6","5","2","3","3","7","5","6","6","7","7","2","6","5","2","6","6","5","4","7","718788150628974592","刘","570","Male","[""坏他"",""好我"",""坏我"",""好他""]","[""弱他"",""强我"",""弱我"",""强他""]","","","","","","","","match","","","","","","","","","","key","f","16.66125","768","428","f","true","match","img/ellipse.png","强他","强他","prac_ALT2_ability","practice_ability","","","","","","","",""
"null","<span style='color:GreenYellow; font-size: 70px;'>正确! </span>","null","html-keyboard-response","53","299184","0.0-8.0-1.0-1.0-0.0-1.21","7","6","7","5","5","5","2","5","4","5","4","-2","-1","2","1","-3","1","2","1","5","5","5","5","4","5","4","5","5","4","8","7","8","7","4","8","8","8","9","5","7","6","6","5","1","6","7","7","6","5","3","7","2","7","5","6","6","5","7","6","5","2","3","3","7","5","6","6","7","7","2","6","5","2","6","6","5","4","7","718788150628974592","刘","570","Male","[""坏他"",""好我"",""坏我"",""好他""]","[""弱他"",""强我"",""弱我"",""强他""]","","","","","","","","","","","","","","","","","","","","","","","","","","","","","","feedback_test","","","","","","","",""
"882","","f","psychophysics","54","301068","0.0-8.0-1.0-1.0-0.0-0.22","7","6","7","5","5","5","2","5","4","5","4","-2","-1","2","1","-3","1","2","1","5","5","5","5","4","5","4","5","5","4","8","7","8","7","4","8","8","8","9","5","7","6","6","5","1","6","7","7","6","5","3","7","2","7","5","6","6","5","7","6","5","2","3","3","7","5","6","6","7","7","2","6","5","2","6","6","5","4","7","718788150628974592","刘","570","Male","[""坏他"",""好我"",""坏我"",""好他""]","[""弱他"",""强我"",""弱我"",""强他""]","","","","","","","","match","","","","","","","","","","key","f","16.661169642856944","768","428","f","true","match","img/triangle.png","弱我","弱我","prac_ALT2_ability","practice_ability","","","","","","","",""
"null","<span style='color:GreenYellow; font-size: 70px;'>正确! </span>","null","html-keyboard-response","55","301569","0.0-8.0-1.0-1.0-0.0-1.22","7","6","7","5","5","5","2","5","4","5","4","-2","-1","2","1","-3","1","2","1","5","5","5","5","4","5","4","5","5","4","8","7","8","7","4","8","8","8","9","5","7","6","6","5","1","6","7","7","6","5","3","7","2","7","5","6","6","5","7","6","5","2","3","3","7","5","6","6","7","7","2","6","5","2","6","6","5","4","7","718788150628974592","刘","570","Male","[""坏他"",""好我"",""坏我"",""好他""]","[""弱他"",""强我"",""弱我"",""强他""]","","","","","","","","","","","","","","","","","","","","","","","","","","","","","","feedback_test","","","","","","","",""
"641","","f","psychophysics","56","303212","0.0-8.0-1.0-1.0-0.0-0.23","7","6","7","5","5","5","2","5","4","5","4","-2","-1","2","1","-3","1","2","1","5","5","5","5","4","5","4","5","5","4","8","7","8","7","4","8","8","8","9","5","7","6","6","5","1","6","7","7","6","5","3","7","2","7","5","6","6","5","7","6","5","2","3","3","7","5","6","6","7","7","2","6","5","2","6","6","5","4","7","718788150628974592","刘","570","Male","[""坏他"",""好我"",""坏我"",""好他""]","[""弱他"",""强我"",""弱我"",""强他""]","","","","","","","","match","","","","","","","","","","key","f","16.662897959184043","768","428","f","true","match","img/hexagon.png","强我","强我","prac_ALT2_ability","practice_ability","","","","","","","",""
"null","<span style='color:GreenYellow; font-size: 70px;'>正确! </span>","null","html-keyboard-response","57","303714","0.0-8.0-1.0-1.0-0.0-1.23","7","6","7","5","5","5","2","5","4","5","4","-2","-1","2","1","-3","1","2","1","5","5","5","5","4","5","4","5","5","4","8","7","8","7","4","8","8","8","9","5","7","6","6","5","1","6","7","7","6","5","3","7","2","7","5","6","6","5","7","6","5","2","3","3","7","5","6","6","7","7","2","6","5","2","6","6","5","4","7","718788150628974592","刘","570","Male","[""坏他"",""好我"",""坏我"",""好他""]","[""弱他"",""强我"",""弱我"",""强他""]","","","","","","","","","","","","","","","","","","","","","","","","","","","","","","feedback_test","","","","","","","",""
"751","","j","psychophysics","58","305467","0.0-8.0-1.0-1.0-0.0-0.24","7","6","7","5","5","5","2","5","4","5","4","-2","-1","2","1","-3","1","2","1","5","5","5","5","4","5","4","5","5","4","8","7","8","7","4","8","8","8","9","5","7","6","6","5","1","6","7","7","6","5","3","7","2","7","5","6","6","5","7","6","5","2","3","3","7","5","6","6","7","7","2","6","5","2","6","6","5","4","7","718788150628974592","刘","570","Male","[""坏他"",""好我"",""坏我"",""好他""]","[""弱他"",""强我"",""弱我"",""强他""]","","","","","","","","nonmatch","","","","","","","","","","key","j","16.661067307692203","768","428","j","true","nonmatch","img/diamond.png","强他","弱他","prac_ALT2_ability","practice_ability","","","","","","","",""
"null","<span style='color:GreenYellow; font-size: 70px;'>正确! </span>","null","html-keyboard-response","59","305968","0.0-8.0-1.0-1.0-0.0-1.24","7","6","7","5","5","5","2","5","4","5","4","-2","-1","2","1","-3","1","2","1","5","5","5","5","4","5","4","5","5","4","8","7","8","7","4","8","8","8","9","5","7","6","6","5","1","6","7","7","6","5","3","7","2","7","5","6","6","5","7","6","5","2","3","3","7","5","6","6","7","7","2","6","5","2","6","6","5","4","7","718788150628974592","刘","570","Male","[""坏他"",""好我"",""坏我"",""好他""]","[""弱他"",""强我"",""弱我"",""强他""]","","","","","","","","","","","","","","","","","","","","","","","","","","","","","","feedback_test","","","","","","","",""
"818","","j","psychophysics","60","307787","0.0-8.0-1.0-1.0-0.0-0.25","7","6","7","5","5","5","2","5","4","5","4","-2","-1","2","1","-3","1","2","1","5","5","5","5","4","5","4","5","5","4","8","7","8","7","4","8","8","8","9","5","7","6","6","5","1","6","7","7","6","5","3","7","2","7","5","6","6","5","7","6","5","2","3","3","7","5","6","6","7","7","2","6","5","2","6","6","5","4","7","718788150628974592","刘","570","Male","[""坏他"",""好我"",""坏我"",""好他""]","[""弱他"",""强我"",""弱我"",""强他""]","","","","","","","","nonmatch","","","","","","","","","","key","j","16.66088888888879","768","428","j","true","nonmatch","img/hexagon.png","弱他","强我","prac_ALT2_ability","practice_ability","","","","","","","",""
"null","<span style='color:GreenYellow; font-size: 70px;'>正确! </span>","null","html-keyboard-response","61","308288","0.0-8.0-1.0-1.0-0.0-1.25","7","6","7","5","5","5","2","5","4","5","4","-2","-1","2","1","-3","1","2","1","5","5","5","5","4","5","4","5","5","4","8","7","8","7","4","8","8","8","9","5","7","6","6","5","1","6","7","7","6","5","3","7","2","7","5","6","6","5","7","6","5","2","3","3","7","5","6","6","7","7","2","6","5","2","6","6","5","4","7","718788150628974592","刘","570","Male","[""坏他"",""好我"",""坏我"",""好他""]","[""弱他"",""强我"",""弱我"",""强他""]","","","","","","","","","","","","","","","","","","","","","","","","","","","","","","feedback_test","","","","","","","",""
"914","","f","psychophysics","62","310203","0.0-8.0-1.0-1.0-0.0-0.26","7","6","7","5","5","5","2","5","4","5","4","-2","-1","2","1","-3","1","2","1","5","5","5","5","4","5","4","5","5","4","8","7","8","7","4","8","8","8","9","5","7","6","6","5","1","6","7","7","6","5","3","7","2","7","5","6","6","5","7","6","5","2","3","3","7","5","6","6","7","7","2","6","5","2","6","6","5","4","7","718788150628974592","刘","570","Male","[""坏他"",""好我"",""坏我"",""好他""]","[""弱他"",""强我"",""弱我"",""强他""]","","","","","","","","match","","","","","","","","","","key","f","16.661324561403536","768","428","f","true","match","img/ellipse.png","强他","强他","prac_ALT2_ability","practice_ability","","","","","","","",""
"null","<span style='color:GreenYellow; font-size: 70px;'>正确! </span>","null","html-keyboard-response","63","310704","0.0-8.0-1.0-1.0-0.0-1.26","7","6","7","5","5","5","2","5","4","5","4","-2","-1","2","1","-3","1","2","1","5","5","5","5","4","5","4","5","5","4","8","7","8","7","4","8","8","8","9","5","7","6","6","5","1","6","7","7","6","5","3","7","2","7","5","6","6","5","7","6","5","2","3","3","7","5","6","6","7","7","2","6","5","2","6","6","5","4","7","718788150628974592","刘","570","Male","[""坏他"",""好我"",""坏我"",""好他""]","[""弱他"",""强我"",""弱我"",""强他""]","","","","","","","","","","","","","","","","","","","","","","","","","","","","","","feedback_test","","","","","","","",""
"843","","j","psychophysics","64","312549","0.0-8.0-1.0-1.0-0.0-0.27","7","6","7","5","5","5","2","5","4","5","4","-2","-1","2","1","-3","1","2","1","5","5","5","5","4","5","4","5","5","4","8","7","8","7","4","8","8","8","9","5","7","6","6","5","1","6","7","7","6","5","3","7","2","7","5","6","6","5","7","6","5","2","3","3","7","5","6","6","7","7","2","6","5","2","6","6","5","4","7","718788150628974592","刘","570","Male","[""坏他"",""好我"",""坏我"",""好他""]","[""弱他"",""强我"",""弱我"",""强他""]","","","","","","","","nonmatch","","","","","","","","","","key","j","16.662836363635936","768","428","j","true","nonmatch","img/hexagon.png","弱我","强我","prac_ALT2_ability","practice_ability","","","","","","","",""
"null","<span style='color:GreenYellow; font-size: 70px;'>正确! </span>","null","html-keyboard-response","65","313050","0.0-8.0-1.0-1.0-0.0-1.27","7","6","7","5","5","5","2","5","4","5","4","-2","-1","2","1","-3","1","2","1","5","5","5","5","4","5","4","5","5","4","8","7","8","7","4","8","8","8","9","5","7","6","6","5","1","6","7","7","6","5","3","7","2","7","5","6","6","5","7","6","5","2","3","3","7","5","6","6","7","7","2","6","5","2","6","6","5","4","7","718788150628974592","刘","570","Male","[""坏他"",""好我"",""坏我"",""好他""]","[""弱他"",""强我"",""弱我"",""强他""]","","","","","","","","","","","","","","","","","","","","","","","","","","","","","","feedback_test","","","","","","","",""
"712","","j","psychophysics","66","314763","0.0-8.0-1.0-1.0-0.0-0.28","7","6","7","5","5","5","2","5","4","5","4","-2","-1","2","1","-3","1","2","1","5","5","5","5","4","5","4","5","5","4","8","7","8","7","4","8","8","8","9","5","7","6","6","5","1","6","7","7","6","5","3","7","2","7","5","6","6","5","7","6","5","2","3","3","7","5","6","6","7","7","2","6","5","2","6","6","5","4","7","718788150628974592","刘","570","Male","[""坏他"",""好我"",""坏我"",""好他""]","[""弱他"",""强我"",""弱我"",""强他""]","","","","","","","","nonmatch","","","","","","","","","","key","j","16.662558823529466","768","428","f","false","match","img/triangle.png","弱我","弱我","prac_ALT2_ability","practice_ability","","","","","","","",""
"null","<span style='color:red; font-size: 70px;'>错误! </span>","null","html-keyboard-response","67","315264","0.0-8.0-1.0-1.0-0.0-1.28","7","6","7","5","5","5","2","5","4","5","4","-2","-1","2","1","-3","1","2","1","5","5","5","5","4","5","4","5","5","4","8","7","8","7","4","8","8","8","9","5","7","6","6","5","1","6","7","7","6","5","3","7","2","7","5","6","6","5","7","6","5","2","3","3","7","5","6","6","7","7","2","6","5","2","6","6","5","4","7","718788150628974592","刘","570","Male","[""坏他"",""好我"",""坏我"",""好他""]","[""弱他"",""强我"",""弱我"",""强他""]","","","","","","","","","","","","","","","","","","","","","","","","","","","","","","feedback_test","","","","","","","",""
"666","","f","psychophysics","68","316931","0.0-8.0-1.0-1.0-0.0-0.29","7","6","7","5","5","5","2","5","4","5","4","-2","-1","2","1","-3","1","2","1","5","5","5","5","4","5","4","5","5","4","8","7","8","7","4","8","8","8","9","5","7","6","6","5","1","6","7","7","6","5","3","7","2","7","5","6","6","5","7","6","5","2","3","3","7","5","6","6","7","7","2","6","5","2","6","6","5","4","7","718788150628974592","刘","570","Male","[""坏他"",""好我"",""坏我"",""好他""]","[""弱他"",""强我"",""弱我"",""强他""]","","","","","","","","match","","","","","","","","","","key","f","16.659404040403626","768","428","f","true","match","img/hexagon.png","强我","强我","prac_ALT2_ability","practice_ability","","","","","","","",""
"null","<span style='color:GreenYellow; font-size: 70px;'>正确! </span>","null","html-keyboard-response","69","317432","0.0-8.0-1.0-1.0-0.0-1.29","7","6","7","5","5","5","2","5","4","5","4","-2","-1","2","1","-3","1","2","1","5","5","5","5","4","5","4","5","5","4","8","7","8","7","4","8","8","8","9","5","7","6","6","5","1","6","7","7","6","5","3","7","2","7","5","6","6","5","7","6","5","2","3","3","7","5","6","6","7","7","2","6","5","2","6","6","5","4","7","718788150628974592","刘","570","Male","[""坏他"",""好我"",""坏我"",""好他""]","[""弱他"",""强我"",""弱我"",""强他""]","","","","","","","","","","","","","","","","","","","","","","","","","","","","","","feedback_test","","","","","","","",""
"841","","j","psychophysics","70","319275","0.0-8.0-1.0-1.0-0.0-0.30","7","6","7","5","5","5","2","5","4","5","4","-2","-1","2","1","-3","1","2","1","5","5","5","5","4","5","4","5","5","4","8","7","8","7","4","8","8","8","9","5","7","6","6","5","1","6","7","7","6","5","3","7","2","7","5","6","6","5","7","6","5","2","3","3","7","5","6","6","7","7","2","6","5","2","6","6","5","4","7","718788150628974592","刘","570","Male","[""坏他"",""好我"",""坏我"",""好他""]","[""弱他"",""强我"",""弱我"",""强他""]","","","","","","","","nonmatch","","","","","","","","","","key","j","16.661281818182164","768","428","j","true","nonmatch","img/diamond.png","弱我","弱他","prac_ALT2_ability","practice_ability","","","","","","","",""
"null","<span style='color:GreenYellow; font-size: 70px;'>正确! </span>","null","html-keyboard-response","71","319776","0.0-8.0-1.0-1.0-0.0-1.30","7","6","7","5","5","5","2","5","4","5","4","-2","-1","2","1","-3","1","2","1","5","5","5","5","4","5","4","5","5","4","8","7","8","7","4","8","8","8","9","5","7","6","6","5","1","6","7","7","6","5","3","7","2","7","5","6","6","5","7","6","5","2","3","3","7","5","6","6","7","7","2","6","5","2","6","6","5","4","7","718788150628974592","刘","570","Male","[""坏他"",""好我"",""坏我"",""好他""]","[""弱他"",""强我"",""弱我"",""强他""]","","","","","","","","","","","","","","","","","","","","","","","","","","","","","","feedback_test","","","","","","","",""
"914","","j","psychophysics","72","321691","0.0-8.0-1.0-1.0-0.0-0.31","7","6","7","5","5","5","2","5","4","5","4","-2","-1","2","1","-3","1","2","1","5","5","5","5","4","5","4","5","5","4","8","7","8","7","4","8","8","8","9","5","7","6","6","5","1","6","7","7","6","5","3","7","2","7","5","6","6","5","7","6","5","2","3","3","7","5","6","6","7","7","2","6","5","2","6","6","5","4","7","718788150628974592","刘","570","Male","[""坏他"",""好我"",""坏我"",""好他""]","[""弱他"",""强我"",""弱我"",""强他""]","","","","","","","","nonmatch","","","","","","","","","","key","j","16.662377192982444","768","428","f","false","match","img/diamond.png","弱他","弱他","prac_ALT2_ability","practice_ability","","","","","","","",""
"null","<span style='color:red; font-size: 70px;'>错误! </span>","null","html-keyboard-response","73","322193","0.0-8.0-1.0-1.0-0.0-1.31","7","6","7","5","5","5","2","5","4","5","4","-2","-1","2","1","-3","1","2","1","5","5","5","5","4","5","4","5","5","4","8","7","8","7","4","8","8","8","9","5","7","6","6","5","1","6","7","7","6","5","3","7","2","7","5","6","6","5","7","6","5","2","3","3","7","5","6","6","7","7","2","6","5","2","6","6","5","4","7","718788150628974592","刘","570","Male","[""坏他"",""好我"",""坏我"",""好他""]","[""弱他"",""强我"",""弱我"",""强他""]","","","","","","","","","","","","","","","","","","","","","","","","","","","","","","feedback_test","","","","","","","",""
"862","","f","psychophysics","74","324055","0.0-8.0-1.0-1.0-0.0-0.32","7","6","7","5","5","5","2","5","4","5","4","-2","-1","2","1","-3","1","2","1","5","5","5","5","4","5","4","5","5","4","8","7","8","7","4","8","8","8","9","5","7","6","6","5","1","6","7","7","6","5","3","7","2","7","5","6","6","5","7","6","5","2","3","3","7","5","6","6","7","7","2","6","5","2","6","6","5","4","7","718788150628974592","刘","570","Male","[""坏他"",""好我"",""坏我"",""好他""]","[""弱他"",""强我"",""弱我"",""强他""]","","","","","","","","match","","","","","","","","","","key","f","16.660819819819512","768","428","f","true","match","img/triangle.png","弱我","弱我","prac_ALT2_ability","practice_ability","","","","","","","",""
"null","<span style='color:GreenYellow; font-size: 70px;'>正确! </span>","null","html-keyboard-response","75","324556","0.0-8.0-1.0-1.0-0.0-1.32","7","6","7","5","5","5","2","5","4","5","4","-2","-1","2","1","-3","1","2","1","5","5","5","5","4","5","4","5","5","4","8","7","8","7","4","8","8","8","9","5","7","6","6","5","1","6","7","7","6","5","3","7","2","7","5","6","6","5","7","6","5","2","3","3","7","5","6","6","7","7","2","6","5","2","6","6","5","4","7","718788150628974592","刘","570","Male","[""坏他"",""好我"",""坏我"",""好他""]","[""弱他"",""强我"",""弱我"",""强他""]","","","","","","","","","","","","","","","","","","","","","","","","","","","","","","feedback_test","","","","","","","",""
"935","","f","psychophysics","76","326491","0.0-8.0-1.0-1.0-0.0-0.33","7","6","7","5","5","5","2","5","4","5","4","-2","-1","2","1","-3","1","2","1","5","5","5","5","4","5","4","5","5","4","8","7","8","7","4","8","8","8","9","5","7","6","6","5","1","6","7","7","6","5","3","7","2","7","5","6","6","5","7","6","5","2","3","3","7","5","6","6","7","7","2","6","5","2","6","6","5","4","7","718788150628974592","刘","570","Male","[""坏他"",""好我"",""坏我"",""好他""]","[""弱他"",""强我"",""弱我"",""强他""]","","","","","","","","match","","","","","","","","","","key","f","16.660478260869706","768","428","f","true","match","img/ellipse.png","强他","强他","prac_ALT2_ability","practice_ability","","","","","","","",""
"null","<span style='color:GreenYellow; font-size: 70px;'>正确! </span>","null","html-keyboard-response","77","326992","0.0-8.0-1.0-1.0-0.0-1.33","7","6","7","5","5","5","2","5","4","5","4","-2","-1","2","1","-3","1","2","1","5","5","5","5","4","5","4","5","5","4","8","7","8","7","4","8","8","8","9","5","7","6","6","5","1","6","7","7","6","5","3","7","2","7","5","6","6","5","7","6","5","2","3","3","7","5","6","6","7","7","2","6","5","2","6","6","5","4","7","718788150628974592","刘","570","Male","[""坏他"",""好我"",""坏我"",""好他""]","[""弱他"",""强我"",""弱我"",""强他""]","","","","","","","","","","","","","","","","","","","","","","","","","","","","","","feedback_test","","","","","","","",""
"778","","j","psychophysics","78","328771","0.0-8.0-1.0-1.0-0.0-0.34","7","6","7","5","5","5","2","5","4","5","4","-2","-1","2","1","-3","1","2","1","5","5","5","5","4","5","4","5","5","4","8","7","8","7","4","8","8","8","9","5","7","6","6","5","1","6","7","7","6","5","3","7","2","7","5","6","6","5","7","6","5","2","3","3","7","5","6","6","7","7","2","6","5","2","6","6","5","4","7","718788150628974592","刘","570","Male","[""坏他"",""好我"",""坏我"",""好他""]","[""弱他"",""强我"",""弱我"",""强他""]","","","","","","","","nonmatch","","","","","","","","","","key","j","16.659575471697917","768","428","j","true","nonmatch","img/ellipse.png","弱我","强他","prac_ALT2_ability","practice_ability","","","","","","","",""
"null","<span style='color:GreenYellow; font-size: 70px;'>正确! </span>","null","html-keyboard-response","79","329272","0.0-8.0-1.0-1.0-0.0-1.34","7","6","7","5","5","5","2","5","4","5","4","-2","-1","2","1","-3","1","2","1","5","5","5","5","4","5","4","5","5","4","8","7","8","7","4","8","8","8","9","5","7","6","6","5","1","6","7","7","6","5","3","7","2","7","5","6","6","5","7","6","5","2","3","3","7","5","6","6","7","7","2","6","5","2","6","6","5","4","7","718788150628974592","刘","570","Male","[""坏他"",""好我"",""坏我"",""好他""]","[""弱他"",""强我"",""弱我"",""强他""]","","","","","","","","","","","","","","","","","","","","","","","","","","","","","","feedback_test","","","","","","","",""
"738","","j","psychophysics","80","331011","0.0-8.0-1.0-1.0-0.0-0.35","7","6","7","5","5","5","2","5","4","5","4","-2","-1","2","1","-3","1","2","1","5","5","5","5","4","5","4","5","5","4","8","7","8","7","4","8","8","8","9","5","7","6","6","5","1","6","7","7","6","5","3","7","2","7","5","6","6","5","7","6","5","2","3","3","7","5","6","6","7","7","2","6","5","2","6","6","5","4","7","718788150628974592","刘","570","Male","[""坏他"",""好我"",""坏我"",""好他""]","[""弱他"",""强我"",""弱我"",""强他""]","","","","","","","","nonmatch","","","","","","","","","","key","j","16.661213592233395","768","428","j","true","nonmatch","img/triangle.png","强他","弱我","prac_ALT2_ability","practice_ability","","","","","","","",""
"null","<span style='color:GreenYellow; font-size: 70px;'>正确! </span>","null","html-keyboard-response","81","331512","0.0-8.0-1.0-1.0-0.0-1.35","7","6","7","5","5","5","2","5","4","5","4","-2","-1","2","1","-3","1","2","1","5","5","5","5","4","5","4","5","5","4","8","7","8","7","4","8","8","8","9","5","7","6","6","5","1","6","7","7","6","5","3","7","2","7","5","6","6","5","7","6","5","2","3","3","7","5","6","6","7","7","2","6","5","2","6","6","5","4","7","718788150628974592","刘","570","Male","[""坏他"",""好我"",""坏我"",""好他""]","[""弱他"",""强我"",""弱我"",""强他""]","","","","","","","","","","","","","","","","","","","","","","","","","","","","","","feedback_test","","","","","","","",""
"899","","j","psychophysics","82","333411","0.0-8.0-1.0-1.0-0.0-0.36","7","6","7","5","5","5","2","5","4","5","4","-2","-1","2","1","-3","1","2","1","5","5","5","5","4","5","4","5","5","4","8","7","8","7","4","8","8","8","9","5","7","6","6","5","1","6","7","7","6","5","3","7","2","7","5","6","6","5","7","6","5","2","3","3","7","5","6","6","7","7","2","6","5","2","6","6","5","4","7","718788150628974592","刘","570","Male","[""坏他"",""好我"",""坏我"",""好他""]","[""弱他"",""强我"",""弱我"",""强他""]","","","","","","","","nonmatch","","","","","","","","","","key","j","16.66136283185838","768","428","j","true","nonmatch","img/ellipse.png","强我","强他","prac_ALT2_ability","practice_ability","","","","","","","",""
"null","<span style='color:GreenYellow; font-size: 70px;'>正确! </span>","null","html-keyboard-response","83","333913","0.0-8.0-1.0-1.0-0.0-1.36","7","6","7","5","5","5","2","5","4","5","4","-2","-1","2","1","-3","1","2","1","5","5","5","5","4","5","4","5","5","4","8","7","8","7","4","8","8","8","9","5","7","6","6","5","1","6","7","7","6","5","3","7","2","7","5","6","6","5","7","6","5","2","3","3","7","5","6","6","7","7","2","6","5","2","6","6","5","4","7","718788150628974592","刘","570","Male","[""坏他"",""好我"",""坏我"",""好他""]","[""弱他"",""强我"",""弱我"",""强他""]","","","","","","","","","","","","","","","","","","","","","","","","","","","","","","feedback_test","","","","","","","",""
"803","","j","psychophysics","84","335718","0.0-8.0-1.0-1.0-0.0-0.37","7","6","7","5","5","5","2","5","4","5","4","-2","-1","2","1","-3","1","2","1","5","5","5","5","4","5","4","5","5","4","8","7","8","7","4","8","8","8","9","5","7","6","6","5","1","6","7","7","6","5","3","7","2","7","5","6","6","5","7","6","5","2","3","3","7","5","6","6","7","7","2","6","5","2","6","6","5","4","7","718788150628974592","刘","570","Male","[""坏他"",""好我"",""坏我"",""好他""]","[""弱他"",""强我"",""弱我"",""强他""]","","","","","","","","nonmatch","","","","","","","","","","key","j","16.66191666666688","768","428","j","true","nonmatch","img/triangle.png","强我","弱我","prac_ALT2_ability","practice_ability","","","","","","","",""
"null","<span style='color:GreenYellow; font-size: 70px;'>正确! </span>","null","html-keyboard-response","85","336220","0.0-8.0-1.0-1.0-0.0-1.37","7","6","7","5","5","5","2","5","4","5","4","-2","-1","2","1","-3","1","2","1","5","5","5","5","4","5","4","5","5","4","8","7","8","7","4","8","8","8","9","5","7","6","6","5","1","6","7","7","6","5","3","7","2","7","5","6","6","5","7","6","5","2","3","3","7","5","6","6","7","7","2","6","5","2","6","6","5","4","7","718788150628974592","刘","570","Male","[""坏他"",""好我"",""坏我"",""好他""]","[""弱他"",""强我"",""弱我"",""强他""]","","","","","","","","","","","","","","","","","","","","","","","","","","","","","","feedback_test","","","","","","","",""
"726","","j","psychophysics","86","337947","0.0-8.0-1.0-1.0-0.0-0.38","7","6","7","5","5","5","2","5","4","5","4","-2","-1","2","1","-3","1","2","1","5","5","5","5","4","5","4","5","5","4","8","7","8","7","4","8","8","8","9","5","7","6","6","5","1","6","7","7","6","5","3","7","2","7","5","6","6","5","7","6","5","2","3","3","7","5","6","6","7","7","2","6","5","2","6","6","5","4","7","718788150628974592","刘","570","Male","[""坏他"",""好我"",""坏我"",""好他""]","[""弱他"",""强我"",""弱我"",""强他""]","","","","","","","","nonmatch","","","","","","","","","","key","j","16.6605784313727","768","428","j","true","nonmatch","img/hexagon.png","强他","强我","prac_ALT2_ability","practice_ability","","","","","","","",""
"null","<span style='color:GreenYellow; font-size: 70px;'>正确! </span>","null","html-keyboard-response","87","338447","0.0-8.0-1.0-1.0-0.0-1.38","7","6","7","5","5","5","2","5","4","5","4","-2","-1","2","1","-3","1","2","1","5","5","5","5","4","5","4","5","5","4","8","7","8","7","4","8","8","8","9","5","7","6","6","5","1","6","7","7","6","5","3","7","2","7","5","6","6","5","7","6","5","2","3","3","7","5","6","6","7","7","2","6","5","2","6","6","5","4","7","718788150628974592","刘","570","Male","[""坏他"",""好我"",""坏我"",""好他""]","[""弱他"",""强我"",""弱我"",""强他""]","","","","","","","","","","","","","","","","","","","","","","","","","","","","","","feedback_test","","","","","","","",""
"779","","j","psychophysics","88","340227","0.0-8.0-1.0-1.0-0.0-0.39","7","6","7","5","5","5","2","5","4","5","4","-2","-1","2","1","-3","1","2","1","5","5","5","5","4","5","4","5","5","4","8","7","8","7","4","8","8","8","9","5","7","6","6","5","1","6","7","7","6","5","3","7","2","7","5","6","6","5","7","6","5","2","3","3","7","5","6","6","7","7","2","6","5","2","6","6","5","4","7","718788150628974592","刘","570","Male","[""坏他"",""好我"",""坏我"",""好他""]","[""弱他"",""强我"",""弱我"",""强他""]","","","","","","","","nonmatch","","","","","","","","","","key","j","16.66088571428554","768","428","j","true","nonmatch","img/diamond.png","强我","弱他","prac_ALT2_ability","practice_ability","","","","","","","",""
"null","<span style='color:GreenYellow; font-size: 70px;'>正确! </span>","null","html-keyboard-response","89","340728","0.0-8.0-1.0-1.0-0.0-1.39","7","6","7","5","5","5","2","5","4","5","4","-2","-1","2","1","-3","1","2","1","5","5","5","5","4","5","4","5","5","4","8","7","8","7","4","8","8","8","9","5","7","6","6","5","1","6","7","7","6","5","3","7","2","7","5","6","6","5","7","6","5","2","3","3","7","5","6","6","7","7","2","6","5","2","6","6","5","4","7","718788150628974592","刘","570","Male","[""坏他"",""好我"",""坏我"",""好他""]","[""弱他"",""强我"",""弱我"",""强他""]","","","","","","","","","","","","","","","","","","","","","","","","","","","","","","feedback_test","","","","","","","",""
"938","","j","psychophysics","90","342667","0.0-8.0-1.0-1.0-0.0-0.40","7","6","7","5","5","5","2","5","4","5","4","-2","-1","2","1","-3","1","2","1","5","5","5","5","4","5","4","5","5","4","8","7","8","7","4","8","8","8","9","5","7","6","6","5","1","6","7","7","6","5","3","7","2","7","5","6","6","5","7","6","5","2","3","3","7","5","6","6","7","7","2","6","5","2","6","6","5","4","7","718788150628974592","刘","570","Male","[""坏他"",""好我"",""坏我"",""好他""]","[""弱他"",""强我"",""弱我"",""强他""]","","","","","","","","nonmatch","","","","","","","","","","key","j","16.659336206896114","768","428","f","false","match","img/diamond.png","弱他","弱他","prac_ALT2_ability","practice_ability","","","","","","","",""
"null","<span style='color:red; font-size: 70px;'>错误! </span>","null","html-keyboard-response","91","343167","0.0-8.0-1.0-1.0-0.0-1.40","7","6","7","5","5","5","2","5","4","5","4","-2","-1","2","1","-3","1","2","1","5","5","5","5","4","5","4","5","5","4","8","7","8","7","4","8","8","8","9","5","7","6","6","5","1","6","7","7","6","5","3","7","2","7","5","6","6","5","7","6","5","2","3","3","7","5","6","6","7","7","2","6","5","2","6","6","5","4","7","718788150628974592","刘","570","Male","[""坏他"",""好我"",""坏我"",""好他""]","[""弱他"",""强我"",""弱我"",""强他""]","","","","","","","","","","","","","","","","","","","","","","","","","","","","","","feedback_test","","","","","","","",""
"731","","f","psychophysics","92","344900","0.0-8.0-1.0-1.0-0.0-0.41","7","6","7","5","5","5","2","5","4","5","4","-2","-1","2","1","-3","1","2","1","5","5","5","5","4","5","4","5","5","4","8","7","8","7","4","8","8","8","9","5","7","6","6","5","1","6","7","7","6","5","3","7","2","7","5","6","6","5","7","6","5","2","3","3","7","5","6","6","7","7","2","6","5","2","6","6","5","4","7","718788150628974592","刘","570","Male","[""坏他"",""好我"",""坏我"",""好他""]","[""弱他"",""强我"",""弱我"",""强他""]","","","","","","","","match","","","","","","","","","","key","f","16.661155339805703","768","428","f","true","match","img/hexagon.png","强我","强我","prac_ALT2_ability","practice_ability","","","","","","","",""
"null","<span style='color:GreenYellow; font-size: 70px;'>正确! </span>","null","html-keyboard-response","93","345401","0.0-8.0-1.0-1.0-0.0-1.41","7","6","7","5","5","5","2","5","4","5","4","-2","-1","2","1","-3","1","2","1","5","5","5","5","4","5","4","5","5","4","8","7","8","7","4","8","8","8","9","5","7","6","6","5","1","6","7","7","6","5","3","7","2","7","5","6","6","5","7","6","5","2","3","3","7","5","6","6","7","7","2","6","5","2","6","6","5","4","7","718788150628974592","刘","570","Male","[""坏他"",""好我"",""坏我"",""好他""]","[""弱他"",""强我"",""弱我"",""强他""]","","","","","","","","","","","","","","","","","","","","","","","","","","","","","","feedback_test","","","","","","","",""
"746","","f","psychophysics","94","347149","0.0-8.0-1.0-1.0-0.0-0.42","7","6","7","5","5","5","2","5","4","5","4","-2","-1","2","1","-3","1","2","1","5","5","5","5","4","5","4","5","5","4","8","7","8","7","4","8","8","8","9","5","7","6","6","5","1","6","7","7","6","5","3","7","2","7","5","6","6","5","7","6","5","2","3","3","7","5","6","6","7","7","2","6","5","2","6","6","5","4","7","718788150628974592","刘","570","Male","[""坏他"",""好我"",""坏我"",""好他""]","[""弱他"",""强我"",""弱我"",""强他""]","","","","","","","","match","","","","","","","","","","key","f","16.662173076923445","768","428","j","false","nonmatch","img/triangle.png","弱他","弱我","prac_ALT2_ability","practice_ability","","","","","","","",""
"null","<span style='color:red; font-size: 70px;'>错误! </span>","null","html-keyboard-response","95","347650","0.0-8.0-1.0-1.0-0.0-1.42","7","6","7","5","5","5","2","5","4","5","4","-2","-1","2","1","-3","1","2","1","5","5","5","5","4","5","4","5","5","4","8","7","8","7","4","8","8","8","9","5","7","6","6","5","1","6","7","7","6","5","3","7","2","7","5","6","6","5","7","6","5","2","3","3","7","5","6","6","7","7","2","6","5","2","6","6","5","4","7","718788150628974592","刘","570","Male","[""坏他"",""好我"",""坏我"",""好他""]","[""弱他"",""强我"",""弱我"",""强他""]","","","","","","","","","","","","","","","","","","","","","","","","","","","","","","feedback_test","","","","","","","",""
"825","","j","psychophysics","96","349476","0.0-8.0-1.0-1.0-0.0-0.43","7","6","7","5","5","5","2","5","4","5","4","-2","-1","2","1","-3","1","2","1","5","5","5","5","4","5","4","5","5","4","8","7","8","7","4","8","8","8","9","5","7","6","6","5","1","6","7","7","6","5","3","7","2","7","5","6","6","5","7","6","5","2","3","3","7","5","6","6","7","7","2","6","5","2","6","6","5","4","7","718788150628974592","刘","570","Male","[""坏他"",""好我"",""坏我"",""好他""]","[""弱他"",""强我"",""弱我"",""强他""]","","","","","","","","nonmatch","","","","","","","","","","key","j","16.662629629629752","768","428","j","true","nonmatch","img/ellipse.png","弱他","强他","prac_ALT2_ability","practice_ability","","","","","","","",""
"null","<span style='color:GreenYellow; font-size: 70px;'>正确! </span>","null","html-keyboard-response","97","349977","0.0-8.0-1.0-1.0-0.0-1.43","7","6","7","5","5","5","2","5","4","5","4","-2","-1","2","1","-3","1","2","1","5","5","5","5","4","5","4","5","5","4","8","7","8","7","4","8","8","8","9","5","7","6","6","5","1","6","7","7","6","5","3","7","2","7","5","6","6","5","7","6","5","2","3","3","7","5","6","6","7","7","2","6","5","2","6","6","5","4","7","718788150628974592","刘","570","Male","[""坏他"",""好我"",""坏我"",""好他""]","[""弱他"",""强我"",""弱我"",""强他""]","","","","","","","","","","","","","","","","","","","","","","","","","","","","","","feedback_test","","","","","","","",""
"714","","f","psychophysics","98","351692","0.0-8.0-1.0-1.0-0.0-0.44","7","6","7","5","5","5","2","5","4","5","4","-2","-1","2","1","-3","1","2","1","5","5","5","5","4","5","4","5","5","4","8","7","8","7","4","8","8","8","9","5","7","6","6","5","1","6","7","7","6","5","3","7","2","7","5","6","6","5","7","6","5","2","3","3","7","5","6","6","7","7","2","6","5","2","6","6","5","4","7","718788150628974592","刘","570","Male","[""坏他"",""好我"",""坏我"",""好他""]","[""弱他"",""强我"",""弱我"",""强他""]","","","","","","","","match","","","","","","","","","","key","f","16.662294117647097","768","428","f","true","match","img/hexagon.png","强我","强我","prac_ALT2_ability","practice_ability","","","","","","","",""
"null","<span style='color:GreenYellow; font-size: 70px;'>正确! </span>","null","html-keyboard-response","99","352192","0.0-8.0-1.0-1.0-0.0-1.44","7","6","7","5","5","5","2","5","4","5","4","-2","-1","2","1","-3","1","2","1","5","5","5","5","4","5","4","5","5","4","8","7","8","7","4","8","8","8","9","5","7","6","6","5","1","6","7","7","6","5","3","7","2","7","5","6","6","5","7","6","5","2","3","3","7","5","6","6","7","7","2","6","5","2","6","6","5","4","7","718788150628974592","刘","570","Male","[""坏他"",""好我"",""坏我"",""好他""]","[""弱他"",""强我"",""弱我"",""强他""]","","","","","","","","","","","","","","","","","","","","","","","","","","","","","","feedback_test","","","","","","","",""
"771","","f","psychophysics","100","353963","0.0-8.0-1.0-1.0-0.0-0.45","7","6","7","5","5","5","2","5","4","5","4","-2","-1","2","1","-3","1","2","1","5","5","5","5","4","5","4","5","5","4","8","7","8","7","4","8","8","8","9","5","7","6","6","5","1","6","7","7","6","5","3","7","2","7","5","6","6","5","7","6","5","2","3","3","7","5","6","6","7","7","2","6","5","2","6","6","5","4","7","718788150628974592","刘","570","Male","[""坏他"",""好我"",""坏我"",""好他""]","[""弱他"",""强我"",""弱我"",""强他""]","","","","","","","","match","","","","","","","","","","key","f","16.660323809523558","768","428","f","true","match","img/triangle.png","弱我","弱我","prac_ALT2_ability","practice_ability","","","","","","","",""
"null","<span style='color:GreenYellow; font-size: 70px;'>正确! </span>","null","html-keyboard-response","101","354464","0.0-8.0-1.0-1.0-0.0-1.45","7","6","7","5","5","5","2","5","4","5","4","-2","-1","2","1","-3","1","2","1","5","5","5","5","4","5","4","5","5","4","8","7","8","7","4","8","8","8","9","5","7","6","6","5","1","6","7","7","6","5","3","7","2","7","5","6","6","5","7","6","5","2","3","3","7","5","6","6","7","7","2","6","5","2","6","6","5","4","7","718788150628974592","刘","570","Male","[""坏他"",""好我"",""坏我"",""好他""]","[""弱他"",""强我"",""弱我"",""强他""]","","","","","","","","","","","","","","","","","","","","","","","","","","","","","","feedback_test","","","","","","","",""
"834","","f","psychophysics","102","356300","0.0-8.0-1.0-1.0-0.0-0.46","7","6","7","5","5","5","2","5","4","5","4","-2","-1","2","1","-3","1","2","1","5","5","5","5","4","5","4","5","5","4","8","7","8","7","4","8","8","8","9","5","7","6","6","5","1","6","7","7","6","5","3","7","2","7","5","6","6","5","7","6","5","2","3","3","7","5","6","6","7","7","2","6","5","2","6","6","5","4","7","718788150628974592","刘","570","Male","[""坏他"",""好我"",""坏我"",""好他""]","[""弱他"",""强我"",""弱我"",""强他""]","","","","","","","","match","","","","","","","","","","key","f","16.660963302752144","768","428","f","true","match","img/ellipse.png","强他","强他","prac_ALT2_ability","practice_ability","","","","","","","",""
"null","<span style='color:GreenYellow; font-size: 70px;'>正确! </span>","null","html-keyboard-response","103","356800","0.0-8.0-1.0-1.0-0.0-1.46","7","6","7","5","5","5","2","5","4","5","4","-2","-1","2","1","-3","1","2","1","5","5","5","5","4","5","4","5","5","4","8","7","8","7","4","8","8","8","9","5","7","6","6","5","1","6","7","7","6","5","3","7","2","7","5","6","6","5","7","6","5","2","3","3","7","5","6","6","7","7","2","6","5","2","6","6","5","4","7","718788150628974592","刘","570","Male","[""坏他"",""好我"",""坏我"",""好他""]","[""弱他"",""强我"",""弱我"",""强他""]","","","","","","","","","","","","","","","","","","","","","","","","","","","","","","feedback_test","","","","","","","",""
"835","","j","psychophysics","104","358636","0.0-8.0-1.0-1.0-0.0-0.47","7","6","7","5","5","5","2","5","4","5","4","-2","-1","2","1","-3","1","2","1","5","5","5","5","4","5","4","5","5","4","8","7","8","7","4","8","8","8","9","5","7","6","6","5","1","6","7","7","6","5","3","7","2","7","5","6","6","5","7","6","5","2","3","3","7","5","6","6","7","7","2","6","5","2","6","6","5","4","7","718788150628974592","刘","570","Male","[""坏他"",""好我"",""坏我"",""好他""]","[""弱他"",""强我"",""弱我"",""强他""]","","","","","","","","nonmatch","","","","","","","","","","key","j","16.662568807339195","768","428","f","false","match","img/diamond.png","弱他","弱他","prac_ALT2_ability","practice_ability","","","","","","","",""
"null","<span style='color:red; font-size: 70px;'>错误! </span>","null","html-keyboard-response","105","359138","0.0-8.0-1.0-1.0-0.0-1.47","7","6","7","5","5","5","2","5","4","5","4","-2","-1","2","1","-3","1","2","1","5","5","5","5","4","5","4","5","5","4","8","7","8","7","4","8","8","8","9","5","7","6","6","5","1","6","7","7","6","5","3","7","2","7","5","6","6","5","7","6","5","2","3","3","7","5","6","6","7","7","2","6","5","2","6","6","5","4","7","718788150628974592","刘","570","Male","[""坏他"",""好我"",""坏我"",""好他""]","[""弱他"",""强我"",""弱我"",""强他""]","","","","","","","","","","","","","","","","","","","","","","","","","","","","","","feedback_test","","","","","","","",""
"5128","<style>.context{color:white; font-size: 35px; line-height:40px}</style>                          <div><p class='context'>您正确回答了79% 的试次。</p><p class='context'>您的平均反应时为835毫秒。</p><p class='context'>恭喜您完成练习。按空格键进入正式实验。</p><p class='footer' style='color:white;font-size: 35px; line-height:40px;'>请在进入正式实验实验之前将您的<span style='color: lightgreen;'>食指</span>放在电脑键盘的相应键位上进行按键。</p>"," ","html-keyboard-response","106","364267","0.0-8.0-1.0-2.0","7","6","7","5","5","5","2","5","4","5","4","-2","-1","2","1","-3","1","2","1","5","5","5","5","4","5","4","5","5","4","8","7","8","7","4","8","8","8","9","5","7","6","6","5","1","6","7","7","6","5","3","7","2","7","5","6","6","5","7","6","5","2","3","3","7","5","6","6","7","7","2","6","5","2","6","6","5","4","7","718788150628974592","刘","570","Male","[""坏他"",""好我"",""坏我"",""好他""]","[""弱他"",""强我"",""弱我"",""强他""]","","","","","","","","","","","","","","","","","","","","","","","","","","","","","","","","","","","","","",""
"2725","
  <p style='color: white; font-size: 22px'>请您将手指放在按键上，准备进入正式的匹配任务。</p>
  <p> <div style = ""color: green""><按空格键进入下一阶段的匹配任务></div></p>
  "," ","html-keyboard-response","107","366995","0.0-8.0-1.0-3.0","7","6","7","5","5","5","2","5","4","5","4","-2","-1","2","1","-3","1","2","1","5","5","5","5","4","5","4","5","5","4","8","7","8","7","4","8","8","8","9","5","7","6","6","5","1","6","7","7","6","5","3","7","2","7","5","6","6","5","7","6","5","2","3","3","7","5","6","6","7","7","2","6","5","2","6","6","5","4","7","718788150628974592","刘","570","Male","[""坏他"",""好我"",""坏我"",""好他""]","[""弱他"",""强我"",""弱我"",""强他""]","","","","","","","","","","","","","","","","","","","","","","","","","","","","","","","","","","","","","",""
"920","","f","psychophysics","108","368916","0.0-8.0-1.0-4.0-0.0-0.0","7","6","7","5","5","5","2","5","4","5","4","-2","-1","2","1","-3","1","2","1","5","5","5","5","4","5","4","5","5","4","8","7","8","7","4","8","8","8","9","5","7","6","6","5","1","6","7","7","6","5","3","7","2","7","5","6","6","5","7","6","5","2","3","3","7","5","6","6","7","7","2","6","5","2","6","6","5","4","7","718788150628974592","刘","570","Male","[""坏他"",""好我"",""坏我"",""好他""]","[""弱他"",""强我"",""弱我"",""强他""]","","","","","","","","match","","","","","","","","","","key","f","16.66242982456134","768","428","f","true","match","img/ellipse.png","强他","强他","ALT2","ability","","","","","","","",""
"null","<span style='color:GreenYellow; font-size: 70px;'>正确! </span>","null","html-keyboard-response","109","369417","0.0-8.0-1.0-4.0-0.0-1.0","7","6","7","5","5","5","2","5","4","5","4","-2","-1","2","1","-3","1","2","1","5","5","5","5","4","5","4","5","5","4","8","7","8","7","4","8","8","8","9","5","7","6","6","5","1","6","7","7","6","5","3","7","2","7","5","6","6","5","7","6","5","2","3","3","7","5","6","6","7","7","2","6","5","2","6","6","5","4","7","718788150628974592","刘","570","Male","[""坏他"",""好我"",""坏我"",""好他""]","[""弱他"",""强我"",""弱我"",""强他""]","","","","","","","","","","","","","","","","","","","","","","","","","","","","","","feedback_test","","","","","","","",""
"801","","j","psychophysics","110","371220","0.0-8.0-1.0-4.0-0.0-0.1","7","6","7","5","5","5","2","5","4","5","4","-2","-1","2","1","-3","1","2","1","5","5","5","5","4","5","4","5","5","4","8","7","8","7","4","8","8","8","9","5","7","6","6","5","1","6","7","7","6","5","3","7","2","7","5","6","6","5","7","6","5","2","3","3","7","5","6","6","7","7","2","6","5","2","6","6","5","4","7","718788150628974592","刘","570","Male","[""坏他"",""好我"",""坏我"",""好他""]","[""弱他"",""强我"",""弱我"",""强他""]","","","","","","","","nonmatch","","","","","","","","","","key","j","16.662738317757015","768","428","j","true","nonmatch","img/hexagon.png","弱他","强我","ALT2","ability","","","","","","","",""
"null","<span style='color:GreenYellow; font-size: 70px;'>正确! </span>","null","html-keyboard-response","111","371720","0.0-8.0-1.0-4.0-0.0-1.1","7","6","7","5","5","5","2","5","4","5","4","-2","-1","2","1","-3","1","2","1","5","5","5","5","4","5","4","5","5","4","8","7","8","7","4","8","8","8","9","5","7","6","6","5","1","6","7","7","6","5","3","7","2","7","5","6","6","5","7","6","5","2","3","3","7","5","6","6","7","7","2","6","5","2","6","6","5","4","7","718788150628974592","刘","570","Male","[""坏他"",""好我"",""坏我"",""好他""]","[""弱他"",""强我"",""弱我"",""强他""]","","","","","","","","","","","","","","","","","","","","","","","","","","","","","","feedback_test","","","","","","","",""
"875","","j","psychophysics","112","373596","0.0-8.0-1.0-4.0-0.0-0.2","7","6","7","5","5","5","2","5","4","5","4","-2","-1","2","1","-3","1","2","1","5","5","5","5","4","5","4","5","5","4","8","7","8","7","4","8","8","8","9","5","7","6","6","5","1","6","7","7","6","5","3","7","2","7","5","6","6","5","7","6","5","2","3","3","7","5","6","6","7","7","2","6","5","2","6","6","5","4","7","718788150628974592","刘","570","Male","[""坏他"",""好我"",""坏我"",""好他""]","[""弱他"",""强我"",""弱我"",""强他""]","","","","","","","","nonmatch","","","","","","","","","","key","j","16.66118018018021","768","428","j","true","nonmatch","img/ellipse.png","弱我","强他","ALT2","ability","","","","","","","",""
"null","<span style='color:GreenYellow; font-size: 70px;'>正确! </span>","null","html-keyboard-response","113","374097","0.0-8.0-1.0-4.0-0.0-1.2","7","6","7","5","5","5","2","5","4","5","4","-2","-1","2","1","-3","1","2","1","5","5","5","5","4","5","4","5","5","4","8","7","8","7","4","8","8","8","9","5","7","6","6","5","1","6","7","7","6","5","3","7","2","7","5","6","6","5","7","6","5","2","3","3","7","5","6","6","7","7","2","6","5","2","6","6","5","4","7","718788150628974592","刘","570","Male","[""坏他"",""好我"",""坏我"",""好他""]","[""弱他"",""强我"",""弱我"",""强他""]","","","","","","","","","","","","","","","","","","","","","","","","","","","","","","feedback_test","","","","","","","",""
"857","","f","psychophysics","114","375956","0.0-8.0-1.0-4.0-0.0-0.3","7","6","7","5","5","5","2","5","4","5","4","-2","-1","2","1","-3","1","2","1","5","5","5","5","4","5","4","5","5","4","8","7","8","7","4","8","8","8","9","5","7","6","6","5","1","6","7","7","6","5","3","7","2","7","5","6","6","5","7","6","5","2","3","3","7","5","6","6","7","7","2","6","5","2","6","6","5","4","7","718788150628974592","刘","570","Male","[""坏他"",""好我"",""坏我"",""好他""]","[""弱他"",""强我"",""弱我"",""强他""]","","","","","","","","match","","","","","","","","","","key","f","16.66128828828821","768","428","j","false","nonmatch","img/hexagon.png","强他","强我","ALT2","ability","","","","","","","",""
"null","<span style='color:red; font-size: 70px;'>错误! </span>","null","html-keyboard-response","115","376456","0.0-8.0-1.0-4.0-0.0-1.3","7","6","7","5","5","5","2","5","4","5","4","-2","-1","2","1","-3","1","2","1","5","5","5","5","4","5","4","5","5","4","8","7","8","7","4","8","8","8","9","5","7","6","6","5","1","6","7","7","6","5","3","7","2","7","5","6","6","5","7","6","5","2","3","3","7","5","6","6","7","7","2","6","5","2","6","6","5","4","7","718788150628974592","刘","570","Male","[""坏他"",""好我"",""坏我"",""好他""]","[""弱他"",""强我"",""弱我"",""强他""]","","","","","","","","","","","","","","","","","","","","","","","","","","","","","","feedback_test","","","","","","","",""
"850","","j","psychophysics","116","378308","0.0-8.0-1.0-4.0-0.0-0.4","7","6","7","5","5","5","2","5","4","5","4","-2","-1","2","1","-3","1","2","1","5","5","5","5","4","5","4","5","5","4","8","7","8","7","4","8","8","8","9","5","7","6","6","5","1","6","7","7","6","5","3","7","2","7","5","6","6","5","7","6","5","2","3","3","7","5","6","6","7","7","2","6","5","2","6","6","5","4","7","718788150628974592","刘","570","Male","[""坏他"",""好我"",""坏我"",""好他""]","[""弱他"",""强我"",""弱我"",""强他""]","","","","","","","","nonmatch","","","","","","","","","","key","j","16.66118181818165","768","428","j","true","nonmatch","img/triangle.png","强他","弱我","ALT2","ability","","","","","","","",""
"null","<span style='color:GreenYellow; font-size: 70px;'>正确! </span>","null","html-keyboard-response","117","378809","0.0-8.0-1.0-4.0-0.0-1.4","7","6","7","5","5","5","2","5","4","5","4","-2","-1","2","1","-3","1","2","1","5","5","5","5","4","5","4","5","5","4","8","7","8","7","4","8","8","8","9","5","7","6","6","5","1","6","7","7","6","5","3","7","2","7","5","6","6","5","7","6","5","2","3","3","7","5","6","6","7","7","2","6","5","2","6","6","5","4","7","718788150628974592","刘","570","Male","[""坏他"",""好我"",""坏我"",""好他""]","[""弱他"",""强我"",""弱我"",""强他""]","","","","","","","","","","","","","","","","","","","","","","","","","","","","","","feedback_test","","","","","","","",""
"649","","f","psychophysics","118","380461","0.0-8.0-1.0-4.0-0.0-0.5","7","6","7","5","5","5","2","5","4","5","4","-2","-1","2","1","-3","1","2","1","5","5","5","5","4","5","4","5","5","4","8","7","8","7","4","8","8","8","9","5","7","6","6","5","1","6","7","7","6","5","3","7","2","7","5","6","6","5","7","6","5","2","3","3","7","5","6","6","7","7","2","6","5","2","6","6","5","4","7","718788150628974592","刘","570","Male","[""坏他"",""好我"",""坏我"",""好他""]","[""弱他"",""强我"",""弱我"",""强他""]","","","","","","","","match","","","","","","","","","","key","f","16.65953061224451","768","428","f","true","match","img/hexagon.png","强我","强我","ALT2","ability","","","","","","","",""
"null","<span style='color:GreenYellow; font-size: 70px;'>正确! </span>","null","html-keyboard-response","119","380962","0.0-8.0-1.0-4.0-0.0-1.5","7","6","7","5","5","5","2","5","4","5","4","-2","-1","2","1","-3","1","2","1","5","5","5","5","4","5","4","5","5","4","8","7","8","7","4","8","8","8","9","5","7","6","6","5","1","6","7","7","6","5","3","7","2","7","5","6","6","5","7","6","5","2","3","3","7","5","6","6","7","7","2","6","5","2","6","6","5","4","7","718788150628974592","刘","570","Male","[""坏他"",""好我"",""坏我"",""好他""]","[""弱他"",""强我"",""弱我"",""强他""]","","","","","","","","","","","","","","","","","","","","","","","","","","","","","","feedback_test","","","","","","","",""
"729","","f","psychophysics","120","382692","0.0-8.0-1.0-4.0-0.0-0.6","7","6","7","5","5","5","2","5","4","5","4","-2","-1","2","1","-3","1","2","1","5","5","5","5","4","5","4","5","5","4","8","7","8","7","4","8","8","8","9","5","7","6","6","5","1","6","7","7","6","5","3","7","2","7","5","6","6","5","7","6","5","2","3","3","7","5","6","6","7","7","2","6","5","2","6","6","5","4","7","718788150628974592","刘","570","Male","[""坏他"",""好我"",""坏我"",""好他""]","[""弱他"",""强我"",""弱我"",""强他""]","","","","","","","","match","","","","","","","","","","key","f","16.662747572815878","768","428","f","true","match","img/triangle.png","弱我","弱我","ALT2","ability","","","","","","","",""
"null","<span style='color:GreenYellow; font-size: 70px;'>正确! </span>","null","html-keyboard-response","121","383193","0.0-8.0-1.0-4.0-0.0-1.6","7","6","7","5","5","5","2","5","4","5","4","-2","-1","2","1","-3","1","2","1","5","5","5","5","4","5","4","5","5","4","8","7","8","7","4","8","8","8","9","5","7","6","6","5","1","6","7","7","6","5","3","7","2","7","5","6","6","5","7","6","5","2","3","3","7","5","6","6","7","7","2","6","5","2","6","6","5","4","7","718788150628974592","刘","570","Male","[""坏他"",""好我"",""坏我"",""好他""]","[""弱他"",""强我"",""弱我"",""强他""]","","","","","","","","","","","","","","","","","","","","","","","","","","","","","","feedback_test","","","","","","","",""
"642","","f","psychophysics","122","384837","0.0-8.0-1.0-4.0-0.0-0.7","7","6","7","5","5","5","2","5","4","5","4","-2","-1","2","1","-3","1","2","1","5","5","5","5","4","5","4","5","5","4","8","7","8","7","4","8","8","8","9","5","7","6","6","5","1","6","7","7","6","5","3","7","2","7","5","6","6","5","7","6","5","2","3","3","7","5","6","6","7","7","2","6","5","2","6","6","5","4","7","718788150628974592","刘","570","Male","[""坏他"",""好我"",""坏我"",""好他""]","[""弱他"",""强我"",""弱我"",""强他""]","","","","","","","","match","","","","","","","","","","key","f","16.661938775510155","768","428","f","true","match","img/hexagon.png","强我","强我","ALT2","ability","","","","","","","",""
"null","<span style='color:GreenYellow; font-size: 70px;'>正确! </span>","null","html-keyboard-response","123","385338","0.0-8.0-1.0-4.0-0.0-1.7","7","6","7","5","5","5","2","5","4","5","4","-2","-1","2","1","-3","1","2","1","5","5","5","5","4","5","4","5","5","4","8","7","8","7","4","8","8","8","9","5","7","6","6","5","1","6","7","7","6","5","3","7","2","7","5","6","6","5","7","6","5","2","3","3","7","5","6","6","7","7","2","6","5","2","6","6","5","4","7","718788150628974592","刘","570","Male","[""坏他"",""好我"",""坏我"",""好他""]","[""弱他"",""强我"",""弱我"",""强他""]","","","","","","","","","","","","","","","","","","","","","","","","","","","","","","feedback_test","","","","","","","",""
"810","","j","psychophysics","124","387150","0.0-8.0-1.0-4.0-0.0-0.8","7","6","7","5","5","5","2","5","4","5","4","-2","-1","2","1","-3","1","2","1","5","5","5","5","4","5","4","5","5","4","8","7","8","7","4","8","8","8","9","5","7","6","6","5","1","6","7","7","6","5","3","7","2","7","5","6","6","5","7","6","5","2","3","3","7","5","6","6","7","7","2","6","5","2","6","6","5","4","7","718788150628974592","刘","570","Male","[""坏他"",""好我"",""坏我"",""好他""]","[""弱他"",""强我"",""弱我"",""强他""]","","","","","","","","nonmatch","","","","","","","","","","key","j","16.659666666666723","768","428","j","true","nonmatch","img/diamond.png","强他","弱他","ALT2","ability","","","","","","","",""
"null","<span style='color:GreenYellow; font-size: 70px;'>正确! </span>","null","html-keyboard-response","125","387651","0.0-8.0-1.0-4.0-0.0-1.8","7","6","7","5","5","5","2","5","4","5","4","-2","-1","2","1","-3","1","2","1","5","5","5","5","4","5","4","5","5","4","8","7","8","7","4","8","8","8","9","5","7","6","6","5","1","6","7","7","6","5","3","7","2","7","5","6","6","5","7","6","5","2","3","3","7","5","6","6","7","7","2","6","5","2","6","6","5","4","7","718788150628974592","刘","570","Male","[""坏他"",""好我"",""坏我"",""好他""]","[""弱他"",""强我"",""弱我"",""强他""]","","","","","","","","","","","","","","","","","","","","","","","","","","","","","","feedback_test","","","","","","","",""
"800","","j","psychophysics","126","389451","0.0-8.0-1.0-4.0-0.0-0.9","7","6","7","5","5","5","2","5","4","5","4","-2","-1","2","1","-3","1","2","1","5","5","5","5","4","5","4","5","5","4","8","7","8","7","4","8","8","8","9","5","7","6","6","5","1","6","7","7","6","5","3","7","2","7","5","6","6","5","7","6","5","2","3","3","7","5","6","6","7","7","2","6","5","2","6","6","5","4","7","718788150628974592","刘","570","Male","[""坏他"",""好我"",""坏我"",""好他""]","[""弱他"",""强我"",""弱我"",""强他""]","","","","","","","","nonmatch","","","","","","","","","","key","j","16.66104672897213","768","428","j","true","nonmatch","img/diamond.png","强我","弱他","ALT2","ability","","","","","","","",""
"null","<span style='color:GreenYellow; font-size: 70px;'>正确! </span>","null","html-keyboard-response","127","389952","0.0-8.0-1.0-4.0-0.0-1.9","7","6","7","5","5","5","2","5","4","5","4","-2","-1","2","1","-3","1","2","1","5","5","5","5","4","5","4","5","5","4","8","7","8","7","4","8","8","8","9","5","7","6","6","5","1","6","7","7","6","5","3","7","2","7","5","6","6","5","7","6","5","2","3","3","7","5","6","6","7","7","2","6","5","2","6","6","5","4","7","718788150628974592","刘","570","Male","[""坏他"",""好我"",""坏我"",""好他""]","[""弱他"",""强我"",""弱我"",""强他""]","","","","","","","","","","","","","","","","","","","","","","","","","","","","","","feedback_test","","","","","","","",""
"859","","j","psychophysics","128","391812","0.0-8.0-1.0-4.0-0.0-0.10","7","6","7","5","5","5","2","5","4","5","4","-2","-1","2","1","-3","1","2","1","5","5","5","5","4","5","4","5","5","4","8","7","8","7","4","8","8","8","9","5","7","6","6","5","1","6","7","7","6","5","3","7","2","7","5","6","6","5","7","6","5","2","3","3","7","5","6","6","7","7","2","6","5","2","6","6","5","4","7","718788150628974592","刘","570","Male","[""坏他"",""好我"",""坏我"",""好他""]","[""弱他"",""强我"",""弱我"",""强他""]","","","","","","","","nonmatch","","","","","","","","","","key","j","16.660145454545273","768","428","f","false","match","img/diamond.png","弱他","弱他","ALT2","ability","","","","","","","",""
"null","<span style='color:red; font-size: 70px;'>错误! </span>","null","html-keyboard-response","129","392313","0.0-8.0-1.0-4.0-0.0-1.10","7","6","7","5","5","5","2","5","4","5","4","-2","-1","2","1","-3","1","2","1","5","5","5","5","4","5","4","5","5","4","8","7","8","7","4","8","8","8","9","5","7","6","6","5","1","6","7","7","6","5","3","7","2","7","5","6","6","5","7","6","5","2","3","3","7","5","6","6","7","7","2","6","5","2","6","6","5","4","7","718788150628974592","刘","570","Male","[""坏他"",""好我"",""坏我"",""好他""]","[""弱他"",""强我"",""弱我"",""强他""]","","","","","","","","","","","","","","","","","","","","","","","","","","","","","","feedback_test","","","","","","","",""
"850","","f","psychophysics","130","394163","0.0-8.0-1.0-4.0-0.0-0.11","7","6","7","5","5","5","2","5","4","5","4","-2","-1","2","1","-3","1","2","1","5","5","5","5","4","5","4","5","5","4","8","7","8","7","4","8","8","8","9","5","7","6","6","5","1","6","7","7","6","5","3","7","2","7","5","6","6","5","7","6","5","2","3","3","7","5","6","6","7","7","2","6","5","2","6","6","5","4","7","718788150628974592","刘","570","Male","[""坏他"",""好我"",""坏我"",""好他""]","[""弱他"",""强我"",""弱我"",""强他""]","","","","","","","","match","","","","","","","","","","key","f","16.661154545454668","768","428","f","true","match","img/ellipse.png","强他","强他","ALT2","ability","","","","","","","",""
"null","<span style='color:GreenYellow; font-size: 70px;'>正确! </span>","null","html-keyboard-response","131","394665","0.0-8.0-1.0-4.0-0.0-1.11","7","6","7","5","5","5","2","5","4","5","4","-2","-1","2","1","-3","1","2","1","5","5","5","5","4","5","4","5","5","4","8","7","8","7","4","8","8","8","9","5","7","6","6","5","1","6","7","7","6","5","3","7","2","7","5","6","6","5","7","6","5","2","3","3","7","5","6","6","7","7","2","6","5","2","6","6","5","4","7","718788150628974592","刘","570","Male","[""坏他"",""好我"",""坏我"",""好他""]","[""弱他"",""强我"",""弱我"",""强他""]","","","","","","","","","","","","","","","","","","","","","","","","","","","","","","feedback_test","","","","","","","",""
"833","","j","psychophysics","132","396500","0.0-8.0-1.0-4.0-0.0-0.12","7","6","7","5","5","5","2","5","4","5","4","-2","-1","2","1","-3","1","2","1","5","5","5","5","4","5","4","5","5","4","8","7","8","7","4","8","8","8","9","5","7","6","6","5","1","6","7","7","6","5","3","7","2","7","5","6","6","5","7","6","5","2","3","3","7","5","6","6","7","7","2","6","5","2","6","6","5","4","7","718788150628974592","刘","570","Male","[""坏他"",""好我"",""坏我"",""好他""]","[""弱他"",""强我"",""弱我"",""强他""]","","","","","","","","nonmatch","","","","","","","","","","key","j","16.66219266055049","768","428","f","false","match","img/diamond.png","弱他","弱他","ALT2","ability","","","","","","","",""
"null","<span style='color:red; font-size: 70px;'>错误! </span>","null","html-keyboard-response","133","397001","0.0-8.0-1.0-4.0-0.0-1.12","7","6","7","5","5","5","2","5","4","5","4","-2","-1","2","1","-3","1","2","1","5","5","5","5","4","5","4","5","5","4","8","7","8","7","4","8","8","8","9","5","7","6","6","5","1","6","7","7","6","5","3","7","2","7","5","6","6","5","7","6","5","2","3","3","7","5","6","6","7","7","2","6","5","2","6","6","5","4","7","718788150628974592","刘","570","Male","[""坏他"",""好我"",""坏我"",""好他""]","[""弱他"",""强我"",""弱我"",""强他""]","","","","","","","","","","","","","","","","","","","","","","","","","","","","","","feedback_test","","","","","","","",""
"906","","f","psychophysics","134","398907","0.0-8.0-1.0-4.0-0.0-0.13","7","6","7","5","5","5","2","5","4","5","4","-2","-1","2","1","-3","1","2","1","5","5","5","5","4","5","4","5","5","4","8","7","8","7","4","8","8","8","9","5","7","6","6","5","1","6","7","7","6","5","3","7","2","7","5","6","6","5","7","6","5","2","3","3","7","5","6","6","7","7","2","6","5","2","6","6","5","4","7","718788150628974592","刘","570","Male","[""坏他"",""好我"",""坏我"",""好他""]","[""弱他"",""强我"",""弱我"",""强他""]","","","","","","","","match","","","","","","","","","","key","f","16.662592920353656","768","428","f","true","match","img/triangle.png","弱我","弱我","ALT2","ability","","","","","","","",""
"null","<span style='color:GreenYellow; font-size: 70px;'>正确! </span>","null","html-keyboard-response","135","399408","0.0-8.0-1.0-4.0-0.0-1.13","7","6","7","5","5","5","2","5","4","5","4","-2","-1","2","1","-3","1","2","1","5","5","5","5","4","5","4","5","5","4","8","7","8","7","4","8","8","8","9","5","7","6","6","5","1","6","7","7","6","5","3","7","2","7","5","6","6","5","7","6","5","2","3","3","7","5","6","6","7","7","2","6","5","2","6","6","5","4","7","718788150628974592","刘","570","Male","[""坏他"",""好我"",""坏我"",""好他""]","[""弱他"",""强我"",""弱我"",""强他""]","","","","","","","","","","","","","","","","","","","","","","","","","","","","","","feedback_test","","","","","","","",""
"1019","","f","psychophysics","136","401428","0.0-8.0-1.0-4.0-0.0-0.14","7","6","7","5","5","5","2","5","4","5","4","-2","-1","2","1","-3","1","2","1","5","5","5","5","4","5","4","5","5","4","8","7","8","7","4","8","8","8","9","5","7","6","6","5","1","6","7","7","6","5","3","7","2","7","5","6","6","5","7","6","5","2","3","3","7","5","6","6","7","7","2","6","5","2","6","6","5","4","7","718788150628974592","刘","570","Male","[""坏他"",""好我"",""坏我"",""好他""]","[""弱他"",""强我"",""弱我"",""强他""]","","","","","","","","match","","","","","","","","","","key","f","16.661396694215195","768","428","j","false","nonmatch","img/diamond.png","弱我","弱他","ALT2","ability","","","","","","","",""
"null","<span style='color:red; font-size: 70px;'>错误! </span>","null","html-keyboard-response","137","401930","0.0-8.0-1.0-4.0-0.0-1.14","7","6","7","5","5","5","2","5","4","5","4","-2","-1","2","1","-3","1","2","1","5","5","5","5","4","5","4","5","5","4","8","7","8","7","4","8","8","8","9","5","7","6","6","5","1","6","7","7","6","5","3","7","2","7","5","6","6","5","7","6","5","2","3","3","7","5","6","6","7","7","2","6","5","2","6","6","5","4","7","718788150628974592","刘","570","Male","[""坏他"",""好我"",""坏我"",""好他""]","[""弱他"",""强我"",""弱我"",""强他""]","","","","","","","","","","","","","","","","","","","","","","","","","","","","","","feedback_test","","","","","","","",""
"825","","f","psychophysics","138","403756","0.0-8.0-1.0-4.0-0.0-0.15","7","6","7","5","5","5","2","5","4","5","4","-2","-1","2","1","-3","1","2","1","5","5","5","5","4","5","4","5","5","4","8","7","8","7","4","8","8","8","9","5","7","6","6","5","1","6","7","7","6","5","3","7","2","7","5","6","6","5","7","6","5","2","3","3","7","5","6","6","7","7","2","6","5","2","6","6","5","4","7","718788150628974592","刘","570","Male","[""坏他"",""好我"",""坏我"",""好他""]","[""弱他"",""强我"",""弱我"",""强他""]","","","","","","","","match","","","","","","","","","","key","f","16.661120370369947","768","428","j","false","nonmatch","img/ellipse.png","强我","强他","ALT2","ability","","","","","","","",""
"null","<span style='color:red; font-size: 70px;'>错误! </span>","null","html-keyboard-response","139","404257","0.0-8.0-1.0-4.0-0.0-1.15","7","6","7","5","5","5","2","5","4","5","4","-2","-1","2","1","-3","1","2","1","5","5","5","5","4","5","4","5","5","4","8","7","8","7","4","8","8","8","9","5","7","6","6","5","1","6","7","7","6","5","3","7","2","7","5","6","6","5","7","6","5","2","3","3","7","5","6","6","7","7","2","6","5","2","6","6","5","4","7","718788150628974592","刘","570","Male","[""坏他"",""好我"",""坏我"",""好他""]","[""弱他"",""强我"",""弱我"",""强他""]","","","","","","","","","","","","","","","","","","","","","","","","","","","","","","feedback_test","","","","","","","",""
