"rt","stimulus","response","trial_type","trial_index","time_elapsed","internal_node_id","swb_1","swb_2","swb_3","swb_4","swb_5","LOT_1","LOT_2","LOT_3","LOT_4","LOT_5","LOT_6","IPC_1","IPC_2","IPC_3","IPC_4","IPC_5","IPC_6","IPC_7","IPC_8","MorIden_1","MorIden_2","MorIden_3","MorIden_4","MorIden_5","MorIden_6","MorIden_7","MorIden_8","MorIden_9","MorIden_10","moralSeImag_1","moralSeImag_2","moralSeImag_3","moralSeImag_4","moralSeImag_5","moralSeImag_6","moralSeImag_7","moralSeImag_8","moralSeImag_9","sde_1","sde_2","sde_3","sde_4","sde_5","sde_6","sde_7","sde_8","sde_9","sde_10","sde_11","sde_12","sde_13","sde_14","sde_15","sde_16","sde_17","sde_18","sde_19","sde_20","IM_1","IM_2","IM_3","IM_4","IM_5","IM_6","IM_7","IM_8","IM_9","IM_10","IM_11","IM_12","IM_13","IM_14","IM_15","IM_16","IM_17","IM_18","IM_19","IM_20","subj_idx","friend_name","ParticipantID","Sex","Word","Word2","value","success","timeout","failed_images","failed_audio","failed_video","user_agent","responses","item_order","radio_event_ids","radio_event_times","key_event_times","mouse_event_times","straightlining","zigzagging","honeypot","task_id","screen_id","time_stamp","response_type","key_press","avg_frame_time","center_x","center_y","person","word","valence","domain","math","correct_response","correct","status","view_history","identity","duration","Image","condition","question_order"
"1600","
   <p><div style='color:white; font-size: 25px'>您好，欢迎参加本次实验。</div></p>
   <p><div style='color:white; font-size: 25px'>为充分保障您的权利，请确保您已经知晓并同意《参与实验同意书》以及《数据公开知情同意书》。</div></p>
   <p><div style='color:white; font-size: 25px'>如果您未见过上述内容，请咨询实验员。</div></p>
   <p style='color:white; font-size: 25px'>如果您选择继续实验，则表示您已经清楚两份知情同意书的内容并同意。</p>
   <p><div style = ""color: red;font-size:30px;"">请确保您记得day0的实验编号，您将在本次实验输入该编号，若您忘记，请咨询实验员后作答。</div></p>
   <p> <div style = ""color: green""><按空格键至下页></div> </p>
   "," ","html-keyboard-response","0","1608","0.0-0.0","5","5","6","5","6","4","3","4","5","4","5","0","1","0","0","-1","2","1","0","4","4","4","4","4","5","4","4","5","4","7","8","8","8","7","7","8","8","9","4","4","5","4","4","3","5","2","4","3","5","4","6","4","4","6","5","4","5","4","6","5","5","6","3","5","6","5","5","6","6","5","4","5","6","5","5","5","4","5","768419588089319425","林","401","Female","[""好她"",""坏她"",""坏我"",""好我""]","[""强她"",""弱她"",""弱我"",""强我""]","","","","","","","","","","","","","","","","","","","","","","","","","","","","","","","","","","","","","",""
"","","","call-function","1","1610","0.0-1.0-0.0","5","5","6","5","6","4","3","4","5","4","5","0","1","0","0","-1","2","1","0","4","4","4","4","4","5","4","4","5","4","7","8","8","8","7","7","8","8","9","4","4","5","4","4","3","5","2","4","3","5","4","6","4","4","6","5","4","5","4","6","5","5","6","3","5","6","5","5","6","6","5","4","5","6","5","5","5","4","5","768419588089319425","林","401","Female","[""好她"",""坏她"",""坏我"",""好我""]","[""强她"",""弱她"",""弱我"",""强我""]","","","","","","","","","","","","","","","","","","","","","","","","","","","","","","","","","","","","","",""
"24636","","[{""name"":""Sex"",""value"":""1""},{""name"":""friend_name"",""value"":""林""},{""name"":""ParticipantID"",""value"":""401""}]","survey-html-form","2","26249","0.0-1.0-1.0","5","5","6","5","6","4","3","4","5","4","5","0","1","0","0","-1","2","1","0","4","4","4","4","4","5","4","4","5","4","7","8","8","8","7","7","8","8","9","4","4","5","4","4","3","5","2","4","3","5","4","6","4","4","6","5","4","5","4","6","5","5","6","3","5","6","5","5","6","6","5","4","5","6","5","5","5","4","5","768419588089319425","林","401","Female","[""好她"",""坏她"",""坏我"",""好我""]","[""强她"",""弱她"",""弱我"",""强我""]","","","","","","","","","","","","","","","","","","","","","","","","","","","","","","","","","","","","","",""
"","","","preload","3","26634","0.0-2.0","5","5","6","5","6","4","3","4","5","4","5","0","1","0","0","-1","2","1","0","4","4","4","4","4","5","4","4","5","4","7","8","8","8","7","7","8","8","9","4","4","5","4","4","3","5","2","4","3","5","4","6","4","4","6","5","4","5","4","6","5","5","6","3","5","6","5","5","6","6","5","4","5","6","5","5","5","4","5","768419588089319425","林","401","Female","[""好她"",""坏她"",""坏我"",""好我""]","[""强她"",""弱她"",""弱我"",""强我""]","","true","false","[]","[]","[]","","","","","","","","","","","","","","","","","","","","","","","","","","","","","","","",""
"","","","fullscreen","4","27685","0.0-3.0","5","5","6","5","6","4","3","4","5","4","5","0","1","0","0","-1","2","1","0","4","4","4","4","4","5","4","4","5","4","7","8","8","8","7","7","8","8","9","4","4","5","4","4","3","5","2","4","3","5","4","6","4","4","6","5","4","5","4","6","5","5","6","3","5","6","5","5","6","6","5","4","5","6","5","5","5","4","5","768419588089319425","林","401","Female","[""好她"",""坏她"",""坏我"",""好我""]","[""强她"",""弱她"",""弱我"",""强我""]","","true","","","","","{}","","","","","","","","","","","","","","","","","","","","","","","","","","","","","","",""
"8263.800000000745","","{""Q01"":""5"",""Q02"":""5"",""Q03"":""6"",""Q04"":""5"",""Q05"":""6""}","survey-template","5","35956","0.0-4.0","5","5","6","5","6","4","3","4","5","4","5","0","1","0","0","-1","2","1","0","4","4","4","4","4","5","4","4","5","4","7","8","8","8","7","7","8","8","9","4","4","5","4","4","3","5","2","4","3","5","4","6","4","4","6","5","4","5","4","6","5","5","6","3","5","6","5","5","6","6","5","4","5","6","5","5","5","4","5","768419588089319425","林","401","Female","[""好她"",""坏她"",""坏我"",""好我""]","[""强她"",""弱她"",""弱我"",""强我""]","","","","","","","","{""Q01"":""5"",""Q02"":""5"",""Q03"":""6"",""Q04"":""5"",""Q05"":""6""}","[0,1,2,3,4]","[""Q01"",""Q02"",""Q03"",""Q04"",""Q05""]","[3500.5,4468,5332.10000000149,6940.300000000745,7852.199999999255]","[]","[3500.5,4468,5332.10000000149,6940.300000000745,7852.199999999255,8260.400000002235]","0.6","0.75","0","","","","","","","","","","","","","","","","","","","","","",""
"9735.199999999255","","{""Q01"":""4"",""Q02"":""3"",""Q03"":""4"",""Q04"":""5"",""Q05"":""4"",""Q06"":""5""}","survey-template","6","45706","0.0-5.0","5","5","6","5","6","4","3","4","5","4","5","0","1","0","0","-1","2","1","0","4","4","4","4","4","5","4","4","5","4","7","8","8","8","7","7","8","8","9","4","4","5","4","4","3","5","2","4","3","5","4","6","4","4","6","5","4","5","4","6","5","5","6","3","5","6","5","5","6","6","5","4","5","6","5","5","5","4","5","768419588089319425","林","401","Female","[""好她"",""坏她"",""坏我"",""好我""]","[""强她"",""弱她"",""弱我"",""强我""]","","","","","","","","{""Q01"":""4"",""Q02"":""3"",""Q03"":""4"",""Q04"":""5"",""Q05"":""4"",""Q06"":""5""}","[0,1,2,3,4,5]","[""Q01"",""Q02"",""Q03"",""Q04"",""Q05"",""Q06""]","[2397.10000000149,4069.199999999255,5261.10000000149,6461.10000000149,7701.10000000149,9261]","[]","[2397.10000000149,4069.199999999255,5261.10000000149,6461.10000000149,7701.10000000149,9261,9733.10000000149]","0.3333333333333333","0.6","0","","","","","","","","","","","","","","","","","","","","","",""
"13412.400000002235","","{""Q01"":""0"",""Q02"":""1"",""Q03"":""0"",""Q04"":""0"",""Q05"":""-1"",""Q06"":""2"",""Q07"":""1"",""Q08"":""0""}","survey-template","7","59132","0.0-6.0","5","5","6","5","6","4","3","4","5","4","5","0","1","0","0","-1","2","1","0","4","4","4","4","4","5","4","4","5","4","7","8","8","8","7","7","8","8","9","4","4","5","4","4","3","5","2","4","3","5","4","6","4","4","6","5","4","5","4","6","5","5","6","3","5","6","5","5","6","6","5","4","5","6","5","5","5","4","5","768419588089319425","林","401","Female","[""好她"",""坏她"",""坏我"",""好我""]","[""强她"",""弱她"",""弱我"",""强我""]","","","","","","","","{""Q01"":""0"",""Q02"":""1"",""Q03"":""0"",""Q04"":""0"",""Q05"":""-1"",""Q06"":""2"",""Q07"":""1"",""Q08"":""0""}","[0,1,2,3,4,5,6,7]","[""Q01"",""Q02"",""Q03"",""Q04"",""Q05"",""Q06"",""Q07"",""Q08""]","[2777.199999999255,4041.300000000745,5273,6809.10000000149,7937,10073,11465.199999999255,12792.900000002235]","[]","[2777.199999999255,4041.300000000745,5273,6809.10000000149,7937,10073,11465.199999999255,12792.900000002235,13409]","0.5","0.7142857142857143","0","","","","","","","","","","","","","","","","","","","","","",""
"9056","
    <p><div style='color:white;font-size:35px; line-height:20px;'>词汇评估任务</div></p><br>
    <p><div style='color:white;font-size:25px; line-height:20px;'>请再次回忆该亲密的朋友，你们至少2年前就认识了，并且最近2年经常见面。</div></p>
    <p><div style='color:white;font-size:25px; line-height:20px;'>在本实验中，您将会看到一些形容词。</div></p>
    <p><div style='color:yellow;font-size:25px; line-height:20px;'>您的任务是判断这些形容词是否符合对您自己或您的朋友的描述。</div></p><p style='font-size:35px'>符合按<span style=""color:lightgreen""> j 键</span>，不符合按<span style=""color:red""> f 键</span></p>","0","html-button-response","8","68199","0.0-7.0-0.0","5","5","6","5","6","4","3","4","5","4","5","0","1","0","0","-1","2","1","0","4","4","4","4","4","5","4","4","5","4","7","8","8","8","7","7","8","8","9","4","4","5","4","4","3","5","2","4","3","5","4","6","4","4","6","5","4","5","4","6","5","5","6","3","5","6","5","5","6","6","5","4","5","6","5","5","5","4","5","768419588089319425","林","401","Female","[""好她"",""坏她"",""坏我"",""好我""]","[""强她"",""弱她"",""弱我"",""强我""]","","","","","","","","","","","","","","","","","SRET_EW","EW_instructions","Thu Nov 16 2023 18:30:06 GMT+0800 (中国标准时间)","","","","","","","","","","","","","","","","","","",""
"26045","","j","psychophysics","9","95256","0.0-7.0-1.0-0.0","5","5","6","5","6","4","3","4","5","4","5","0","1","0","0","-1","2","1","0","4","4","4","4","4","5","4","4","5","4","7","8","8","8","7","7","8","8","9","4","4","5","4","4","3","5","2","4","3","5","4","6","4","4","6","5","4","5","4","6","5","5","6","3","5","6","5","5","6","6","5","4","5","6","5","5","5","4","5","768419588089319425","林","401","Female","[""好她"",""坏她"",""坏我"",""好我""]","[""强她"",""弱她"",""弱我"",""强我""]","","","","","","","","yes","","","","","","","","","SRET_EW","EW_practice","","key","j","16.738173778602356","683","380","朋友","忠实","Positive","morality","","","","","","","","","",""
"5892","","j","psychophysics","10","102154","0.0-7.0-1.0-0.1","5","5","6","5","6","4","3","4","5","4","5","0","1","0","0","-1","2","1","0","4","4","4","4","4","5","4","4","5","4","7","8","8","8","7","7","8","8","9","4","4","5","4","4","3","5","2","4","3","5","4","6","4","4","6","5","4","5","4","6","5","5","6","3","5","6","5","5","6","6","5","4","5","6","5","5","5","4","5","768419588089319425","林","401","Female","[""好她"",""坏她"",""坏我"",""好我""]","[""强她"",""弱她"",""弱我"",""强我""]","","","","","","","","yes","","","","","","","","","SRET_EW","EW_practice","","key","j","16.66561501210655","683","380","自己","严谨","Positive","ability","","","","","","","","","",""
"8965","","f","psychophysics","11","112122","0.0-7.0-1.0-0.2","5","5","6","5","6","4","3","4","5","4","5","0","1","0","0","-1","2","1","0","4","4","4","4","4","5","4","4","5","4","7","8","8","8","7","7","8","8","9","4","4","5","4","4","3","5","2","4","3","5","4","6","4","4","6","5","4","5","4","6","5","5","6","3","5","6","5","5","6","6","5","4","5","6","5","5","5","4","5","768419588089319425","林","401","Female","[""好她"",""坏她"",""坏我"",""好我""]","[""强她"",""弱她"",""弱我"",""强我""]","","","","","","","","no","","","","","","","","","SRET_EW","EW_practice","","key","f","16.69369127516779","683","380","自己","刻板","Negative","ability","","","","","","","","","",""
"7966","","f","psychophysics","12","121092","0.0-7.0-1.0-0.3","5","5","6","5","6","4","3","4","5","4","5","0","1","0","0","-1","2","1","0","4","4","4","4","4","5","4","4","5","4","7","8","8","8","7","7","8","8","9","4","4","5","4","4","3","5","2","4","3","5","4","6","4","4","6","5","4","5","4","6","5","5","6","3","5","6","5","5","6","6","5","4","5","6","5","5","5","4","5","768419588089319425","林","401","Female","[""好她"",""坏她"",""坏我"",""好我""]","[""强她"",""弱她"",""弱我"",""强我""]","","","","","","","","no","","","","","","","","","SRET_EW","EW_practice","","key","f","16.75939138576779","683","380","朋友","徇私","Negative","morality","","","","","","","","","",""
"1689","
    <p><div style='color:white;font-size:35px; line-height:20px;'>请您再次阅读实验要求</div></p><br>
    <p><div style='color:white;font-size:25px; line-height:20px;'>请回忆某一个亲密的朋友，你们至少2年前就认识了，并且最近2年经常见面。</div></p>
    <p><div style='color:white;font-size:25px; line-height:20px;'>在本实验中，您将会看到一些形容词。</div></p>
    <p><div style='color:yellow;font-size:25px; line-height:20px;'>您的任务是判断这些形容词是否符合对您自己或您的朋友的描述。</div></p>
    <p><div class='footer' style='font-size:25px; line-height:20px;'>如果对本实验还有不清楚之处，请立即向实验员咨询。</p><p style='font-size:25px; line-height:20px;'>如果您明白了规则：</p><p style='font-size:22px; line-height:20px;'>请按 继续 进入正式实验</p>
    </div>
    <p style='font-size:35px'>符合按<span style=""color:lightgreen""> j 键</span>，不符合按<span style=""color:red""> f 键</span></p>","0","html-button-response","13","122782","0.0-7.0-2.0","5","5","6","5","6","4","3","4","5","4","5","0","1","0","0","-1","2","1","0","4","4","4","4","4","5","4","4","5","4","7","8","8","8","7","7","8","8","9","4","4","5","4","4","3","5","2","4","3","5","4","6","4","4","6","5","4","5","4","6","5","5","6","3","5","6","5","5","6","6","5","4","5","6","5","5","5","4","5","768419588089319425","林","401","Female","[""好她"",""坏她"",""坏我"",""好我""]","[""强她"",""弱她"",""弱我"",""强我""]","","","","","","","","","","","","","","","","","SRET_EW","prac_instructions","Thu Nov 16 2023 18:30:06 GMT+0800 (中国标准时间)","","","","","","","","","","","","","","","","","","",""
"5281","","f","psychophysics","14","129070","0.0-7.0-3.0-0.0","5","5","6","5","6","4","3","4","5","4","5","0","1","0","0","-1","2","1","0","4","4","4","4","4","5","4","4","5","4","7","8","8","8","7","7","8","8","9","4","4","5","4","4","3","5","2","4","3","5","4","6","4","4","6","5","4","5","4","6","5","5","6","3","5","6","5","5","6","6","5","4","5","6","5","5","5","4","5","768419588089319425","林","401","Female","[""好她"",""坏她"",""坏我"",""好我""]","[""强她"",""弱她"",""弱我"",""强我""]","","","","","","","","no","","","","","","","","","SRET","EW_formal","","key","f","16.754602666666653","683","380","朋友","迷糊","Negative","ability","","","","","","","","","",""
"5068","","j","psychophysics","15","135146","0.0-7.0-3.0-0.1","5","5","6","5","6","4","3","4","5","4","5","0","1","0","0","-1","2","1","0","4","4","4","4","4","5","4","4","5","4","7","8","8","8","7","7","8","8","9","4","4","5","4","4","3","5","2","4","3","5","4","6","4","4","6","5","4","5","4","6","5","5","6","3","5","6","5","5","6","6","5","4","5","6","5","5","5","4","5","768419588089319425","林","401","Female","[""好她"",""坏她"",""坏我"",""好我""]","[""强她"",""弱她"",""弱我"",""强我""]","","","","","","","","yes","","","","","","","","","SRET","EW_formal","","key","j","16.66575757575761","683","380","朋友","务实","Positive","ability","","","","","","","","","",""
"6657","","f","psychophysics","16","142816","0.0-7.0-3.0-0.2","5","5","6","5","6","4","3","4","5","4","5","0","1","0","0","-1","2","1","0","4","4","4","4","4","5","4","4","5","4","7","8","8","8","7","7","8","8","9","4","4","5","4","4","3","5","2","4","3","5","4","6","4","4","6","5","4","5","4","6","5","5","6","3","5","6","5","5","6","6","5","4","5","6","5","5","5","4","5","768419588089319425","林","401","Female","[""好她"",""坏她"",""坏我"",""好我""]","[""强她"",""弱她"",""弱我"",""强我""]","","","","","","","","no","","","","","","","","","SRET","EW_formal","","key","f","16.665677559912858","683","380","自己","说谎","Negative","morality","","","","","","","","","",""
"7318","","j","psychophysics","17","151140","0.0-7.0-3.0-0.3","5","5","6","5","6","4","3","4","5","4","5","0","1","0","0","-1","2","1","0","4","4","4","4","4","5","4","4","5","4","7","8","8","8","7","7","8","8","9","4","4","5","4","4","3","5","2","4","3","5","4","6","4","4","6","5","4","5","4","6","5","5","6","3","5","6","5","5","6","6","5","4","5","6","5","5","5","4","5","768419588089319425","林","401","Female","[""好她"",""坏她"",""坏我"",""好我""]","[""强她"",""弱她"",""弱我"",""强我""]","","","","","","","","yes","","","","","","","","","SRET","EW_formal","","key","j","16.732843058350095","683","380","自己","坚贞","Positive","morality","","","","","","","","","",""
"8742","","f","psychophysics","18","160884","0.0-7.0-3.0-0.4","5","5","6","5","6","4","3","4","5","4","5","0","1","0","0","-1","2","1","0","4","4","4","4","4","5","4","4","5","4","7","8","8","8","7","7","8","8","9","4","4","5","4","4","3","5","2","4","3","5","4","6","4","4","6","5","4","5","4","6","5","5","6","3","5","6","5","5","6","6","5","4","5","6","5","5","5","4","5","768419588089319425","林","401","Female","[""好她"",""坏她"",""坏我"",""好我""]","[""强她"",""弱她"",""弱我"",""强我""]","","","","","","","","no","","","","","","","","","SRET","EW_formal","","key","f","16.66582705479451","683","380","自己","毛糙","Negative","ability","","","","","","","","","",""
"9548","","f","psychophysics","19","171434","0.0-7.0-3.0-0.5","5","5","6","5","6","4","3","4","5","4","5","0","1","0","0","-1","2","1","0","4","4","4","4","4","5","4","4","5","4","7","8","8","8","7","7","8","8","9","4","4","5","4","4","3","5","2","4","3","5","4","6","4","4","6","5","4","5","4","6","5","5","6","3","5","6","5","5","6","6","5","4","5","6","5","5","5","4","5","768419588089319425","林","401","Female","[""好她"",""坏她"",""坏我"",""好我""]","[""强她"",""弱她"",""弱我"",""强我""]","","","","","","","","no","","","","","","","","","SRET","EW_formal","","key","f","16.66574683544305","683","380","朋友","弱智","Negative","ability","","","","","","","","","",""
"5938","","f","psychophysics","20","178375","0.0-7.0-3.0-0.6","5","5","6","5","6","4","3","4","5","4","5","0","1","0","0","-1","2","1","0","4","4","4","4","4","5","4","4","5","4","7","8","8","8","7","7","8","8","9","4","4","5","4","4","3","5","2","4","3","5","4","6","4","4","6","5","4","5","4","6","5","5","6","3","5","6","5","5","6","6","5","4","5","6","5","5","5","4","5","768419588089319425","林","401","Female","[""好她"",""坏她"",""坏我"",""好我""]","[""强她"",""弱她"",""弱我"",""强我""]","","","","","","","","no","","","","","","","","","SRET","EW_formal","","key","f","16.665872289156624","683","380","朋友","无为","Negative","ability","","","","","","","","","",""
"8151","","f","psychophysics","21","187534","0.0-7.0-3.0-0.7","5","5","6","5","6","4","3","4","5","4","5","0","1","0","0","-1","2","1","0","4","4","4","4","4","5","4","4","5","4","7","8","8","8","7","7","8","8","9","4","4","5","4","4","3","5","2","4","3","5","4","6","4","4","6","5","4","5","4","6","5","5","6","3","5","6","5","5","6","6","5","4","5","6","5","5","5","4","5","768419588089319425","林","401","Female","[""好她"",""坏她"",""坏我"",""好我""]","[""强她"",""弱她"",""弱我"",""强我""]","","","","","","","","no","","","","","","","","","SRET","EW_formal","","key","f","16.665673952641143","683","380","自己","诡诈","Negative","morality","","","","","","","","","",""
"7004","","j","psychophysics","22","195547","0.0-7.0-3.0-0.8","5","5","6","5","6","4","3","4","5","4","5","0","1","0","0","-1","2","1","0","4","4","4","4","4","5","4","4","5","4","7","8","8","8","7","7","8","8","9","4","4","5","4","4","3","5","2","4","3","5","4","6","4","4","6","5","4","5","4","6","5","5","6","3","5","6","5","5","6","6","5","4","5","6","5","5","5","4","5","768419588089319425","林","401","Female","[""好她"",""坏她"",""坏我"",""好我""]","[""强她"",""弱她"",""弱我"",""强我""]","","","","","","","","yes","","","","","","","","","SRET","EW_formal","","key","j","16.665634655532312","683","380","自己","专注","Positive","ability","","","","","","","","","",""
"5233","","j","psychophysics","23","201784","0.0-7.0-3.0-0.9","5","5","6","5","6","4","3","4","5","4","5","0","1","0","0","-1","2","1","0","4","4","4","4","4","5","4","4","5","4","7","8","8","8","7","7","8","8","9","4","4","5","4","4","3","5","2","4","3","5","4","6","4","4","6","5","4","5","4","6","5","5","6","3","5","6","5","5","6","6","5","4","5","6","5","5","5","4","5","768419588089319425","林","401","Female","[""好她"",""坏她"",""坏我"",""好我""]","[""强她"",""弱她"",""弱我"",""强我""]","","","","","","","","yes","","","","","","","","","SRET","EW_formal","","key","j","16.66573796791445","683","380","自己","毅力","Positive","ability","","","","","","","","","",""
"7675","","j","psychophysics","24","210465","0.0-7.0-3.0-0.10","5","5","6","5","6","4","3","4","5","4","5","0","1","0","0","-1","2","1","0","4","4","4","4","4","5","4","4","5","4","7","8","8","8","7","7","8","8","9","4","4","5","4","4","3","5","2","4","3","5","4","6","4","4","6","5","4","5","4","6","5","5","6","3","5","6","5","5","6","6","5","4","5","6","5","5","5","4","5","768419588089319425","林","401","Female","[""好她"",""坏她"",""坏我"",""好我""]","[""强她"",""弱她"",""弱我"",""强我""]","","","","","","","","yes","","","","","","","","","SRET","EW_formal","","key","j","16.665730769230755","683","380","朋友","厚道","Positive","morality","","","","","","","","","",""
"5015","","j","psychophysics","25","216481","0.0-7.0-3.0-0.11","5","5","6","5","6","4","3","4","5","4","5","0","1","0","0","-1","2","1","0","4","4","4","4","4","5","4","4","5","4","7","8","8","8","7","7","8","8","9","4","4","5","4","4","3","5","2","4","3","5","4","6","4","4","6","5","4","5","4","6","5","5","6","3","5","6","5","5","6","6","5","4","5","6","5","5","5","4","5","768419588089319425","林","401","Female","[""好她"",""坏她"",""坏我"",""好我""]","[""强她"",""弱她"",""弱我"",""强我""]","","","","","","","","yes","","","","","","","","","SRET","EW_formal","","key","j","16.665736111111052","683","380","朋友","学霸","Positive","ability","","","","","","","","","",""
"6077","","f","psychophysics","26","223563","0.0-7.0-3.0-0.12","5","5","6","5","6","4","3","4","5","4","5","0","1","0","0","-1","2","1","0","4","4","4","4","4","5","4","4","5","4","7","8","8","8","7","7","8","8","9","4","4","5","4","4","3","5","2","4","3","5","4","6","4","4","6","5","4","5","4","6","5","5","6","3","5","6","5","5","6","6","5","4","5","6","5","5","5","4","5","768419588089319425","林","401","Female","[""好她"",""坏她"",""坏我"",""好我""]","[""强她"",""弱她"",""弱我"",""强我""]","","","","","","","","no","","","","","","","","","SRET","EW_formal","","key","f","16.665860520094526","683","380","朋友","马虎","Negative","ability","","","","","","","","","",""
"6034","","f","psychophysics","27","230599","0.0-7.0-3.0-0.13","5","5","6","5","6","4","3","4","5","4","5","0","1","0","0","-1","2","1","0","4","4","4","4","4","5","4","4","5","4","7","8","8","8","7","7","8","8","9","4","4","5","4","4","3","5","2","4","3","5","4","6","4","4","6","5","4","5","4","6","5","5","6","3","5","6","5","5","6","6","5","4","5","6","5","5","5","4","5","768419588089319425","林","401","Female","[""好她"",""坏她"",""坏我"",""好我""]","[""强她"",""弱她"",""弱我"",""强我""]","","","","","","","","no","","","","","","","","","SRET","EW_formal","","key","f","16.665848341232255","683","380","朋友","短浅","Negative","ability","","","","","","","","","",""
"6411","","j","psychophysics","28","238017","0.0-7.0-3.0-0.14","5","5","6","5","6","4","3","4","5","4","5","0","1","0","0","-1","2","1","0","4","4","4","4","4","5","4","4","5","4","7","8","8","8","7","7","8","8","9","4","4","5","4","4","3","5","2","4","3","5","4","6","4","4","6","5","4","5","4","6","5","5","6","3","5","6","5","5","6","6","5","4","5","6","5","5","5","4","5","768419588089319425","林","401","Female","[""好她"",""坏她"",""坏我"",""好我""]","[""强她"",""弱她"",""弱我"",""强我""]","","","","","","","","yes","","","","","","","","","SRET","EW_formal","","key","j","16.66563063063065","683","380","朋友","文明","Positive","morality","","","","","","","","","",""
"6325","","j","psychophysics","29","245347","0.0-7.0-3.0-0.15","5","5","6","5","6","4","3","4","5","4","5","0","1","0","0","-1","2","1","0","4","4","4","4","4","5","4","4","5","4","7","8","8","8","7","7","8","8","9","4","4","5","4","4","3","5","2","4","3","5","4","6","4","4","6","5","4","5","4","6","5","5","6","3","5","6","5","5","6","6","5","4","5","6","5","5","5","4","5","768419588089319425","林","401","Female","[""好她"",""坏她"",""坏我"",""好我""]","[""强她"",""弱她"",""弱我"",""强我""]","","","","","","","","yes","","","","","","","","","SRET","EW_formal","","key","j","16.665758542141255","683","380","自己","忠良","Positive","morality","","","","","","","","","",""
"11046","","f","psychophysics","30","257397","0.0-7.0-3.0-0.16","5","5","6","5","6","4","3","4","5","4","5","0","1","0","0","-1","2","1","0","4","4","4","4","4","5","4","4","5","4","7","8","8","8","7","7","8","8","9","4","4","5","4","4","3","5","2","4","3","5","4","6","4","4","6","5","4","5","4","6","5","5","6","3","5","6","5","5","6","6","5","4","5","6","5","5","5","4","5","768419588089319425","林","401","Female","[""好她"",""坏她"",""坏我"",""好我""]","[""强她"",""弱她"",""弱我"",""强我""]","","","","","","","","no","","","","","","","","","SRET","EW_formal","","key","f","16.66573268698063","683","380","自己","奸诈","Negative","morality","","","","","","","","","",""
"10031","","f","psychophysics","31","268430","0.0-7.0-3.0-0.17","5","5","6","5","6","4","3","4","5","4","5","0","1","0","0","-1","2","1","0","4","4","4","4","4","5","4","4","5","4","7","8","8","8","7","7","8","8","9","4","4","5","4","4","3","5","2","4","3","5","4","6","4","4","6","5","4","5","4","6","5","5","6","3","5","6","5","5","6","6","5","4","5","6","5","5","5","4","5","768419588089319425","林","401","Female","[""好她"",""坏她"",""坏我"",""好我""]","[""强她"",""弱她"",""弱我"",""强我""]","","","","","","","","no","","","","","","","","","SRET","EW_formal","","key","f","16.665718608169453","683","380","自己","势利","Negative","morality","","","","","","","","","",""
"5571","","f","psychophysics","32","275010","0.0-7.0-3.0-0.18","5","5","6","5","6","4","3","4","5","4","5","0","1","0","0","-1","2","1","0","4","4","4","4","4","5","4","4","5","4","7","8","8","8","7","7","8","8","9","4","4","5","4","4","3","5","2","4","3","5","4","6","4","4","6","5","4","5","4","6","5","5","6","3","5","6","5","5","6","6","5","4","5","6","5","5","5","4","5","768419588089319425","林","401","Female","[""好她"",""坏她"",""坏我"",""好我""]","[""强她"",""弱她"",""弱我"",""强我""]","","","","","","","","no","","","","","","","","","SRET","EW_formal","","key","f","16.665748091602968","683","380","朋友","无耻","Negative","morality","","","","","","","","","",""
"5047","","j","psychophysics","33","281062","0.0-7.0-3.0-0.19","5","5","6","5","6","4","3","4","5","4","5","0","1","0","0","-1","2","1","0","4","4","4","4","4","5","4","4","5","4","7","8","8","8","7","7","8","8","9","4","4","5","4","4","3","5","2","4","3","5","4","6","4","4","6","5","4","5","4","6","5","5","6","3","5","6","5","5","6","6","5","4","5","6","5","5","5","4","5","768419588089319425","林","401","Female","[""好她"",""坏她"",""坏我"",""好我""]","[""强她"",""弱她"",""弱我"",""强我""]","","","","","","","","yes","","","","","","","","","SRET","EW_formal","","key","j","16.665842975206616","683","380","朋友","敬业","Positive","morality","","","","","","","","","",""
"4875","","f","psychophysics","34","286946","0.0-7.0-3.0-0.20","5","5","6","5","6","4","3","4","5","4","5","0","1","0","0","-1","2","1","0","4","4","4","4","4","5","4","4","5","4","7","8","8","8","7","7","8","8","9","4","4","5","4","4","3","5","2","4","3","5","4","6","4","4","6","5","4","5","4","6","5","5","6","3","5","6","5","5","6","6","5","4","5","6","5","5","5","4","5","768419588089319425","林","401","Female","[""好她"",""坏她"",""坏我"",""好我""]","[""强她"",""弱她"",""弱我"",""强我""]","","","","","","","","no","","","","","","","","","SRET","EW_formal","","key","f","16.66581534090917","683","380","朋友","歹毒","Negative","morality","","","","","","","","","",""
"11563","","j","psychophysics","35","299513","0.0-7.0-3.0-0.21","5","5","6","5","6","4","3","4","5","4","5","0","1","0","0","-1","2","1","0","4","4","4","4","4","5","4","4","5","4","7","8","8","8","7","7","8","8","9","4","4","5","4","4","3","5","2","4","3","5","4","6","4","4","6","5","4","5","4","6","5","5","6","3","5","6","5","5","6","6","5","4","5","6","5","5","5","4","5","768419588089319425","林","401","Female","[""好她"",""坏她"",""坏我"",""好我""]","[""强她"",""弱她"",""弱我"",""强我""]","","","","","","","","yes","","","","","","","","","SRET","EW_formal","","key","j","16.687906914893592","683","380","朋友","娴熟","Positive","ability","","","","","","","","","",""
"6191","","j","psychophysics","36","306711","0.0-7.0-3.0-0.22","5","5","6","5","6","4","3","4","5","4","5","0","1","0","0","-1","2","1","0","4","4","4","4","4","5","4","4","5","4","7","8","8","8","7","7","8","8","9","4","4","5","4","4","3","5","2","4","3","5","4","6","4","4","6","5","4","5","4","6","5","5","6","3","5","6","5","5","6","6","5","4","5","6","5","5","5","4","5","768419588089319425","林","401","Female","[""好她"",""坏她"",""坏我"",""好我""]","[""强她"",""弱她"",""弱我"",""强我""]","","","","","","","","yes","","","","","","","","","SRET","EW_formal","","key","j","16.665877030162452","683","380","自己","新手","Negative","ability","","","","","","","","","",""
"4792","","j","psychophysics","37","312511","0.0-7.0-3.0-0.23","5","5","6","5","6","4","3","4","5","4","5","0","1","0","0","-1","2","1","0","4","4","4","4","4","5","4","4","5","4","7","8","8","8","7","7","8","8","9","4","4","5","4","4","3","5","2","4","3","5","4","6","4","4","6","5","4","5","4","6","5","5","6","3","5","6","5","5","6","6","5","4","5","6","5","5","5","4","5","768419588089319425","林","401","Female","[""好她"",""坏她"",""坏我"",""好我""]","[""强她"",""弱她"",""弱我"",""强我""]","","","","","","","","yes","","","","","","","","","SRET","EW_formal","","key","j","16.66539769452461","683","380","自己","扎实","Positive","ability","","","","","","","","","",""
"5227","","j","psychophysics","38","318747","0.0-7.0-3.0-0.24","5","5","6","5","6","4","3","4","5","4","5","0","1","0","0","-1","2","1","0","4","4","4","4","4","5","4","4","5","4","7","8","8","8","7","7","8","8","9","4","4","5","4","4","3","5","2","4","3","5","4","6","4","4","6","5","4","5","4","6","5","5","6","3","5","6","5","5","6","6","5","4","5","6","5","5","5","4","5","768419588089319425","林","401","Female","[""好她"",""坏她"",""坏我"",""好我""]","[""强她"",""弱她"",""弱我"",""强我""]","","","","","","","","yes","","","","","","","","","SRET","EW_formal","","key","j","16.71037634408589","683","380","朋友","守时","Positive","morality","","","","","","","","","",""
"7713","","j","psychophysics","39","327464","0.0-7.0-3.0-0.25","5","5","6","5","6","4","3","4","5","4","5","0","1","0","0","-1","2","1","0","4","4","4","4","4","5","4","4","5","4","7","8","8","8","7","7","8","8","9","4","4","5","4","4","3","5","2","4","3","5","4","6","4","4","6","5","4","5","4","6","5","5","6","3","5","6","5","5","6","6","5","4","5","6","5","5","5","4","5","768419588089319425","林","401","Female","[""好她"",""坏她"",""坏我"",""好我""]","[""强她"",""弱她"",""弱我"",""强我""]","","","","","","","","yes","","","","","","","","","SRET","EW_formal","","key","j","16.66574137931033","683","380","自己","善心","Positive","morality","","","","","","","","","",""
"4973","","j","psychophysics","40","333446","0.0-7.0-3.0-0.26","5","5","6","5","6","4","3","4","5","4","5","0","1","0","0","-1","2","1","0","4","4","4","4","4","5","4","4","5","4","7","8","8","8","7","7","8","8","9","4","4","5","4","4","3","5","2","4","3","5","4","6","4","4","6","5","4","5","4","6","5","5","6","3","5","6","5","5","6","6","5","4","5","6","5","5","5","4","5","768419588089319425","林","401","Female","[""好她"",""坏她"",""坏我"",""好我""]","[""强她"",""弱她"",""弱我"",""强我""]","","","","","","","","yes","","","","","","","","","SRET","EW_formal","","key","j","16.665726256983287","683","380","朋友","敏捷","Positive","ability","","","","","","","","","",""
"6477","","f","psychophysics","41","340925","0.0-7.0-3.0-0.27","5","5","6","5","6","4","3","4","5","4","5","0","1","0","0","-1","2","1","0","4","4","4","4","4","5","4","4","5","4","7","8","8","8","7","7","8","8","9","4","4","5","4","4","3","5","2","4","3","5","4","6","4","4","6","5","4","5","4","6","5","5","6","3","5","6","5","5","6","6","5","4","5","6","5","5","5","4","5","768419588089319425","林","401","Female","[""好她"",""坏她"",""坏我"",""好我""]","[""强她"",""弱她"",""弱我"",""强我""]","","","","","","","","no","","","","","","","","","SRET","EW_formal","","key","f","16.665763392857116","683","380","自己","愚蠢","Negative","ability","","","","","","","","","",""
"5442","","j","psychophysics","42","347369","0.0-7.0-3.0-0.28","5","5","6","5","6","4","3","4","5","4","5","0","1","0","0","-1","2","1","0","4","4","4","4","4","5","4","4","5","4","7","8","8","8","7","7","8","8","9","4","4","5","4","4","3","5","2","4","3","5","4","6","4","4","6","5","4","5","4","6","5","5","6","3","5","6","5","5","6","6","5","4","5","6","5","5","5","4","5","768419588089319425","林","401","Female","[""好她"",""坏她"",""坏我"",""好我""]","[""强她"",""弱她"",""弱我"",""强我""]","","","","","","","","yes","","","","","","","","","SRET","EW_formal","","key","j","16.66566753246755","683","380","自己","果断","Positive","ability","","","","","","","","","",""
"7450","","j","psychophysics","43","355824","0.0-7.0-3.0-0.29","5","5","6","5","6","4","3","4","5","4","5","0","1","0","0","-1","2","1","0","4","4","4","4","4","5","4","4","5","4","7","8","8","8","7","7","8","8","9","4","4","5","4","4","3","5","2","4","3","5","4","6","4","4","6","5","4","5","4","6","5","5","6","3","5","6","5","5","6","6","5","4","5","6","5","5","5","4","5","768419588089319425","林","401","Female","[""好她"",""坏她"",""坏我"",""好我""]","[""强她"",""弱她"",""弱我"",""强我""]","","","","","","","","yes","","","","","","","","","SRET","EW_formal","","key","j","16.665682445759348","683","380","朋友","勤恳","Positive","morality","","","","","","","","","",""
"6069","","f","psychophysics","44","362900","0.0-7.0-3.0-0.30","5","5","6","5","6","4","3","4","5","4","5","0","1","0","0","-1","2","1","0","4","4","4","4","4","5","4","4","5","4","7","8","8","8","7","7","8","8","9","4","4","5","4","4","3","5","2","4","3","5","4","6","4","4","6","5","4","5","4","6","5","5","6","3","5","6","5","5","6","6","5","4","5","6","5","5","5","4","5","768419588089319425","林","401","Female","[""好她"",""坏她"",""坏我"",""好我""]","[""强她"",""弱她"",""弱我"",""强我""]","","","","","","","","no","","","","","","","","","SRET","EW_formal","","key","f","16.665624113475197","683","380","朋友","龌龊","Negative","morality","","","","","","","","","",""
"4989","","f","psychophysics","45","368893","0.0-7.0-3.0-0.31","5","5","6","5","6","4","3","4","5","4","5","0","1","0","0","-1","2","1","0","4","4","4","4","4","5","4","4","5","4","7","8","8","8","7","7","8","8","9","4","4","5","4","4","3","5","2","4","3","5","4","6","4","4","6","5","4","5","4","6","5","5","6","3","5","6","5","5","6","6","5","4","5","6","5","5","5","4","5","768419588089319425","林","401","Female","[""好她"",""坏她"",""坏我"",""好我""]","[""强她"",""弱她"",""弱我"",""强我""]","","","","","","","","no","","","","","","","","","SRET","EW_formal","","key","f","16.665916434540428","683","380","朋友","失信","Negative","morality","","","","","","","","","",""
"16102","","f","psychophysics","46","385997","0.0-7.0-3.0-0.32","5","5","6","5","6","4","3","4","5","4","5","0","1","0","0","-1","2","1","0","4","4","4","4","4","5","4","4","5","4","7","8","8","8","7","7","8","8","9","4","4","5","4","4","3","5","2","4","3","5","4","6","4","4","6","5","4","5","4","6","5","5","6","3","5","6","5","5","6","6","5","4","5","6","5","5","5","4","5","768419588089319425","林","401","Female","[""好她"",""坏她"",""坏我"",""好我""]","[""强她"",""弱她"",""弱我"",""强我""]","","","","","","","","no","","","","","","","","","SRET","EW_formal","","key","f","16.665794146341476","683","380","自己","迂拙","Negative","ability","","","","","","","","","",""
"5813","","j","psychophysics","47","392814","0.0-7.0-3.0-0.33","5","5","6","5","6","4","3","4","5","4","5","0","1","0","0","-1","2","1","0","4","4","4","4","4","5","4","4","5","4","7","8","8","8","7","7","8","8","9","4","4","5","4","4","3","5","2","4","3","5","4","6","4","4","6","5","4","5","4","6","5","5","6","3","5","6","5","5","6","6","5","4","5","6","5","5","5","4","5","768419588089319425","林","401","Female","[""好她"",""坏她"",""坏我"",""好我""]","[""强她"",""弱她"",""弱我"",""强我""]","","","","","","","","yes","","","","","","","","","SRET","EW_formal","","key","j","16.665735294117635","683","380","自己","肯干","Positive","ability","","","","","","","","","",""
"5895","","f","psychophysics","48","399710","0.0-7.0-3.0-0.34","5","5","6","5","6","4","3","4","5","4","5","0","1","0","0","-1","2","1","0","4","4","4","4","4","5","4","4","5","4","7","8","8","8","7","7","8","8","9","4","4","5","4","4","3","5","2","4","3","5","4","6","4","4","6","5","4","5","4","6","5","5","6","3","5","6","5","5","6","6","5","4","5","6","5","5","5","4","5","768419588089319425","林","401","Female","[""好她"",""坏她"",""坏我"",""好我""]","[""强她"",""弱她"",""弱我"",""强我""]","","","","","","","","no","","","","","","","","","SRET","EW_formal","","key","f","16.665651331719104","683","380","自己","无知","Negative","ability","","","","","","","","","",""
"6007","","f","psychophysics","49","406720","0.0-7.0-3.0-0.35","5","5","6","5","6","4","3","4","5","4","5","0","1","0","0","-1","2","1","0","4","4","4","4","4","5","4","4","5","4","7","8","8","8","7","7","8","8","9","4","4","5","4","4","3","5","2","4","3","5","4","6","4","4","6","5","4","5","4","6","5","5","6","3","5","6","5","5","6","6","5","4","5","6","5","5","5","4","5","768419588089319425","林","401","Female","[""好她"",""坏她"",""坏我"",""好我""]","[""强她"",""弱她"",""弱我"",""强我""]","","","","","","","","no","","","","","","","","","SRET","EW_formal","","key","f","16.66578281622923","683","380","朋友","废物","Negative","ability","","","","","","","","","",""
"7326","","f","psychophysics","50","415055","0.0-7.0-3.0-0.36","5","5","6","5","6","4","3","4","5","4","5","0","1","0","0","-1","2","1","0","4","4","4","4","4","5","4","4","5","4","7","8","8","8","7","7","8","8","9","4","4","5","4","4","3","5","2","4","3","5","4","6","4","4","6","5","4","5","4","6","5","5","6","3","5","6","5","5","6","6","5","4","5","6","5","5","5","4","5","768419588089319425","林","401","Female","[""好她"",""坏她"",""坏我"",""好我""]","[""强她"",""弱她"",""弱我"",""强我""]","","","","","","","","no","","","","","","","","","SRET","EW_formal","","key","f","16.66572399999993","683","380","自己","浅薄","Negative","ability","","","","","","","","","",""
"5225","","f","psychophysics","51","421289","0.0-7.0-3.0-0.37","5","5","6","5","6","4","3","4","5","4","5","0","1","0","0","-1","2","1","0","4","4","4","4","4","5","4","4","5","4","7","8","8","8","7","7","8","8","9","4","4","5","4","4","3","5","2","4","3","5","4","6","4","4","6","5","4","5","4","6","5","5","6","3","5","6","5","5","6","6","5","4","5","6","5","5","5","4","5","768419588089319425","林","401","Female","[""好她"",""坏她"",""坏我"",""好我""]","[""强她"",""弱她"",""弱我"",""强我""]","","","","","","","","no","","","","","","","","","SRET","EW_formal","","key","f","16.75563342318066","683","380","朋友","阴毒","Negative","morality","","","","","","","","","",""
"5413","","f","psychophysics","52","427709","0.0-7.0-3.0-0.38","5","5","6","5","6","4","3","4","5","4","5","0","1","0","0","-1","2","1","0","4","4","4","4","4","5","4","4","5","4","7","8","8","8","7","7","8","8","9","4","4","5","4","4","3","5","2","4","3","5","4","6","4","4","6","5","4","5","4","6","5","5","6","3","5","6","5","5","6","6","5","4","5","6","5","5","5","4","5","768419588089319425","林","401","Female","[""好她"",""坏她"",""坏我"",""好我""]","[""强她"",""弱她"",""弱我"",""强我""]","","","","","","","","no","","","","","","","","","SRET","EW_formal","","key","f","16.665674479166682","683","380","朋友","黑心","Negative","morality","","","","","","","","","",""
"4191","","f","psychophysics","53","432904","0.0-7.0-3.0-0.39","5","5","6","5","6","4","3","4","5","4","5","0","1","0","0","-1","2","1","0","4","4","4","4","4","5","4","4","5","4","7","8","8","8","7","7","8","8","9","4","4","5","4","4","3","5","2","4","3","5","4","6","4","4","6","5","4","5","4","6","5","5","6","3","5","6","5","5","6","6","5","4","5","6","5","5","5","4","5","768419588089319425","林","401","Female","[""好她"",""坏她"",""坏我"",""好我""]","[""强她"",""弱她"",""弱我"",""强我""]","","","","","","","","no","","","","","","","","","SRET","EW_formal","","key","f","16.665694533762114","683","380","朋友","邪恶","Negative","morality","","","","","","","","","",""
"4910","","j","psychophysics","54","438823","0.0-7.0-3.0-0.40","5","5","6","5","6","4","3","4","5","4","5","0","1","0","0","-1","2","1","0","4","4","4","4","4","5","4","4","5","4","7","8","8","8","7","7","8","8","9","4","4","5","4","4","3","5","2","4","3","5","4","6","4","4","6","5","4","5","4","6","5","5","6","3","5","6","5","5","6","6","5","4","5","6","5","5","5","4","5","768419588089319425","林","401","Female","[""好她"",""坏她"",""坏我"",""好我""]","[""强她"",""弱她"",""弱我"",""强我""]","","","","","","","","yes","","","","","","","","","SRET","EW_formal","","key","j","16.66578531073453","683","380","自己","刻苦","Positive","ability","","","","","","","","","",""
"8721","","f","psychophysics","55","448555","0.0-7.0-3.0-0.41","5","5","6","5","6","4","3","4","5","4","5","0","1","0","0","-1","2","1","0","4","4","4","4","4","5","4","4","5","4","7","8","8","8","7","7","8","8","9","4","4","5","4","4","3","5","2","4","3","5","4","6","4","4","6","5","4","5","4","6","5","5","6","3","5","6","5","5","6","6","5","4","5","6","5","5","5","4","5","768419588089319425","林","401","Female","[""好她"",""坏她"",""坏我"",""好我""]","[""强她"",""弱她"",""弱我"",""强我""]","","","","","","","","no","","","","","","","","","SRET","EW_formal","","key","f","16.694302405498338","683","380","自己","虚伪","Negative","morality","","","","","","","","","",""
"5760","","f","psychophysics","56","455322","0.0-7.0-3.0-0.42","5","5","6","5","6","4","3","4","5","4","5","0","1","0","0","-1","2","1","0","4","4","4","4","4","5","4","4","5","4","7","8","8","8","7","7","8","8","9","4","4","5","4","4","3","5","2","4","3","5","4","6","4","4","6","5","4","5","4","6","5","5","6","3","5","6","5","5","6","6","5","4","5","6","5","5","5","4","5","768419588089319425","林","401","Female","[""好她"",""坏她"",""坏我"",""好我""]","[""强她"",""弱她"",""弱我"",""强我""]","","","","","","","","no","","","","","","","","","SRET","EW_formal","","key","f","16.665654320987574","683","380","自己","迟钝","Negative","ability","","","","","","","","","",""
"11578","","f","psychophysics","57","467907","0.0-7.0-3.0-0.43","5","5","6","5","6","4","3","4","5","4","5","0","1","0","0","-1","2","1","0","4","4","4","4","4","5","4","4","5","4","7","8","8","8","7","7","8","8","9","4","4","5","4","4","3","5","2","4","3","5","4","6","4","4","6","5","4","5","4","6","5","5","6","3","5","6","5","5","6","6","5","4","5","6","5","5","5","4","5","768419588089319425","林","401","Female","[""好她"",""坏她"",""坏我"",""好我""]","[""强她"",""弱她"",""弱我"",""强我""]","","","","","","","","no","","","","","","","","","SRET","EW_formal","","key","f","16.66572281167111","683","380","自己","拜金","Negative","morality","","","","","","","","","",""
"7624","","j","psychophysics","58","476537","0.0-7.0-3.0-0.44","5","5","6","5","6","4","3","4","5","4","5","0","1","0","0","-1","2","1","0","4","4","4","4","4","5","4","4","5","4","7","8","8","8","7","7","8","8","9","4","4","5","4","4","3","5","2","4","3","5","4","6","4","4","6","5","4","5","4","6","5","5","6","3","5","6","5","5","6","6","5","4","5","6","5","5","5","4","5","768419588089319425","林","401","Female","[""好她"",""坏她"",""坏我"",""好我""]","[""强她"",""弱她"",""弱我"",""强我""]","","","","","","","","yes","","","","","","","","","SRET","EW_formal","","key","j","16.66570019342363","683","380","朋友","能干","Positive","ability","","","","","","","","","",""
"8693","","f","psychophysics","59","486238","0.0-7.0-3.0-0.45","5","5","6","5","6","4","3","4","5","4","5","0","1","0","0","-1","2","1","0","4","4","4","4","4","5","4","4","5","4","7","8","8","8","7","7","8","8","9","4","4","5","4","4","3","5","2","4","3","5","4","6","4","4","6","5","4","5","4","6","5","5","6","3","5","6","5","5","6","6","5","4","5","6","5","5","5","4","5","768419588089319425","林","401","Female","[""好她"",""坏她"",""坏我"",""好我""]","[""强她"",""弱她"",""弱我"",""强我""]","","","","","","","","no","","","","","","","","","SRET","EW_formal","","key","f","16.665822719449213","683","380","朋友","愚痴","Negative","ability","","","","","","","","","",""
"4959","","j","psychophysics","60","492200","0.0-7.0-3.0-0.46","5","5","6","5","6","4","3","4","5","4","5","0","1","0","0","-1","2","1","0","4","4","4","4","4","5","4","4","5","4","7","8","8","8","7","7","8","8","9","4","4","5","4","4","3","5","2","4","3","5","4","6","4","4","6","5","4","5","4","6","5","5","6","3","5","6","5","5","6","6","5","4","5","6","5","5","5","4","5","768419588089319425","林","401","Female","[""好她"",""坏她"",""坏我"",""好我""]","[""强她"",""弱她"",""弱我"",""强我""]","","","","","","","","yes","","","","","","","","","SRET","EW_formal","","key","j","16.665646067415814","683","380","自己","慈悲","Positive","morality","","","","","","","","","",""
"4478","","j","psychophysics","61","497688","0.0-7.0-3.0-0.47","5","5","6","5","6","4","3","4","5","4","5","0","1","0","0","-1","2","1","0","4","4","4","4","4","5","4","4","5","4","7","8","8","8","7","7","8","8","9","4","4","5","4","4","3","5","2","4","3","5","4","6","4","4","6","5","4","5","4","6","5","5","6","3","5","6","5","5","6","6","5","4","5","6","5","5","5","4","5","768419588089319425","林","401","Female","[""好她"",""坏她"",""坏我"",""好我""]","[""强她"",""弱她"",""弱我"",""强我""]","","","","","","","","yes","","","","","","","","","SRET","EW_formal","","key","j","16.665629179331212","683","380","自己","果决","Positive","ability","","","","","","","","","",""
"5748","","j","psychophysics","62","504437","0.0-7.0-3.0-0.48","5","5","6","5","6","4","3","4","5","4","5","0","1","0","0","-1","2","1","0","4","4","4","4","4","5","4","4","5","4","7","8","8","8","7","7","8","8","9","4","4","5","4","4","3","5","2","4","3","5","4","6","4","4","6","5","4","5","4","6","5","5","6","3","5","6","5","5","6","6","5","4","5","6","5","5","5","4","5","768419588089319425","林","401","Female","[""好她"",""坏她"",""坏我"",""好我""]","[""强她"",""弱她"",""弱我"",""强我""]","","","","","","","","yes","","","","","","","","","SRET","EW_formal","","key","j","16.665871287128684","683","380","朋友","诚信","Positive","morality","","","","","","","","","",""
"7944","","j","psychophysics","63","513385","0.0-7.0-3.0-0.49","5","5","6","5","6","4","3","4","5","4","5","0","1","0","0","-1","2","1","0","4","4","4","4","4","5","4","4","5","4","7","8","8","8","7","7","8","8","9","4","4","5","4","4","3","5","2","4","3","5","4","6","4","4","6","5","4","5","4","6","5","5","6","3","5","6","5","5","6","6","5","4","5","6","5","5","5","4","5","768419588089319425","林","401","Female","[""好她"",""坏她"",""坏我"",""好我""]","[""强她"",""弱她"",""弱我"",""强我""]","","","","","","","","yes","","","","","","","","","SRET","EW_formal","","key","j","16.665792910447745","683","380","朋友","细心","Positive","ability","","","","","","","","","",""
"7741","","f","psychophysics","64","522136","0.0-7.0-3.0-0.50","5","5","6","5","6","4","3","4","5","4","5","0","1","0","0","-1","2","1","0","4","4","4","4","4","5","4","4","5","4","7","8","8","8","7","7","8","8","9","4","4","5","4","4","3","5","2","4","3","5","4","6","4","4","6","5","4","5","4","6","5","5","6","3","5","6","5","5","6","6","5","4","5","6","5","5","5","4","5","768419588089319425","林","401","Female","[""好她"",""坏她"",""坏我"",""好我""]","[""强她"",""弱她"",""弱我"",""强我""]","","","","","","","","no","","","","","","","","","SRET","EW_formal","","key","f","16.665685114503738","683","380","朋友","拙笨","Negative","ability","","","","","","","","","",""
"6258","","j","psychophysics","65","529404","0.0-7.0-3.0-0.51","5","5","6","5","6","4","3","4","5","4","5","0","1","0","0","-1","2","1","0","4","4","4","4","4","5","4","4","5","4","7","8","8","8","7","7","8","8","9","4","4","5","4","4","3","5","2","4","3","5","4","6","4","4","6","5","4","5","4","6","5","5","6","3","5","6","5","5","6","6","5","4","5","6","5","5","5","4","5","768419588089319425","林","401","Female","[""好她"",""坏她"",""坏我"",""好我""]","[""强她"",""弱她"",""弱我"",""强我""]","","","","","","","","yes","","","","","","","","","SRET","EW_formal","","key","j","16.704179723502307","683","380","朋友","无敌","Positive","ability","","","","","","","","","",""
"5095","","j","psychophysics","66","535505","0.0-7.0-3.0-0.52","5","5","6","5","6","4","3","4","5","4","5","0","1","0","0","-1","2","1","0","4","4","4","4","4","5","4","4","5","4","7","8","8","8","7","7","8","8","9","4","4","5","4","4","3","5","2","4","3","5","4","6","4","4","6","5","4","5","4","6","5","5","6","3","5","6","5","5","6","6","5","4","5","6","5","5","5","4","5","768419588089319425","林","401","Female","[""好她"",""坏她"",""坏我"",""好我""]","[""强她"",""弱她"",""弱我"",""强我""]","","","","","","","","yes","","","","","","","","","SRET","EW_formal","","key","j","16.71139285714298","683","380","自己","孝顺","Positive","morality","","","","","","","","","",""
"7097","","j","psychophysics","67","543615","0.0-7.0-3.0-0.53","5","5","6","5","6","4","3","4","5","4","5","0","1","0","0","-1","2","1","0","4","4","4","4","4","5","4","4","5","4","7","8","8","8","7","7","8","8","9","4","4","5","4","4","3","5","2","4","3","5","4","6","4","4","6","5","4","5","4","6","5","5","6","3","5","6","5","5","6","6","5","4","5","6","5","5","5","4","5","768419588089319425","林","401","Female","[""好她"",""坏她"",""坏我"",""好我""]","[""强她"",""弱她"",""弱我"",""强我""]","","","","","","","","yes","","","","","","","","","SRET","EW_formal","","key","j","16.66584329896909","683","380","朋友","远见","Positive","ability","","","","","","","","","",""
"4638","","j","psychophysics","68","549256","0.0-7.0-3.0-0.54","5","5","6","5","6","4","3","4","5","4","5","0","1","0","0","-1","2","1","0","4","4","4","4","4","5","4","4","5","4","7","8","8","8","7","7","8","8","9","4","4","5","4","4","3","5","2","4","3","5","4","6","4","4","6","5","4","5","4","6","5","5","6","3","5","6","5","5","6","6","5","4","5","6","5","5","5","4","5","768419588089319425","林","401","Female","[""好她"",""坏她"",""坏我"",""好我""]","[""强她"",""弱她"",""弱我"",""强我""]","","","","","","","","yes","","","","","","","","","SRET","EW_formal","","key","j","16.665781065088712","683","380","朋友","勤奋","Positive","ability","","","","","","","","","",""
"4549","","j","psychophysics","69","554807","0.0-7.0-3.0-0.55","5","5","6","5","6","4","3","4","5","4","5","0","1","0","0","-1","2","1","0","4","4","4","4","4","5","4","4","5","4","7","8","8","8","7","7","8","8","9","4","4","5","4","4","3","5","2","4","3","5","4","6","4","4","6","5","4","5","4","6","5","5","6","3","5","6","5","5","6","6","5","4","5","6","5","5","5","4","5","768419588089319425","林","401","Female","[""好她"",""坏她"",""坏我"",""好我""]","[""强她"",""弱她"",""弱我"",""强我""]","","","","","","","","yes","","","","","","","","","SRET","EW_formal","","key","j","16.665753012047926","683","380","朋友","热心","Positive","morality","","","","","","","","","",""
"8747","","f","psychophysics","70","564558","0.0-7.0-3.0-0.56","5","5","6","5","6","4","3","4","5","4","5","0","1","0","0","-1","2","1","0","4","4","4","4","4","5","4","4","5","4","7","8","8","8","7","7","8","8","9","4","4","5","4","4","3","5","2","4","3","5","4","6","4","4","6","5","4","5","4","6","5","5","6","3","5","6","5","5","6","6","5","4","5","6","5","5","5","4","5","768419588089319425","林","401","Female","[""好她"",""坏她"",""坏我"",""好我""]","[""强她"",""弱她"",""弱我"",""强我""]","","","","","","","","no","","","","","","","","","SRET","EW_formal","","key","f","16.66567808219187","683","380","朋友","逞强","Negative","ability","","","","","","","","","",""
"6550","","j","psychophysics","71","572118","0.0-7.0-3.0-0.57","5","5","6","5","6","4","3","4","5","4","5","0","1","0","0","-1","2","1","0","4","4","4","4","4","5","4","4","5","4","7","8","8","8","7","7","8","8","9","4","4","5","4","4","3","5","2","4","3","5","4","6","4","4","6","5","4","5","4","6","5","5","6","3","5","6","5","5","6","6","5","4","5","6","5","5","5","4","5","768419588089319425","林","401","Female","[""好她"",""坏她"",""坏我"",""好我""]","[""强她"",""弱她"",""弱我"",""强我""]","","","","","","","","yes","","","","","","","","","SRET","EW_formal","","key","j","16.665730684326714","683","380","自己","有力","Positive","ability","","","","","","","","","",""
"4497","","j","psychophysics","72","577619","0.0-7.0-3.0-0.58","5","5","6","5","6","4","3","4","5","4","5","0","1","0","0","-1","2","1","0","4","4","4","4","4","5","4","4","5","4","7","8","8","8","7","7","8","8","9","4","4","5","4","4","3","5","2","4","3","5","4","6","4","4","6","5","4","5","4","6","5","5","6","3","5","6","5","5","6","6","5","4","5","6","5","5","5","4","5","768419588089319425","林","401","Female","[""好她"",""坏她"",""坏我"",""好我""]","[""强她"",""弱她"",""弱我"",""强我""]","","","","","","","","yes","","","","","","","","","SRET","EW_formal","","key","j","16.665896656535182","683","380","朋友","思辨","Positive","ability","","","","","","","","","",""
"6970","","f","psychophysics","73","585599","0.0-7.0-3.0-0.59","5","5","6","5","6","4","3","4","5","4","5","0","1","0","0","-1","2","1","0","4","4","4","4","4","5","4","4","5","4","7","8","8","8","7","7","8","8","9","4","4","5","4","4","3","5","2","4","3","5","4","6","4","4","6","5","4","5","4","6","5","5","6","3","5","6","5","5","6","6","5","4","5","6","5","5","5","4","5","768419588089319425","林","401","Female","[""好她"",""坏她"",""坏我"",""好我""]","[""强她"",""弱她"",""弱我"",""强我""]","","","","","","","","no","","","","","","","","","SRET","EW_formal","","key","f","16.665805439330555","683","380","朋友","畏难","Negative","ability","","","","","","","","","",""
"8348","","f","psychophysics","74","594950","0.0-7.0-3.0-0.60","5","5","6","5","6","4","3","4","5","4","5","0","1","0","0","-1","2","1","0","4","4","4","4","4","5","4","4","5","4","7","8","8","8","7","7","8","8","9","4","4","5","4","4","3","5","2","4","3","5","4","6","4","4","6","5","4","5","4","6","5","5","6","3","5","6","5","5","6","6","5","4","5","6","5","5","5","4","5","768419588089319425","林","401","Female","[""好她"",""坏她"",""坏我"",""好我""]","[""强她"",""弱她"",""弱我"",""强我""]","","","","","","","","no","","","","","","","","","SRET","EW_formal","","key","f","16.665812500000175","683","380","自己","短视","Negative","ability","","","","","","","","","",""
"5468","","j","psychophysics","75","601431","0.0-7.0-3.0-0.61","5","5","6","5","6","4","3","4","5","4","5","0","1","0","0","-1","2","1","0","4","4","4","4","4","5","4","4","5","4","7","8","8","8","7","7","8","8","9","4","4","5","4","4","3","5","2","4","3","5","4","6","4","4","6","5","4","5","4","6","5","5","6","3","5","6","5","5","6","6","5","4","5","6","5","5","5","4","5","768419588089319425","林","401","Female","[""好她"",""坏她"",""坏我"",""好我""]","[""强她"",""弱她"",""弱我"",""强我""]","","","","","","","","yes","","","","","","","","","SRET","EW_formal","","key","j","16.665587628866035","683","380","自己","廉正","Positive","morality","","","","","","","","","",""
"5813","","f","psychophysics","76","608247","0.0-7.0-3.0-0.62","5","5","6","5","6","4","3","4","5","4","5","0","1","0","0","-1","2","1","0","4","4","4","4","4","5","4","4","5","4","7","8","8","8","7","7","8","8","9","4","4","5","4","4","3","5","2","4","3","5","4","6","4","4","6","5","4","5","4","6","5","5","6","3","5","6","5","5","6","6","5","4","5","6","5","5","5","4","5","768419588089319425","林","401","Female","[""好她"",""坏她"",""坏我"",""好我""]","[""强她"",""弱她"",""弱我"",""强我""]","","","","","","","","no","","","","","","","","","SRET","EW_formal","","key","f","16.665725490196174","683","380","自己","无助","Negative","ability","","","","","","","","","",""
"3212","","j","psychophysics","77","612462","0.0-7.0-3.0-0.63","5","5","6","5","6","4","3","4","5","4","5","0","1","0","0","-1","2","1","0","4","4","4","4","4","5","4","4","5","4","7","8","8","8","7","7","8","8","9","4","4","5","4","4","3","5","2","4","3","5","4","6","4","4","6","5","4","5","4","6","5","5","6","3","5","6","5","5","6","6","5","4","5","6","5","5","5","4","5","768419588089319425","林","401","Female","[""好她"",""坏她"",""坏我"",""好我""]","[""强她"",""弱她"",""弱我"",""强我""]","","","","","","","","yes","","","","","","","","","SRET","EW_formal","","key","j","16.665769841269746","683","380","朋友","高明","Positive","ability","","","","","","","","","",""
"8080","","f","psychophysics","78","621546","0.0-7.0-3.0-0.64","5","5","6","5","6","4","3","4","5","4","5","0","1","0","0","-1","2","1","0","4","4","4","4","4","5","4","4","5","4","7","8","8","8","7","7","8","8","9","4","4","5","4","4","3","5","2","4","3","5","4","6","4","4","6","5","4","5","4","6","5","5","6","3","5","6","5","5","6","6","5","4","5","6","5","5","5","4","5","768419588089319425","林","401","Female","[""好她"",""坏她"",""坏我"",""好我""]","[""强她"",""弱她"",""弱我"",""强我""]","","","","","","","","no","","","","","","","","","SRET","EW_formal","","key","f","16.665647058823463","683","380","自己","狡狯","Negative","morality","","","","","","","","","",""
"6418","","j","psychophysics","79","628972","0.0-7.0-3.0-0.65","5","5","6","5","6","4","3","4","5","4","5","0","1","0","0","-1","2","1","0","4","4","4","4","4","5","4","4","5","4","7","8","8","8","7","7","8","8","9","4","4","5","4","4","3","5","2","4","3","5","4","6","4","4","6","5","4","5","4","6","5","5","6","3","5","6","5","5","6","6","5","4","5","6","5","5","5","4","5","768419588089319425","林","401","Female","[""好她"",""坏她"",""坏我"",""好我""]","[""强她"",""弱她"",""弱我"",""强我""]","","","","","","","","yes","","","","","","","","","SRET","EW_formal","","key","j","16.665668918918723","683","380","自己","高尚","Positive","morality","","","","","","","","","",""
"2294","","j","psychophysics","80","632270","0.0-7.0-3.0-0.66","5","5","6","5","6","4","3","4","5","4","5","0","1","0","0","-1","2","1","0","4","4","4","4","4","5","4","4","5","4","7","8","8","8","7","7","8","8","9","4","4","5","4","4","3","5","2","4","3","5","4","6","4","4","6","5","4","5","4","6","5","5","6","3","5","6","5","5","6","6","5","4","5","6","5","5","5","4","5","768419588089319425","林","401","Female","[""好她"",""坏她"",""坏我"",""好我""]","[""强她"",""弱她"",""弱我"",""强我""]","","","","","","","","yes","","","","","","","","","SRET","EW_formal","","key","j","16.66722842639603","683","380","朋友","廉明","Positive","morality","","","","","","","","","",""
"1198","","j","psychophysics","81","634477","0.0-7.0-3.0-0.67","5","5","6","5","6","4","3","4","5","4","5","0","1","0","0","-1","2","1","0","4","4","4","4","4","5","4","4","5","4","7","8","8","8","7","7","8","8","9","4","4","5","4","4","3","5","2","4","3","5","4","6","4","4","6","5","4","5","4","6","5","5","6","3","5","6","5","5","6","6","5","4","5","6","5","5","5","4","5","768419588089319425","林","401","Female","[""好她"",""坏她"",""坏我"",""好我""]","[""强她"",""弱她"",""弱我"",""强我""]","","","","","","","","yes","","","","","","","","","SRET","EW_formal","","key","j","16.665885496183428","683","380","自己","独立","Positive","ability","","","","","","","","","",""
"7044","","f","psychophysics","82","642526","0.0-7.0-3.0-0.68","5","5","6","5","6","4","3","4","5","4","5","0","1","0","0","-1","2","1","0","4","4","4","4","4","5","4","4","5","4","7","8","8","8","7","7","8","8","9","4","4","5","4","4","3","5","2","4","3","5","4","6","4","4","6","5","4","5","4","6","5","5","6","3","5","6","5","5","6","6","5","4","5","6","5","5","5","4","5","768419588089319425","林","401","Female","[""好她"",""坏她"",""坏我"",""好我""]","[""强她"",""弱她"",""弱我"",""强我""]","","","","","","","","no","","","","","","","","","SRET","EW_formal","","key","f","16.70067924528287","683","380","自己","淫乱","Negative","morality","","","","","","","","","",""
"1758","","f","psychophysics","83","645288","0.0-7.0-3.0-0.69","5","5","6","5","6","4","3","4","5","4","5","0","1","0","0","-1","2","1","0","4","4","4","4","4","5","4","4","5","4","7","8","8","8","7","7","8","8","9","4","4","5","4","4","3","5","2","4","3","5","4","6","4","4","6","5","4","5","4","6","5","5","6","3","5","6","5","5","6","6","5","4","5","6","5","5","5","4","5","768419588089319425","林","401","Female","[""好她"",""坏她"",""坏我"",""好我""]","[""强她"",""弱她"",""弱我"",""强我""]","","","","","","","","no","","","","","","","","","SRET","EW_formal","","key","f","16.966524096385363","683","380","朋友","虚假","Negative","morality","","","","","","","","","",""
"1370","","j","psychophysics","84","647661","0.0-7.0-3.0-0.70","5","5","6","5","6","4","3","4","5","4","5","0","1","0","0","-1","2","1","0","4","4","4","4","4","5","4","4","5","4","7","8","8","8","7","7","8","8","9","4","4","5","4","4","3","5","2","4","3","5","4","6","4","4","6","5","4","5","4","6","5","5","6","3","5","6","5","5","6","6","5","4","5","6","5","5","5","4","5","768419588089319425","林","401","Female","[""好她"",""坏她"",""坏我"",""好我""]","[""强她"",""弱她"",""弱我"",""强我""]","","","","","","","","yes","","","","","","","","","SRET","EW_formal","","key","j","16.665450704224984","683","380","自己","忠义","Positive","morality","","","","","","","","","",""
"6964","","f","psychophysics","85","655630","0.0-7.0-3.0-0.71","5","5","6","5","6","4","3","4","5","4","5","0","1","0","0","-1","2","1","0","4","4","4","4","4","5","4","4","5","4","7","8","8","8","7","7","8","8","9","4","4","5","4","4","3","5","2","4","3","5","4","6","4","4","6","5","4","5","4","6","5","5","6","3","5","6","5","5","6","6","5","4","5","6","5","5","5","4","5","768419588089319425","林","401","Female","[""好她"",""坏她"",""坏我"",""好我""]","[""强她"",""弱她"",""弱我"",""强我""]","","","","","","","","no","","","","","","","","","SRET","EW_formal","","key","f","16.70080252100827","683","380","自己","不孝","Negative","morality","","","","","","","","","",""
"1608","","f","psychophysics","86","658242","0.0-7.0-3.0-0.72","5","5","6","5","6","4","3","4","5","4","5","0","1","0","0","-1","2","1","0","4","4","4","4","4","5","4","4","5","4","7","8","8","8","7","7","8","8","9","4","4","5","4","4","3","5","2","4","3","5","4","6","4","4","6","5","4","5","4","6","5","5","6","3","5","6","5","5","6","6","5","4","5","6","5","5","5","4","5","768419588089319425","林","401","Female","[""好她"",""坏她"",""坏我"",""好我""]","[""强她"",""弱她"",""弱我"",""强我""]","","","","","","","","no","","","","","","","","","SRET","EW_formal","","key","f","16.66591612903191","683","380","朋友","恶劣","Negative","morality","","","","","","","","","",""
"1221","","f","psychophysics","87","660472","0.0-7.0-3.0-0.73","5","5","6","5","6","4","3","4","5","4","5","0","1","0","0","-1","2","1","0","4","4","4","4","4","5","4","4","5","4","7","8","8","8","7","7","8","8","9","4","4","5","4","4","3","5","2","4","3","5","4","6","4","4","6","5","4","5","4","6","5","5","6","3","5","6","5","5","6","6","5","4","5","6","5","5","5","4","5","768419588089319425","林","401","Female","[""好她"",""坏她"",""坏我"",""好我""]","[""强她"",""弱她"",""弱我"",""强我""]","","","","","","","","no","","","","","","","","","SRET","EW_formal","","key","f","16.791871212121226","683","380","自己","低劣","Negative","morality","","","","","","","","","",""
"1310","","j","psychophysics","88","662794","0.0-7.0-3.0-0.74","5","5","6","5","6","4","3","4","5","4","5","0","1","0","0","-1","2","1","0","4","4","4","4","4","5","4","4","5","4","7","8","8","8","7","7","8","8","9","4","4","5","4","4","3","5","2","4","3","5","4","6","4","4","6","5","4","5","4","6","5","5","6","3","5","6","5","5","6","6","5","4","5","6","5","5","5","4","5","768419588089319425","林","401","Female","[""好她"",""坏她"",""坏我"",""好我""]","[""强她"",""弱她"",""弱我"",""强我""]","","","","","","","","yes","","","","","","","","","SRET","EW_formal","","key","j","16.665510791366444","683","380","自己","礼貌","Positive","morality","","","","","","","","","",""
"1716","","f","psychophysics","89","665518","0.0-7.0-3.0-0.75","5","5","6","5","6","4","3","4","5","4","5","0","1","0","0","-1","2","1","0","4","4","4","4","4","5","4","4","5","4","7","8","8","8","7","7","8","8","9","4","4","5","4","4","3","5","2","4","3","5","4","6","4","4","6","5","4","5","4","6","5","5","6","3","5","6","5","5","6","6","5","4","5","6","5","5","5","4","5","768419588089319425","林","401","Female","[""好她"",""坏她"",""坏我"",""好我""]","[""强她"",""弱她"",""弱我"",""强我""]","","","","","","","","no","","","","","","","","","SRET","EW_formal","","key","f","16.769111801241813","683","380","自己","偏私","Negative","morality","","","","","","","","","",""
"3203","","j","psychophysics","90","669725","0.0-7.0-3.0-0.76","5","5","6","5","6","4","3","4","5","4","5","0","1","0","0","-1","2","1","0","4","4","4","4","4","5","4","4","5","4","7","8","8","8","7","7","8","8","9","4","4","5","4","4","3","5","2","4","3","5","4","6","4","4","6","5","4","5","4","6","5","5","6","3","5","6","5","5","6","6","5","4","5","6","5","5","5","4","5","768419588089319425","林","401","Female","[""好她"",""坏她"",""坏我"",""好我""]","[""强她"",""弱她"",""弱我"",""强我""]","","","","","","","","yes","","","","","","","","","SRET","EW_formal","","key","j","16.665685258963908","683","380","朋友","好心","Positive","morality","","","","","","","","","",""
"845","","j","psychophysics","91","671575","0.0-7.0-3.0-0.77","5","5","6","5","6","4","3","4","5","4","5","0","1","0","0","-1","2","1","0","4","4","4","4","4","5","4","4","5","4","7","8","8","8","7","7","8","8","9","4","4","5","4","4","3","5","2","4","3","5","4","6","4","4","6","5","4","5","4","6","5","5","6","3","5","6","5","5","6","6","5","4","5","6","5","5","5","4","5","768419588089319425","林","401","Female","[""好她"",""坏她"",""坏我"",""好我""]","[""强她"",""弱她"",""弱我"",""强我""]","","","","","","","","yes","","","","","","","","","SRET","EW_formal","","key","j","16.665672727273144","683","380","朋友","坦荡","Positive","morality","","","","","","","","","",""
"926","","j","psychophysics","92","673505","0.0-7.0-3.0-0.78","5","5","6","5","6","4","3","4","5","4","5","0","1","0","0","-1","2","1","0","4","4","4","4","4","5","4","4","5","4","7","8","8","8","7","7","8","8","9","4","4","5","4","4","3","5","2","4","3","5","4","6","4","4","6","5","4","5","4","6","5","5","6","3","5","6","5","5","6","6","5","4","5","6","5","5","5","4","5","768419588089319425","林","401","Female","[""好她"",""坏她"",""坏我"",""好我""]","[""强她"",""弱她"",""弱我"",""强我""]","","","","","","","","yes","","","","","","","","","SRET","EW_formal","","key","j","16.811482456140016","683","380","自己","义气","Positive","morality","","","","","","","","","",""
"1084","","f","psychophysics","93","675600","0.0-7.0-3.0-0.79","5","5","6","5","6","4","3","4","5","4","5","0","1","0","0","-1","2","1","0","4","4","4","4","4","5","4","4","5","4","7","8","8","8","7","7","8","8","9","4","4","5","4","4","3","5","2","4","3","5","4","6","4","4","6","5","4","5","4","6","5","5","6","3","5","6","5","5","6","6","5","4","5","6","5","5","5","4","5","768419588089319425","林","401","Female","[""好她"",""坏她"",""坏我"",""好我""]","[""强她"",""弱她"",""弱我"",""强我""]","","","","","","","","no","","","","","","","","","SRET","EW_formal","","key","f","16.665816000000575","683","380","朋友","混账","Negative","morality","","","","","","","","","",""
"1057","","j","psychophysics","94","677661","0.0-7.0-3.0-0.80","5","5","6","5","6","4","3","4","5","4","5","0","1","0","0","-1","2","1","0","4","4","4","4","4","5","4","4","5","4","7","8","8","8","7","7","8","8","9","4","4","5","4","4","3","5","2","4","3","5","4","6","4","4","6","5","4","5","4","6","5","5","6","3","5","6","5","5","6","6","5","4","5","6","5","5","5","4","5","768419588089319425","林","401","Female","[""好她"",""坏她"",""坏我"",""好我""]","[""强她"",""弱她"",""弱我"",""强我""]","","","","","","","","yes","","","","","","","","","SRET","EW_formal","","key","j","16.665349593495844","683","380","自己","周到","Positive","ability","","","","","","","","","",""
"1071","","j","psychophysics","95","679734","0.0-7.0-3.0-0.81","5","5","6","5","6","4","3","4","5","4","5","0","1","0","0","-1","2","1","0","4","4","4","4","4","5","4","4","5","4","7","8","8","8","7","7","8","8","9","4","4","5","4","4","3","5","2","4","3","5","4","6","4","4","6","5","4","5","4","6","5","5","6","3","5","6","5","5","6","6","5","4","5","6","5","5","5","4","5","768419588089319425","林","401","Female","[""好她"",""坏她"",""坏我"",""好我""]","[""强她"",""弱她"",""弱我"",""强我""]","","","","","","","","yes","","","","","","","","","SRET","EW_formal","","key","j","16.665707317073036","683","380","自己","拖延","Negative","ability","","","","","","","","","",""
"2807","","f","psychophysics","96","683549","0.0-7.0-3.0-0.82","5","5","6","5","6","4","3","4","5","4","5","0","1","0","0","-1","2","1","0","4","4","4","4","4","5","4","4","5","4","7","8","8","8","7","7","8","8","9","4","4","5","4","4","3","5","2","4","3","5","4","6","4","4","6","5","4","5","4","6","5","5","6","3","5","6","5","5","6","6","5","4","5","6","5","5","5","4","5","768419588089319425","林","401","Female","[""好她"",""坏她"",""坏我"",""好我""]","[""强她"",""弱她"",""弱我"",""强我""]","","","","","","","","no","","","","","","","","","SRET","EW_formal","","key","f","16.665745614035252","683","380","朋友","窝囊","Negative","ability","","","","","","","","","",""
"1344","","j","psychophysics","97","685899","0.0-7.0-3.0-0.83","5","5","6","5","6","4","3","4","5","4","5","0","1","0","0","-1","2","1","0","4","4","4","4","4","5","4","4","5","4","7","8","8","8","7","7","8","8","9","4","4","5","4","4","3","5","2","4","3","5","4","6","4","4","6","5","4","5","4","6","5","5","6","3","5","6","5","5","6","6","5","4","5","6","5","5","5","4","5","768419588089319425","林","401","Female","[""好她"",""坏她"",""坏我"",""好我""]","[""强她"",""弱她"",""弱我"",""强我""]","","","","","","","","yes","","","","","","","","","SRET","EW_formal","","key","j","16.665814285714546","683","380","自己","爱国","Positive","morality","","","","","","","","","",""
"1043","","j","psychophysics","98","687953","0.0-7.0-3.0-0.84","5","5","6","5","6","4","3","4","5","4","5","0","1","0","0","-1","2","1","0","4","4","4","4","4","5","4","4","5","4","7","8","8","8","7","7","8","8","9","4","4","5","4","4","3","5","2","4","3","5","4","6","4","4","6","5","4","5","4","6","5","5","6","3","5","6","5","5","6","6","5","4","5","6","5","5","5","4","5","768419588089319425","林","401","Female","[""好她"",""坏她"",""坏我"",""好我""]","[""强她"",""弱她"",""弱我"",""强我""]","","","","","","","","yes","","","","","","","","","SRET","EW_formal","","key","j","16.66523770491791","683","380","朋友","素养","Positive","morality","","","","","","","","","",""
"1461","","f","psychophysics","99","690418","0.0-7.0-3.0-0.85","5","5","6","5","6","4","3","4","5","4","5","0","1","0","0","-1","2","1","0","4","4","4","4","4","5","4","4","5","4","7","8","8","8","7","7","8","8","9","4","4","5","4","4","3","5","2","4","3","5","4","6","4","4","6","5","4","5","4","6","5","5","6","3","5","6","5","5","6","6","5","4","5","6","5","5","5","4","5","768419588089319425","林","401","Female","[""好她"",""坏她"",""坏我"",""好我""]","[""强她"",""弱她"",""弱我"",""强我""]","","","","","","","","no","","","","","","","","","SRET","EW_formal","","key","f","16.66597278911595","683","380","自己","缓慢","Negative","ability","","","","","","","","","",""
"1407","","f","psychophysics","100","692834","0.0-7.0-3.0-0.86","5","5","6","5","6","4","3","4","5","4","5","0","1","0","0","-1","2","1","0","4","4","4","4","4","5","4","4","5","4","7","8","8","8","7","7","8","8","9","4","4","5","4","4","3","5","2","4","3","5","4","6","4","4","6","5","4","5","4","6","5","5","6","3","5","6","5","5","6","6","5","4","5","6","5","5","5","4","5","768419588089319425","林","401","Female","[""好她"",""坏她"",""坏我"",""好我""]","[""强她"",""弱她"",""弱我"",""强我""]","","","","","","","","no","","","","","","","","","SRET","EW_formal","","key","f","16.66582638888859","683","380","朋友","低俗","Negative","morality","","","","","","","","","",""
"1111","","j","psychophysics","101","694951","0.0-7.0-3.0-0.87","5","5","6","5","6","4","3","4","5","4","5","0","1","0","0","-1","2","1","0","4","4","4","4","4","5","4","4","5","4","7","8","8","8","7","7","8","8","9","4","4","5","4","4","3","5","2","4","3","5","4","6","4","4","6","5","4","5","4","6","5","5","6","3","5","6","5","5","6","6","5","4","5","6","5","5","5","4","5","768419588089319425","林","401","Female","[""好她"",""坏她"",""坏我"",""好我""]","[""强她"",""弱她"",""弱我"",""强我""]","","","","","","","","yes","","","","","","","","","SRET","EW_formal","","key","j","16.799695999999532","683","380","自己","主见","Positive","ability","","","","","","","","","",""
"1919","
    <p><div style='color:white;font-size:35px; line-height:20px;'>计算任务</div></p><br>
    <p><div style='color:red;font-size:25px; line-height:20px;'>接下来，您将看到一些四则运算题，<b>请从键盘选择 0-9 进行反应。</b></div></p>
    <p><div style='color:red;font-size:25px; line-height:20px;'>请尽可能快地进行计算，计算的速度和正确率将影响报酬的发放。</div></p>
    <p><div class='footer' style='color:white;font-size:25px; line-height:20px;'>如果对本实验还有不清楚之处，请立即向实验员咨询。</p><p style='color:white;font-size:25px; line-height:20px;'>如果您明白了规则：</p><p style='color:white;font-size:22px; line-height:20px;'>请按 继续 进入练习</p>
    </div>
    ","0","html-button-response","102","696873","0.0-7.0-4.0","5","5","6","5","6","4","3","4","5","4","5","0","1","0","0","-1","2","1","0","4","4","4","4","4","5","4","4","5","4","7","8","8","8","7","7","8","8","9","4","4","5","4","4","3","5","2","4","3","5","4","6","4","4","6","5","4","5","4","6","5","5","6","3","5","6","5","5","6","6","5","4","5","6","5","5","5","4","5","768419588089319425","林","401","Female","[""好她"",""坏她"",""坏我"",""好我""]","[""强她"",""弱她"",""弱我"",""强我""]","","","","","","","","","","","","","","","","","SRET_math","math_instructions","Thu Nov 16 2023 18:30:06 GMT+0800 (中国标准时间)","","","","","","","","","","","","","","","","","","",""
"2397","","5","psychophysics","103","699310","0.0-7.0-5.0-0.0","5","5","6","5","6","4","3","4","5","4","5","0","1","0","0","-1","2","1","0","4","4","4","4","4","5","4","4","5","4","7","8","8","8","7","7","8","8","9","4","4","5","4","4","3","5","2","4","3","5","4","6","4","4","6","5","4","5","4","6","5","5","6","3","5","6","5","5","6","6","5","4","5","6","5","5","5","4","5","768419588089319425","林","401","Female","[""好她"",""坏她"",""坏我"",""好我""]","[""强她"",""弱她"",""弱我"",""强我""]","","","","","","","","5","","","","","","","","","SRET","SRET_math_calculate","","key","5","16.78010958904075","683","380","","","","","4+1= ?","5","1","","","","","","",""
"2022","","4","psychophysics","104","701334","0.0-7.0-5.0-0.1","5","5","6","5","6","4","3","4","5","4","5","0","1","0","0","-1","2","1","0","4","4","4","4","4","5","4","4","5","4","7","8","8","8","7","7","8","8","9","4","4","5","4","4","3","5","2","4","3","5","4","6","4","4","6","5","4","5","4","6","5","5","6","3","5","6","5","5","6","6","5","4","5","6","5","5","5","4","5","768419588089319425","林","401","Female","[""好她"",""坏她"",""坏我"",""好我""]","[""强她"",""弱她"",""弱我"",""强我""]","","","","","","","","4","","","","","","","","","SRET","SRET_math_calculate","","key","4","16.66569999999968","683","380","","","","","4*1= ?","4","1","","","","","","",""
"1829","","4","psychophysics","105","703165","0.0-7.0-5.0-0.2","5","5","6","5","6","4","3","4","5","4","5","0","1","0","0","-1","2","1","0","4","4","4","4","4","5","4","4","5","4","7","8","8","8","7","7","8","8","9","4","4","5","4","4","3","5","2","4","3","5","4","6","4","4","6","5","4","5","4","6","5","5","6","3","5","6","5","5","6","6","5","4","5","6","5","5","5","4","5","768419588089319425","林","401","Female","[""好她"",""坏她"",""坏我"",""好我""]","[""强她"",""弱她"",""弱我"",""强我""]","","","","","","","","4","","","","","","","","","SRET","SRET_math_calculate","","key","4","16.820037037037157","683","380","","","","","8-4= ?","4","1","","","","","","",""
"1767","","5","psychophysics","106","704934","0.0-7.0-5.0-0.3","5","5","6","5","6","4","3","4","5","4","5","0","1","0","0","-1","2","1","0","4","4","4","4","4","5","4","4","5","4","7","8","8","8","7","7","8","8","9","4","4","5","4","4","3","5","2","4","3","5","4","6","4","4","6","5","4","5","4","6","5","5","6","3","5","6","5","5","6","6","5","4","5","6","5","5","5","4","5","768419588089319425","林","401","Female","[""好她"",""坏她"",""坏我"",""好我""]","[""强她"",""弱她"",""弱我"",""强我""]","","","","","","","","5","","","","","","","","","SRET","SRET_math_calculate","","key","5","16.666447619048302","683","380","","","","","2+3= ?","5","1","","","","","","",""
"1940","","0","psychophysics","107","706902","0.0-7.0-5.0-0.4","5","5","6","5","6","4","3","4","5","4","5","0","1","0","0","-1","2","1","0","4","4","4","4","4","5","4","4","5","4","7","8","8","8","7","7","8","8","9","4","4","5","4","4","3","5","2","4","3","5","4","6","4","4","6","5","4","5","4","6","5","5","6","3","5","6","5","5","6","6","5","4","5","6","5","5","5","4","5","768419588089319425","林","401","Female","[""好她"",""坏她"",""坏我"",""好我""]","[""强她"",""弱她"",""弱我"",""强我""]","","","","","","","","0","","","","","","","","","SRET","SRET_math_calculate","","key","0","16.665564102564467","683","380","","","","","6*0= ?","0","1","","","","","","",""
"1805","","7","psychophysics","108","708718","0.0-7.0-5.0-0.5","5","5","6","5","6","4","3","4","5","4","5","0","1","0","0","-1","2","1","0","4","4","4","4","4","5","4","4","5","4","7","8","8","8","7","7","8","8","9","4","4","5","4","4","3","5","2","4","3","5","4","6","4","4","6","5","4","5","4","6","5","5","6","3","5","6","5","5","6","6","5","4","5","6","5","5","5","4","5","768419588089319425","林","401","Female","[""好她"",""坏她"",""坏我"",""好我""]","[""强她"",""弱她"",""弱我"",""强我""]","","","","","","","","7","","","","","","","","","SRET","SRET_math_calculate","","key","7","16.66649999999963","683","380","","","","","49/7 = ?","7","1","","","","","","",""
"2038","","1","psychophysics","109","710759","0.0-7.0-5.0-0.6","5","5","6","5","6","4","3","4","5","4","5","0","1","0","0","-1","2","1","0","4","4","4","4","4","5","4","4","5","4","7","8","8","8","7","7","8","8","9","4","4","5","4","4","3","5","2","4","3","5","4","6","4","4","6","5","4","5","4","6","5","5","6","3","5","6","5","5","6","6","5","4","5","6","5","5","5","4","5","768419588089319425","林","401","Female","[""好她"",""坏她"",""坏我"",""好我""]","[""强她"",""弱她"",""弱我"",""强我""]","","","","","","","","1","","","","","","","","","SRET","SRET_math_calculate","","key","1","16.66519672131227","683","380","","","","","9-8= ?","1","1","","","","","","",""
"1982","","7","psychophysics","110","712743","0.0-7.0-5.0-0.7","5","5","6","5","6","4","3","4","5","4","5","0","1","0","0","-1","2","1","0","4","4","4","4","4","5","4","4","5","4","7","8","8","8","7","7","8","8","9","4","4","5","4","4","3","5","2","4","3","5","4","6","4","4","6","5","4","5","4","6","5","5","6","3","5","6","5","5","6","6","5","4","5","6","5","5","5","4","5","768419588089319425","林","401","Female","[""好她"",""坏她"",""坏我"",""好我""]","[""强她"",""弱她"",""弱我"",""强我""]","","","","","","","","7","","","","","","","","","SRET","SRET_math_calculate","","key","7","16.666211864406883","683","380","","","","","4+3= ?","7","1","","","","","","",""
"2723","","5","psychophysics","111","715470","0.0-7.0-5.0-0.8","5","5","6","5","6","4","3","4","5","4","5","0","1","0","0","-1","2","1","0","4","4","4","4","4","5","4","4","5","4","7","8","8","8","7","7","8","8","9","4","4","5","4","4","3","5","2","4","3","5","4","6","4","4","6","5","4","5","4","6","5","5","6","3","5","6","5","5","6","6","5","4","5","6","5","5","5","4","5","768419588089319425","林","401","Female","[""好她"",""坏她"",""坏我"",""好我""]","[""强她"",""弱她"",""弱我"",""强我""]","","","","","","","","5","","","","","","","","","SRET","SRET_math_calculate","","key","5","16.76872670807462","683","380","","","","","12-7= ?","5","1","","","","","","",""
"2208","","7","psychophysics","112","717718","0.0-7.0-5.0-0.9","5","5","6","5","6","4","3","4","5","4","5","0","1","0","0","-1","2","1","0","4","4","4","4","4","5","4","4","5","4","7","8","8","8","7","7","8","8","9","4","4","5","4","4","3","5","2","4","3","5","4","6","4","4","6","5","4","5","4","6","5","5","6","3","5","6","5","5","6","6","5","4","5","6","5","5","5","4","5","768419588089319425","林","401","Female","[""好她"",""坏她"",""坏我"",""好我""]","[""强她"",""弱她"",""弱我"",""强我""]","","","","","","","","7","","","","","","","","","SRET","SRET_math_calculate","","key","7","16.79126315789483","683","380","","","","","12-5= ?","7","1","","","","","","",""
"1989","","2","psychophysics","113","719749","0.0-7.0-5.0-0.10","5","5","6","5","6","4","3","4","5","4","5","0","1","0","0","-1","2","1","0","4","4","4","4","4","5","4","4","5","4","7","8","8","8","7","7","8","8","9","4","4","5","4","4","3","5","2","4","3","5","4","6","4","4","6","5","4","5","4","6","5","5","6","3","5","6","5","5","6","6","5","4","5","6","5","5","5","4","5","768419588089319425","林","401","Female","[""好她"",""坏她"",""坏我"",""好我""]","[""强她"",""弱她"",""弱我"",""强我""]","","","","","","","","2","","","","","","","","","SRET","SRET_math_calculate","","key","2","16.66530578512379","683","380","","","","","8-6= ?","2","1","","","","","","",""
"2110","","9","psychophysics","114","721861","0.0-7.0-5.0-0.11","5","5","6","5","6","4","3","4","5","4","5","0","1","0","0","-1","2","1","0","4","4","4","4","4","5","4","4","5","4","7","8","8","8","7","7","8","8","9","4","4","5","4","4","3","5","2","4","3","5","4","6","4","4","6","5","4","5","4","6","5","5","6","3","5","6","5","5","6","6","5","4","5","6","5","5","5","4","5","768419588089319425","林","401","Female","[""好她"",""坏她"",""坏我"",""好我""]","[""强她"",""弱她"",""弱我"",""强我""]","","","","","","","","9","","","","","","","","","SRET","SRET_math_calculate","","key","9","16.665500000000023","683","380","","","","","1+8= ?","9","1","","","","","","",""
"2009","","4","psychophysics","115","723872","0.0-7.0-5.0-0.12","5","5","6","5","6","4","3","4","5","4","5","0","1","0","0","-1","2","1","0","4","4","4","4","4","5","4","4","5","4","7","8","8","8","7","7","8","8","9","4","4","5","4","4","3","5","2","4","3","5","4","6","4","4","6","5","4","5","4","6","5","5","6","3","5","6","5","5","6","6","5","4","5","6","5","5","5","4","5","768419588089319425","林","401","Female","[""好她"",""坏她"",""坏我"",""好我""]","[""强她"",""弱她"",""弱我"",""强我""]","","","","","","","","4","","","","","","","","","SRET","SRET_math_calculate","","key","4","16.66578991596681","683","380","","","","","3+1= ?","4","1","","","","","","",""
"2004","","5","psychophysics","116","725902","0.0-7.0-5.0-0.13","5","5","6","5","6","4","3","4","5","4","5","0","1","0","0","-1","2","1","0","4","4","4","4","4","5","4","4","5","4","7","8","8","8","7","7","8","8","9","4","4","5","4","4","3","5","2","4","3","5","4","6","4","4","6","5","4","5","4","6","5","5","6","3","5","6","5","5","6","6","5","4","5","6","5","5","5","4","5","768419588089319425","林","401","Female","[""好她"",""坏她"",""坏我"",""好我""]","[""强她"",""弱她"",""弱我"",""强我""]","","","","","","","","5","","","","","","","","","SRET","SRET_math_calculate","","key","5","16.666231404958207","683","380","","","","","3+2= ?","5","1","","","","","","",""
"1752","","9","psychophysics","117","727694","0.0-7.0-5.0-0.14","5","5","6","5","6","4","3","4","5","4","5","0","1","0","0","-1","2","1","0","4","4","4","4","4","5","4","4","5","4","7","8","8","8","7","7","8","8","9","4","4","5","4","4","3","5","2","4","3","5","4","6","4","4","6","5","4","5","4","6","5","5","6","3","5","6","5","5","6","6","5","4","5","6","5","5","5","4","5","768419588089319425","林","401","Female","[""好她"",""坏她"",""坏我"",""好我""]","[""强她"",""弱她"",""弱我"",""强我""]","","","","","","","","9","","","","","","","","","SRET","SRET_math_calculate","","key","9","16.82273584905625","683","380","","","","","5+4= ?","9","1","","","","","","",""
"1869","","9","psychophysics","118","729566","0.0-7.0-5.0-0.15","5","5","6","5","6","4","3","4","5","4","5","0","1","0","0","-1","2","1","0","4","4","4","4","4","5","4","4","5","4","7","8","8","8","7","7","8","8","9","4","4","5","4","4","3","5","2","4","3","5","4","6","4","4","6","5","4","5","4","6","5","5","6","3","5","6","5","5","6","6","5","4","5","6","5","5","5","4","5","768419588089319425","林","401","Female","[""好她"",""坏她"",""坏我"",""好我""]","[""强她"",""弱她"",""弱我"",""强我""]","","","","","","","","9","","","","","","","","","SRET","SRET_math_calculate","","key","9","16.665936936936887","683","380","","","","","1+8= ?","9","1","","","","","","",""
"2341","","3","psychophysics","119","731909","0.0-7.0-5.0-0.16","5","5","6","5","6","4","3","4","5","4","5","0","1","0","0","-1","2","1","0","4","4","4","4","4","5","4","4","5","4","7","8","8","8","7","7","8","8","9","4","4","5","4","4","3","5","2","4","3","5","4","6","4","4","6","5","4","5","4","6","5","5","6","3","5","6","5","5","6","6","5","4","5","6","5","5","5","4","5","768419588089319425","林","401","Female","[""好她"",""坏她"",""坏我"",""好我""]","[""强她"",""弱她"",""弱我"",""强我""]","","","","","","","","3","","","","","","","","","SRET","SRET_math_calculate","","key","3","16.66542142857132","683","380","","","","","6/2= ?","3","1","","","","","","",""
"1844","","6","psychophysics","120","733781","0.0-7.0-5.0-0.17","5","5","6","5","6","4","3","4","5","4","5","0","1","0","0","-1","2","1","0","4","4","4","4","4","5","4","4","5","4","7","8","8","8","7","7","8","8","9","4","4","5","4","4","3","5","2","4","3","5","4","6","4","4","6","5","4","5","4","6","5","5","6","3","5","6","5","5","6","6","5","4","5","6","5","5","5","4","5","768419588089319425","林","401","Female","[""好她"",""坏她"",""坏我"",""好我""]","[""强她"",""弱她"",""弱我"",""强我""]","","","","","","","","6","","","","","","","","","SRET","SRET_math_calculate","","key","6","16.666396396396145","683","380","","","","","9-3= ?","6","1","","","","","","",""
"1824","","8","psychophysics","121","735609","0.0-7.0-5.0-0.18","5","5","6","5","6","4","3","4","5","4","5","0","1","0","0","-1","2","1","0","4","4","4","4","4","5","4","4","5","4","7","8","8","8","7","7","8","8","9","4","4","5","4","4","3","5","2","4","3","5","4","6","4","4","6","5","4","5","4","6","5","5","6","3","5","6","5","5","6","6","5","4","5","6","5","5","5","4","5","768419588089319425","林","401","Female","[""好她"",""坏她"",""坏我"",""好我""]","[""强她"",""弱她"",""弱我"",""强我""]","","","","","","","","8","","","","","","","","","SRET","SRET_math_calculate","","key","8","16.665128440366537","683","380","","","","","9-1= ?","8","1","","","","","","",""
"1845","","9","psychophysics","122","737457","0.0-7.0-5.0-0.19","5","5","6","5","6","4","3","4","5","4","5","0","1","0","0","-1","2","1","0","4","4","4","4","4","5","4","4","5","4","7","8","8","8","7","7","8","8","9","4","4","5","4","4","3","5","2","4","3","5","4","6","4","4","6","5","4","5","4","6","5","5","6","3","5","6","5","5","6","6","5","4","5","6","5","5","5","4","5","768419588089319425","林","401","Female","[""好她"",""坏她"",""坏我"",""好我""]","[""强她"",""弱她"",""弱我"",""强我""]","","","","","","","","9","","","","","","","","","SRET","SRET_math_calculate","","key","9","16.818100917431817","683","380","","","","","2+7= ?","9","1","","","","","","",""
"1927","","3","psychophysics","123","739390","0.0-7.0-5.0-0.20","5","5","6","5","6","4","3","4","5","4","5","0","1","0","0","-1","2","1","0","4","4","4","4","4","5","4","4","5","4","7","8","8","8","7","7","8","8","9","4","4","5","4","4","3","5","2","4","3","5","4","6","4","4","6","5","4","5","4","6","5","5","6","3","5","6","5","5","6","6","5","4","5","6","5","5","5","4","5","768419588089319425","林","401","Female","[""好她"",""坏她"",""坏我"",""好我""]","[""强她"",""弱她"",""弱我"",""强我""]","","","","","","","","3","","","","","","","","","SRET","SRET_math_calculate","","key","3","16.665391304347988","683","380","","","","","2+1= ?","3","1","","","","","","",""
"1847","","3","psychophysics","124","741239","0.0-7.0-5.0-0.21","5","5","6","5","6","4","3","4","5","4","5","0","1","0","0","-1","2","1","0","4","4","4","4","4","5","4","4","5","4","7","8","8","8","7","7","8","8","9","4","4","5","4","4","3","5","2","4","3","5","4","6","4","4","6","5","4","5","4","6","5","5","6","3","5","6","5","5","6","6","5","4","5","6","5","5","5","4","5","768419588089319425","林","401","Female","[""好她"",""坏她"",""坏我"",""好我""]","[""强她"",""弱她"",""弱我"",""强我""]","","","","","","","","3","","","","","","","","","SRET","SRET_math_calculate","","key","3","16.665678899081577","683","380","","","","","9-6= ?","3","1","","","","","","",""
"1785","","8","psychophysics","125","743029","0.0-7.0-5.0-0.22","5","5","6","5","6","4","3","4","5","4","5","0","1","0","0","-1","2","1","0","4","4","4","4","4","5","4","4","5","4","7","8","8","8","7","7","8","8","9","4","4","5","4","4","3","5","2","4","3","5","4","6","4","4","6","5","4","5","4","6","5","5","6","3","5","6","5","5","6","6","5","4","5","6","5","5","5","4","5","768419588089319425","林","401","Female","[""好她"",""坏她"",""坏我"",""好我""]","[""强她"",""弱她"",""弱我"",""强我""]","","","","","","","","8","","","","","","","","","SRET","SRET_math_calculate","","key","8","16.665766355140946","683","380","","","","","1*8= ?","8","1","","","","","","",""
"1828","","6","psychophysics","126","744861","0.0-7.0-5.0-0.23","5","5","6","5","6","4","3","4","5","4","5","0","1","0","0","-1","2","1","0","4","4","4","4","4","5","4","4","5","4","7","8","8","8","7","7","8","8","9","4","4","5","4","4","3","5","2","4","3","5","4","6","4","4","6","5","4","5","4","6","5","5","6","3","5","6","5","5","6","6","5","4","5","6","5","5","5","4","5","768419588089319425","林","401","Female","[""好她"",""坏她"",""坏我"",""好我""]","[""强她"",""弱她"",""弱我"",""强我""]","","","","","","","","6","","","","","","","","","SRET","SRET_math_calculate","","key","6","16.819777777777443","683","380","","","","","4+2= ?","6","1","","","","","","",""
"1942","","8","psychophysics","127","746807","0.0-7.0-5.0-0.24","5","5","6","5","6","4","3","4","5","4","5","0","1","0","0","-1","2","1","0","4","4","4","4","4","5","4","4","5","4","7","8","8","8","7","7","8","8","9","4","4","5","4","4","3","5","2","4","3","5","4","6","4","4","6","5","4","5","4","6","5","5","6","3","5","6","5","5","6","6","5","4","5","6","5","5","5","4","5","768419588089319425","林","401","Female","[""好她"",""坏她"",""坏我"",""好我""]","[""强她"",""弱她"",""弱我"",""强我""]","","","","","","","","8","","","","","","","","","SRET","SRET_math_calculate","","key","8","16.665284482758203","683","380","","","","","7+1= ?","8","1","","","","","","",""
"1891","","8","psychophysics","128","748704","0.0-7.0-5.0-0.25","5","5","6","5","6","4","3","4","5","4","5","0","1","0","0","-1","2","1","0","4","4","4","4","4","5","4","4","5","4","7","8","8","8","7","7","8","8","9","4","4","5","4","4","3","5","2","4","3","5","4","6","4","4","6","5","4","5","4","6","5","5","6","3","5","6","5","5","6","6","5","4","5","6","5","5","5","4","5","768419588089319425","林","401","Female","[""好她"",""坏她"",""坏我"",""好我""]","[""强她"",""弱她"",""弱我"",""强我""]","","","","","","","","8","","","","","","","","","SRET","SRET_math_calculate","","key","8","16.665705357141892","683","380","","","","","2*4= ?","8","1","","","","","","",""
"1960","","8","psychophysics","129","750703","0.0-7.0-5.0-0.26","5","5","6","5","6","4","3","4","5","4","5","0","1","0","0","-1","2","1","0","4","4","4","4","4","5","4","4","5","4","7","8","8","8","7","7","8","8","9","4","4","5","4","4","3","5","2","4","3","5","4","6","4","4","6","5","4","5","4","6","5","5","6","3","5","6","5","5","6","6","5","4","5","6","5","5","5","4","5","768419588089319425","林","401","Female","[""好她"",""坏她"",""坏我"",""好我""]","[""强她"",""弱她"",""弱我"",""强我""]","","","","","","","","8","","","","","","","","","SRET","SRET_math_calculate","","key","8","16.806932203389774","683","380","","","","","13-5= ?","8","1","","","","","","",""
"1868","","7","psychophysics","130","752607","0.0-7.0-5.0-0.27","5","5","6","5","6","4","3","4","5","4","5","0","1","0","0","-1","2","1","0","4","4","4","4","4","5","4","4","5","4","7","8","8","8","7","7","8","8","9","4","4","5","4","4","3","5","2","4","3","5","4","6","4","4","6","5","4","5","4","6","5","5","6","3","5","6","5","5","6","6","5","4","5","6","5","5","5","4","5","768419588089319425","林","401","Female","[""好她"",""坏她"",""坏我"",""好我""]","[""强她"",""弱她"",""弱我"",""强我""]","","","","","","","","7","","","","","","","","","SRET","SRET_math_calculate","","key","7","16.813292035398245","683","380","","","","","9-2= ?","7","1","","","","","","",""
"1874","","2","psychophysics","131","754487","0.0-7.0-5.0-0.28","5","5","6","5","6","4","3","4","5","4","5","0","1","0","0","-1","2","1","0","4","4","4","4","4","5","4","4","5","4","7","8","8","8","7","7","8","8","9","4","4","5","4","4","3","5","2","4","3","5","4","6","4","4","6","5","4","5","4","6","5","5","6","3","5","6","5","5","6","6","5","4","5","6","5","5","5","4","5","768419588089319425","林","401","Female","[""好她"",""坏她"",""坏我"",""好我""]","[""强她"",""弱她"",""弱我"",""强我""]","","","","","","","","2","","","","","","","","","SRET","SRET_math_calculate","","key","2","16.817318181817377","683","380","","","","","29-27= ?","2","1","","","","","","",""
"1733","","7","psychophysics","132","756256","0.0-7.0-5.0-0.29","5","5","6","5","6","4","3","4","5","4","5","0","1","0","0","-1","2","1","0","4","4","4","4","4","5","4","4","5","4","7","8","8","8","7","7","8","8","9","4","4","5","4","4","3","5","2","4","3","5","4","6","4","4","6","5","4","5","4","6","5","5","6","3","5","6","5","5","6","6","5","4","5","6","5","5","5","4","5","768419588089319425","林","401","Female","[""好她"",""坏她"",""坏我"",""好我""]","[""强她"",""弱她"",""弱我"",""强我""]","","","","","","","","7","","","","","","","","","SRET","SRET_math_calculate","","key","7","16.824838095238167","683","380","","","","","3+4= ?","7","1","","","","","","",""
"1937","","6","psychophysics","133","758198","0.0-7.0-5.0-0.30","5","5","6","5","6","4","3","4","5","4","5","0","1","0","0","-1","2","1","0","4","4","4","4","4","5","4","4","5","4","7","8","8","8","7","7","8","8","9","4","4","5","4","4","3","5","2","4","3","5","4","6","4","4","6","5","4","5","4","6","5","5","6","3","5","6","5","5","6","6","5","4","5","6","5","5","5","4","5","768419588089319425","林","401","Female","[""好她"",""坏她"",""坏我"",""好我""]","[""强她"",""弱她"",""弱我"",""强我""]","","","","","","","","6","","","","","","","","","SRET","SRET_math_calculate","","key","6","16.665026086956544","683","380","","","","","3+3= ?","6","1","","","","","","",""
"1708","","5","psychophysics","134","759909","0.0-7.0-5.0-0.31","5","5","6","5","6","4","3","4","5","4","5","0","1","0","0","-1","2","1","0","4","4","4","4","4","5","4","4","5","4","7","8","8","8","7","7","8","8","9","4","4","5","4","4","3","5","2","4","3","5","4","6","4","4","6","5","4","5","4","6","5","5","6","3","5","6","5","5","6","6","5","4","5","6","5","5","5","4","5","768419588089319425","林","401","Female","[""好她"",""坏她"",""坏我"",""好我""]","[""强她"",""弱她"",""弱我"",""强我""]","","","","","","","","5","","","","","","","","","SRET","SRET_math_calculate","","key","5","16.665098039215366","683","380","","","","","9-4= ?","5","1","","","","","","",""
"1783","","8","psychophysics","135","761693","0.0-7.0-5.0-0.32","5","5","6","5","6","4","3","4","5","4","5","0","1","0","0","-1","2","1","0","4","4","4","4","4","5","4","4","5","4","7","8","8","8","7","7","8","8","9","4","4","5","4","4","3","5","2","4","3","5","4","6","4","4","6","5","4","5","4","6","5","5","6","3","5","6","5","5","6","6","5","4","5","6","5","5","5","4","5","768419588089319425","林","401","Female","[""好她"",""坏她"",""坏我"",""好我""]","[""强她"",""弱她"",""弱我"",""强我""]","","","","","","","","8","","","","","","","","","SRET","SRET_math_calculate","","key","8","16.82465714285749","683","380","","","","","6+2= ?","8","1","","","","","","",""
"1774","","4","psychophysics","136","763472","0.0-7.0-5.0-0.33","5","5","6","5","6","4","3","4","5","4","5","0","1","0","0","-1","2","1","0","4","4","4","4","4","5","4","4","5","4","7","8","8","8","7","7","8","8","9","4","4","5","4","4","3","5","2","4","3","5","4","6","4","4","6","5","4","5","4","6","5","5","6","3","5","6","5","5","6","6","5","4","5","6","5","5","5","4","5","768419588089319425","林","401","Female","[""好她"",""坏她"",""坏我"",""好我""]","[""强她"",""弱她"",""弱我"",""强我""]","","","","","","","","4","","","","","","","","","SRET","SRET_math_calculate","","key","4","16.665150943396718","683","380","","","","","13-9= ?","4","1","","","","","","",""
"2882","","6","psychophysics","137","766357","0.0-7.0-5.0-0.34","5","5","6","5","6","4","3","4","5","4","5","0","1","0","0","-1","2","1","0","4","4","4","4","4","5","4","4","5","4","7","8","8","8","7","7","8","8","9","4","4","5","4","4","3","5","2","4","3","5","4","6","4","4","6","5","4","5","4","6","5","5","6","3","5","6","5","5","6","6","5","4","5","6","5","5","5","4","5","768419588089319425","林","401","Female","[""好她"",""坏她"",""坏我"",""好我""]","[""强她"",""弱她"",""弱我"",""强我""]","","","","","","","","6","","","","","","","","","SRET","SRET_math_calculate","","key","6","16.665860465116566","683","380","","","","","3*2= ?","6","1","","","","","","",""
"1773","","5","psychophysics","138","768133","0.0-7.0-5.0-0.35","5","5","6","5","6","4","3","4","5","4","5","0","1","0","0","-1","2","1","0","4","4","4","4","4","5","4","4","5","4","7","8","8","8","7","7","8","8","9","4","4","5","4","4","3","5","2","4","3","5","4","6","4","4","6","5","4","5","4","6","5","5","6","3","5","6","5","5","6","6","5","4","5","6","5","5","5","4","5","768419588089319425","林","401","Female","[""好她"",""坏她"",""坏我"",""好我""]","[""强她"",""弱她"",""弱我"",""强我""]","","","","","","","","5","","","","","","","","","SRET","SRET_math_calculate","","key","5","16.665952380951715","683","380","","","","","10-5= ?","5","1","","","","","","",""
"1766","","7","psychophysics","139","769925","0.0-7.0-5.0-0.36","5","5","6","5","6","4","3","4","5","4","5","0","1","0","0","-1","2","1","0","4","4","4","4","4","5","4","4","5","4","7","8","8","8","7","7","8","8","9","4","4","5","4","4","3","5","2","4","3","5","4","6","4","4","6","5","4","5","4","6","5","5","6","3","5","6","5","5","6","6","5","4","5","6","5","5","5","4","5","768419588089319425","林","401","Female","[""好她"",""坏她"",""坏我"",""好我""]","[""强她"",""弱她"",""弱我"",""强我""]","","","","","","","","7","","","","","","","","","SRET","SRET_math_calculate","","key","7","16.665710280374103","683","380","","","","","6+1= ?","7","1","","","","","","",""
"1895","","8","psychophysics","140","771822","0.0-7.0-5.0-0.37","5","5","6","5","6","4","3","4","5","4","5","0","1","0","0","-1","2","1","0","4","4","4","4","4","5","4","4","5","4","7","8","8","8","7","7","8","8","9","4","4","5","4","4","3","5","2","4","3","5","4","6","4","4","6","5","4","5","4","6","5","5","6","3","5","6","5","5","6","6","5","4","5","6","5","5","5","4","5","768419588089319425","林","401","Female","[""好她"",""坏她"",""坏我"",""好我""]","[""强她"",""弱她"",""弱我"",""强我""]","","","","","","","","8","","","","","","","","","SRET","SRET_math_calculate","","key","8","16.665106194690324","683","380","","","","","72/9= ?","8","1","","","","","","",""
"1756","","8","psychophysics","141","773581","0.0-7.0-5.0-0.38","5","5","6","5","6","4","3","4","5","4","5","0","1","0","0","-1","2","1","0","4","4","4","4","4","5","4","4","5","4","7","8","8","8","7","7","8","8","9","4","4","5","4","4","3","5","2","4","3","5","4","6","4","4","6","5","4","5","4","6","5","5","6","3","5","6","5","5","6","6","5","4","5","6","5","5","5","4","5","768419588089319425","林","401","Female","[""好她"",""坏她"",""坏我"",""好我""]","[""强她"",""弱她"",""弱我"",""强我""]","","","","","","","","8","","","","","","","","","SRET","SRET_math_calculate","","key","8","16.665403846153193","683","380","","","","","8*1= ?","8","1","","","","","","",""
"1998","","8","psychophysics","142","775581","0.0-7.0-5.0-0.39","5","5","6","5","6","4","3","4","5","4","5","0","1","0","0","-1","2","1","0","4","4","4","4","4","5","4","4","5","4","7","8","8","8","7","7","8","8","9","4","4","5","4","4","3","5","2","4","3","5","4","6","4","4","6","5","4","5","4","6","5","5","6","3","5","6","5","5","6","6","5","4","5","6","5","5","5","4","5","768419588089319425","林","401","Female","[""好她"",""坏她"",""坏我"",""好我""]","[""强她"",""弱她"",""弱我"",""强我""]","","","","","","","","8","","","","","","","","","SRET","SRET_math_calculate","","key","8","16.66619327731094","683","380","","","","","4*2= ?","8","1","","","","","","",""
"2374","","2","psychophysics","143","777957","0.0-7.0-5.0-0.40","5","5","6","5","6","4","3","4","5","4","5","0","1","0","0","-1","2","1","0","4","4","4","4","4","5","4","4","5","4","7","8","8","8","7","7","8","8","9","4","4","5","4","4","3","5","2","4","3","5","4","6","4","4","6","5","4","5","4","6","5","5","6","3","5","6","5","5","6","6","5","4","5","6","5","5","5","4","5","768419588089319425","林","401","Female","[""好她"",""坏她"",""坏我"",""好我""]","[""强她"",""弱她"",""弱我"",""强我""]","","","","","","","","2","","","","","","","","","SRET","SRET_math_calculate","","key","2","16.666070422534766","683","380","","","","","18/9= ?","2","1","","","","","","",""
"1966","","3","psychophysics","144","779925","0.0-7.0-5.0-0.41","5","5","6","5","6","4","3","4","5","4","5","0","1","0","0","-1","2","1","0","4","4","4","4","4","5","4","4","5","4","7","8","8","8","7","7","8","8","9","4","4","5","4","4","3","5","2","4","3","5","4","6","4","4","6","5","4","5","4","6","5","5","6","3","5","6","5","5","6","6","5","4","5","6","5","5","5","4","5","768419588089319425","林","401","Female","[""好她"",""坏她"",""坏我"",""好我""]","[""强她"",""弱她"",""弱我"",""强我""]","","","","","","","","3","","","","","","","","","SRET","SRET_math_calculate","","key","3","16.66547863247892","683","380","","","","","8-5= ?","3","1","","","","","","",""
