"rt","stimulus","response","trial_type","trial_index","time_elapsed","internal_node_id","swb_1","swb_2","swb_3","swb_4","swb_5","LOT_1","LOT_2","LOT_3","LOT_4","LOT_5","LOT_6","IPC_1","IPC_2","IPC_3","IPC_4","IPC_5","IPC_6","IPC_7","IPC_8","MorIden_1","MorIden_2","MorIden_3","MorIden_4","MorIden_5","MorIden_6","MorIden_7","MorIden_8","MorIden_9","MorIden_10","moralSeImag_1","moralSeImag_2","moralSeImag_3","moralSeImag_4","moralSeImag_5","moralSeImag_6","moralSeImag_7","moralSeImag_8","moralSeImag_9","sde_1","sde_2","sde_3","sde_4","sde_5","sde_6","sde_7","sde_8","sde_9","sde_10","sde_11","sde_12","sde_13","sde_14","sde_15","sde_16","sde_17","sde_18","sde_19","sde_20","IM_1","IM_2","IM_3","IM_4","IM_5","IM_6","IM_7","IM_8","IM_9","IM_10","IM_11","IM_12","IM_13","IM_14","IM_15","IM_16","IM_17","IM_18","IM_19","IM_20","subj_idx","friend_name","ParticipantID","Sex","Word","Word2","value","success","timeout","failed_images","failed_audio","failed_video","user_agent","responses","item_order","radio_event_ids","radio_event_times","key_event_times","mouse_event_times","straightlining","zigzagging","honeypot","task_id","screen_id","time_stamp","response_type","key_press","avg_frame_time","center_x","center_y","person","word","valence","domain","math","correct_response","correct","status","view_history","identity","duration","Image","condition","question_order"
"1845","
   <p><div style='color:white; font-size: 25px'>您好，欢迎参加本次实验。</div></p>
   <p><div style='color:white; font-size: 25px'>为充分保障您的权利，请确保您已经知晓并同意《参与实验同意书》以及《数据公开知情同意书》。</div></p>
   <p><div style='color:white; font-size: 25px'>如果您未见过上述内容，请咨询实验员。</div></p>
   <p style='color:white; font-size: 25px'>如果您选择继续实验，则表示您已经清楚两份知情同意书的内容并同意。</p>
   <p><div style = ""color: red;font-size:30px;"">请确保您记得day0的实验编号，您将在本次实验输入该编号，若您忘记，请咨询实验员后作答。</div></p>
   <p> <div style = ""color: green""><按空格键至下页></div> </p>
   "," ","html-keyboard-response","0","1847","0.0-0.0","6","7","5","6","6","5","4","5","5","5","5","1","-2","2","1","-1","2","1","-1","5","5","4","5","5","5","4","4","5","5","7","8","8","8","2","6","7","7","8","6","7","2","6","6","7","5","6","7","7","6","6","7","3","6","6","7","3","3","7","3","7","2","2","1","7","5","6","7","7","6","3","7","5","2","6","7","2","3","7","609032333906935808","刘","670","Male","[""坏他"",""好他"",""好我"",""坏我""]","[""弱他"",""强他"",""强我"",""弱我""]","","","","","","","","","","","","","","","","","","","","","","","","","","","","","","","","","","","","","",""
"","","","call-function","1","1848","0.0-1.0-0.0","6","7","5","6","6","5","4","5","5","5","5","1","-2","2","1","-1","2","1","-1","5","5","4","5","5","5","4","4","5","5","7","8","8","8","2","6","7","7","8","6","7","2","6","6","7","5","6","7","7","6","6","7","3","6","6","7","3","3","7","3","7","2","2","1","7","5","6","7","7","6","3","7","5","2","6","7","2","3","7","609032333906935808","刘","670","Male","[""坏他"",""好他"",""好我"",""坏我""]","[""弱他"",""强他"",""强我"",""弱我""]","","","","","","","","","","","","","","","","","","","","","","","","","","","","","","","","","","","","","",""
"35771","","[{""name"":""Sex"",""value"":""0""},{""name"":""friend_name"",""value"":""刘""},{""name"":""ParticipantID"",""value"":""670""}]","survey-html-form","2","37670","0.0-1.0-1.0","6","7","5","6","6","5","4","5","5","5","5","1","-2","2","1","-1","2","1","-1","5","5","4","5","5","5","4","4","5","5","7","8","8","8","2","6","7","7","8","6","7","2","6","6","7","5","6","7","7","6","6","7","3","6","6","7","3","3","7","3","7","2","2","1","7","5","6","7","7","6","3","7","5","2","6","7","2","3","7","609032333906935808","刘","670","Male","[""坏他"",""好他"",""好我"",""坏我""]","[""弱他"",""强他"",""强我"",""弱我""]","","","","","","","","","","","","","","","","","","","","","","","","","","","","","","","","","","","","","",""
"","","","preload","3","38350","0.0-2.0","6","7","5","6","6","5","4","5","5","5","5","1","-2","2","1","-1","2","1","-1","5","5","4","5","5","5","4","4","5","5","7","8","8","8","2","6","7","7","8","6","7","2","6","6","7","5","6","7","7","6","6","7","3","6","6","7","3","3","7","3","7","2","2","1","7","5","6","7","7","6","3","7","5","2","6","7","2","3","7","609032333906935808","刘","670","Male","[""坏他"",""好他"",""好我"",""坏我""]","[""弱他"",""强他"",""强我"",""弱我""]","","true","false","[]","[]","[]","","","","","","","","","","","","","","","","","","","","","","","","","","","","","","","",""
"","","","fullscreen","4","39625","0.0-3.0","6","7","5","6","6","5","4","5","5","5","5","1","-2","2","1","-1","2","1","-1","5","5","4","5","5","5","4","4","5","5","7","8","8","8","2","6","7","7","8","6","7","2","6","6","7","5","6","7","7","6","6","7","3","6","6","7","3","3","7","3","7","2","2","1","7","5","6","7","7","6","3","7","5","2","6","7","2","3","7","609032333906935808","刘","670","Male","[""坏他"",""好他"",""好我"",""坏我""]","[""弱他"",""强他"",""强我"",""弱我""]","","true","","","","","{}","","","","","","","","","","","","","","","","","","","","","","","","","","","","","","",""
"7623.29999999702","","{""Q01"":""6"",""Q02"":""7"",""Q03"":""5"",""Q04"":""6"",""Q05"":""6""}","survey-template","5","47263","0.0-4.0","6","7","5","6","6","5","4","5","5","5","5","1","-2","2","1","-1","2","1","-1","5","5","4","5","5","5","4","4","5","5","7","8","8","8","2","6","7","7","8","6","7","2","6","6","7","5","6","7","7","6","6","7","3","6","6","7","3","3","7","3","7","2","2","1","7","5","6","7","7","6","3","7","5","2","6","7","2","3","7","609032333906935808","刘","670","Male","[""坏他"",""好他"",""好我"",""坏我""]","[""弱他"",""强他"",""强我"",""弱我""]","","","","","","","","{""Q01"":""6"",""Q02"":""7"",""Q03"":""5"",""Q04"":""6"",""Q05"":""6""}","[0,1,2,3,4]","[""Q01"",""Q02"",""Q03"",""Q04"",""Q05""]","[2414.2999999970198,3278.099999997765,4366,5222.199999999255,6974]","[]","[726.0999999977648,2414.2999999970198,3278.099999997765,4366,5222.199999999255,6398,6974,7622.39999999851]","0.6","0.5","0","","","","","","","","","","","","","","","","","","","","","",""
"17630.29999999702","","{""Q01"":""5"",""Q02"":""4"",""Q03"":""5"",""Q04"":""5"",""Q05"":""5"",""Q06"":""5""}","survey-template","6","64897","0.0-5.0","6","7","5","6","6","5","4","5","5","5","5","1","-2","2","1","-1","2","1","-1","5","5","4","5","5","5","4","4","5","5","7","8","8","8","2","6","7","7","8","6","7","2","6","6","7","5","6","7","7","6","6","7","3","6","6","7","3","3","7","3","7","2","2","1","7","5","6","7","7","6","3","7","5","2","6","7","2","3","7","609032333906935808","刘","670","Male","[""坏他"",""好他"",""好我"",""坏我""]","[""弱他"",""强他"",""强我"",""弱我""]","","","","","","","","{""Q01"":""5"",""Q02"":""4"",""Q03"":""5"",""Q04"":""5"",""Q05"":""5"",""Q06"":""5""}","[0,1,2,3,4,5]","[""Q01"",""Q02"",""Q03"",""Q04"",""Q05"",""Q06""]","[4019.39999999851,10396.199999999255,11451.699999999255,13483.5,14667.599999997765,16955.79999999702]","[]","[707.5999999977648,4019.39999999851,10396.199999999255,11451.699999999255,13483.5,14667.599999997765,16955.79999999702,17629.599999997765]","0.5","0.4","0","","","","","","","","","","","","","","","","","","","","","",""
"25148.10000000149","","{""Q01"":""1"",""Q02"":""-2"",""Q03"":""2"",""Q04"":""1"",""Q05"":""-1"",""Q06"":""2"",""Q07"":""1"",""Q08"":""-1""}","survey-template","7","90047","0.0-6.0","6","7","5","6","6","5","4","5","5","5","5","1","-2","2","1","-1","2","1","-1","5","5","4","5","5","5","4","4","5","5","7","8","8","8","2","6","7","7","8","6","7","2","6","6","7","5","6","7","7","6","6","7","3","6","6","7","3","3","7","3","7","2","2","1","7","5","6","7","7","6","3","7","5","2","6","7","2","3","7","609032333906935808","刘","670","Male","[""坏他"",""好他"",""好我"",""坏我""]","[""弱他"",""强他"",""强我"",""弱我""]","","","","","","","","{""Q01"":""1"",""Q02"":""-2"",""Q03"":""2"",""Q04"":""1"",""Q05"":""-1"",""Q06"":""2"",""Q07"":""1"",""Q08"":""-1""}","[0,1,2,3,4,5,6,7]","[""Q01"",""Q02"",""Q03"",""Q04"",""Q05"",""Q06"",""Q07"",""Q08""]","[5170.900000002235,6979.60000000149,8851,13098.70000000298,15058.800000000745,16458.900000002235,19842.800000000745,24290.900000002235]","[]","[868.3000000007451,5170.900000002235,6979.60000000149,8851,13098.70000000298,15058.800000000745,16458.900000002235,19842.800000000745,20482.70000000298,24290.900000002235,25147]","0.375","0.2857142857142857","0","","","","","","","","","","","","","","","","","","","","","",""
"19964","
    <p><div style='color:white;font-size:35px; line-height:20px;'>词汇评估任务</div></p><br>
    <p><div style='color:white;font-size:25px; line-height:20px;'>请再次回忆该亲密的朋友，你们至少2年前就认识了，并且最近2年经常见面。</div></p>
    <p><div style='color:white;font-size:25px; line-height:20px;'>在本实验中，您将会看到一些形容词。</div></p>
    <p><div style='color:yellow;font-size:25px; line-height:20px;'>您的任务是判断这些形容词是否符合对您自己或您的朋友的描述。</div></p><p style='font-size:35px'>符合按<span style=""color:lightgreen""> f 键</span>，不符合按<span style=""color:red""> j 键</span></p>","0","html-button-response","8","110014","0.0-7.0-0.0","6","7","5","6","6","5","4","5","5","5","5","1","-2","2","1","-1","2","1","-1","5","5","4","5","5","5","4","4","5","5","7","8","8","8","2","6","7","7","8","6","7","2","6","6","7","5","6","7","7","6","6","7","3","6","6","7","3","3","7","3","7","2","2","1","7","5","6","7","7","6","3","7","5","2","6","7","2","3","7","609032333906935808","刘","670","Male","[""坏他"",""好他"",""好我"",""坏我""]","[""弱他"",""强他"",""强我"",""弱我""]","","","","","","","","","","","","","","","","","SRET_EW","EW_instructions","Sat Nov 18 2023 20:22:35 GMT+0800 (中国标准时间)","","","","","","","","","","","","","","","","","","",""
"23222","","f","psychophysics","9","134239","0.0-7.0-1.0-0.0","6","7","5","6","6","5","4","5","5","5","5","1","-2","2","1","-1","2","1","-1","5","5","4","5","5","5","4","4","5","5","7","8","8","8","2","6","7","7","8","6","7","2","6","6","7","5","6","7","7","6","6","7","3","6","6","7","3","3","7","3","7","2","2","1","7","5","6","7","7","6","3","7","5","2","6","7","2","3","7","609032333906935808","刘","670","Male","[""坏他"",""好他"",""好我"",""坏我""]","[""弱他"",""强他"",""强我"",""弱我""]","","","","","","","","yes","","","","","","","","","SRET_EW","EW_practice","","key","f","16.787980595980603","768","428","自己","严谨","Positive","ability","","","","","","","","","",""
"1053","","j","psychophysics","10","136294","0.0-7.0-1.0-0.1","6","7","5","6","6","5","4","5","5","5","5","1","-2","2","1","-1","2","1","-1","5","5","4","5","5","5","4","4","5","5","7","8","8","8","2","6","7","7","8","6","7","2","6","6","7","5","6","7","7","6","6","7","3","6","6","7","3","3","7","3","7","2","2","1","7","5","6","7","7","6","3","7","5","2","6","7","2","3","7","609032333906935808","刘","670","Male","[""坏他"",""好他"",""好我"",""坏我""]","[""弱他"",""强他"",""强我"",""弱我""]","","","","","","","","no","","","","","","","","","SRET_EW","EW_practice","","key","j","16.66173770491818","768","428","自己","刻板","Negative","ability","","","","","","","","","",""
"3447","","j","psychophysics","11","140742","0.0-7.0-1.0-0.2","6","7","5","6","6","5","4","5","5","5","5","1","-2","2","1","-1","2","1","-1","5","5","4","5","5","5","4","4","5","5","7","8","8","8","2","6","7","7","8","6","7","2","6","6","7","5","6","7","7","6","6","7","3","6","6","7","3","3","7","3","7","2","2","1","7","5","6","7","7","6","3","7","5","2","6","7","2","3","7","609032333906935808","刘","670","Male","[""坏他"",""好他"",""好我"",""坏我""]","[""弱他"",""强他"",""强我"",""弱我""]","","","","","","","","no","","","","","","","","","SRET_EW","EW_practice","","key","j","16.66142105263156","768","428","朋友","徇私","Negative","morality","","","","","","","","","",""
"1270","","f","psychophysics","12","143014","0.0-7.0-1.0-0.3","6","7","5","6","6","5","4","5","5","5","5","1","-2","2","1","-1","2","1","-1","5","5","4","5","5","5","4","4","5","5","7","8","8","8","2","6","7","7","8","6","7","2","6","6","7","5","6","7","7","6","6","7","3","6","6","7","3","3","7","3","7","2","2","1","7","5","6","7","7","6","3","7","5","2","6","7","2","3","7","609032333906935808","刘","670","Male","[""坏他"",""好他"",""好我"",""坏我""]","[""弱他"",""强他"",""强我"",""弱我""]","","","","","","","","yes","","","","","","","","","SRET_EW","EW_practice","","key","f","16.662139705882403","768","428","朋友","忠实","Positive","morality","","","","","","","","","",""
"10080","
    <p><div style='color:white;font-size:35px; line-height:20px;'>请您再次阅读实验要求</div></p><br>
    <p><div style='color:white;font-size:25px; line-height:20px;'>请回忆某一个亲密的朋友，你们至少2年前就认识了，并且最近2年经常见面。</div></p>
    <p><div style='color:white;font-size:25px; line-height:20px;'>在本实验中，您将会看到一些形容词。</div></p>
    <p><div style='color:yellow;font-size:25px; line-height:20px;'>您的任务是判断这些形容词是否符合对您自己或您的朋友的描述。</div></p>
    <p><div class='footer' style='font-size:25px; line-height:20px;'>如果对本实验还有不清楚之处，请立即向实验员咨询。</p><p style='font-size:25px; line-height:20px;'>如果您明白了规则：</p><p style='font-size:22px; line-height:20px;'>请按 继续 进入正式实验</p>
    </div>
    <p style='font-size:35px'>符合按<span style=""color:lightgreen""> f 键</span>，不符合按<span style=""color:red""> j 键</span></p>","0","html-button-response","13","153094","0.0-7.0-2.0","6","7","5","6","6","5","4","5","5","5","5","1","-2","2","1","-1","2","1","-1","5","5","4","5","5","5","4","4","5","5","7","8","8","8","2","6","7","7","8","6","7","2","6","6","7","5","6","7","7","6","6","7","3","6","6","7","3","3","7","3","7","2","2","1","7","5","6","7","7","6","3","7","5","2","6","7","2","3","7","609032333906935808","刘","670","Male","[""坏他"",""好他"",""好我"",""坏我""]","[""弱他"",""强他"",""强我"",""弱我""]","","","","","","","","","","","","","","","","","SRET_EW","prac_instructions","Sat Nov 18 2023 20:22:35 GMT+0800 (中国标准时间)","","","","","","","","","","","","","","","","","","",""
"5429","","j","psychophysics","14","159526","0.0-7.0-3.0-0.0","6","7","5","6","6","5","4","5","5","5","5","1","-2","2","1","-1","2","1","-1","5","5","4","5","5","5","4","4","5","5","7","8","8","8","2","6","7","7","8","6","7","2","6","6","7","5","6","7","7","6","6","7","3","6","6","7","3","3","7","3","7","2","2","1","7","5","6","7","7","6","3","7","5","2","6","7","2","3","7","609032333906935808","刘","670","Male","[""坏他"",""好他"",""好我"",""坏我""]","[""弱他"",""强他"",""强我"",""弱我""]","","","","","","","","no","","","","","","","","","SRET","EW_formal","","key","j","16.66057772020727","768","428","朋友","迷糊","Negative","ability","","","","","","","","","",""
"1079","","f","psychophysics","15","161606","0.0-7.0-3.0-0.1","6","7","5","6","6","5","4","5","5","5","5","1","-2","2","1","-1","2","1","-1","5","5","4","5","5","5","4","4","5","5","7","8","8","8","2","6","7","7","8","6","7","2","6","6","7","5","6","7","7","6","6","7","3","6","6","7","3","3","7","3","7","2","2","1","7","5","6","7","7","6","3","7","5","2","6","7","2","3","7","609032333906935808","刘","670","Male","[""坏他"",""好他"",""好我"",""坏我""]","[""弱他"",""强他"",""强我"",""弱我""]","","","","","","","","yes","","","","","","","","","SRET","EW_formal","","key","f","16.66170161290328","768","428","自己","坚贞","Positive","morality","","","","","","","","","",""
"2134","","j","psychophysics","16","164742","0.0-7.0-3.0-0.2","6","7","5","6","6","5","4","5","5","5","5","1","-2","2","1","-1","2","1","-1","5","5","4","5","5","5","4","4","5","5","7","8","8","8","2","6","7","7","8","6","7","2","6","6","7","5","6","7","7","6","6","7","3","6","6","7","3","3","7","3","7","2","2","1","7","5","6","7","7","6","3","7","5","2","6","7","2","3","7","609032333906935808","刘","670","Male","[""坏他"",""好他"",""好我"",""坏我""]","[""弱他"",""强他"",""强我"",""弱我""]","","","","","","","","no","","","","","","","","","SRET","EW_formal","","key","j","16.66169518716574","768","428","自己","说谎","Negative","morality","","","","","","","","","",""
"1111","","f","psychophysics","17","166854","0.0-7.0-3.0-0.3","6","7","5","6","6","5","4","5","5","5","5","1","-2","2","1","-1","2","1","-1","5","5","4","5","5","5","4","4","5","5","7","8","8","8","2","6","7","7","8","6","7","2","6","6","7","5","6","7","7","6","6","7","3","6","6","7","3","3","7","3","7","2","2","1","7","5","6","7","7","6","3","7","5","2","6","7","2","3","7","609032333906935808","刘","670","Male","[""坏他"",""好他"",""好我"",""坏我""]","[""弱他"",""强他"",""强我"",""弱我""]","","","","","","","","yes","","","","","","","","","SRET","EW_formal","","key","f","16.662063492063595","768","428","朋友","务实","Positive","ability","","","","","","","","","",""
"894","","f","psychophysics","18","168750","0.0-7.0-3.0-0.4","6","7","5","6","6","5","4","5","5","5","5","1","-2","2","1","-1","2","1","-1","5","5","4","5","5","5","4","4","5","5","7","8","8","8","2","6","7","7","8","6","7","2","6","6","7","5","6","7","7","6","6","7","3","6","6","7","3","3","7","3","7","2","2","1","7","5","6","7","7","6","3","7","5","2","6","7","2","3","7","609032333906935808","刘","670","Male","[""坏他"",""好他"",""好我"",""坏我""]","[""弱他"",""强他"",""强我"",""弱我""]","","","","","","","","yes","","","","","","","","","SRET","EW_formal","","key","f","16.661848214285783","768","428","朋友","扎实","Positive","ability","","","","","","","","","",""
"1967","","f","psychophysics","19","171718","0.0-7.0-3.0-0.5","6","7","5","6","6","5","4","5","5","5","5","1","-2","2","1","-1","2","1","-1","5","5","4","5","5","5","4","4","5","5","7","8","8","8","2","6","7","7","8","6","7","2","6","6","7","5","6","7","7","6","6","7","3","6","6","7","3","3","7","3","7","2","2","1","7","5","6","7","7","6","3","7","5","2","6","7","2","3","7","609032333906935808","刘","670","Male","[""坏他"",""好他"",""好我"",""坏我""]","[""弱他"",""强他"",""强我"",""弱我""]","","","","","","","","yes","","","","","","","","","SRET","EW_formal","","key","f","16.661528089887682","768","428","自己","仁爱","Positive","morality","","","","","","","","","",""
"1175","","j","psychophysics","20","173894","0.0-7.0-3.0-0.6","6","7","5","6","6","5","4","5","5","5","5","1","-2","2","1","-1","2","1","-1","5","5","4","5","5","5","4","4","5","5","7","8","8","8","2","6","7","7","8","6","7","2","6","6","7","5","6","7","7","6","6","7","3","6","6","7","3","3","7","3","7","2","2","1","7","5","6","7","7","6","3","7","5","2","6","7","2","3","7","609032333906935808","刘","670","Male","[""坏他"",""好他"",""好我"",""坏我""]","[""弱他"",""强他"",""强我"",""弱我""]","","","","","","","","no","","","","","","","","","SRET","EW_formal","","key","j","16.661038759689962","768","428","朋友","犹豫","Negative","ability","","","","","","","","","",""
"935","","f","psychophysics","21","175830","0.0-7.0-3.0-0.7","6","7","5","6","6","5","4","5","5","5","5","1","-2","2","1","-1","2","1","-1","5","5","4","5","5","5","4","4","5","5","7","8","8","8","2","6","7","7","8","6","7","2","6","6","7","5","6","7","7","6","6","7","3","6","6","7","3","3","7","3","7","2","2","1","7","5","6","7","7","6","3","7","5","2","6","7","2","3","7","609032333906935808","刘","670","Male","[""坏他"",""好他"",""好我"",""坏我""]","[""弱他"",""强他"",""强我"",""弱我""]","","","","","","","","yes","","","","","","","","","SRET","EW_formal","","key","f","16.662069565217447","768","428","自己","智慧","Positive","ability","","","","","","","","","",""
"1007","","j","psychophysics","22","177838","0.0-7.0-3.0-0.8","6","7","5","6","6","5","4","5","5","5","5","1","-2","2","1","-1","2","1","-1","5","5","4","5","5","5","4","4","5","5","7","8","8","8","2","6","7","7","8","6","7","2","6","6","7","5","6","7","7","6","6","7","3","6","6","7","3","3","7","3","7","2","2","1","7","5","6","7","7","6","3","7","5","2","6","7","2","3","7","609032333906935808","刘","670","Male","[""坏他"",""好他"",""好我"",""坏我""]","[""弱他"",""强他"",""强我"",""弱我""]","","","","","","","","no","","","","","","","","","SRET","EW_formal","","key","j","16.662508333333243","768","428","朋友","失信","Negative","morality","","","","","","","","","",""
"3911","","f","psychophysics","23","182750","0.0-7.0-3.0-0.9","6","7","5","6","6","5","4","5","5","5","5","1","-2","2","1","-1","2","1","-1","5","5","4","5","5","5","4","4","5","5","7","8","8","8","2","6","7","7","8","6","7","2","6","6","7","5","6","7","7","6","6","7","3","6","6","7","3","3","7","3","7","2","2","1","7","5","6","7","7","6","3","7","5","2","6","7","2","3","7","609032333906935808","刘","670","Male","[""坏他"",""好他"",""好我"",""坏我""]","[""弱他"",""强他"",""强我"",""弱我""]","","","","","","","","yes","","","","","","","","","SRET","EW_formal","","key","f","16.66101020408163","768","428","自己","稳健","Positive","ability","","","","","","","","","",""
"2406","","f","psychophysics","24","186158","0.0-7.0-3.0-0.10","6","7","5","6","6","5","4","5","5","5","5","1","-2","2","1","-1","2","1","-1","5","5","4","5","5","5","4","4","5","5","7","8","8","8","2","6","7","7","8","6","7","2","6","6","7","5","6","7","7","6","6","7","3","6","6","7","3","3","7","3","7","2","2","1","7","5","6","7","7","6","3","7","5","2","6","7","2","3","7","609032333906935808","刘","670","Male","[""坏他"",""好他"",""好我"",""坏我""]","[""弱他"",""强他"",""强我"",""弱我""]","","","","","","","","yes","","","","","","","","","SRET","EW_formal","","key","f","16.661157635467962","768","428","朋友","正气","Positive","morality","","","","","","","","","",""
"1447","","f","psychophysics","25","188605","0.0-7.0-3.0-0.11","6","7","5","6","6","5","4","5","5","5","5","1","-2","2","1","-1","2","1","-1","5","5","4","5","5","5","4","4","5","5","7","8","8","8","2","6","7","7","8","6","7","2","6","6","7","5","6","7","7","6","6","7","3","6","6","7","3","3","7","3","7","2","2","1","7","5","6","7","7","6","3","7","5","2","6","7","2","3","7","609032333906935808","刘","670","Male","[""坏他"",""好他"",""好我"",""坏我""]","[""弱他"",""强他"",""强我"",""弱我""]","","","","","","","","yes","","","","","","","","","SRET","EW_formal","","key","f","16.662212328767055","768","428","自己","慈悲","Positive","morality","","","","","","","","","",""
"1888","","f","psychophysics","26","191494","0.0-7.0-3.0-0.12","6","7","5","6","6","5","4","5","5","5","5","1","-2","2","1","-1","2","1","-1","5","5","4","5","5","5","4","4","5","5","7","8","8","8","2","6","7","7","8","6","7","2","6","6","7","5","6","7","7","6","6","7","3","6","6","7","3","3","7","3","7","2","2","1","7","5","6","7","7","6","3","7","5","2","6","7","2","3","7","609032333906935808","刘","670","Male","[""坏他"",""好他"",""好我"",""坏我""]","[""弱他"",""强他"",""强我"",""弱我""]","","","","","","","","yes","","","","","","","","","SRET","EW_formal","","key","f","16.661341040462325","768","428","朋友","利己","Negative","morality","","","","","","","","","",""
"1197","","j","psychophysics","27","193694","0.0-7.0-3.0-0.13","6","7","5","6","6","5","4","5","5","5","5","1","-2","2","1","-1","2","1","-1","5","5","4","5","5","5","4","4","5","5","7","8","8","8","2","6","7","7","8","6","7","2","6","6","7","5","6","7","7","6","6","7","3","6","6","7","3","3","7","3","7","2","2","1","7","5","6","7","7","6","3","7","5","2","6","7","2","3","7","609032333906935808","刘","670","Male","[""坏他"",""好他"",""好我"",""坏我""]","[""弱他"",""强他"",""强我"",""弱我""]","","","","","","","","no","","","","","","","","","SRET","EW_formal","","key","j","16.659923664122225","768","428","朋友","势利","Negative","morality","","","","","","","","","",""
"1286","","f","psychophysics","28","195982","0.0-7.0-3.0-0.14","6","7","5","6","6","5","4","5","5","5","5","1","-2","2","1","-1","2","1","-1","5","5","4","5","5","5","4","4","5","5","7","8","8","8","2","6","7","7","8","6","7","2","6","6","7","5","6","7","7","6","6","7","3","6","6","7","3","3","7","3","7","2","2","1","7","5","6","7","7","6","3","7","5","2","6","7","2","3","7","609032333906935808","刘","670","Male","[""坏他"",""好他"",""好我"",""坏我""]","[""弱他"",""强他"",""强我"",""弱我""]","","","","","","","","yes","","","","","","","","","SRET","EW_formal","","key","f","16.66097058823524","768","428","自己","肯干","Positive","ability","","","","","","","","","",""
"917","","j","psychophysics","29","197998","0.0-7.0-3.0-0.15","6","7","5","6","6","5","4","5","5","5","5","1","-2","2","1","-1","2","1","-1","5","5","4","5","5","5","4","4","5","5","7","8","8","8","2","6","7","7","8","6","7","2","6","6","7","5","6","7","7","6","6","7","3","6","6","7","3","3","7","3","7","2","2","1","7","5","6","7","7","6","3","7","5","2","6","7","2","3","7","609032333906935808","刘","670","Male","[""坏他"",""好他"",""好我"",""坏我""]","[""弱他"",""强他"",""强我"",""弱我""]","","","","","","","","no","","","","","","","","","SRET","EW_formal","","key","j","17.236543103448387","768","428","自己","无能","Negative","ability","","","","","","","","","",""
"1247","","f","psychophysics","30","200246","0.0-7.0-3.0-0.16","6","7","5","6","6","5","4","5","5","5","5","1","-2","2","1","-1","2","1","-1","5","5","4","5","5","5","4","4","5","5","7","8","8","8","2","6","7","7","8","6","7","2","6","6","7","5","6","7","7","6","6","7","3","6","6","7","3","3","7","3","7","2","2","1","7","5","6","7","7","6","3","7","5","2","6","7","2","3","7","609032333906935808","刘","670","Male","[""坏他"",""好他"",""好我"",""坏我""]","[""弱他"",""强他"",""强我"",""弱我""]","","","","","","","","yes","","","","","","","","","SRET","EW_formal","","key","f","16.661835820895643","768","428","朋友","善心","Positive","morality","","","","","","","","","",""
"1495","","f","psychophysics","31","202742","0.0-7.0-3.0-0.17","6","7","5","6","6","5","4","5","5","5","5","1","-2","2","1","-1","2","1","-1","5","5","4","5","5","5","4","4","5","5","7","8","8","8","2","6","7","7","8","6","7","2","6","6","7","5","6","7","7","6","6","7","3","6","6","7","3","3","7","3","7","2","2","1","7","5","6","7","7","6","3","7","5","2","6","7","2","3","7","609032333906935808","刘","670","Male","[""坏他"",""好他"",""好我"",""坏我""]","[""弱他"",""强他"",""强我"",""弱我""]","","","","","","","","yes","","","","","","","","","SRET","EW_formal","","key","f","16.66136241610722","768","428","朋友","独立","Positive","ability","","","","","","","","","",""
"1046","","j","psychophysics","32","204790","0.0-7.0-3.0-0.18","6","7","5","6","6","5","4","5","5","5","5","1","-2","2","1","-1","2","1","-1","5","5","4","5","5","5","4","4","5","5","7","8","8","8","2","6","7","7","8","6","7","2","6","6","7","5","6","7","7","6","6","7","3","6","6","7","3","3","7","3","7","2","2","1","7","5","6","7","7","6","3","7","5","2","6","7","2","3","7","609032333906935808","刘","670","Male","[""坏他"",""好他"",""好我"",""坏我""]","[""弱他"",""强他"",""强我"",""弱我""]","","","","","","","","no","","","","","","","","","SRET","EW_formal","","key","j","16.660967213114805","768","428","自己","邪恶","Negative","morality","","","","","","","","","",""
"1135","","j","psychophysics","33","206926","0.0-7.0-3.0-0.19","6","7","5","6","6","5","4","5","5","5","5","1","-2","2","1","-1","2","1","-1","5","5","4","5","5","5","4","4","5","5","7","8","8","8","2","6","7","7","8","6","7","2","6","6","7","5","6","7","7","6","6","7","3","6","6","7","3","3","7","3","7","2","2","1","7","5","6","7","7","6","3","7","5","2","6","7","2","3","7","609032333906935808","刘","670","Male","[""坏他"",""好他"",""好我"",""坏我""]","[""弱他"",""强他"",""强我"",""弱我""]","","","","","","","","no","","","","","","","","","SRET","EW_formal","","key","j","16.660944881889783","768","428","朋友","奸险","Negative","morality","","","","","","","","","",""
"1103","","f","psychophysics","34","209030","0.0-7.0-3.0-0.20","6","7","5","6","6","5","4","5","5","5","5","1","-2","2","1","-1","2","1","-1","5","5","4","5","5","5","4","4","5","5","7","8","8","8","2","6","7","7","8","6","7","2","6","6","7","5","6","7","7","6","6","7","3","6","6","7","3","3","7","3","7","2","2","1","7","5","6","7","7","6","3","7","5","2","6","7","2","3","7","609032333906935808","刘","670","Male","[""坏他"",""好他"",""好我"",""坏我""]","[""弱他"",""强他"",""强我"",""弱我""]","","","","","","","","yes","","","","","","","","","SRET","EW_formal","","key","f","16.66191200000001","768","428","自己","专注","Positive","ability","","","","","","","","","",""
"5806","","j","psychophysics","35","215838","0.0-7.0-3.0-0.21","6","7","5","6","6","5","4","5","5","5","5","1","-2","2","1","-1","2","1","-1","5","5","4","5","5","5","4","4","5","5","7","8","8","8","2","6","7","7","8","6","7","2","6","6","7","5","6","7","7","6","6","7","3","6","6","7","3","3","7","3","7","2","2","1","7","5","6","7","7","6","3","7","5","2","6","7","2","3","7","609032333906935808","刘","670","Male","[""坏他"",""好他"",""好我"",""坏我""]","[""弱他"",""强他"",""强我"",""弱我""]","","","","","","","","no","","","","","","","","","SRET","EW_formal","","key","j","16.66111274509803","768","428","朋友","才尽","Negative","ability","","","","","","","","","",""
"1054","","j","psychophysics","36","217894","0.0-7.0-3.0-0.22","6","7","5","6","6","5","4","5","5","5","5","1","-2","2","1","-1","2","1","-1","5","5","4","5","5","5","4","4","5","5","7","8","8","8","2","6","7","7","8","6","7","2","6","6","7","5","6","7","7","6","6","7","3","6","6","7","3","3","7","3","7","2","2","1","7","5","6","7","7","6","3","7","5","2","6","7","2","3","7","609032333906935808","刘","670","Male","[""坏他"",""好他"",""好我"",""坏我""]","[""弱他"",""强他"",""强我"",""弱我""]","","","","","","","","no","","","","","","","","","SRET","EW_formal","","key","j","16.66115573770486","768","428","朋友","短浅","Negative","ability","","","","","","","","","",""
"1503","","j","psychophysics","37","220398","0.0-7.0-3.0-0.23","6","7","5","6","6","5","4","5","5","5","5","1","-2","2","1","-1","2","1","-1","5","5","4","5","5","5","4","4","5","5","7","8","8","8","2","6","7","7","8","6","7","2","6","6","7","5","6","7","7","6","6","7","3","6","6","7","3","3","7","3","7","2","2","1","7","5","6","7","7","6","3","7","5","2","6","7","2","3","7","609032333906935808","刘","670","Male","[""坏他"",""好他"",""好我"",""坏我""]","[""弱他"",""强他"",""强我"",""弱我""]","","","","","","","","no","","","","","","","","","SRET","EW_formal","","key","j","16.661879194630842","768","428","自己","诡诈","Negative","morality","","","","","","","","","",""
"974","","f","psychophysics","38","222374","0.0-7.0-3.0-0.24","6","7","5","6","6","5","4","5","5","5","5","1","-2","2","1","-1","2","1","-1","5","5","4","5","5","5","4","4","5","5","7","8","8","8","2","6","7","7","8","6","7","2","6","6","7","5","6","7","7","6","6","7","3","6","6","7","3","3","7","3","7","2","2","1","7","5","6","7","7","6","3","7","5","2","6","7","2","3","7","609032333906935808","刘","670","Male","[""坏他"",""好他"",""好我"",""坏我""]","[""弱他"",""强他"",""强我"",""弱我""]","","","","","","","","yes","","","","","","","","","SRET","EW_formal","","key","f","16.661322033898244","768","428","自己","高尚","Positive","morality","","","","","","","","","",""
"999","","f","psychophysics","39","224374","0.0-7.0-3.0-0.25","6","7","5","6","6","5","4","5","5","5","5","1","-2","2","1","-1","2","1","-1","5","5","4","5","5","5","4","4","5","5","7","8","8","8","2","6","7","7","8","6","7","2","6","6","7","5","6","7","7","6","6","7","3","6","6","7","3","3","7","3","7","2","2","1","7","5","6","7","7","6","3","7","5","2","6","7","2","3","7","609032333906935808","刘","670","Male","[""坏他"",""好他"",""好我"",""坏我""]","[""弱他"",""强他"",""强我"",""弱我""]","","","","","","","","yes","","","","","","","","","SRET","EW_formal","","key","f","16.662436974790054","768","428","自己","中用","Positive","ability","","","","","","","","","",""
"1166","","j","psychophysics","40","226542","0.0-7.0-3.0-0.26","6","7","5","6","6","5","4","5","5","5","5","1","-2","2","1","-1","2","1","-1","5","5","4","5","5","5","4","4","5","5","7","8","8","8","2","6","7","7","8","6","7","2","6","6","7","5","6","7","7","6","6","7","3","6","6","7","3","3","7","3","7","2","2","1","7","5","6","7","7","6","3","7","5","2","6","7","2","3","7","609032333906935808","刘","670","Male","[""坏他"",""好他"",""好我"",""坏我""]","[""弱他"",""强他"",""强我"",""弱我""]","","","","","","","","no","","","","","","","","","SRET","EW_formal","","key","j","16.66272868217053","768","428","自己","愚钝","Negative","ability","","","","","","","","","",""
"1054","","f","psychophysics","41","228598","0.0-7.0-3.0-0.27","6","7","5","6","6","5","4","5","5","5","5","1","-2","2","1","-1","2","1","-1","5","5","4","5","5","5","4","4","5","5","7","8","8","8","2","6","7","7","8","6","7","2","6","6","7","5","6","7","7","6","6","7","3","6","6","7","3","3","7","3","7","2","2","1","7","5","6","7","7","6","3","7","5","2","6","7","2","3","7","609032333906935808","刘","670","Male","[""坏他"",""好他"",""好我"",""坏我""]","[""弱他"",""强他"",""强我"",""弱我""]","","","","","","","","yes","","","","","","","","","SRET","EW_formal","","key","f","16.662252032520282","768","428","自己","逞能","Negative","ability","","","","","","","","","",""
"1230","","f","psychophysics","42","230830","0.0-7.0-3.0-0.28","6","7","5","6","6","5","4","5","5","5","5","1","-2","2","1","-1","2","1","-1","5","5","4","5","5","5","4","4","5","5","7","8","8","8","2","6","7","7","8","6","7","2","6","6","7","5","6","7","7","6","6","7","3","6","6","7","3","3","7","3","7","2","2","1","7","5","6","7","7","6","3","7","5","2","6","7","2","3","7","609032333906935808","刘","670","Male","[""坏他"",""好他"",""好我"",""坏我""]","[""弱他"",""强他"",""强我"",""弱我""]","","","","","","","","yes","","","","","","","","","SRET","EW_formal","","key","f","16.661345864661673","768","428","自己","宽容","Positive","morality","","","","","","","","","",""
"1119","","j","psychophysics","43","232950","0.0-7.0-3.0-0.29","6","7","5","6","6","5","4","5","5","5","5","1","-2","2","1","-1","2","1","-1","5","5","4","5","5","5","4","4","5","5","7","8","8","8","2","6","7","7","8","6","7","2","6","6","7","5","6","7","7","6","6","7","3","6","6","7","3","3","7","3","7","2","2","1","7","5","6","7","7","6","3","7","5","2","6","7","2","3","7","609032333906935808","刘","670","Male","[""坏他"",""好他"",""好我"",""坏我""]","[""弱他"",""强他"",""强我"",""弱我""]","","","","","","","","no","","","","","","","","","SRET","EW_formal","","key","j","16.66073809523807","768","428","朋友","浅薄","Negative","ability","","","","","","","","","",""
"2311","","j","psychophysics","44","236262","0.0-7.0-3.0-0.30","6","7","5","6","6","5","4","5","5","5","5","1","-2","2","1","-1","2","1","-1","5","5","4","5","5","5","4","4","5","5","7","8","8","8","2","6","7","7","8","6","7","2","6","6","7","5","6","7","7","6","6","7","3","6","6","7","3","3","7","3","7","2","2","1","7","5","6","7","7","6","3","7","5","2","6","7","2","3","7","609032333906935808","刘","670","Male","[""坏他"",""好他"",""好我"",""坏我""]","[""弱他"",""强他"",""强我"",""弱我""]","","","","","","","","no","","","","","","","","","SRET","EW_formal","","key","j","16.660989898989843","768","428","自己","粗心","Negative","ability","","","","","","","","","",""
"1071","","j","psychophysics","45","238334","0.0-7.0-3.0-0.31","6","7","5","6","6","5","4","5","5","5","5","1","-2","2","1","-1","2","1","-1","5","5","4","5","5","5","4","4","5","5","7","8","8","8","2","6","7","7","8","6","7","2","6","6","7","5","6","7","7","6","6","7","3","6","6","7","3","3","7","3","7","2","2","1","7","5","6","7","7","6","3","7","5","2","6","7","2","3","7","609032333906935808","刘","670","Male","[""坏他"",""好他"",""好我"",""坏我""]","[""弱他"",""强他"",""强我"",""弱我""]","","","","","","","","no","","","","","","","","","SRET","EW_formal","","key","j","16.660918699187032","768","428","朋友","恶劣","Negative","morality","","","","","","","","","",""
"814","","f","psychophysics","46","240150","0.0-7.0-3.0-0.32","6","7","5","6","6","5","4","5","5","5","5","1","-2","2","1","-1","2","1","-1","5","5","4","5","5","5","4","4","5","5","7","8","8","8","2","6","7","7","8","6","7","2","6","6","7","5","6","7","7","6","6","7","3","6","6","7","3","3","7","3","7","2","2","1","7","5","6","7","7","6","3","7","5","2","6","7","2","3","7","609032333906935808","刘","670","Male","[""坏他"",""好他"",""好我"",""坏我""]","[""弱他"",""强他"",""强我"",""弱我""]","","","","","","","","yes","","","","","","","","","SRET","EW_formal","","key","f","16.66183333333336","768","428","朋友","高效","Positive","ability","","","","","","","","","",""
"871","","f","psychophysics","47","242022","0.0-7.0-3.0-0.33","6","7","5","6","6","5","4","5","5","5","5","1","-2","2","1","-1","2","1","-1","5","5","4","5","5","5","4","4","5","5","7","8","8","8","2","6","7","7","8","6","7","2","6","6","7","5","6","7","7","6","6","7","3","6","6","7","3","3","7","3","7","2","2","1","7","5","6","7","7","6","3","7","5","2","6","7","2","3","7","609032333906935808","刘","670","Male","[""坏他"",""好他"",""好我"",""坏我""]","[""弱他"",""强他"",""强我"",""弱我""]","","","","","","","","yes","","","","","","","","","SRET","EW_formal","","key","f","16.662126126125987","768","428","自己","忠诚","Positive","morality","","","","","","","","","",""
"1751","","j","psychophysics","48","244774","0.0-7.0-3.0-0.34","6","7","5","6","6","5","4","5","5","5","5","1","-2","2","1","-1","2","1","-1","5","5","4","5","5","5","4","4","5","5","7","8","8","8","2","6","7","7","8","6","7","2","6","6","7","5","6","7","7","6","6","7","3","6","6","7","3","3","7","3","7","2","2","1","7","5","6","7","7","6","3","7","5","2","6","7","2","3","7","609032333906935808","刘","670","Male","[""坏他"",""好他"",""好我"",""坏我""]","[""弱他"",""强他"",""强我"",""弱我""]","","","","","","","","no","","","","","","","","","SRET","EW_formal","","key","j","16.66028048780501","768","428","自己","无敌","Positive","ability","","","","","","","","","",""
"1663","","j","psychophysics","49","247438","0.0-7.0-3.0-0.35","6","7","5","6","6","5","4","5","5","5","5","1","-2","2","1","-1","2","1","-1","5","5","4","5","5","5","4","4","5","5","7","8","8","8","2","6","7","7","8","6","7","2","6","6","7","5","6","7","7","6","6","7","3","6","6","7","3","3","7","3","7","2","2","1","7","5","6","7","7","6","3","7","5","2","6","7","2","3","7","609032333906935808","刘","670","Male","[""坏他"",""好他"",""好我"",""坏我""]","[""弱他"",""强他"",""强我"",""弱我""]","","","","","","","","no","","","","","","","","","SRET","EW_formal","","key","j","16.66109433962265","768","428","自己","无为","Negative","ability","","","","","","","","","",""
"1134","","f","psychophysics","50","249573","0.0-7.0-3.0-0.36","6","7","5","6","6","5","4","5","5","5","5","1","-2","2","1","-1","2","1","-1","5","5","4","5","5","5","4","4","5","5","7","8","8","8","2","6","7","7","8","6","7","2","6","6","7","5","6","7","7","6","6","7","3","6","6","7","3","3","7","3","7","2","2","1","7","5","6","7","7","6","3","7","5","2","6","7","2","3","7","609032333906935808","刘","670","Male","[""坏他"",""好他"",""好我"",""坏我""]","[""弱他"",""强他"",""强我"",""弱我""]","","","","","","","","yes","","","","","","","","","SRET","EW_formal","","key","f","16.661210937500073","768","428","自己","拜金","Negative","morality","","","","","","","","","",""
"983","","j","psychophysics","51","251558","0.0-7.0-3.0-0.37","6","7","5","6","6","5","4","5","5","5","5","1","-2","2","1","-1","2","1","-1","5","5","4","5","5","5","4","4","5","5","7","8","8","8","2","6","7","7","8","6","7","2","6","6","7","5","6","7","7","6","6","7","3","6","6","7","3","3","7","3","7","2","2","1","7","5","6","7","7","6","3","7","5","2","6","7","2","3","7","609032333906935808","刘","670","Male","[""坏他"",""好他"",""好我"",""坏我""]","[""弱他"",""强他"",""强我"",""弱我""]","","","","","","","","no","","","","","","","","","SRET","EW_formal","","key","j","16.660974576271148","768","428","自己","蛇蝎","Negative","morality","","","","","","","","","",""
"1734","","j","psychophysics","52","254294","0.0-7.0-3.0-0.38","6","7","5","6","6","5","4","5","5","5","5","1","-2","2","1","-1","2","1","-1","5","5","4","5","5","5","4","4","5","5","7","8","8","8","2","6","7","7","8","6","7","2","6","6","7","5","6","7","7","6","6","7","3","6","6","7","3","3","7","3","7","2","2","1","7","5","6","7","7","6","3","7","5","2","6","7","2","3","7","609032333906935808","刘","670","Male","[""坏他"",""好他"",""好我"",""坏我""]","[""弱他"",""强他"",""强我"",""弱我""]","","","","","","","","no","","","","","","","","","SRET","EW_formal","","key","j","16.66015950920245","768","428","朋友","短视","Negative","ability","","","","","","","","","",""
"920","","f","psychophysics","53","256214","0.0-7.0-3.0-0.39","6","7","5","6","6","5","4","5","5","5","5","1","-2","2","1","-1","2","1","-1","5","5","4","5","5","5","4","4","5","5","7","8","8","8","2","6","7","7","8","6","7","2","6","6","7","5","6","7","7","6","6","7","3","6","6","7","3","3","7","3","7","2","2","1","7","5","6","7","7","6","3","7","5","2","6","7","2","3","7","609032333906935808","刘","670","Male","[""坏他"",""好他"",""好我"",""坏我""]","[""弱他"",""强他"",""强我"",""弱我""]","","","","","","","","yes","","","","","","","","","SRET","EW_formal","","key","f","16.661131578947167","768","428","朋友","骁勇","Positive","ability","","","","","","","","","",""
"1054","","j","psychophysics","54","258270","0.0-7.0-3.0-0.40","6","7","5","6","6","5","4","5","5","5","5","1","-2","2","1","-1","2","1","-1","5","5","4","5","5","5","4","4","5","5","7","8","8","8","2","6","7","7","8","6","7","2","6","6","7","5","6","7","7","6","6","7","3","6","6","7","3","3","7","3","7","2","2","1","7","5","6","7","7","6","3","7","5","2","6","7","2","3","7","609032333906935808","刘","670","Male","[""坏他"",""好他"",""好我"",""坏我""]","[""弱他"",""强他"",""强我"",""弱我""]","","","","","","","","no","","","","","","","","","SRET","EW_formal","","key","j","16.661959016393368","768","428","自己","小人","Negative","morality","","","","","","","","","",""
"1319","","f","psychophysics","55","260590","0.0-7.0-3.0-0.41","6","7","5","6","6","5","4","5","5","5","5","1","-2","2","1","-1","2","1","-1","5","5","4","5","5","5","4","4","5","5","7","8","8","8","2","6","7","7","8","6","7","2","6","6","7","5","6","7","7","6","6","7","3","6","6","7","3","3","7","3","7","2","2","1","7","5","6","7","7","6","3","7","5","2","6","7","2","3","7","609032333906935808","刘","670","Male","[""坏他"",""好他"",""好我"",""坏我""]","[""弱他"",""强他"",""强我"",""弱我""]","","","","","","","","yes","","","","","","","","","SRET","EW_formal","","key","f","16.661812949640485","768","428","朋友","无私","Positive","morality","","","","","","","","","",""
"933","","f","psychophysics","56","262526","0.0-7.0-3.0-0.42","6","7","5","6","6","5","4","5","5","5","5","1","-2","2","1","-1","2","1","-1","5","5","4","5","5","5","4","4","5","5","7","8","8","8","2","6","7","7","8","6","7","2","6","6","7","5","6","7","7","6","6","7","3","6","6","7","3","3","7","3","7","2","2","1","7","5","6","7","7","6","3","7","5","2","6","7","2","3","7","609032333906935808","刘","670","Male","[""坏他"",""好他"",""好我"",""坏我""]","[""弱他"",""强他"",""强我"",""弱我""]","","","","","","","","yes","","","","","","","","","SRET","EW_formal","","key","f","16.661608695652355","768","428","朋友","盲目","Negative","ability","","","","","","","","","",""
"1030","","f","psychophysics","57","264558","0.0-7.0-3.0-0.43","6","7","5","6","6","5","4","5","5","5","5","1","-2","2","1","-1","2","1","-1","5","5","4","5","5","5","4","4","5","5","7","8","8","8","2","6","7","7","8","6","7","2","6","6","7","5","6","7","7","6","6","7","3","6","6","7","3","3","7","3","7","2","2","1","7","5","6","7","7","6","3","7","5","2","6","7","2","3","7","609032333906935808","刘","670","Male","[""坏他"",""好他"",""好我"",""坏我""]","[""弱他"",""强他"",""强我"",""弱我""]","","","","","","","","yes","","","","","","","","","SRET","EW_formal","","key","f","16.661181818182033","768","428","朋友","忠良","Positive","morality","","","","","","","","","",""
"1102","","j","psychophysics","58","266662","0.0-7.0-3.0-0.44","6","7","5","6","6","5","4","5","5","5","5","1","-2","2","1","-1","2","1","-1","5","5","4","5","5","5","4","4","5","5","7","8","8","8","2","6","7","7","8","6","7","2","6","6","7","5","6","7","7","6","6","7","3","6","6","7","3","3","7","3","7","2","2","1","7","5","6","7","7","6","3","7","5","2","6","7","2","3","7","609032333906935808","刘","670","Male","[""坏他"",""好他"",""好我"",""坏我""]","[""弱他"",""强他"",""强我"",""弱我""]","","","","","","","","no","","","","","","","","","SRET","EW_formal","","key","j","16.661831999999936","768","428","自己","不端","Negative","morality","","","","","","","","","",""
"1471","","f","psychophysics","59","269134","0.0-7.0-3.0-0.45","6","7","5","6","6","5","4","5","5","5","5","1","-2","2","1","-1","2","1","-1","5","5","4","5","5","5","4","4","5","5","7","8","8","8","2","6","7","7","8","6","7","2","6","6","7","5","6","7","7","6","6","7","3","6","6","7","3","3","7","3","7","2","2","1","7","5","6","7","7","6","3","7","5","2","6","7","2","3","7","609032333906935808","刘","670","Male","[""坏他"",""好他"",""好我"",""坏我""]","[""弱他"",""强他"",""强我"",""弱我""]","","","","","","","","yes","","","","","","","","","SRET","EW_formal","","key","f","16.66047972972966","768","428","自己","高洁","Positive","morality","","","","","","","","","",""
"1039","","j","psychophysics","60","271174","0.0-7.0-3.0-0.46","6","7","5","6","6","5","4","5","5","5","5","1","-2","2","1","-1","2","1","-1","5","5","4","5","5","5","4","4","5","5","7","8","8","8","2","6","7","7","8","6","7","2","6","6","7","5","6","7","7","6","6","7","3","6","6","7","3","3","7","3","7","2","2","1","7","5","6","7","7","6","3","7","5","2","6","7","2","3","7","609032333906935808","刘","670","Male","[""坏他"",""好他"",""好我"",""坏我""]","[""弱他"",""强他"",""强我"",""弱我""]","","","","","","","","no","","","","","","","","","SRET","EW_formal","","key","j","16.6619421487601","768","428","朋友","无耻","Negative","morality","","","","","","","","","",""
"1246","","f","psychophysics","61","273422","0.0-7.0-3.0-0.47","6","7","5","6","6","5","4","5","5","5","5","1","-2","2","1","-1","2","1","-1","5","5","4","5","5","5","4","4","5","5","7","8","8","8","2","6","7","7","8","6","7","2","6","6","7","5","6","7","7","6","6","7","3","6","6","7","3","3","7","3","7","2","2","1","7","5","6","7","7","6","3","7","5","2","6","7","2","3","7","609032333906935808","刘","670","Male","[""坏他"",""好他"",""好我"",""坏我""]","[""弱他"",""强他"",""强我"",""弱我""]","","","","","","","","yes","","","","","","","","","SRET","EW_formal","","key","f","16.662447761193896","768","428","朋友","奉献","Positive","morality","","","","","","","","","",""
"1064","","j","psychophysics","62","275487","0.0-7.0-3.0-0.48","6","7","5","6","6","5","4","5","5","5","5","1","-2","2","1","-1","2","1","-1","5","5","4","5","5","5","4","4","5","5","7","8","8","8","2","6","7","7","8","6","7","2","6","6","7","5","6","7","7","6","6","7","3","6","6","7","3","3","7","3","7","2","2","1","7","5","6","7","7","6","3","7","5","2","6","7","2","3","7","609032333906935808","刘","670","Male","[""坏他"",""好他"",""好我"",""坏我""]","[""弱他"",""强他"",""强我"",""弱我""]","","","","","","","","no","","","","","","","","","SRET","EW_formal","","key","j","16.660943089430674","768","428","自己","无赖","Negative","morality","","","","","","","","","",""
"1430","","f","psychophysics","63","277918","0.0-7.0-3.0-0.49","6","7","5","6","6","5","4","5","5","5","5","1","-2","2","1","-1","2","1","-1","5","5","4","5","5","5","4","4","5","5","7","8","8","8","2","6","7","7","8","6","7","2","6","6","7","5","6","7","7","6","6","7","3","6","6","7","3","3","7","3","7","2","2","1","7","5","6","7","7","6","3","7","5","2","6","7","2","3","7","609032333906935808","刘","670","Male","[""坏他"",""好他"",""好我"",""坏我""]","[""弱他"",""强他"",""强我"",""弱我""]","","","","","","","","yes","","","","","","","","","SRET","EW_formal","","key","f","16.661758620689767","768","428","朋友","爱国","Positive","morality","","","","","","","","","",""
"1006","","f","psychophysics","64","279926","0.0-7.0-3.0-0.50","6","7","5","6","6","5","4","5","5","5","5","1","-2","2","1","-1","2","1","-1","5","5","4","5","5","5","4","4","5","5","7","8","8","8","2","6","7","7","8","6","7","2","6","6","7","5","6","7","7","6","6","7","3","6","6","7","3","3","7","3","7","2","2","1","7","5","6","7","7","6","3","7","5","2","6","7","2","3","7","609032333906935808","刘","670","Male","[""坏他"",""好他"",""好我"",""坏我""]","[""弱他"",""强他"",""强我"",""弱我""]","","","","","","","","yes","","","","","","","","","SRET","EW_formal","","key","f","16.661117647058415","768","428","自己","孝顺","Positive","morality","","","","","","","","","",""
"1022","","f","psychophysics","65","281950","0.0-7.0-3.0-0.51","6","7","5","6","6","5","4","5","5","5","5","1","-2","2","1","-1","2","1","-1","5","5","4","5","5","5","4","4","5","5","7","8","8","8","2","6","7","7","8","6","7","2","6","6","7","5","6","7","7","6","6","7","3","6","6","7","3","3","7","3","7","2","2","1","7","5","6","7","7","6","3","7","5","2","6","7","2","3","7","609032333906935808","刘","670","Male","[""坏他"",""好他"",""好我"",""坏我""]","[""弱他"",""强他"",""强我"",""弱我""]","","","","","","","","yes","","","","","","","","","SRET","EW_formal","","key","f","16.662338842975057","768","428","朋友","勤奋","Positive","ability","","","","","","","","","",""
"1118","","f","psychophysics","66","284070","0.0-7.0-3.0-0.52","6","7","5","6","6","5","4","5","5","5","5","1","-2","2","1","-1","2","1","-1","5","5","4","5","5","5","4","4","5","5","7","8","8","8","2","6","7","7","8","6","7","2","6","6","7","5","6","7","7","6","6","7","3","6","6","7","3","3","7","3","7","2","2","1","7","5","6","7","7","6","3","7","5","2","6","7","2","3","7","609032333906935808","刘","670","Male","[""坏他"",""好他"",""好我"",""坏我""]","[""弱他"",""强他"",""强我"",""弱我""]","","","","","","","","yes","","","","","","","","","SRET","EW_formal","","key","f","16.661095238095317","768","428","朋友","清廉","Positive","morality","","","","","","","","","",""
"1151","","j","psychophysics","67","286222","0.0-7.0-3.0-0.53","6","7","5","6","6","5","4","5","5","5","5","1","-2","2","1","-1","2","1","-1","5","5","4","5","5","5","4","4","5","5","7","8","8","8","2","6","7","7","8","6","7","2","6","6","7","5","6","7","7","6","6","7","3","6","6","7","3","3","7","3","7","2","2","1","7","5","6","7","7","6","3","7","5","2","6","7","2","3","7","609032333906935808","刘","670","Male","[""坏他"",""好他"",""好我"",""坏我""]","[""弱他"",""强他"",""强我"",""弱我""]","","","","","","","","no","","","","","","","","","SRET","EW_formal","","key","j","16.662421874999836","768","428","朋友","黑心","Negative","morality","","","","","","","","","",""
"1159","","f","psychophysics","68","288382","0.0-7.0-3.0-0.54","6","7","5","6","6","5","4","5","5","5","5","1","-2","2","1","-1","2","1","-1","5","5","4","5","5","5","4","4","5","5","7","8","8","8","2","6","7","7","8","6","7","2","6","6","7","5","6","7","7","6","6","7","3","6","6","7","3","3","7","3","7","2","2","1","7","5","6","7","7","6","3","7","5","2","6","7","2","3","7","609032333906935808","刘","670","Male","[""坏他"",""好他"",""好我"",""坏我""]","[""弱他"",""强他"",""强我"",""弱我""]","","","","","","","","yes","","","","","","","","","SRET","EW_formal","","key","f","16.661310077519445","768","428","自己","懂行","Positive","ability","","","","","","","","","",""
"942","","j","psychophysics","69","290326","0.0-7.0-3.0-0.55","6","7","5","6","6","5","4","5","5","5","5","1","-2","2","1","-1","2","1","-1","5","5","4","5","5","5","4","4","5","5","7","8","8","8","2","6","7","7","8","6","7","2","6","6","7","5","6","7","7","6","6","7","3","6","6","7","3","3","7","3","7","2","2","1","7","5","6","7","7","6","3","7","5","2","6","7","2","3","7","609032333906935808","刘","670","Male","[""坏他"",""好他"",""好我"",""坏我""]","[""弱他"",""强他"",""强我"",""弱我""]","","","","","","","","no","","","","","","","","","SRET","EW_formal","","key","j","16.6598086956524","768","428","自己","刻薄","Negative","morality","","","","","","","","","",""
"1023","","j","psychophysics","70","292350","0.0-7.0-3.0-0.56","6","7","5","6","6","5","4","5","5","5","5","1","-2","2","1","-1","2","1","-1","5","5","4","5","5","5","4","4","5","5","7","8","8","8","2","6","7","7","8","6","7","2","6","6","7","5","6","7","7","6","6","7","3","6","6","7","3","3","7","3","7","2","2","1","7","5","6","7","7","6","3","7","5","2","6","7","2","3","7","609032333906935808","刘","670","Male","[""坏他"",""好他"",""好我"",""坏我""]","[""弱他"",""强他"",""强我"",""弱我""]","","","","","","","","no","","","","","","","","","SRET","EW_formal","","key","j","16.660710743801623","768","428","自己","新手","Negative","ability","","","","","","","","","",""
"991","","f","psychophysics","71","294341","0.0-7.0-3.0-0.57","6","7","5","6","6","5","4","5","5","5","5","1","-2","2","1","-1","2","1","-1","5","5","4","5","5","5","4","4","5","5","7","8","8","8","2","6","7","7","8","6","7","2","6","6","7","5","6","7","7","6","6","7","3","6","6","7","3","3","7","3","7","2","2","1","7","5","6","7","7","6","3","7","5","2","6","7","2","3","7","609032333906935808","刘","670","Male","[""坏他"",""好他"",""好我"",""坏我""]","[""弱他"",""强他"",""强我"",""弱我""]","","","","","","","","yes","","","","","","","","","SRET","EW_formal","","key","f","16.66236974789953","768","428","朋友","能干","Positive","ability","","","","","","","","","",""
"904","","f","psychophysics","72","296246","0.0-7.0-3.0-0.58","6","7","5","6","6","5","4","5","5","5","5","1","-2","2","1","-1","2","1","-1","5","5","4","5","5","5","4","4","5","5","7","8","8","8","2","6","7","7","8","6","7","2","6","6","7","5","6","7","7","6","6","7","3","6","6","7","3","3","7","3","7","2","2","1","7","5","6","7","7","6","3","7","5","2","6","7","2","3","7","609032333906935808","刘","670","Male","[""坏他"",""好他"",""好我"",""坏我""]","[""弱他"",""强他"",""强我"",""弱我""]","","","","","","","","yes","","","","","","","","","SRET","EW_formal","","key","f","16.661336283186095","768","428","自己","高明","Positive","ability","","","","","","","","","",""
"912","","j","psychophysics","73","298159","0.0-7.0-3.0-0.59","6","7","5","6","6","5","4","5","5","5","5","1","-2","2","1","-1","2","1","-1","5","5","4","5","5","5","4","4","5","5","7","8","8","8","2","6","7","7","8","6","7","2","6","6","7","5","6","7","7","6","6","7","3","6","6","7","3","3","7","3","7","2","2","1","7","5","6","7","7","6","3","7","5","2","6","7","2","3","7","609032333906935808","刘","670","Male","[""坏他"",""好他"",""好我"",""坏我""]","[""弱他"",""强他"",""强我"",""弱我""]","","","","","","","","no","","","","","","","","","SRET","EW_formal","","key","j","16.66017543859657","768","428","朋友","伪善","Negative","morality","","","","","","","","","",""
"1014","","j","psychophysics","74","300174","0.0-7.0-3.0-0.60","6","7","5","6","6","5","4","5","5","5","5","1","-2","2","1","-1","2","1","-1","5","5","4","5","5","5","4","4","5","5","7","8","8","8","2","6","7","7","8","6","7","2","6","6","7","5","6","7","7","6","6","7","3","6","6","7","3","3","7","3","7","2","2","1","7","5","6","7","7","6","3","7","5","2","6","7","2","3","7","609032333906935808","刘","670","Male","[""坏他"",""好他"",""好我"",""坏我""]","[""弱他"",""强他"",""强我"",""弱我""]","","","","","","","","no","","","","","","","","","SRET","EW_formal","","key","j","16.66035000000023","768","428","自己","淡泊","Positive","morality","","","","","","","","","",""
"1166","","j","psychophysics","75","302342","0.0-7.0-3.0-0.61","6","7","5","6","6","5","4","5","5","5","5","1","-2","2","1","-1","2","1","-1","5","5","4","5","5","5","4","4","5","5","7","8","8","8","2","6","7","7","8","6","7","2","6","6","7","5","6","7","7","6","6","7","3","6","6","7","3","3","7","3","7","2","2","1","7","5","6","7","7","6","3","7","5","2","6","7","2","3","7","609032333906935808","刘","670","Male","[""坏他"",""好他"",""好我"",""坏我""]","[""弱他"",""强他"",""强我"",""弱我""]","","","","","","","","no","","","","","","","","","SRET","EW_formal","","key","j","16.661581395349156","768","428","朋友","龌龊","Negative","morality","","","","","","","","","",""
"887","","j","psychophysics","76","304230","0.0-7.0-3.0-0.62","6","7","5","6","6","5","4","5","5","5","5","1","-2","2","1","-1","2","1","-1","5","5","4","5","5","5","4","4","5","5","7","8","8","8","2","6","7","7","8","6","7","2","6","6","7","5","6","7","7","6","6","7","3","6","6","7","3","3","7","3","7","2","2","1","7","5","6","7","7","6","3","7","5","2","6","7","2","3","7","609032333906935808","刘","670","Male","[""坏他"",""好他"",""好我"",""坏我""]","[""弱他"",""强他"",""强我"",""弱我""]","","","","","","","","no","","","","","","","","","SRET","EW_formal","","key","j","16.66109821428576","768","428","自己","毛糙","Negative","ability","","","","","","","","","",""
"969","","f","psychophysics","77","306199","0.0-7.0-3.0-0.63","6","7","5","6","6","5","4","5","5","5","5","1","-2","2","1","-1","2","1","-1","5","5","4","5","5","5","4","4","5","5","7","8","8","8","2","6","7","7","8","6","7","2","6","6","7","5","6","7","7","6","6","7","3","6","6","7","3","3","7","3","7","2","2","1","7","5","6","7","7","6","3","7","5","2","6","7","2","3","7","609032333906935808","刘","670","Male","[""坏他"",""好他"",""好我"",""坏我""]","[""弱他"",""强他"",""强我"",""弱我""]","","","","","","","","yes","","","","","","","","","SRET","EW_formal","","key","f","16.66241025641057","768","428","自己","热心","Positive","morality","","","","","","","","","",""
"1021","","f","psychophysics","78","308222","0.0-7.0-3.0-0.64","6","7","5","6","6","5","4","5","5","5","5","1","-2","2","1","-1","2","1","-1","5","5","4","5","5","5","4","4","5","5","7","8","8","8","2","6","7","7","8","6","7","2","6","6","7","5","6","7","7","6","6","7","3","6","6","7","3","3","7","3","7","2","2","1","7","5","6","7","7","6","3","7","5","2","6","7","2","3","7","609032333906935808","刘","670","Male","[""坏他"",""好他"",""好我"",""坏我""]","[""弱他"",""强他"",""强我"",""弱我""]","","","","","","","","yes","","","","","","","","","SRET","EW_formal","","key","f","16.66110743801658","768","428","朋友","君子","Positive","morality","","","","","","","","","",""
"1151","","f","psychophysics","79","310374","0.0-7.0-3.0-0.65","6","7","5","6","6","5","4","5","5","5","5","1","-2","2","1","-1","2","1","-1","5","5","4","5","5","5","4","4","5","5","7","8","8","8","2","6","7","7","8","6","7","2","6","6","7","5","6","7","7","6","6","7","3","6","6","7","3","3","7","3","7","2","2","1","7","5","6","7","7","6","3","7","5","2","6","7","2","3","7","609032333906935808","刘","670","Male","[""坏他"",""好他"",""好我"",""坏我""]","[""弱他"",""强他"",""强我"",""弱我""]","","","","","","","","yes","","","","","","","","","SRET","EW_formal","","key","f","16.66244531250004","768","428","朋友","文明","Positive","morality","","","","","","","","","",""
"966","","j","psychophysics","80","312342","0.0-7.0-3.0-0.66","6","7","5","6","6","5","4","5","5","5","5","1","-2","2","1","-1","2","1","-1","5","5","4","5","5","5","4","4","5","5","7","8","8","8","2","6","7","7","8","6","7","2","6","6","7","5","6","7","7","6","6","7","3","6","6","7","3","3","7","3","7","2","2","1","7","5","6","7","7","6","3","7","5","2","6","7","2","3","7","609032333906935808","刘","670","Male","[""坏他"",""好他"",""好我"",""坏我""]","[""弱他"",""强他"",""强我"",""弱我""]","","","","","","","","no","","","","","","","","","SRET","EW_formal","","key","j","16.661547008547117","768","428","自己","拖延","Negative","ability","","","","","","","","","",""
"966","","f","psychophysics","81","314310","0.0-7.0-3.0-0.67","6","7","5","6","6","5","4","5","5","5","5","1","-2","2","1","-1","2","1","-1","5","5","4","5","5","5","4","4","5","5","7","8","8","8","2","6","7","7","8","6","7","2","6","6","7","5","6","7","7","6","6","7","3","6","6","7","3","3","7","3","7","2","2","1","7","5","6","7","7","6","3","7","5","2","6","7","2","3","7","609032333906935808","刘","670","Male","[""坏他"",""好他"",""好我"",""坏我""]","[""弱他"",""强他"",""强我"",""弱我""]","","","","","","","","yes","","","","","","","","","SRET","EW_formal","","key","f","16.66071794871798","768","428","朋友","精干","Positive","ability","","","","","","","","","",""
"1775","","f","psychophysics","82","317086","0.0-7.0-3.0-0.68","6","7","5","6","6","5","4","5","5","5","5","1","-2","2","1","-1","2","1","-1","5","5","4","5","5","5","4","4","5","5","7","8","8","8","2","6","7","7","8","6","7","2","6","6","7","5","6","7","7","6","6","7","3","6","6","7","3","3","7","3","7","2","2","1","7","5","6","7","7","6","3","7","5","2","6","7","2","3","7","609032333906935808","刘","670","Male","[""坏他"",""好他"",""好我"",""坏我""]","[""弱他"",""强他"",""强我"",""弱我""]","","","","","","","","yes","","","","","","","","","SRET","EW_formal","","key","f","16.662108433734787","768","428","自己","博识","Positive","ability","","","","","","","","","",""
"1191","","j","psychophysics","83","319278","0.0-7.0-3.0-0.69","6","7","5","6","6","5","4","5","5","5","5","1","-2","2","1","-1","2","1","-1","5","5","4","5","5","5","4","4","5","5","7","8","8","8","2","6","7","7","8","6","7","2","6","6","7","5","6","7","7","6","6","7","3","6","6","7","3","3","7","3","7","2","2","1","7","5","6","7","7","6","3","7","5","2","6","7","2","3","7","609032333906935808","刘","670","Male","[""坏他"",""好他"",""好我"",""坏我""]","[""弱他"",""强他"",""强我"",""弱我""]","","","","","","","","no","","","","","","","","","SRET","EW_formal","","key","j","16.661761538461388","768","428","朋友","屈才","Negative","ability","","","","","","","","","",""
"1133","","f","psychophysics","84","321414","0.0-7.0-3.0-0.70","6","7","5","6","6","5","4","5","5","5","5","1","-2","2","1","-1","2","1","-1","5","5","4","5","5","5","4","4","5","5","7","8","8","8","2","6","7","7","8","6","7","2","6","6","7","5","6","7","7","6","6","7","3","6","6","7","3","3","7","3","7","2","2","1","7","5","6","7","7","6","3","7","5","2","6","7","2","3","7","609032333906935808","刘","670","Male","[""坏他"",""好他"",""好我"",""坏我""]","[""弱他"",""强他"",""强我"",""弱我""]","","","","","","","","yes","","","","","","","","","SRET","EW_formal","","key","f","16.662440944881467","768","428","朋友","侠义","Positive","morality","","","","","","","","","",""
"1120","","f","psychophysics","85","323535","0.0-7.0-3.0-0.71","6","7","5","6","6","5","4","5","5","5","5","1","-2","2","1","-1","2","1","-1","5","5","4","5","5","5","4","4","5","5","7","8","8","8","2","6","7","7","8","6","7","2","6","6","7","5","6","7","7","6","6","7","3","6","6","7","3","3","7","3","7","2","2","1","7","5","6","7","7","6","3","7","5","2","6","7","2","3","7","609032333906935808","刘","670","Male","[""坏他"",""好他"",""好我"",""坏我""]","[""弱他"",""强他"",""强我"",""弱我""]","","","","","","","","yes","","","","","","","","","SRET","EW_formal","","key","f","16.66207874015727","768","428","朋友","博学","Positive","ability","","","","","","","","","",""
"1197","","j","psychophysics","86","325734","0.0-7.0-3.0-0.72","6","7","5","6","6","5","4","5","5","5","5","1","-2","2","1","-1","2","1","-1","5","5","4","5","5","5","4","4","5","5","7","8","8","8","2","6","7","7","8","6","7","2","6","6","7","5","6","7","7","6","6","7","3","6","6","7","3","3","7","3","7","2","2","1","7","5","6","7","7","6","3","7","5","2","6","7","2","3","7","609032333906935808","刘","670","Male","[""坏他"",""好他"",""好我"",""坏我""]","[""弱他"",""强他"",""强我"",""弱我""]","","","","","","","","no","","","","","","","","","SRET","EW_formal","","key","j","16.660961832061147","768","428","自己","下流","Negative","morality","","","","","","","","","",""
"1662","","j","psychophysics","87","328397","0.0-7.0-3.0-0.73","6","7","5","6","6","5","4","5","5","5","5","1","-2","2","1","-1","2","1","-1","5","5","4","5","5","5","4","4","5","5","7","8","8","8","2","6","7","7","8","6","7","2","6","6","7","5","6","7","7","6","6","7","3","6","6","7","3","3","7","3","7","2","2","1","7","5","6","7","7","6","3","7","5","2","6","7","2","3","7","609032333906935808","刘","670","Male","[""坏他"",""好他"",""好我"",""坏我""]","[""弱他"",""强他"",""强我"",""弱我""]","","","","","","","","no","","","","","","","","","SRET","EW_formal","","key","j","16.661830188679062","768","428","朋友","笨蛋","Negative","ability","","","","","","","","","",""
"959","","j","psychophysics","88","330358","0.0-7.0-3.0-0.74","6","7","5","6","6","5","4","5","5","5","5","1","-2","2","1","-1","2","1","-1","5","5","4","5","5","5","4","4","5","5","7","8","8","8","2","6","7","7","8","6","7","2","6","6","7","5","6","7","7","6","6","7","3","6","6","7","3","3","7","3","7","2","2","1","7","5","6","7","7","6","3","7","5","2","6","7","2","3","7","609032333906935808","刘","670","Male","[""坏他"",""好他"",""好我"",""坏我""]","[""弱他"",""强他"",""强我"",""弱我""]","","","","","","","","no","","","","","","","","","SRET","EW_formal","","key","j","16.660172413792743","768","428","朋友","淫乱","Negative","morality","","","","","","","","","",""
"1295","","j","psychophysics","89","332654","0.0-7.0-3.0-0.75","6","7","5","6","6","5","4","5","5","5","5","1","-2","2","1","-1","2","1","-1","5","5","4","5","5","5","4","4","5","5","7","8","8","8","2","6","7","7","8","6","7","2","6","6","7","5","6","7","7","6","6","7","3","6","6","7","3","3","7","3","7","2","2","1","7","5","6","7","7","6","3","7","5","2","6","7","2","3","7","609032333906935808","刘","670","Male","[""坏他"",""好他"",""好我"",""坏我""]","[""弱他"",""强他"",""强我"",""弱我""]","","","","","","","","no","","","","","","","","","SRET","EW_formal","","key","j","16.661737226277342","768","428","朋友","差生","Negative","ability","","","","","","","","","",""
"1103","","f","psychophysics","90","334758","0.0-7.0-3.0-0.76","6","7","5","6","6","5","4","5","5","5","5","1","-2","2","1","-1","2","1","-1","5","5","4","5","5","5","4","4","5","5","7","8","8","8","2","6","7","7","8","6","7","2","6","6","7","5","6","7","7","6","6","7","3","6","6","7","3","3","7","3","7","2","2","1","7","5","6","7","7","6","3","7","5","2","6","7","2","3","7","609032333906935808","刘","670","Male","[""坏他"",""好他"",""好我"",""坏我""]","[""弱他"",""强他"",""强我"",""弱我""]","","","","","","","","yes","","","","","","","","","SRET","EW_formal","","key","f","16.661032000000123","768","428","自己","有力","Positive","ability","","","","","","","","","",""
"991","","j","psychophysics","91","336750","0.0-7.0-3.0-0.77","6","7","5","6","6","5","4","5","5","5","5","1","-2","2","1","-1","2","1","-1","5","5","4","5","5","5","4","4","5","5","7","8","8","8","2","6","7","7","8","6","7","2","6","6","7","5","6","7","7","6","6","7","3","6","6","7","3","3","7","3","7","2","2","1","7","5","6","7","7","6","3","7","5","2","6","7","2","3","7","609032333906935808","刘","670","Male","[""坏他"",""好他"",""好我"",""坏我""]","[""弱他"",""强他"",""强我"",""弱我""]","","","","","","","","no","","","","","","","","","SRET","EW_formal","","key","j","16.661436974790004","768","428","自己","马虎","Negative","ability","","","","","","","","","",""
"999","","f","psychophysics","92","338750","0.0-7.0-3.0-0.78","6","7","5","6","6","5","4","5","5","5","5","1","-2","2","1","-1","2","1","-1","5","5","4","5","5","5","4","4","5","5","7","8","8","8","2","6","7","7","8","6","7","2","6","6","7","5","6","7","7","6","6","7","3","6","6","7","3","3","7","3","7","2","2","1","7","5","6","7","7","6","3","7","5","2","6","7","2","3","7","609032333906935808","刘","670","Male","[""坏他"",""好他"",""好我"",""坏我""]","[""弱他"",""强他"",""强我"",""弱我""]","","","","","","","","yes","","","","","","","","","SRET","EW_formal","","key","f","16.661789915966605","768","428","朋友","依靠","Negative","ability","","","","","","","","","",""
"920","","j","psychophysics","93","340671","0.0-7.0-3.0-0.79","6","7","5","6","6","5","4","5","5","5","5","1","-2","2","1","-1","2","1","-1","5","5","4","5","5","5","4","4","5","5","7","8","8","8","2","6","7","7","8","6","7","2","6","6","7","5","6","7","7","6","6","7","3","6","6","7","3","3","7","3","7","2","2","1","7","5","6","7","7","6","3","7","5","2","6","7","2","3","7","609032333906935808","刘","670","Male","[""坏他"",""好他"",""好我"",""坏我""]","[""弱他"",""强他"",""强我"",""弱我""]","","","","","","","","no","","","","","","","","","SRET","EW_formal","","key","j","16.661684210526577","768","428","自己","虚假","Negative","morality","","","","","","","","","",""
"965","","f","psychophysics","94","342638","0.0-7.0-3.0-0.80","6","7","5","6","6","5","4","5","5","5","5","1","-2","2","1","-1","2","1","-1","5","5","4","5","5","5","4","4","5","5","7","8","8","8","2","6","7","7","8","6","7","2","6","6","7","5","6","7","7","6","6","7","3","6","6","7","3","3","7","3","7","2","2","1","7","5","6","7","7","6","3","7","5","2","6","7","2","3","7","609032333906935808","刘","670","Male","[""坏他"",""好他"",""好我"",""坏我""]","[""弱他"",""强他"",""强我"",""弱我""]","","","","","","","","yes","","","","","","","","","SRET","EW_formal","","key","f","16.66124786324769","768","428","朋友","学霸","Positive","ability","","","","","","","","","",""
"1112","","f","psychophysics","95","344751","0.0-7.0-3.0-0.81","6","7","5","6","6","5","4","5","5","5","5","1","-2","2","1","-1","2","1","-1","5","5","4","5","5","5","4","4","5","5","7","8","8","8","2","6","7","7","8","6","7","2","6","6","7","5","6","7","7","6","6","7","3","6","6","7","3","3","7","3","7","2","2","1","7","5","6","7","7","6","3","7","5","2","6","7","2","3","7","609032333906935808","刘","670","Male","[""坏他"",""好他"",""好我"",""坏我""]","[""弱他"",""强他"",""强我"",""弱我""]","","","","","","","","yes","","","","","","","","","SRET","EW_formal","","key","f","16.661761904762233","768","428","自己","仗义","Positive","morality","","","","","","","","","",""
"893","","f","psychophysics","96","346646","0.0-7.0-3.0-0.82","6","7","5","6","6","5","4","5","5","5","5","1","-2","2","1","-1","2","1","-1","5","5","4","5","5","5","4","4","5","5","7","8","8","8","2","6","7","7","8","6","7","2","6","6","7","5","6","7","7","6","6","7","3","6","6","7","3","3","7","3","7","2","2","1","7","5","6","7","7","6","3","7","5","2","6","7","2","3","7","609032333906935808","刘","670","Male","[""坏他"",""好他"",""好我"",""坏我""]","[""弱他"",""强他"",""强我"",""弱我""]","","","","","","","","yes","","","","","","","","","SRET","EW_formal","","key","f","16.6613097345133","768","428","朋友","沉着","Positive","ability","","","","","","","","","",""
"927","","j","psychophysics","97","348574","0.0-7.0-3.0-0.83","6","7","5","6","6","5","4","5","5","5","5","1","-2","2","1","-1","2","1","-1","5","5","4","5","5","5","4","4","5","5","7","8","8","8","2","6","7","7","8","6","7","2","6","6","7","5","6","7","7","6","6","7","3","6","6","7","3","3","7","3","7","2","2","1","7","5","6","7","7","6","3","7","5","2","6","7","2","3","7","609032333906935808","刘","670","Male","[""坏他"",""好他"",""好我"",""坏我""]","[""弱他"",""强他"",""强我"",""弱我""]","","","","","","","","no","","","","","","","","","SRET","EW_formal","","key","j","16.66217391304368","768","428","自己","拙笨","Negative","ability","","","","","","","","","",""
"1271","","f","psychophysics","98","350846","0.0-7.0-3.0-0.84","6","7","5","6","6","5","4","5","5","5","5","1","-2","2","1","-1","2","1","-1","5","5","4","5","5","5","4","4","5","5","7","8","8","8","2","6","7","7","8","6","7","2","6","6","7","5","6","7","7","6","6","7","3","6","6","7","3","3","7","3","7","2","2","1","7","5","6","7","7","6","3","7","5","2","6","7","2","3","7","609032333906935808","刘","670","Male","[""坏他"",""好他"",""好我"",""坏我""]","[""弱他"",""强他"",""强我"",""弱我""]","","","","","","","","yes","","","","","","","","","SRET","EW_formal","","key","f","16.661148148148182","768","428","朋友","素养","Positive","morality","","","","","","","","","",""
"958","","j","psychophysics","99","352806","0.0-7.0-3.0-0.85","6","7","5","6","6","5","4","5","5","5","5","1","-2","2","1","-1","2","1","-1","5","5","4","5","5","5","4","4","5","5","7","8","8","8","2","6","7","7","8","6","7","2","6","6","7","5","6","7","7","6","6","7","3","6","6","7","3","3","7","3","7","2","2","1","7","5","6","7","7","6","3","7","5","2","6","7","2","3","7","609032333906935808","刘","670","Male","[""坏他"",""好他"",""好我"",""坏我""]","[""弱他"",""强他"",""强我"",""弱我""]","","","","","","","","no","","","","","","","","","SRET","EW_formal","","key","j","16.661905982906227","768","428","朋友","低俗","Negative","morality","","","","","","","","","",""
"1497","","j","psychophysics","100","355304","0.0-7.0-3.0-0.86","6","7","5","6","6","5","4","5","5","5","5","1","-2","2","1","-1","2","1","-1","5","5","4","5","5","5","4","4","5","5","7","8","8","8","2","6","7","7","8","6","7","2","6","6","7","5","6","7","7","6","6","7","3","6","6","7","3","3","7","3","7","2","2","1","7","5","6","7","7","6","3","7","5","2","6","7","2","3","7","609032333906935808","刘","670","Male","[""坏他"",""好他"",""好我"",""坏我""]","[""弱他"",""强他"",""强我"",""弱我""]","","","","","","","","no","","","","","","","","","SRET","EW_formal","","key","j","16.66003355704679","768","428","自己","缓慢","Negative","ability","","","","","","","","","",""
"1005","","f","psychophysics","101","357310","0.0-7.0-3.0-0.87","6","7","5","6","6","5","4","5","5","5","5","1","-2","2","1","-1","2","1","-1","5","5","4","5","5","5","4","4","5","5","7","8","8","8","2","6","7","7","8","6","7","2","6","6","7","5","6","7","7","6","6","7","3","6","6","7","3","3","7","3","7","2","2","1","7","5","6","7","7","6","3","7","5","2","6","7","2","3","7","609032333906935808","刘","670","Male","[""坏他"",""好他"",""好我"",""坏我""]","[""弱他"",""强他"",""强我"",""弱我""]","","","","","","","","yes","","","","","","","","","SRET","EW_formal","","key","f","16.659815126050756","768","428","自己","主见","Positive","ability","","","","","","","","","",""
"8183","
    <p><div style='color:white;font-size:35px; line-height:20px;'>计算任务</div></p><br>
    <p><div style='color:red;font-size:25px; line-height:20px;'>接下来，您将看到一些四则运算题，<b>请从键盘选择 0-9 进行反应。</b></div></p>
    <p><div style='color:red;font-size:25px; line-height:20px;'>请尽可能快地进行计算，计算的速度和正确率将影响报酬的发放。</div></p>
    <p><div class='footer' style='color:white;font-size:25px; line-height:20px;'>如果对本实验还有不清楚之处，请立即向实验员咨询。</p><p style='color:white;font-size:25px; line-height:20px;'>如果您明白了规则：</p><p style='color:white;font-size:22px; line-height:20px;'>请按 继续 进入练习</p>
    </div>
    ","0","html-button-response","102","365494","0.0-7.0-4.0","6","7","5","6","6","5","4","5","5","5","5","1","-2","2","1","-1","2","1","-1","5","5","4","5","5","5","4","4","5","5","7","8","8","8","2","6","7","7","8","6","7","2","6","6","7","5","6","7","7","6","6","7","3","6","6","7","3","3","7","3","7","2","2","1","7","5","6","7","7","6","3","7","5","2","6","7","2","3","7","609032333906935808","刘","670","Male","[""坏他"",""好他"",""好我"",""坏我""]","[""弱他"",""强他"",""强我"",""弱我""]","","","","","","","","","","","","","","","","","SRET_math","math_instructions","Sat Nov 18 2023 20:22:35 GMT+0800 (中国标准时间)","","","","","","","","","","","","","","","","","","",""
"3583","","5","psychophysics","103","369079","0.0-7.0-5.0-0.0","6","7","5","6","6","5","4","5","5","5","5","1","-2","2","1","-1","2","1","-1","5","5","4","5","5","5","4","4","5","5","7","8","8","8","2","6","7","7","8","6","7","2","6","6","7","5","6","7","7","6","6","7","3","6","6","7","3","3","7","3","7","2","2","1","7","5","6","7","7","6","3","7","5","2","6","7","2","3","7","609032333906935808","刘","670","Male","[""坏他"",""好他"",""好我"",""坏我""]","[""弱他"",""强他"",""强我"",""弱我""]","","","","","","","","5","","","","","","","","","SRET","SRET_math_calculate","","key","5","16.660818604651165","768","428","","","","","16-11= ?","5","1","","","","","","",""
"5669","","7","psychophysics","104","374750","0.0-7.0-5.0-0.1","6","7","5","6","6","5","4","5","5","5","5","1","-2","2","1","-1","2","1","-1","5","5","4","5","5","5","4","4","5","5","7","8","8","8","2","6","7","7","8","6","7","2","6","6","7","5","6","7","7","6","6","7","3","6","6","7","3","3","7","3","7","2","2","1","7","5","6","7","7","6","3","7","5","2","6","7","2","3","7","609032333906935808","刘","670","Male","[""坏他"",""好他"",""好我"",""坏我""]","[""弱他"",""强他"",""强我"",""弱我""]","","","","","","","","7","","","","","","","","","SRET","SRET_math_calculate","","key","7","17.114450151057493","768","428","","","","","3+4= ?","7","1","","","","","","",""
"1991","","8","psychophysics","105","376742","0.0-7.0-5.0-0.2","6","7","5","6","6","5","4","5","5","5","5","1","-2","2","1","-1","2","1","-1","5","5","4","5","5","5","4","4","5","5","7","8","8","8","2","6","7","7","8","6","7","2","6","6","7","5","6","7","7","6","6","7","3","6","6","7","3","3","7","3","7","2","2","1","7","5","6","7","7","6","3","7","5","2","6","7","2","3","7","609032333906935808","刘","670","Male","[""坏他"",""好他"",""好我"",""坏我""]","[""弱他"",""强他"",""强我"",""弱我""]","","","","","","","","8","","","","","","","","","SRET","SRET_math_calculate","","key","8","16.660847457627455","768","428","","","","","4+4= ?","8","1","","","","","","",""
"1975","","7","psychophysics","106","378718","0.0-7.0-5.0-0.3","6","7","5","6","6","5","4","5","5","5","5","1","-2","2","1","-1","2","1","-1","5","5","4","5","5","5","4","4","5","5","7","8","8","8","2","6","7","7","8","6","7","2","6","6","7","5","6","7","7","6","6","7","3","6","6","7","3","3","7","3","7","2","2","1","7","5","6","7","7","6","3","7","5","2","6","7","2","3","7","609032333906935808","刘","670","Male","[""坏他"",""好他"",""好我"",""坏我""]","[""弱他"",""强他"",""强我"",""弱我""]","","","","","","","","7","","","","","","","","","SRET","SRET_math_calculate","","key","7","16.66237288135621","768","428","","","","","4+3= ?","7","1","","","","","","",""
"4799","","4","psychophysics","107","383518","0.0-7.0-5.0-0.4","6","7","5","6","6","5","4","5","5","5","5","1","-2","2","1","-1","2","1","-1","5","5","4","5","5","5","4","4","5","5","7","8","8","8","2","6","7","7","8","6","7","2","6","6","7","5","6","7","7","6","6","7","3","6","6","7","3","3","7","3","7","2","2","1","7","5","6","7","7","6","3","7","5","2","6","7","2","3","7","609032333906935808","刘","670","Male","[""坏他"",""好他"",""好我"",""坏我""]","[""弱他"",""强他"",""强我"",""弱我""]","","","","","","","","4","","","","","","","","","SRET","SRET_math_calculate","","key","4","16.661623693379784","768","428","","","","","13-9= ?","4","1","","","","","","",""
"1943","","3","psychophysics","108","385462","0.0-7.0-5.0-0.5","6","7","5","6","6","5","4","5","5","5","5","1","-2","2","1","-1","2","1","-1","5","5","4","5","5","5","4","4","5","5","7","8","8","8","2","6","7","7","8","6","7","2","6","6","7","5","6","7","7","6","6","7","3","6","6","7","3","3","7","3","7","2","2","1","7","5","6","7","7","6","3","7","5","2","6","7","2","3","7","609032333906935808","刘","670","Male","[""坏他"",""好他"",""好我"",""坏我""]","[""弱他"",""强他"",""强我"",""弱我""]","","","","","","","","3","","","","","","","","","SRET","SRET_math_calculate","","key","3","16.662025862069328","768","428","","","","","1+2= ?","3","1","","","","","","",""
"2065","","3","psychophysics","109","387528","0.0-7.0-5.0-0.6","6","7","5","6","6","5","4","5","5","5","5","1","-2","2","1","-1","2","1","-1","5","5","4","5","5","5","4","4","5","5","7","8","8","8","2","6","7","7","8","6","7","2","6","6","7","5","6","7","7","6","6","7","3","6","6","7","3","3","7","3","7","2","2","1","7","5","6","7","7","6","3","7","5","2","6","7","2","3","7","609032333906935808","刘","670","Male","[""坏他"",""好他"",""好我"",""坏我""]","[""弱他"",""强他"",""强我"",""弱我""]","","","","","","","","3","","","","","","","","","SRET","SRET_math_calculate","","key","3","16.660788617886194","768","428","","","","","6/2= ?","3","1","","","","","","",""
"2053","","0","psychophysics","110","389583","0.0-7.0-5.0-0.7","6","7","5","6","6","5","4","5","5","5","5","1","-2","2","1","-1","2","1","-1","5","5","4","5","5","5","4","4","5","5","7","8","8","8","2","6","7","7","8","6","7","2","6","6","7","5","6","7","7","6","6","7","3","6","6","7","3","3","7","3","7","2","2","1","7","5","6","7","7","6","3","7","5","2","6","7","2","3","7","609032333906935808","刘","670","Male","[""坏他"",""好他"",""好我"",""坏我""]","[""弱他"",""强他"",""强我"",""弱我""]","","","","","","","","0","","","","","","","","","SRET","SRET_math_calculate","","key","0","16.661303278688557","768","428","","","","","7*0= ?","0","1","","","","","","",""
"2214","","1","psychophysics","111","391798","0.0-7.0-5.0-0.8","6","7","5","6","6","5","4","5","5","5","5","1","-2","2","1","-1","2","1","-1","5","5","4","5","5","5","4","4","5","5","7","8","8","8","2","6","7","7","8","6","7","2","6","6","7","5","6","7","7","6","6","7","3","6","6","7","3","3","7","3","7","2","2","1","7","5","6","7","7","6","3","7","5","2","6","7","2","3","7","609032333906935808","刘","670","Male","[""坏他"",""好他"",""好我"",""坏我""]","[""弱他"",""强他"",""强我"",""弱我""]","","","","","","","","1","","","","","","","","","SRET","SRET_math_calculate","","key","1","16.661378787878977","768","428","","","","","4/4= ?","1","1","","","","","","",""
"2143","","6","psychophysics","112","393942","0.0-7.0-5.0-0.9","6","7","5","6","6","5","4","5","5","5","5","1","-2","2","1","-1","2","1","-1","5","5","4","5","5","5","4","4","5","5","7","8","8","8","2","6","7","7","8","6","7","2","6","6","7","5","6","7","7","6","6","7","3","6","6","7","3","3","7","3","7","2","2","1","7","5","6","7","7","6","3","7","5","2","6","7","2","3","7","609032333906935808","刘","670","Male","[""坏他"",""好他"",""好我"",""坏我""]","[""弱他"",""强他"",""强我"",""弱我""]","","","","","","","","6","","","","","","","","","SRET","SRET_math_calculate","","key","6","16.661296875000062","768","428","","","","","3*2= ?","6","1","","","","","","",""
"2111","","6","psychophysics","113","396054","0.0-7.0-5.0-0.10","6","7","5","6","6","5","4","5","5","5","5","1","-2","2","1","-1","2","1","-1","5","5","4","5","5","5","4","4","5","5","7","8","8","8","2","6","7","7","8","6","7","2","6","6","7","5","6","7","7","6","6","7","3","6","6","7","3","3","7","3","7","2","2","1","7","5","6","7","7","6","3","7","5","2","6","7","2","3","7","609032333906935808","刘","670","Male","[""坏他"",""好他"",""好我"",""坏我""]","[""弱他"",""强他"",""强我"",""弱我""]","","","","","","","","6","","","","","","","","","SRET","SRET_math_calculate","","key","6","16.662015999999827","768","428","","","","","3+3= ?","6","1","","","","","","",""
"3624","","8","psychophysics","114","399678","0.0-7.0-5.0-0.11","6","7","5","6","6","5","4","5","5","5","5","1","-2","2","1","-1","2","1","-1","5","5","4","5","5","5","4","4","5","5","7","8","8","8","2","6","7","7","8","6","7","2","6","6","7","5","6","7","7","6","6","7","3","6","6","7","3","3","7","3","7","2","2","1","7","5","6","7","7","6","3","7","5","2","6","7","2","3","7","609032333906935808","刘","670","Male","[""坏他"",""好他"",""好我"",""坏我""]","[""弱他"",""强他"",""强我"",""弱我""]","","","","","","","","8","","","","","","","","","SRET","SRET_math_calculate","","key","8","16.661188940092178","768","428","","","","","11-3= ?","8","1","","","","","","",""
"2384","","9","psychophysics","115","402063","0.0-7.0-5.0-0.12","6","7","5","6","6","5","4","5","5","5","5","1","-2","2","1","-1","2","1","-1","5","5","4","5","5","5","4","4","5","5","7","8","8","8","2","6","7","7","8","6","7","2","6","6","7","5","6","7","7","6","6","7","3","6","6","7","3","3","7","3","7","2","2","1","7","5","6","7","7","6","3","7","5","2","6","7","2","3","7","609032333906935808","刘","670","Male","[""坏他"",""好他"",""好我"",""坏我""]","[""弱他"",""强他"",""强我"",""弱我""]","","","","","","","","9","","","","","","","","","SRET","SRET_math_calculate","","key","9","16.661049295774692","768","428","","","","","43-34= ?","9","1","","","","","","",""
"2054","","2","psychophysics","116","404118","0.0-7.0-5.0-0.13","6","7","5","6","6","5","4","5","5","5","5","1","-2","2","1","-1","2","1","-1","5","5","4","5","5","5","4","4","5","5","7","8","8","8","2","6","7","7","8","6","7","2","6","6","7","5","6","7","7","6","6","7","3","6","6","7","3","3","7","3","7","2","2","1","7","5","6","7","7","6","3","7","5","2","6","7","2","3","7","609032333906935808","刘","670","Male","[""坏他"",""好他"",""好我"",""坏我""]","[""弱他"",""强他"",""强我"",""弱我""]","","","","","","","","2","","","","","","","","","SRET","SRET_math_calculate","","key","2","16.661598360655947","768","428","","","","","9-7= ?","2","1","","","","","","",""
"2887","","7","psychophysics","117","407006","0.0-7.0-5.0-0.14","6","7","5","6","6","5","4","5","5","5","5","1","-2","2","1","-1","2","1","-1","5","5","4","5","5","5","4","4","5","5","7","8","8","8","2","6","7","7","8","6","7","2","6","6","7","5","6","7","7","6","6","7","3","6","6","7","3","3","7","3","7","2","2","1","7","5","6","7","7","6","3","7","5","2","6","7","2","3","7","609032333906935808","刘","670","Male","[""坏他"",""好他"",""好我"",""坏我""]","[""弱他"",""强他"",""强我"",""弱我""]","","","","","","","","7","","","","","","","","","SRET","SRET_math_calculate","","key","7","16.66187283237003","768","428","","","","","13-6= ?","7","1","","","","","","",""
"1999","","0","psychophysics","118","409006","0.0-7.0-5.0-0.15","6","7","5","6","6","5","4","5","5","5","5","1","-2","2","1","-1","2","1","-1","5","5","4","5","5","5","4","4","5","5","7","8","8","8","2","6","7","7","8","6","7","2","6","6","7","5","6","7","7","6","6","7","3","6","6","7","3","3","7","3","7","2","2","1","7","5","6","7","7","6","3","7","5","2","6","7","2","3","7","609032333906935808","刘","670","Male","[""坏他"",""好他"",""好我"",""坏我""]","[""弱他"",""强他"",""强我"",""弱我""]","","","","","","","","0","","","","","","","","","SRET","SRET_math_calculate","","key","0","16.661420168067494","768","428","","","","","1-1= ?","0","1","","","","","","",""
"1943","","9","psychophysics","119","410950","0.0-7.0-5.0-0.16","6","7","5","6","6","5","4","5","5","5","5","1","-2","2","1","-1","2","1","-1","5","5","4","5","5","5","4","4","5","5","7","8","8","8","2","6","7","7","8","6","7","2","6","6","7","5","6","7","7","6","6","7","3","6","6","7","3","3","7","3","7","2","2","1","7","5","6","7","7","6","3","7","5","2","6","7","2","3","7","609032333906935808","刘","670","Male","[""坏他"",""好他"",""好我"",""坏我""]","[""弱他"",""强他"",""强我"",""弱我""]","","","","","","","","9","","","","","","","","","SRET","SRET_math_calculate","","key","9","16.66202608695628","768","428","","","","","2+7= ?","9","1","","","","","","",""
"3575","","7","psychophysics","120","414526","0.0-7.0-5.0-0.17","6","7","5","6","6","5","4","5","5","5","5","1","-2","2","1","-1","2","1","-1","5","5","4","5","5","5","4","4","5","5","7","8","8","8","2","6","7","7","8","6","7","2","6","6","7","5","6","7","7","6","6","7","3","6","6","7","3","3","7","3","7","2","2","1","7","5","6","7","7","6","3","7","5","2","6","7","2","3","7","609032333906935808","刘","670","Male","[""坏他"",""好他"",""好我"",""坏我""]","[""弱他"",""强他"",""强我"",""弱我""]","","","","","","","","7","","","","","","","","","SRET","SRET_math_calculate","","key","7","16.66164953271025","768","428","","","","","11-4= ?","7","1","","","","","","",""
"7743","","4","psychophysics","121","422270","0.0-7.0-5.0-0.18","6","7","5","6","6","5","4","5","5","5","5","1","-2","2","1","-1","2","1","-1","5","5","4","5","5","5","4","4","5","5","7","8","8","8","2","6","7","7","8","6","7","2","6","6","7","5","6","7","7","6","6","7","3","6","6","7","3","3","7","3","7","2","2","1","7","5","6","7","7","6","3","7","5","2","6","7","2","3","7","609032333906935808","刘","670","Male","[""坏他"",""好他"",""好我"",""坏我""]","[""弱他"",""强他"",""强我"",""弱我""]","","","","","","","","4","","","","","","","","","SRET","SRET_math_calculate","","key","4","16.661334051724257","768","428","","","","","3+1= ?","4","1","","","","","","",""
"2255","","9","psychophysics","122","424526","0.0-7.0-5.0-0.19","6","7","5","6","6","5","4","5","5","5","5","1","-2","2","1","-1","2","1","-1","5","5","4","5","5","5","4","4","5","5","7","8","8","8","2","6","7","7","8","6","7","2","6","6","7","5","6","7","7","6","6","7","3","6","6","7","3","3","7","3","7","2","2","1","7","5","6","7","7","6","3","7","5","2","6","7","2","3","7","609032333906935808","刘","670","Male","[""坏他"",""好他"",""好我"",""坏我""]","[""弱他"",""强他"",""强我"",""弱我""]","","","","","","","","9","","","","","","","","","SRET","SRET_math_calculate","","key","9","16.66044029850754","768","428","","","","","5+4= ?","9","1","","","","","","",""
"2062","","8","psychophysics","123","426589","0.0-7.0-5.0-0.20","6","7","5","6","6","5","4","5","5","5","5","1","-2","2","1","-1","2","1","-1","5","5","4","5","5","5","4","4","5","5","7","8","8","8","2","6","7","7","8","6","7","2","6","6","7","5","6","7","7","6","6","7","3","6","6","7","3","3","7","3","7","2","2","1","7","5","6","7","7","6","3","7","5","2","6","7","2","3","7","609032333906935808","刘","670","Male","[""坏他"",""好他"",""好我"",""坏我""]","[""弱他"",""强他"",""强我"",""弱我""]","","","","","","","","8","","","","","","","","","SRET","SRET_math_calculate","","key","8","16.661032520324973","768","428","","","","","2*4= ?","8","1","","","","","","",""
"1999","","6","psychophysics","124","428590","0.0-7.0-5.0-0.21","6","7","5","6","6","5","4","5","5","5","5","1","-2","2","1","-1","2","1","-1","5","5","4","5","5","5","4","4","5","5","7","8","8","8","2","6","7","7","8","6","7","2","6","6","7","5","6","7","7","6","6","7","3","6","6","7","3","3","7","3","7","2","2","1","7","5","6","7","7","6","3","7","5","2","6","7","2","3","7","609032333906935808","刘","670","Male","[""坏他"",""好他"",""好我"",""坏我""]","[""弱他"",""强他"",""强我"",""弱我""]","","","","","","","","6","","","","","","","","","SRET","SRET_math_calculate","","key","6","16.661226890756193","768","428","","","","","4+2= ?","6","1","","","","","","",""
"5135","","8","psychophysics","125","433726","0.0-7.0-5.0-0.22","6","7","5","6","6","5","4","5","5","5","5","1","-2","2","1","-1","2","1","-1","5","5","4","5","5","5","4","4","5","5","7","8","8","8","2","6","7","7","8","6","7","2","6","6","7","5","6","7","7","6","6","7","3","6","6","7","3","3","7","3","7","2","2","1","7","5","6","7","7","6","3","7","5","2","6","7","2","3","7","609032333906935808","刘","670","Male","[""坏他"",""好他"",""好我"",""坏我""]","[""弱他"",""强他"",""强我"",""弱我""]","","","","","","","","8","","","","","","","","","SRET","SRET_math_calculate","","key","8","16.661377850162882","768","428","","","","","6+2= ?","8","1","","","","","","",""
"6005","","8","psychophysics","126","439733","0.0-7.0-5.0-0.23","6","7","5","6","6","5","4","5","5","5","5","1","-2","2","1","-1","2","1","-1","5","5","4","5","5","5","4","4","5","5","7","8","8","8","2","6","7","7","8","6","7","2","6","6","7","5","6","7","7","6","6","7","3","6","6","7","3","3","7","3","7","2","2","1","7","5","6","7","7","6","3","7","5","2","6","7","2","3","7","609032333906935808","刘","670","Male","[""坏他"",""好他"",""好我"",""坏我""]","[""弱他"",""强他"",""强我"",""弱我""]","","","","","","","","8","","","","","","","","","SRET","SRET_math_calculate","","key","8","16.661305555555575","768","428","","","","","7+1= ?","8","1","","","","","","",""
"2831","","8","psychophysics","127","442566","0.0-7.0-5.0-0.24","6","7","5","6","6","5","4","5","5","5","5","1","-2","2","1","-1","2","1","-1","5","5","4","5","5","5","4","4","5","5","7","8","8","8","2","6","7","7","8","6","7","2","6","6","7","5","6","7","7","6","6","7","3","6","6","7","3","3","7","3","7","2","2","1","7","5","6","7","7","6","3","7","5","2","6","7","2","3","7","609032333906935808","刘","670","Male","[""坏他"",""好他"",""好我"",""坏我""]","[""弱他"",""强他"",""强我"",""弱我""]","","","","","","","","8","","","","","","","","","SRET","SRET_math_calculate","","key","8","16.66214201183433","768","428","","","","","56/7= ?","8","1","","","","","","",""
"2128","","3","psychophysics","128","444694","0.0-7.0-5.0-0.25","6","7","5","6","6","5","4","5","5","5","5","1","-2","2","1","-1","2","1","-1","5","5","4","5","5","5","4","4","5","5","7","8","8","8","2","6","7","7","8","6","7","2","6","6","7","5","6","7","7","6","6","7","3","6","6","7","3","3","7","3","7","2","2","1","7","5","6","7","7","6","3","7","5","2","6","7","2","3","7","609032333906935808","刘","670","Male","[""坏他"",""好他"",""好我"",""坏我""]","[""弱他"",""强他"",""强我"",""弱我""]","","","","","","","","3","","","","","","","","","SRET","SRET_math_calculate","","key","3","16.660338582677262","768","428","","","","","21/7=  ?","3","1","","","","","","",""
"2038","","6","psychophysics","129","446734","0.0-7.0-5.0-0.26","6","7","5","6","6","5","4","5","5","5","5","1","-2","2","1","-1","2","1","-1","5","5","4","5","5","5","4","4","5","5","7","8","8","8","2","6","7","7","8","6","7","2","6","6","7","5","6","7","7","6","6","7","3","6","6","7","3","3","7","3","7","2","2","1","7","5","6","7","7","6","3","7","5","2","6","7","2","3","7","609032333906935808","刘","670","Male","[""坏他"",""好他"",""好我"",""坏我""]","[""弱他"",""强他"",""强我"",""弱我""]","","","","","","","","6","","","","","","","","","SRET","SRET_math_calculate","","key","6","16.661140495867947","768","428","","","","","5+1= ?","6","1","","","","","","",""
"2375","","4","psychophysics","130","449109","0.0-7.0-5.0-0.27","6","7","5","6","6","5","4","5","5","5","5","1","-2","2","1","-1","2","1","-1","5","5","4","5","5","5","4","4","5","5","7","8","8","8","2","6","7","7","8","6","7","2","6","6","7","5","6","7","7","6","6","7","3","6","6","7","3","3","7","3","7","2","2","1","7","5","6","7","7","6","3","7","5","2","6","7","2","3","7","609032333906935808","刘","670","Male","[""坏他"",""好他"",""好我"",""坏我""]","[""弱他"",""强他"",""强我"",""弱我""]","","","","","","","","4","","","","","","","","","SRET","SRET_math_calculate","","key","4","16.659929577464528","768","428","","","","","2+2= ?","4","1","","","","","","",""
"2337","","9","psychophysics","131","451448","0.0-7.0-5.0-0.28","6","7","5","6","6","5","4","5","5","5","5","1","-2","2","1","-1","2","1","-1","5","5","4","5","5","5","4","4","5","5","7","8","8","8","2","6","7","7","8","6","7","2","6","6","7","5","6","7","7","6","6","7","3","6","6","7","3","3","7","3","7","2","2","1","7","5","6","7","7","6","3","7","5","2","6","7","2","3","7","609032333906935808","刘","670","Male","[""坏他"",""好他"",""好我"",""坏我""]","[""弱他"",""强他"",""强我"",""弱我""]","","","","","","","","9","","","","","","","","","SRET","SRET_math_calculate","","key","9","16.662194244604198","768","428","","","","","32-32= ?","0","0","","","","","","",""
"2903","","5","psychophysics","132","454351","0.0-7.0-5.0-0.29","6","7","5","6","6","5","4","5","5","5","5","1","-2","2","1","-1","2","1","-1","5","5","4","5","5","5","4","4","5","5","7","8","8","8","2","6","7","7","8","6","7","2","6","6","7","5","6","7","7","6","6","7","3","6","6","7","3","3","7","3","7","2","2","1","7","5","6","7","7","6","3","7","5","2","6","7","2","3","7","609032333906935808","刘","670","Male","[""坏他"",""好他"",""好我"",""坏我""]","[""弱他"",""强他"",""强我"",""弱我""]","","","","","","","","5","","","","","","","","","SRET","SRET_math_calculate","","key","5","16.662063583815094","768","428","","","","","8-3= ? ","5","1","","","","","","",""
"1871","","9","psychophysics","133","456223","0.0-7.0-5.0-0.30","6","7","5","6","6","5","4","5","5","5","5","1","-2","2","1","-1","2","1","-1","5","5","4","5","5","5","4","4","5","5","7","8","8","8","2","6","7","7","8","6","7","2","6","6","7","5","6","7","7","6","6","7","3","6","6","7","3","3","7","3","7","2","2","1","7","5","6","7","7","6","3","7","5","2","6","7","2","3","7","609032333906935808","刘","670","Male","[""坏他"",""好他"",""好我"",""坏我""]","[""弱他"",""强他"",""强我"",""弱我""]","","","","","","","","9","","","","","","","","","SRET","SRET_math_calculate","","key","9","16.662500000000104","768","428","","","","","8+1= ?","9","1","","","","","","",""
"1845","","0","psychophysics","134","458070","0.0-7.0-5.0-0.31","6","7","5","6","6","5","4","5","5","5","5","1","-2","2","1","-1","2","1","-1","5","5","4","5","5","5","4","4","5","5","7","8","8","8","2","6","7","7","8","6","7","2","6","6","7","5","6","7","7","6","6","7","3","6","6","7","3","3","7","3","7","2","2","1","7","5","6","7","7","6","3","7","5","2","6","7","2","3","7","609032333906935808","刘","670","Male","[""坏他"",""好他"",""好我"",""坏我""]","[""弱他"",""强他"",""强我"",""弱我""]","","","","","","","","0","","","","","","","","","SRET","SRET_math_calculate","","key","0","16.662645454545483","768","428","","","","","22-22= ?","0","1","","","","","","",""
"1959","","9","psychophysics","135","460030","0.0-7.0-5.0-0.32","6","7","5","6","6","5","4","5","5","5","5","1","-2","2","1","-1","2","1","-1","5","5","4","5","5","5","4","4","5","5","7","8","8","8","2","6","7","7","8","6","7","2","6","6","7","5","6","7","7","6","6","7","3","6","6","7","3","3","7","3","7","2","2","1","7","5","6","7","7","6","3","7","5","2","6","7","2","3","7","609032333906935808","刘","670","Male","[""坏他"",""好他"",""好我"",""坏我""]","[""弱他"",""强他"",""强我"",""弱我""]","","","","","","","","9","","","","","","","","","SRET","SRET_math_calculate","","key","9","16.660250000000314","768","428","","","","","3+6= ?","9","1","","","","","","",""
"2039","","8","psychophysics","136","462070","0.0-7.0-5.0-0.33","6","7","5","6","6","5","4","5","5","5","5","1","-2","2","1","-1","2","1","-1","5","5","4","5","5","5","4","4","5","5","7","8","8","8","2","6","7","7","8","6","7","2","6","6","7","5","6","7","7","6","6","7","3","6","6","7","3","3","7","3","7","2","2","1","7","5","6","7","7","6","3","7","5","2","6","7","2","3","7","609032333906935808","刘","670","Male","[""坏他"",""好他"",""好我"",""坏我""]","[""弱他"",""强他"",""强我"",""弱我""]","","","","","","","","8","","","","","","","","","SRET","SRET_math_calculate","","key","8","16.661262295082437","768","428","","","","","8*1= ?","8","1","","","","","","",""
"1847","","9","psychophysics","137","463918","0.0-7.0-5.0-0.34","6","7","5","6","6","5","4","5","5","5","5","1","-2","2","1","-1","2","1","-1","5","5","4","5","5","5","4","4","5","5","7","8","8","8","2","6","7","7","8","6","7","2","6","6","7","5","6","7","7","6","6","7","3","6","6","7","3","3","7","3","7","2","2","1","7","5","6","7","7","6","3","7","5","2","6","7","2","3","7","609032333906935808","刘","670","Male","[""坏他"",""好他"",""好我"",""坏我""]","[""弱他"",""强他"",""强我"",""弱我""]","","","","","","","","9","","","","","","","","","SRET","SRET_math_calculate","","key","9","16.661836363636063","768","428","","","","","3*3= ?","9","1","","","","","","",""
"2384","","3","psychophysics","138","466303","0.0-7.0-5.0-0.35","6","7","5","6","6","5","4","5","5","5","5","1","-2","2","1","-1","2","1","-1","5","5","4","5","5","5","4","4","5","5","7","8","8","8","2","6","7","7","8","6","7","2","6","6","7","5","6","7","7","6","6","7","3","6","6","7","3","3","7","3","7","2","2","1","7","5","6","7","7","6","3","7","5","2","6","7","2","3","7","609032333906935808","刘","670","Male","[""坏他"",""好他"",""好我"",""坏我""]","[""弱他"",""强他"",""强我"",""弱我""]","","","","","","","","3","","","","","","","","","SRET","SRET_math_calculate","","key","3","16.660450704225248","768","428","","","","","11-8= ?","3","1","","","","","","",""
"2702","","3","psychophysics","139","469006","0.0-7.0-5.0-0.36","6","7","5","6","6","5","4","5","5","5","5","1","-2","2","1","-1","2","1","-1","5","5","4","5","5","5","4","4","5","5","7","8","8","8","2","6","7","7","8","6","7","2","6","6","7","5","6","7","7","6","6","7","3","6","6","7","3","3","7","3","7","2","2","1","7","5","6","7","7","6","3","7","5","2","6","7","2","3","7","609032333906935808","刘","670","Male","[""坏他"",""好他"",""好我"",""坏我""]","[""弱他"",""强他"",""强我"",""弱我""]","","","","","","","","3","","","","","","","","","SRET","SRET_math_calculate","","key","3","16.661211180124326","768","428","","","","","8-5= ?","3","1","","","","","","",""
"1759","","0","psychophysics","140","470766","0.0-7.0-5.0-0.37","6","7","5","6","6","5","4","5","5","5","5","1","-2","2","1","-1","2","1","-1","5","5","4","5","5","5","4","4","5","5","7","8","8","8","2","6","7","7","8","6","7","2","6","6","7","5","6","7","7","6","6","7","3","6","6","7","3","3","7","3","7","2","2","1","7","5","6","7","7","6","3","7","5","2","6","7","2","3","7","609032333906935808","刘","670","Male","[""坏他"",""好他"",""好我"",""坏我""]","[""弱他"",""强他"",""强我"",""弱我""]","","","","","","","","0","","","","","","","","","SRET","SRET_math_calculate","","key","0","16.66222857142843","768","428","","","","","6*0= ?","0","1","","","","","","",""
"2063","","2","psychophysics","141","472830","0.0-7.0-5.0-0.38","6","7","5","6","6","5","4","5","5","5","5","1","-2","2","1","-1","2","1","-1","5","5","4","5","5","5","4","4","5","5","7","8","8","8","2","6","7","7","8","6","7","2","6","6","7","5","6","7","7","6","6","7","3","6","6","7","3","3","7","3","7","2","2","1","7","5","6","7","7","6","3","7","5","2","6","7","2","3","7","609032333906935808","刘","670","Male","[""坏他"",""好他"",""好我"",""坏我""]","[""弱他"",""强他"",""强我"",""弱我""]","","","","","","","","2","","","","","","","","","SRET","SRET_math_calculate","","key","2","16.660336065573663","768","428","","","","","5-3= ?","2","1","","","","","","",""
"1999","","6","psychophysics","142","474830","0.0-7.0-5.0-0.39","6","7","5","6","6","5","4","5","5","5","5","1","-2","2","1","-1","2","1","-1","5","5","4","5","5","5","4","4","5","5","7","8","8","8","2","6","7","7","8","6","7","2","6","6","7","5","6","7","7","6","6","7","3","6","6","7","3","3","7","3","7","2","2","1","7","5","6","7","7","6","3","7","5","2","6","7","2","3","7","609032333906935808","刘","670","Male","[""坏他"",""好他"",""好我"",""坏我""]","[""弱他"",""强他"",""强我"",""弱我""]","","","","","","","","6","","","","","","","","","SRET","SRET_math_calculate","","key","6","16.66263333333336","768","428","","","","","2+4= ?","6","1","","","","","","",""
"2168","","2","psychophysics","143","476998","0.0-7.0-5.0-0.40","6","7","5","6","6","5","4","5","5","5","5","1","-2","2","1","-1","2","1","-1","5","5","4","5","5","5","4","4","5","5","7","8","8","8","2","6","7","7","8","6","7","2","6","6","7","5","6","7","7","6","6","7","3","6","6","7","3","3","7","3","7","2","2","1","7","5","6","7","7","6","3","7","5","2","6","7","2","3","7","609032333906935808","刘","670","Male","[""坏他"",""好他"",""好我"",""坏我""]","[""弱他"",""强他"",""强我"",""弱我""]","","","","","","","","2","","","","","","","","","SRET","SRET_math_calculate","","key","2","16.661077519379692","768","428","","","","","12/6= ?","2","1","","","","","","",""
"2192","","2","psychophysics","144","479191","0.0-7.0-5.0-0.41","6","7","5","6","6","5","4","5","5","5","5","1","-2","2","1","-1","2","1","-1","5","5","4","5","5","5","4","4","5","5","7","8","8","8","2","6","7","7","8","6","7","2","6","6","7","5","6","7","7","6","6","7","3","6","6","7","3","3","7","3","7","2","2","1","7","5","6","7","7","6","3","7","5","2","6","7","2","3","7","609032333906935808","刘","670","Male","[""坏他"",""好他"",""好我"",""坏我""]","[""弱他"",""强他"",""强我"",""弱我""]","","","","","","","","2","","","","","","","","","SRET","SRET_math_calculate","","key","2","16.66110769230783","768","428","","","","","22/11= ?","2","1","","","","","","",""
