"rt","stimulus","response","trial_type","trial_index","time_elapsed","internal_node_id","swb_1","swb_2","swb_3","swb_4","swb_5","LOT_1","LOT_2","LOT_3","LOT_4","LOT_5","LOT_6","IPC_1","IPC_2","IPC_3","IPC_4","IPC_5","IPC_6","IPC_7","IPC_8","MorIden_1","MorIden_2","MorIden_3","MorIden_4","MorIden_5","MorIden_6","MorIden_7","MorIden_8","MorIden_9","MorIden_10","moralSeImag_1","moralSeImag_2","moralSeImag_3","moralSeImag_4","moralSeImag_5","moralSeImag_6","moralSeImag_7","moralSeImag_8","moralSeImag_9","sde_1","sde_2","sde_3","sde_4","sde_5","sde_6","sde_7","sde_8","sde_9","sde_10","sde_11","sde_12","sde_13","sde_14","sde_15","sde_16","sde_17","sde_18","sde_19","sde_20","IM_1","IM_2","IM_3","IM_4","IM_5","IM_6","IM_7","IM_8","IM_9","IM_10","IM_11","IM_12","IM_13","IM_14","IM_15","IM_16","IM_17","IM_18","IM_19","IM_20","subj_idx","friend_name","ParticipantID","Sex","Word","Word2","value","success","timeout","failed_images","failed_audio","failed_video","user_agent","responses","item_order","radio_event_ids","radio_event_times","key_event_times","mouse_event_times","straightlining","zigzagging","honeypot","view_history","response_type","key_press","avg_frame_time","center_x","center_y","correct_response","correct","identity","Image","word","condition","task_id","screen_id","time_stamp","person","valence","domain","math","status","duration","question_order"
"28177","
   <p><div style='color:white; font-size: 25px'>您好，欢迎参加本次实验。</div></p>
   <p><div style='color:white; font-size: 25px'>为充分保障您的权利，请确保您已经知晓并同意《参与实验同意书》以及《数据公开知情同意书》。</div></p>
   <p><div style='color:white; font-size: 25px'>如果您未见过上述内容，请咨询实验员。</div></p>
   <p style='color:white; font-size: 25px'>如果您选择继续实验，则表示您已经清楚两份知情同意书的内容并同意。</p>
   <p><div style = ""color: red;font-size:30px;"">请确保您记得day0的实验编号，您将在本次实验输入该编号，若您忘记，请咨询实验员后作答。</div></p>
   <p> <div style = ""color: green""><按空格键至下页></div> </p>
   "," ","html-keyboard-response","0","28183","0.0-0.0","6","7","6","5","6","5","5","4","4","5","4","-1","-2","1","0","1","2","0","1","5","4","5","5","2","4","5","4","2","5","7","8","9","7","6","9","8","7","7","5","6","5","6","6","5","5","6","6","6","5","6","1","6","5","5","7","5","5","7","3","7","1","6","5","5","6","6","7","6","6","7","7","2","7","5","5","6","6","7","634785034254942208","张","455","Male","[""坏他"",""好他"",""坏我"",""好我""]","[""弱他"",""强他"",""弱我"",""强我""]","","","","","","","","","","","","","","","","","","","","","","","","","","","","","","","","","","","","","",""
"","","","call-function","1","28185","0.0-1.0-0.0","6","7","6","5","6","5","5","4","4","5","4","-1","-2","1","0","1","2","0","1","5","4","5","5","2","4","5","4","2","5","7","8","9","7","6","9","8","7","7","5","6","5","6","6","5","5","6","6","6","5","6","1","6","5","5","7","5","5","7","3","7","1","6","5","5","6","6","7","6","6","7","7","2","7","5","5","6","6","7","634785034254942208","张","455","Male","[""坏他"",""好他"",""坏我"",""好我""]","[""弱他"",""强他"",""弱我"",""强我""]","","","","","","","","","","","","","","","","","","","","","","","","","","","","","","","","","","","","","",""
"51121","","[{""name"":""Sex"",""value"":""0""},{""name"":""friend_name"",""value"":""张""},{""name"":""ParticipantID"",""value"":""455""}]","survey-html-form","2","79310","0.0-1.0-1.0","6","7","6","5","6","5","5","4","4","5","4","-1","-2","1","0","1","2","0","1","5","4","5","5","2","4","5","4","2","5","7","8","9","7","6","9","8","7","7","5","6","5","6","6","5","5","6","6","6","5","6","1","6","5","5","7","5","5","7","3","7","1","6","5","5","6","6","7","6","6","7","7","2","7","5","5","6","6","7","634785034254942208","张","455","Male","[""坏他"",""好他"",""坏我"",""好我""]","[""弱他"",""强他"",""弱我"",""强我""]","","","","","","","","","","","","","","","","","","","","","","","","","","","","","","","","","","","","","",""
"","","","preload","3","79917","0.0-2.0","6","7","6","5","6","5","5","4","4","5","4","-1","-2","1","0","1","2","0","1","5","4","5","5","2","4","5","4","2","5","7","8","9","7","6","9","8","7","7","5","6","5","6","6","5","5","6","6","6","5","6","1","6","5","5","7","5","5","7","3","7","1","6","5","5","6","6","7","6","6","7","7","2","7","5","5","6","6","7","634785034254942208","张","455","Male","[""坏他"",""好他"",""坏我"",""好我""]","[""弱他"",""强他"",""弱我"",""强我""]","","true","false","[]","[]","[]","","","","","","","","","","","","","","","","","","","","","","","","","","","","","","","",""
"","","","fullscreen","4","87188","0.0-3.0","6","7","6","5","6","5","5","4","4","5","4","-1","-2","1","0","1","2","0","1","5","4","5","5","2","4","5","4","2","5","7","8","9","7","6","9","8","7","7","5","6","5","6","6","5","5","6","6","6","5","6","1","6","5","5","7","5","5","7","3","7","1","6","5","5","6","6","7","6","6","7","7","2","7","5","5","6","6","7","634785034254942208","张","455","Male","[""坏他"",""好他"",""坏我"",""好我""]","[""弱他"",""强他"",""弱我"",""强我""]","","true","","","","","{}","","","","","","","","","","","","","","","","","","","","","","","","","","","","","","",""
"66493.10000002384","","{""Q01"":""6"",""Q02"":""7"",""Q03"":""6"",""Q04"":""5"",""Q05"":""6""}","survey-template","5","153688","0.0-4.0","6","7","6","5","6","5","5","4","4","5","4","-1","-2","1","0","1","2","0","1","5","4","5","5","2","4","5","4","2","5","7","8","9","7","6","9","8","7","7","5","6","5","6","6","5","5","6","6","6","5","6","1","6","5","5","7","5","5","7","3","7","1","6","5","5","6","6","7","6","6","7","7","2","7","5","5","6","6","7","634785034254942208","张","455","Male","[""坏他"",""好他"",""坏我"",""好我""]","[""弱他"",""强他"",""弱我"",""强我""]","","","","","","","","{""Q01"":""6"",""Q02"":""7"",""Q03"":""6"",""Q04"":""5"",""Q05"":""6""}","[0,1,2,3,4]","[""Q01"",""Q02"",""Q03"",""Q03"",""Q04"",""Q01"",""Q05""]","[25354,27423.600000023842,28389.600000023842,28801.399999976158,31181.399999976158,32855.60000002384,36749.60000002384]","[]","[25354,26447.399999976158,27423.600000023842,28389.600000023842,28801.399999976158,31181.399999976158,32855.60000002384,36749.60000002384,66491.60000002384]","0.6","1","0","","","","","","","","","","","","","","","","","","","","","",""
"45007.39999997616","","{""Q01"":""5"",""Q02"":""5"",""Q03"":""4"",""Q04"":""4"",""Q05"":""5"",""Q06"":""4""}","survey-template","6","198703","0.0-5.0","6","7","6","5","6","5","5","4","4","5","4","-1","-2","1","0","1","2","0","1","5","4","5","5","2","4","5","4","2","5","7","8","9","7","6","9","8","7","7","5","6","5","6","6","5","5","6","6","6","5","6","1","6","5","5","7","5","5","7","3","7","1","6","5","5","6","6","7","6","6","7","7","2","7","5","5","6","6","7","634785034254942208","张","455","Male","[""坏他"",""好他"",""坏我"",""好我""]","[""弱他"",""强他"",""弱我"",""强我""]","","","","","","","","{""Q01"":""5"",""Q02"":""5"",""Q03"":""4"",""Q04"":""4"",""Q05"":""5"",""Q06"":""4""}","[0,1,2,3,4,5]","[""Q01"",""Q02"",""Q03"",""Q04"",""Q05"",""Q06""]","[2877.100000023842,6369.700000047684,7570,13273.600000023842,14201.800000071526,16463.600000023842]","[]","[2877.100000023842,6369.700000047684,7570,13273.600000023842,14201.800000071526,16463.600000023842,45005.700000047684]","0.3333333333333333","0.4","0","","","","","","","","","","","","","","","","","","","","","",""
"104552","","{""Q01"":""-1"",""Q02"":""-2"",""Q03"":""1"",""Q04"":""0"",""Q05"":""1"",""Q06"":""2"",""Q07"":""0"",""Q08"":""1""}","survey-template","7","303260","0.0-6.0","6","7","6","5","6","5","5","4","4","5","4","-1","-2","1","0","1","2","0","1","5","4","5","5","2","4","5","4","2","5","7","8","9","7","6","9","8","7","7","5","6","5","6","6","5","5","6","6","6","5","6","1","6","5","5","7","5","5","7","3","7","1","6","5","5","6","6","7","6","6","7","7","2","7","5","5","6","6","7","634785034254942208","张","455","Male","[""坏他"",""好他"",""坏我"",""好我""]","[""弱他"",""强他"",""弱我"",""强我""]","","","","","","","","{""Q01"":""-1"",""Q02"":""-2"",""Q03"":""1"",""Q04"":""0"",""Q05"":""1"",""Q06"":""2"",""Q07"":""0"",""Q08"":""1""}","[0,1,2,3,4,5,6,7]","[""Q01"",""Q02"",""Q03"",""Q04"",""Q05"",""Q06"",""Q07"",""Q08""]","[3857.7000000476837,6972.800000071526,8011,12572.800000071526,15884.899999976158,17122.600000023842,19196.600000023842,22334.600000023842]","[]","[3857.7000000476837,5340.800000071526,6612.600000023842,6972.800000071526,8011,11914.899999976158,12572.800000071526,14526.700000047684,15044.600000023842,15625.700000047684,15884.899999976158,16766.700000047684,17122.600000023842,18778.899999976158,19196.600000023842,21608.899999976158,21982.5,22334.600000023842,104550.70000004768]","0.375","0.7142857142857143","0","","","","","","","","","","","","","","","","","","","","","",""
"155872","","","instructions","8","459136","0.0-7.0","6","7","6","5","6","5","5","4","4","5","4","-1","-2","1","0","1","2","0","1","5","4","5","5","2","4","5","4","2","5","7","8","9","7","6","9","8","7","7","5","6","5","6","6","5","5","6","6","6","5","6","1","6","5","5","7","5","5","7","3","7","1","6","5","5","6","6","7","6","6","7","7","2","7","5","5","6","6","7","634785034254942208","张","455","Male","[""坏他"",""好他"",""坏我"",""好我""]","[""弱他"",""强他"",""弱我"",""强我""]","","","","","","","","","","","","","","","","","[{""page_index"":0,""viewing_time"":155871}]","","","","","","","","","","","","","","","","","","","","",""
"373123","","","instructions","9","832261","0.0-8.0-0.0-0.0","6","7","6","5","6","5","5","4","4","5","4","-1","-2","1","0","1","2","0","1","5","4","5","5","2","4","5","4","2","5","7","8","9","7","6","9","8","7","7","5","6","5","6","6","5","5","6","6","6","5","6","1","6","5","5","7","5","5","7","3","7","1","6","5","5","6","6","7","6","6","7","7","2","7","5","5","6","6","7","634785034254942208","张","455","Male","[""坏他"",""好他"",""坏我"",""好我""]","[""弱他"",""强他"",""弱我"",""强我""]","","","","","","","","","","","","","","","","","[{""page_index"":0,""viewing_time"":143141},{""page_index"":1,""viewing_time"":220928},{""page_index"":2,""viewing_time"":6640},{""page_index"":3,""viewing_time"":2414}]","","","","","","","","","","","","","","","","","","","","",""
"1128","","f","psychophysics","10","834400","0.0-8.0-0.0-1.0-0.0-0.0","6","7","6","5","6","5","5","4","4","5","4","-1","-2","1","0","1","2","0","1","5","4","5","5","2","4","5","4","2","5","7","8","9","7","6","9","8","7","7","5","6","5","6","6","5","5","6","6","6","5","6","1","6","5","5","7","5","5","7","3","7","1","6","5","5","6","6","7","6","6","7","7","2","7","5","5","6","6","7","634785034254942208","张","455","Male","[""坏他"",""好他"",""坏我"",""好我""]","[""弱他"",""强他"",""弱我"",""强我""]","","","","","","","","nonmatch","","","","","","","","","","key","f","16.654055118110712","799.9999682108573","445.8333156175091","f","true","nonmatch","img/ellipse.png","好我","坏他","prac_ALT2_moral","practice_moral","","","","","","","",""
"null","<span style='color:GreenYellow; font-size: 70px;'>正确! </span>","null","html-keyboard-response","11","834904","0.0-8.0-0.0-1.0-0.0-1.0","6","7","6","5","6","5","5","4","4","5","4","-1","-2","1","0","1","2","0","1","5","4","5","5","2","4","5","4","2","5","7","8","9","7","6","9","8","7","7","5","6","5","6","6","5","5","6","6","6","5","6","1","6","5","5","7","5","5","7","3","7","1","6","5","5","6","6","7","6","6","7","7","2","7","5","5","6","6","7","634785034254942208","张","455","Male","[""坏他"",""好他"",""坏我"",""好我""]","[""弱他"",""强他"",""弱我"",""强我""]","","","","","","","","","","","","","","","","","","","","","","","","","","","","","","feedback_test","","","","","","","",""
"728","","j","psychophysics","12","836635","0.0-8.0-0.0-1.0-0.0-0.1","6","7","6","5","6","5","5","4","4","5","4","-1","-2","1","0","1","2","0","1","5","4","5","5","2","4","5","4","2","5","7","8","9","7","6","9","8","7","7","5","6","5","6","6","5","5","6","6","6","5","6","1","6","5","5","7","5","5","7","3","7","1","6","5","5","6","6","7","6","6","7","7","2","7","5","5","6","6","7","634785034254942208","张","455","Male","[""坏他"",""好他"",""坏我"",""好我""]","[""弱他"",""强他"",""弱我"",""强我""]","","","","","","","","match","","","","","","","","","","key","j","16.653601941747535","799.9999682108573","445.8333156175091","j","true","match","img/ellipse.png","坏他","坏他","prac_ALT2_moral","practice_moral","","","","","","","",""
"null","<span style='color:GreenYellow; font-size: 70px;'>正确! </span>","null","html-keyboard-response","13","837138","0.0-8.0-0.0-1.0-0.0-1.1","6","7","6","5","6","5","5","4","4","5","4","-1","-2","1","0","1","2","0","1","5","4","5","5","2","4","5","4","2","5","7","8","9","7","6","9","8","7","7","5","6","5","6","6","5","5","6","6","6","5","6","1","6","5","5","7","5","5","7","3","7","1","6","5","5","6","6","7","6","6","7","7","2","7","5","5","6","6","7","634785034254942208","张","455","Male","[""坏他"",""好他"",""坏我"",""好我""]","[""弱他"",""强他"",""弱我"",""强我""]","","","","","","","","","","","","","","","","","","","","","","","","","","","","","","feedback_test","","","","","","","",""
"972","","j","psychophysics","14","839113","0.0-8.0-0.0-1.0-0.0-0.2","6","7","6","5","6","5","5","4","4","5","4","-1","-2","1","0","1","2","0","1","5","4","5","5","2","4","5","4","2","5","7","8","9","7","6","9","8","7","7","5","6","5","6","6","5","5","6","6","6","5","6","1","6","5","5","7","5","5","7","3","7","1","6","5","5","6","6","7","6","6","7","7","2","7","5","5","6","6","7","634785034254942208","张","455","Male","[""坏他"",""好他"",""坏我"",""好我""]","[""弱他"",""强他"",""弱我"",""强我""]","","","","","","","","match","","","","","","","","","","key","j","16.65360683760741","799.9999682108573","445.8333156175091","j","true","match","img/ellipse.png","坏他","坏他","prac_ALT2_moral","practice_moral","","","","","","","",""
"null","<span style='color:GreenYellow; font-size: 70px;'>正确! </span>","null","html-keyboard-response","15","839614","0.0-8.0-0.0-1.0-0.0-1.2","6","7","6","5","6","5","5","4","4","5","4","-1","-2","1","0","1","2","0","1","5","4","5","5","2","4","5","4","2","5","7","8","9","7","6","9","8","7","7","5","6","5","6","6","5","5","6","6","6","5","6","1","6","5","5","7","5","5","7","3","7","1","6","5","5","6","6","7","6","6","7","7","2","7","5","5","6","6","7","634785034254942208","张","455","Male","[""坏他"",""好他"",""坏我"",""好我""]","[""弱他"",""强他"",""弱我"",""强我""]","","","","","","","","","","","","","","","","","","","","","","","","","","","","","","feedback_test","","","","","","","",""
"1116","","j","psychophysics","16","841732","0.0-8.0-0.0-1.0-0.0-0.3","6","7","6","5","6","5","5","4","4","5","4","-1","-2","1","0","1","2","0","1","5","4","5","5","2","4","5","4","2","5","7","8","9","7","6","9","8","7","7","5","6","5","6","6","5","5","6","6","6","5","6","1","6","5","5","7","5","5","7","3","7","1","6","5","5","6","6","7","6","6","7","7","2","7","5","5","6","6","7","634785034254942208","张","455","Male","[""坏他"",""好他"",""坏我"",""好我""]","[""弱他"",""强他"",""弱我"",""强我""]","","","","","","","","match","","","","","","","","","","key","j","16.65350000000012","799.9999682108573","445.8333156175091","j","true","match","img/square.png","坏我","坏我","prac_ALT2_moral","practice_moral","","","","","","","",""
"null","<span style='color:GreenYellow; font-size: 70px;'>正确! </span>","null","html-keyboard-response","17","842233","0.0-8.0-0.0-1.0-0.0-1.3","6","7","6","5","6","5","5","4","4","5","4","-1","-2","1","0","1","2","0","1","5","4","5","5","2","4","5","4","2","5","7","8","9","7","6","9","8","7","7","5","6","5","6","6","5","5","6","6","6","5","6","1","6","5","5","7","5","5","7","3","7","1","6","5","5","6","6","7","6","6","7","7","2","7","5","5","6","6","7","634785034254942208","张","455","Male","[""坏他"",""好他"",""坏我"",""好我""]","[""弱他"",""强他"",""弱我"",""强我""]","","","","","","","","","","","","","","","","","","","","","","","","","","","","","","feedback_test","","","","","","","",""
"770","","f","psychophysics","18","844005","0.0-8.0-0.0-1.0-0.0-0.4","6","7","6","5","6","5","5","4","4","5","4","-1","-2","1","0","1","2","0","1","5","4","5","5","2","4","5","4","2","5","7","8","9","7","6","9","8","7","7","5","6","5","6","6","5","5","6","6","6","5","6","1","6","5","5","7","5","5","7","3","7","1","6","5","5","6","6","7","6","6","7","7","2","7","5","5","6","6","7","634785034254942208","张","455","Male","[""坏他"",""好他"",""坏我"",""好我""]","[""弱他"",""强他"",""弱我"",""强我""]","","","","","","","","nonmatch","","","","","","","","","","key","f","16.651847619046677","799.9999682108573","445.8333156175091","f","true","nonmatch","img/diamond.png","好他","好我","prac_ALT2_moral","practice_moral","","","","","","","",""
"null","<span style='color:GreenYellow; font-size: 70px;'>正确! </span>","null","html-keyboard-response","19","844507","0.0-8.0-0.0-1.0-0.0-1.4","6","7","6","5","6","5","5","4","4","5","4","-1","-2","1","0","1","2","0","1","5","4","5","5","2","4","5","4","2","5","7","8","9","7","6","9","8","7","7","5","6","5","6","6","5","5","6","6","6","5","6","1","6","5","5","7","5","5","7","3","7","1","6","5","5","6","6","7","6","6","7","7","2","7","5","5","6","6","7","634785034254942208","张","455","Male","[""坏他"",""好他"",""坏我"",""好我""]","[""弱他"",""强他"",""弱我"",""强我""]","","","","","","","","","","","","","","","","","","","","","","","","","","","","","","feedback_test","","","","","","","",""
"627","","j","psychophysics","20","846135","0.0-8.0-0.0-1.0-0.0-0.5","6","7","6","5","6","5","5","4","4","5","4","-1","-2","1","0","1","2","0","1","5","4","5","5","2","4","5","4","2","5","7","8","9","7","6","9","8","7","7","5","6","5","6","6","5","5","6","6","6","5","6","1","6","5","5","7","5","5","7","3","7","1","6","5","5","6","6","7","6","6","7","7","2","7","5","5","6","6","7","634785034254942208","张","455","Male","[""坏他"",""好他"",""坏我"",""好我""]","[""弱他"",""强他"",""弱我"",""强我""]","","","","","","","","match","","","","","","","","","","key","j","16.65329166666682","799.9999682108573","445.8333156175091","j","true","match","img/pentagon.png","好他","好他","prac_ALT2_moral","practice_moral","","","","","","","",""
"null","<span style='color:GreenYellow; font-size: 70px;'>正确! </span>","null","html-keyboard-response","21","846637","0.0-8.0-0.0-1.0-0.0-1.5","6","7","6","5","6","5","5","4","4","5","4","-1","-2","1","0","1","2","0","1","5","4","5","5","2","4","5","4","2","5","7","8","9","7","6","9","8","7","7","5","6","5","6","6","5","5","6","6","6","5","6","1","6","5","5","7","5","5","7","3","7","1","6","5","5","6","6","7","6","6","7","7","2","7","5","5","6","6","7","634785034254942208","张","455","Male","[""坏他"",""好他"",""坏我"",""好我""]","[""弱他"",""强他"",""弱我"",""强我""]","","","","","","","","","","","","","","","","","","","","","","","","","","","","","","feedback_test","","","","","","","",""
"1172","","f","psychophysics","22","848810","0.0-8.0-0.0-1.0-0.0-0.6","6","7","6","5","6","5","5","4","4","5","4","-1","-2","1","0","1","2","0","1","5","4","5","5","2","4","5","4","2","5","7","8","9","7","6","9","8","7","7","5","6","5","6","6","5","5","6","6","6","5","6","1","6","5","5","7","5","5","7","3","7","1","6","5","5","6","6","7","6","6","7","7","2","7","5","5","6","6","7","634785034254942208","张","455","Male","[""坏他"",""好他"",""坏我"",""好我""]","[""弱他"",""强他"",""弱我"",""强我""]","","","","","","","","nonmatch","","","","","","","","","","key","f","16.648790697674556","799.9999682108573","445.8333156175091","f","true","nonmatch","img/pentagon.png","好我","好他","prac_ALT2_moral","practice_moral","","","","","","","",""
"null","<span style='color:GreenYellow; font-size: 70px;'>正确! </span>","null","html-keyboard-response","23","849312","0.0-8.0-0.0-1.0-0.0-1.6","6","7","6","5","6","5","5","4","4","5","4","-1","-2","1","0","1","2","0","1","5","4","5","5","2","4","5","4","2","5","7","8","9","7","6","9","8","7","7","5","6","5","6","6","5","5","6","6","6","5","6","1","6","5","5","7","5","5","7","3","7","1","6","5","5","6","6","7","6","6","7","7","2","7","5","5","6","6","7","634785034254942208","张","455","Male","[""坏他"",""好他"",""坏我"",""好我""]","[""弱他"",""强他"",""弱我"",""强我""]","","","","","","","","","","","","","","","","","","","","","","","","","","","","","","feedback_test","","","","","","","",""
"790","","j","psychophysics","24","851104","0.0-8.0-0.0-1.0-0.0-0.7","6","7","6","5","6","5","5","4","4","5","4","-1","-2","1","0","1","2","0","1","5","4","5","5","2","4","5","4","2","5","7","8","9","7","6","9","8","7","7","5","6","5","6","6","5","5","6","6","6","5","6","1","6","5","5","7","5","5","7","3","7","1","6","5","5","6","6","7","6","6","7","7","2","7","5","5","6","6","7","634785034254942208","张","455","Male","[""坏他"",""好他"",""坏我"",""好我""]","[""弱他"",""强他"",""弱我"",""强我""]","","","","","","","","match","","","","","","","","","","key","j","16.65351401869138","799.9999682108573","445.8333156175091","f","false","nonmatch","img/pentagon.png","坏他","好他","prac_ALT2_moral","practice_moral","","","","","","","",""
"null","<span style='color:red; font-size: 70px;'>错误! </span>","null","html-keyboard-response","25","851605","0.0-8.0-0.0-1.0-0.0-1.7","6","7","6","5","6","5","5","4","4","5","4","-1","-2","1","0","1","2","0","1","5","4","5","5","2","4","5","4","2","5","7","8","9","7","6","9","8","7","7","5","6","5","6","6","5","5","6","6","6","5","6","1","6","5","5","7","5","5","7","3","7","1","6","5","5","6","6","7","6","6","7","7","2","7","5","5","6","6","7","634785034254942208","张","455","Male","[""坏他"",""好他"",""坏我"",""好我""]","[""弱他"",""强他"",""弱我"",""强我""]","","","","","","","","","","","","","","","","","","","","","","","","","","","","","","feedback_test","","","","","","","",""
"1110","","j","psychophysics","26","853716","0.0-8.0-0.0-1.0-0.0-0.8","6","7","6","5","6","5","5","4","4","5","4","-1","-2","1","0","1","2","0","1","5","4","5","5","2","4","5","4","2","5","7","8","9","7","6","9","8","7","7","5","6","5","6","6","5","5","6","6","6","5","6","1","6","5","5","7","5","5","7","3","7","1","6","5","5","6","6","7","6","6","7","7","2","7","5","5","6","6","7","634785034254942208","张","455","Male","[""坏他"",""好他"",""坏我"",""好我""]","[""弱他"",""强他"",""弱我"",""强我""]","","","","","","","","match","","","","","","","","","","key","j","16.653103174602922","799.9999682108573","445.8333156175091","j","true","match","img/diamond.png","好我","好我","prac_ALT2_moral","practice_moral","","","","","","","",""
"null","<span style='color:GreenYellow; font-size: 70px;'>正确! </span>","null","html-keyboard-response","27","854226","0.0-8.0-0.0-1.0-0.0-1.8","6","7","6","5","6","5","5","4","4","5","4","-1","-2","1","0","1","2","0","1","5","4","5","5","2","4","5","4","2","5","7","8","9","7","6","9","8","7","7","5","6","5","6","6","5","5","6","6","6","5","6","1","6","5","5","7","5","5","7","3","7","1","6","5","5","6","6","7","6","6","7","7","2","7","5","5","6","6","7","634785034254942208","张","455","Male","[""坏他"",""好他"",""坏我"",""好我""]","[""弱他"",""强他"",""弱我"",""强我""]","","","","","","","","","","","","","","","","","","","","","","","","","","","","","","feedback_test","","","","","","","",""
"783","","f","psychophysics","28","856014","0.0-8.0-0.0-1.0-0.0-0.9","6","7","6","5","6","5","5","4","4","5","4","-1","-2","1","0","1","2","0","1","5","4","5","5","2","4","5","4","2","5","7","8","9","7","6","9","8","7","7","5","6","5","6","6","5","5","6","6","6","5","6","1","6","5","5","7","5","5","7","3","7","1","6","5","5","6","6","7","6","6","7","7","2","7","5","5","6","6","7","634785034254942208","张","455","Male","[""坏他"",""好他"",""坏我"",""好我""]","[""弱他"",""强他"",""弱我"",""强我""]","","","","","","","","nonmatch","","","","","","","","","","key","f","16.65317757009359","799.9999682108573","445.8333156175091","f","true","nonmatch","img/ellipse.png","坏我","坏他","prac_ALT2_moral","practice_moral","","","","","","","",""
"null","<span style='color:GreenYellow; font-size: 70px;'>正确! </span>","null","html-keyboard-response","29","856517","0.0-8.0-0.0-1.0-0.0-1.9","6","7","6","5","6","5","5","4","4","5","4","-1","-2","1","0","1","2","0","1","5","4","5","5","2","4","5","4","2","5","7","8","9","7","6","9","8","7","7","5","6","5","6","6","5","5","6","6","6","5","6","1","6","5","5","7","5","5","7","3","7","1","6","5","5","6","6","7","6","6","7","7","2","7","5","5","6","6","7","634785034254942208","张","455","Male","[""坏他"",""好他"",""坏我"",""好我""]","[""弱他"",""强他"",""弱我"",""强我""]","","","","","","","","","","","","","","","","","","","","","","","","","","","","","","feedback_test","","","","","","","",""
"754","","j","psychophysics","30","858273","0.0-8.0-0.0-1.0-0.0-0.10","6","7","6","5","6","5","5","4","4","5","4","-1","-2","1","0","1","2","0","1","5","4","5","5","2","4","5","4","2","5","7","8","9","7","6","9","8","7","7","5","6","5","6","6","5","5","6","6","6","5","6","1","6","5","5","7","5","5","7","3","7","1","6","5","5","6","6","7","6","6","7","7","2","7","5","5","6","6","7","634785034254942208","张","455","Male","[""坏他"",""好他"",""坏我"",""好我""]","[""弱他"",""强他"",""弱我"",""强我""]","","","","","","","","match","","","","","","","","","","key","j","16.653846153846153","799.9999682108573","445.8333156175091","j","true","match","img/square.png","坏我","坏我","prac_ALT2_moral","practice_moral","","","","","","","",""
"null","<span style='color:GreenYellow; font-size: 70px;'>正确! </span>","null","html-keyboard-response","31","858775","0.0-8.0-0.0-1.0-0.0-1.10","6","7","6","5","6","5","5","4","4","5","4","-1","-2","1","0","1","2","0","1","5","4","5","5","2","4","5","4","2","5","7","8","9","7","6","9","8","7","7","5","6","5","6","6","5","5","6","6","6","5","6","1","6","5","5","7","5","5","7","3","7","1","6","5","5","6","6","7","6","6","7","7","2","7","5","5","6","6","7","634785034254942208","张","455","Male","[""坏他"",""好他"",""坏我"",""好我""]","[""弱他"",""强他"",""弱我"",""强我""]","","","","","","","","","","","","","","","","","","","","","","","","","","","","","","feedback_test","","","","","","","",""
"1097","","j","psychophysics","32","860874","0.0-8.0-0.0-1.0-0.0-0.11","6","7","6","5","6","5","5","4","4","5","4","-1","-2","1","0","1","2","0","1","5","4","5","5","2","4","5","4","2","5","7","8","9","7","6","9","8","7","7","5","6","5","6","6","5","5","6","6","6","5","6","1","6","5","5","7","5","5","7","3","7","1","6","5","5","6","6","7","6","6","7","7","2","7","5","5","6","6","7","634785034254942208","张","455","Male","[""坏他"",""好他"",""坏我"",""好我""]","[""弱他"",""强他"",""弱我"",""强我""]","","","","","","","","match","","","","","","","","","","key","j","16.654040000000037","799.9999682108573","445.8333156175091","j","true","match","img/pentagon.png","好他","好他","prac_ALT2_moral","practice_moral","","","","","","","",""
"null","<span style='color:GreenYellow; font-size: 70px;'>正确! </span>","null","html-keyboard-response","33","861375","0.0-8.0-0.0-1.0-0.0-1.11","6","7","6","5","6","5","5","4","4","5","4","-1","-2","1","0","1","2","0","1","5","4","5","5","2","4","5","4","2","5","7","8","9","7","6","9","8","7","7","5","6","5","6","6","5","5","6","6","6","5","6","1","6","5","5","7","5","5","7","3","7","1","6","5","5","6","6","7","6","6","7","7","2","7","5","5","6","6","7","634785034254942208","张","455","Male","[""坏他"",""好他"",""坏我"",""好我""]","[""弱他"",""强他"",""弱我"",""强我""]","","","","","","","","","","","","","","","","","","","","","","","","","","","","","","feedback_test","","","","","","","",""
"817","","f","psychophysics","34","863194","0.0-8.0-0.0-1.0-0.0-0.12","6","7","6","5","6","5","5","4","4","5","4","-1","-2","1","0","1","2","0","1","5","4","5","5","2","4","5","4","2","5","7","8","9","7","6","9","8","7","7","5","6","5","6","6","5","5","6","6","6","5","6","1","6","5","5","7","5","5","7","3","7","1","6","5","5","6","6","7","6","6","7","7","2","7","5","5","6","6","7","634785034254942208","张","455","Male","[""坏他"",""好他"",""坏我"",""好我""]","[""弱他"",""强他"",""弱我"",""强我""]","","","","","","","","nonmatch","","","","","","","","","","key","f","16.65288888888878","799.9999682108573","445.8333156175091","j","false","match","img/diamond.png","好我","好我","prac_ALT2_moral","practice_moral","","","","","","","",""
"null","<span style='color:red; font-size: 70px;'>错误! </span>","null","html-keyboard-response","35","863695","0.0-8.0-0.0-1.0-0.0-1.12","6","7","6","5","6","5","5","4","4","5","4","-1","-2","1","0","1","2","0","1","5","4","5","5","2","4","5","4","2","5","7","8","9","7","6","9","8","7","7","5","6","5","6","6","5","5","6","6","6","5","6","1","6","5","5","7","5","5","7","3","7","1","6","5","5","6","6","7","6","6","7","7","2","7","5","5","6","6","7","634785034254942208","张","455","Male","[""坏他"",""好他"",""坏我"",""好我""]","[""弱他"",""强他"",""弱我"",""强我""]","","","","","","","","","","","","","","","","","","","","","","","","","","","","","","feedback_test","","","","","","","",""
"847","","j","psychophysics","36","865544","0.0-8.0-0.0-1.0-0.0-0.13","6","7","6","5","6","5","5","4","4","5","4","-1","-2","1","0","1","2","0","1","5","4","5","5","2","4","5","4","2","5","7","8","9","7","6","9","8","7","7","5","6","5","6","6","5","5","6","6","6","5","6","1","6","5","5","7","5","5","7","3","7","1","6","5","5","6","6","7","6","6","7","7","2","7","5","5","6","6","7","634785034254942208","张","455","Male","[""坏他"",""好他"",""坏我"",""好我""]","[""弱他"",""强他"",""弱我"",""强我""]","","","","","","","","match","","","","","","","","","","key","j","16.65069090909092","799.9999682108573","445.8333156175091","f","false","nonmatch","img/ellipse.png","好他","坏他","prac_ALT2_moral","practice_moral","","","","","","","",""
"null","<span style='color:red; font-size: 70px;'>错误! </span>","null","html-keyboard-response","37","866047","0.0-8.0-0.0-1.0-0.0-1.13","6","7","6","5","6","5","5","4","4","5","4","-1","-2","1","0","1","2","0","1","5","4","5","5","2","4","5","4","2","5","7","8","9","7","6","9","8","7","7","5","6","5","6","6","5","5","6","6","6","5","6","1","6","5","5","7","5","5","7","3","7","1","6","5","5","6","6","7","6","6","7","7","2","7","5","5","6","6","7","634785034254942208","张","455","Male","[""坏他"",""好他"",""坏我"",""好我""]","[""弱他"",""强他"",""弱我"",""强我""]","","","","","","","","","","","","","","","","","","","","","","","","","","","","","","feedback_test","","","","","","","",""
"816","","j","psychophysics","38","867864","0.0-8.0-0.0-1.0-0.0-0.14","6","7","6","5","6","5","5","4","4","5","4","-1","-2","1","0","1","2","0","1","5","4","5","5","2","4","5","4","2","5","7","8","9","7","6","9","8","7","7","5","6","5","6","6","5","5","6","6","6","5","6","1","6","5","5","7","5","5","7","3","7","1","6","5","5","6","6","7","6","6","7","7","2","7","5","5","6","6","7","634785034254942208","张","455","Male","[""坏他"",""好他"",""坏我"",""好我""]","[""弱他"",""强他"",""弱我"",""强我""]","","","","","","","","match","","","","","","","","","","key","j","16.651814814815427","799.9999682108573","445.8333156175091","j","true","match","img/square.png","坏我","坏我","prac_ALT2_moral","practice_moral","","","","","","","",""
"null","<span style='color:GreenYellow; font-size: 70px;'>正确! </span>","null","html-keyboard-response","39","868365","0.0-8.0-0.0-1.0-0.0-1.14","6","7","6","5","6","5","5","4","4","5","4","-1","-2","1","0","1","2","0","1","5","4","5","5","2","4","5","4","2","5","7","8","9","7","6","9","8","7","7","5","6","5","6","6","5","5","6","6","6","5","6","1","6","5","5","7","5","5","7","3","7","1","6","5","5","6","6","7","6","6","7","7","2","7","5","5","6","6","7","634785034254942208","张","455","Male","[""坏他"",""好他"",""坏我"",""好我""]","[""弱他"",""强他"",""弱我"",""强我""]","","","","","","","","","","","","","","","","","","","","","","","","","","","","","","feedback_test","","","","","","","",""
"738","","f","psychophysics","40","870106","0.0-8.0-0.0-1.0-0.0-0.15","6","7","6","5","6","5","5","4","4","5","4","-1","-2","1","0","1","2","0","1","5","4","5","5","2","4","5","4","2","5","7","8","9","7","6","9","8","7","7","5","6","5","6","6","5","5","6","6","6","5","6","1","6","5","5","7","5","5","7","3","7","1","6","5","5","6","6","7","6","6","7","7","2","7","5","5","6","6","7","634785034254942208","张","455","Male","[""坏他"",""好他"",""坏我"",""好我""]","[""弱他"",""强他"",""弱我"",""强我""]","","","","","","","","nonmatch","","","","","","","","","","key","f","16.653701923076788","799.9999682108573","445.8333156175091","f","true","nonmatch","img/square.png","好我","坏我","prac_ALT2_moral","practice_moral","","","","","","","",""
"null","<span style='color:GreenYellow; font-size: 70px;'>正确! </span>","null","html-keyboard-response","41","870606","0.0-8.0-0.0-1.0-0.0-1.15","6","7","6","5","6","5","5","4","4","5","4","-1","-2","1","0","1","2","0","1","5","4","5","5","2","4","5","4","2","5","7","8","9","7","6","9","8","7","7","5","6","5","6","6","5","5","6","6","6","5","6","1","6","5","5","7","5","5","7","3","7","1","6","5","5","6","6","7","6","6","7","7","2","7","5","5","6","6","7","634785034254942208","张","455","Male","[""坏他"",""好他"",""坏我"",""好我""]","[""弱他"",""强他"",""弱我"",""强我""]","","","","","","","","","","","","","","","","","","","","","","","","","","","","","","feedback_test","","","","","","","",""
"896","","j","psychophysics","42","872504","0.0-8.0-0.0-1.0-0.0-0.16","6","7","6","5","6","5","5","4","4","5","4","-1","-2","1","0","1","2","0","1","5","4","5","5","2","4","5","4","2","5","7","8","9","7","6","9","8","7","7","5","6","5","6","6","5","5","6","6","6","5","6","1","6","5","5","7","5","5","7","3","7","1","6","5","5","6","6","7","6","6","7","7","2","7","5","5","6","6","7","634785034254942208","张","455","Male","[""坏他"",""好他"",""坏我"",""好我""]","[""弱他"",""强他"",""弱我"",""强我""]","","","","","","","","match","","","","","","","","","","key","j","16.653991150443105","799.9999682108573","445.8333156175091","f","false","nonmatch","img/pentagon.png","坏我","好他","prac_ALT2_moral","practice_moral","","","","","","","",""
"null","<span style='color:red; font-size: 70px;'>错误! </span>","null","html-keyboard-response","43","873006","0.0-8.0-0.0-1.0-0.0-1.16","6","7","6","5","6","5","5","4","4","5","4","-1","-2","1","0","1","2","0","1","5","4","5","5","2","4","5","4","2","5","7","8","9","7","6","9","8","7","7","5","6","5","6","6","5","5","6","6","6","5","6","1","6","5","5","7","5","5","7","3","7","1","6","5","5","6","6","7","6","6","7","7","2","7","5","5","6","6","7","634785034254942208","张","455","Male","[""坏他"",""好他"",""坏我"",""好我""]","[""弱他"",""强他"",""弱我"",""强我""]","","","","","","","","","","","","","","","","","","","","","","","","","","","","","","feedback_test","","","","","","","",""
"1061","","j","psychophysics","44","875069","0.0-8.0-0.0-1.0-0.0-0.17","6","7","6","5","6","5","5","4","4","5","4","-1","-2","1","0","1","2","0","1","5","4","5","5","2","4","5","4","2","5","7","8","9","7","6","9","8","7","7","5","6","5","6","6","5","5","6","6","6","5","6","1","6","5","5","7","5","5","7","3","7","1","6","5","5","6","6","7","6","6","7","7","2","7","5","5","6","6","7","634785034254942208","张","455","Male","[""坏他"",""好他"",""坏我"",""好我""]","[""弱他"",""强他"",""弱我"",""强我""]","","","","","","","","match","","","","","","","","","","key","j","16.653195121951168","799.9999682108573","445.8333156175091","j","true","match","img/diamond.png","好我","好我","prac_ALT2_moral","practice_moral","","","","","","","",""
"null","<span style='color:GreenYellow; font-size: 70px;'>正确! </span>","null","html-keyboard-response","45","875570","0.0-8.0-0.0-1.0-0.0-1.17","6","7","6","5","6","5","5","4","4","5","4","-1","-2","1","0","1","2","0","1","5","4","5","5","2","4","5","4","2","5","7","8","9","7","6","9","8","7","7","5","6","5","6","6","5","5","6","6","6","5","6","1","6","5","5","7","5","5","7","3","7","1","6","5","5","6","6","7","6","6","7","7","2","7","5","5","6","6","7","634785034254942208","张","455","Male","[""坏他"",""好他"",""坏我"",""好我""]","[""弱他"",""强他"",""弱我"",""强我""]","","","","","","","","","","","","","","","","","","","","","","","","","","","","","","feedback_test","","","","","","","",""
"1010","","j","psychophysics","46","877584","0.0-8.0-0.0-1.0-0.0-0.18","6","7","6","5","6","5","5","4","4","5","4","-1","-2","1","0","1","2","0","1","5","4","5","5","2","4","5","4","2","5","7","8","9","7","6","9","8","7","7","5","6","5","6","6","5","5","6","6","6","5","6","1","6","5","5","7","5","5","7","3","7","1","6","5","5","6","6","7","6","6","7","7","2","7","5","5","6","6","7","634785034254942208","张","455","Male","[""坏他"",""好他"",""坏我"",""好我""]","[""弱他"",""强他"",""弱我"",""强我""]","","","","","","","","match","","","","","","","","","","key","j","16.653966666666868","799.9999682108573","445.8333156175091","j","true","match","img/pentagon.png","好他","好他","prac_ALT2_moral","practice_moral","","","","","","","",""
"null","<span style='color:GreenYellow; font-size: 70px;'>正确! </span>","null","html-keyboard-response","47","878085","0.0-8.0-0.0-1.0-0.0-1.18","6","7","6","5","6","5","5","4","4","5","4","-1","-2","1","0","1","2","0","1","5","4","5","5","2","4","5","4","2","5","7","8","9","7","6","9","8","7","7","5","6","5","6","6","5","5","6","6","6","5","6","1","6","5","5","7","5","5","7","3","7","1","6","5","5","6","6","7","6","6","7","7","2","7","5","5","6","6","7","634785034254942208","张","455","Male","[""坏他"",""好他"",""坏我"",""好我""]","[""弱他"",""强他"",""弱我"",""强我""]","","","","","","","","","","","","","","","","","","","","","","","","","","","","","","feedback_test","","","","","","","",""
"947","","j","psychophysics","48","880033","0.0-8.0-0.0-1.0-0.0-0.19","6","7","6","5","6","5","5","4","4","5","4","-1","-2","1","0","1","2","0","1","5","4","5","5","2","4","5","4","2","5","7","8","9","7","6","9","8","7","7","5","6","5","6","6","5","5","6","6","6","5","6","1","6","5","5","7","5","5","7","3","7","1","6","5","5","6","6","7","6","6","7","7","2","7","5","5","6","6","7","634785034254942208","张","455","Male","[""坏他"",""好他"",""坏我"",""好我""]","[""弱他"",""强他"",""弱我"",""强我""]","","","","","","","","match","","","","","","","","","","key","j","16.653258620689076","799.9999682108573","445.8333156175091","j","true","match","img/ellipse.png","坏他","坏他","prac_ALT2_moral","practice_moral","","","","","","","",""
"null","<span style='color:GreenYellow; font-size: 70px;'>正确! </span>","null","html-keyboard-response","49","880534","0.0-8.0-0.0-1.0-0.0-1.19","6","7","6","5","6","5","5","4","4","5","4","-1","-2","1","0","1","2","0","1","5","4","5","5","2","4","5","4","2","5","7","8","9","7","6","9","8","7","7","5","6","5","6","6","5","5","6","6","6","5","6","1","6","5","5","7","5","5","7","3","7","1","6","5","5","6","6","7","6","6","7","7","2","7","5","5","6","6","7","634785034254942208","张","455","Male","[""坏他"",""好他"",""坏我"",""好我""]","[""弱他"",""强他"",""弱我"",""强我""]","","","","","","","","","","","","","","","","","","","","","","","","","","","","","","feedback_test","","","","","","","",""
"713","","f","psychophysics","50","882256","0.0-8.0-0.0-1.0-0.0-0.20","6","7","6","5","6","5","5","4","4","5","4","-1","-2","1","0","1","2","0","1","5","4","5","5","2","4","5","4","2","5","7","8","9","7","6","9","8","7","7","5","6","5","6","6","5","5","6","6","6","5","6","1","6","5","5","7","5","5","7","3","7","1","6","5","5","6","6","7","6","6","7","7","2","7","5","5","6","6","7","634785034254942208","张","455","Male","[""坏他"",""好他"",""坏我"",""好我""]","[""弱他"",""强他"",""弱我"",""强我""]","","","","","","","","nonmatch","","","","","","","","","","key","f","16.65325490196062","799.9999682108573","445.8333156175091","f","true","nonmatch","img/square.png","坏他","坏我","prac_ALT2_moral","practice_moral","","","","","","","",""
"null","<span style='color:GreenYellow; font-size: 70px;'>正确! </span>","null","html-keyboard-response","51","882758","0.0-8.0-0.0-1.0-0.0-1.20","6","7","6","5","6","5","5","4","4","5","4","-1","-2","1","0","1","2","0","1","5","4","5","5","2","4","5","4","2","5","7","8","9","7","6","9","8","7","7","5","6","5","6","6","5","5","6","6","6","5","6","1","6","5","5","7","5","5","7","3","7","1","6","5","5","6","6","7","6","6","7","7","2","7","5","5","6","6","7","634785034254942208","张","455","Male","[""坏他"",""好他"",""坏我"",""好我""]","[""弱他"",""强他"",""弱我"",""强我""]","","","","","","","","","","","","","","","","","","","","","","","","","","","","","","feedback_test","","","","","","","",""
"1003","","f","psychophysics","52","884763","0.0-8.0-0.0-1.0-0.0-0.21","6","7","6","5","6","5","5","4","4","5","4","-1","-2","1","0","1","2","0","1","5","4","5","5","2","4","5","4","2","5","7","8","9","7","6","9","8","7","7","5","6","5","6","6","5","5","6","6","6","5","6","1","6","5","5","7","5","5","7","3","7","1","6","5","5","6","6","7","6","6","7","7","2","7","5","5","6","6","7","634785034254942208","张","455","Male","[""坏他"",""好他"",""坏我"",""好我""]","[""弱他"",""强他"",""弱我"",""强我""]","","","","","","","","nonmatch","","","","","","","","","","key","f","16.653579831933367","799.9999682108573","445.8333156175091","f","true","nonmatch","img/square.png","好他","坏我","prac_ALT2_moral","practice_moral","","","","","","","",""
"null","<span style='color:GreenYellow; font-size: 70px;'>正确! </span>","null","html-keyboard-response","53","885264","0.0-8.0-0.0-1.0-0.0-1.21","6","7","6","5","6","5","5","4","4","5","4","-1","-2","1","0","1","2","0","1","5","4","5","5","2","4","5","4","2","5","7","8","9","7","6","9","8","7","7","5","6","5","6","6","5","5","6","6","6","5","6","1","6","5","5","7","5","5","7","3","7","1","6","5","5","6","6","7","6","6","7","7","2","7","5","5","6","6","7","634785034254942208","张","455","Male","[""坏他"",""好他"",""坏我"",""好我""]","[""弱他"",""强他"",""弱我"",""强我""]","","","","","","","","","","","","","","","","","","","","","","","","","","","","","","feedback_test","","","","","","","",""
"757","","j","psychophysics","54","887023","0.0-8.0-0.0-1.0-0.0-0.22","6","7","6","5","6","5","5","4","4","5","4","-1","-2","1","0","1","2","0","1","5","4","5","5","2","4","5","4","2","5","7","8","9","7","6","9","8","7","7","5","6","5","6","6","5","5","6","6","6","5","6","1","6","5","5","7","5","5","7","3","7","1","6","5","5","6","6","7","6","6","7","7","2","7","5","5","6","6","7","634785034254942208","张","455","Male","[""坏他"",""好他"",""坏我"",""好我""]","[""弱他"",""强他"",""弱我"",""强我""]","","","","","","","","match","","","","","","","","","","key","j","16.65287619047532","799.9999682108573","445.8333156175091","f","false","nonmatch","img/diamond.png","坏他","好我","prac_ALT2_moral","practice_moral","","","","","","","",""
"null","<span style='color:red; font-size: 70px;'>错误! </span>","null","html-keyboard-response","55","887526","0.0-8.0-0.0-1.0-0.0-1.22","6","7","6","5","6","5","5","4","4","5","4","-1","-2","1","0","1","2","0","1","5","4","5","5","2","4","5","4","2","5","7","8","9","7","6","9","8","7","7","5","6","5","6","6","5","5","6","6","6","5","6","1","6","5","5","7","5","5","7","3","7","1","6","5","5","6","6","7","6","6","7","7","2","7","5","5","6","6","7","634785034254942208","张","455","Male","[""坏他"",""好他"",""坏我"",""好我""]","[""弱他"",""强他"",""弱我"",""强我""]","","","","","","","","","","","","","","","","","","","","","","","","","","","","","","feedback_test","","","","","","","",""
"779","","j","psychophysics","56","889307","0.0-8.0-0.0-1.0-0.0-0.23","6","7","6","5","6","5","5","4","4","5","4","-1","-2","1","0","1","2","0","1","5","4","5","5","2","4","5","4","2","5","7","8","9","7","6","9","8","7","7","5","6","5","6","6","5","5","6","6","6","5","6","1","6","5","5","7","5","5","7","3","7","1","6","5","5","6","6","7","6","6","7","7","2","7","5","5","6","6","7","634785034254942208","张","455","Male","[""坏他"",""好他"",""坏我"",""好我""]","[""弱他"",""强他"",""弱我"",""强我""]","","","","","","","","match","","","","","","","","","","key","j","16.65322115384669","799.9999682108573","445.8333156175091","f","false","nonmatch","img/diamond.png","坏我","好我","prac_ALT2_moral","practice_moral","","","","","","","",""
"null","<span style='color:red; font-size: 70px;'>错误! </span>","null","html-keyboard-response","57","889808","0.0-8.0-0.0-1.0-0.0-1.23","6","7","6","5","6","5","5","4","4","5","4","-1","-2","1","0","1","2","0","1","5","4","5","5","2","4","5","4","2","5","7","8","9","7","6","9","8","7","7","5","6","5","6","6","5","5","6","6","6","5","6","1","6","5","5","7","5","5","7","3","7","1","6","5","5","6","6","7","6","6","7","7","2","7","5","5","6","6","7","634785034254942208","张","455","Male","[""坏他"",""好他"",""坏我"",""好我""]","[""弱他"",""强他"",""弱我"",""强我""]","","","","","","","","","","","","","","","","","","","","","","","","","","","","","","feedback_test","","","","","","","",""
"979","","j","psychophysics","58","891790","0.0-8.0-0.0-1.0-0.0-0.24","6","7","6","5","6","5","5","4","4","5","4","-1","-2","1","0","1","2","0","1","5","4","5","5","2","4","5","4","2","5","7","8","9","7","6","9","8","7","7","5","6","5","6","6","5","5","6","6","6","5","6","1","6","5","5","7","5","5","7","3","7","1","6","5","5","6","6","7","6","6","7","7","2","7","5","5","6","6","7","634785034254942208","张","455","Male","[""坏他"",""好他"",""坏我"",""好我""]","[""弱他"",""强他"",""弱我"",""强我""]","","","","","","","","match","","","","","","","","","","key","j","16.653432203389674","799.9999682108573","445.8333156175091","f","false","nonmatch","img/pentagon.png","好我","好他","prac_ALT2_moral","practice_moral","","","","","","","",""
"null","<span style='color:red; font-size: 70px;'>错误! </span>","null","html-keyboard-response","59","892291","0.0-8.0-0.0-1.0-0.0-1.24","6","7","6","5","6","5","5","4","4","5","4","-1","-2","1","0","1","2","0","1","5","4","5","5","2","4","5","4","2","5","7","8","9","7","6","9","8","7","7","5","6","5","6","6","5","5","6","6","6","5","6","1","6","5","5","7","5","5","7","3","7","1","6","5","5","6","6","7","6","6","7","7","2","7","5","5","6","6","7","634785034254942208","张","455","Male","[""坏他"",""好他"",""坏我"",""好我""]","[""弱他"",""强他"",""弱我"",""强我""]","","","","","","","","","","","","","","","","","","","","","","","","","","","","","","feedback_test","","","","","","","",""
"1116","","f","psychophysics","60","894408","0.0-8.0-0.0-1.0-0.0-0.25","6","7","6","5","6","5","5","4","4","5","4","-1","-2","1","0","1","2","0","1","5","4","5","5","2","4","5","4","2","5","7","8","9","7","6","9","8","7","7","5","6","5","6","6","5","5","6","6","6","5","6","1","6","5","5","7","5","5","7","3","7","1","6","5","5","6","6","7","6","6","7","7","2","7","5","5","6","6","7","634785034254942208","张","455","Male","[""坏他"",""好他"",""坏我"",""好我""]","[""弱他"",""强他"",""弱我"",""强我""]","","","","","","","","nonmatch","","","","","","","","","","key","f","16.653246031746097","799.9999682108573","445.8333156175091","f","true","nonmatch","img/pentagon.png","坏他","好他","prac_ALT2_moral","practice_moral","","","","","","","",""
"null","<span style='color:GreenYellow; font-size: 70px;'>正确! </span>","null","html-keyboard-response","61","894909","0.0-8.0-0.0-1.0-0.0-1.25","6","7","6","5","6","5","5","4","4","5","4","-1","-2","1","0","1","2","0","1","5","4","5","5","2","4","5","4","2","5","7","8","9","7","6","9","8","7","7","5","6","5","6","6","5","5","6","6","6","5","6","1","6","5","5","7","5","5","7","3","7","1","6","5","5","6","6","7","6","6","7","7","2","7","5","5","6","6","7","634785034254942208","张","455","Male","[""坏他"",""好他"",""坏我"",""好我""]","[""弱他"",""强他"",""弱我"",""强我""]","","","","","","","","","","","","","","","","","","","","","","","","","","","","","","feedback_test","","","","","","","",""
"710","","j","psychophysics","62","896622","0.0-8.0-0.0-1.0-0.0-0.26","6","7","6","5","6","5","5","4","4","5","4","-1","-2","1","0","1","2","0","1","5","4","5","5","2","4","5","4","2","5","7","8","9","7","6","9","8","7","7","5","6","5","6","6","5","5","6","6","6","5","6","1","6","5","5","7","5","5","7","3","7","1","6","5","5","6","6","7","6","6","7","7","2","7","5","5","6","6","7","634785034254942208","张","455","Male","[""坏他"",""好他"",""坏我"",""好我""]","[""弱他"",""强他"",""弱我"",""强我""]","","","","","","","","match","","","","","","","","","","key","j","16.653558823529988","799.9999682108573","445.8333156175091","j","true","match","img/pentagon.png","好他","好他","prac_ALT2_moral","practice_moral","","","","","","","",""
"null","<span style='color:GreenYellow; font-size: 70px;'>正确! </span>","null","html-keyboard-response","63","897123","0.0-8.0-0.0-1.0-0.0-1.26","6","7","6","5","6","5","5","4","4","5","4","-1","-2","1","0","1","2","0","1","5","4","5","5","2","4","5","4","2","5","7","8","9","7","6","9","8","7","7","5","6","5","6","6","5","5","6","6","6","5","6","1","6","5","5","7","5","5","7","3","7","1","6","5","5","6","6","7","6","6","7","7","2","7","5","5","6","6","7","634785034254942208","张","455","Male","[""坏他"",""好他"",""坏我"",""好我""]","[""弱他"",""强他"",""弱我"",""强我""]","","","","","","","","","","","","","","","","","","","","","","","","","","","","","","feedback_test","","","","","","","",""
"719","","j","psychophysics","64","898843","0.0-8.0-0.0-1.0-0.0-0.27","6","7","6","5","6","5","5","4","4","5","4","-1","-2","1","0","1","2","0","1","5","4","5","5","2","4","5","4","2","5","7","8","9","7","6","9","8","7","7","5","6","5","6","6","5","5","6","6","6","5","6","1","6","5","5","7","5","5","7","3","7","1","6","5","5","6","6","7","6","6","7","7","2","7","5","5","6","6","7","634785034254942208","张","455","Male","[""坏他"",""好他"",""坏我"",""好我""]","[""弱他"",""强他"",""弱我"",""强我""]","","","","","","","","match","","","","","","","","","","key","j","16.649921568627605","799.9999682108573","445.8333156175091","f","false","nonmatch","img/ellipse.png","坏我","坏他","prac_ALT2_moral","practice_moral","","","","","","","",""
"null","<span style='color:red; font-size: 70px;'>错误! </span>","null","html-keyboard-response","65","899343","0.0-8.0-0.0-1.0-0.0-1.27","6","7","6","5","6","5","5","4","4","5","4","-1","-2","1","0","1","2","0","1","5","4","5","5","2","4","5","4","2","5","7","8","9","7","6","9","8","7","7","5","6","5","6","6","5","5","6","6","6","5","6","1","6","5","5","7","5","5","7","3","7","1","6","5","5","6","6","7","6","6","7","7","2","7","5","5","6","6","7","634785034254942208","张","455","Male","[""坏他"",""好他"",""坏我"",""好我""]","[""弱他"",""强他"",""弱我"",""强我""]","","","","","","","","","","","","","","","","","","","","","","","","","","","","","","feedback_test","","","","","","","",""
"961","","j","psychophysics","66","901305","0.0-8.0-0.0-1.0-0.0-0.28","6","7","6","5","6","5","5","4","4","5","4","-1","-2","1","0","1","2","0","1","5","4","5","5","2","4","5","4","2","5","7","8","9","7","6","9","8","7","7","5","6","5","6","6","5","5","6","6","6","5","6","1","6","5","5","7","5","5","7","3","7","1","6","5","5","6","6","7","6","6","7","7","2","7","5","5","6","6","7","634785034254942208","张","455","Male","[""坏他"",""好他"",""坏我"",""好我""]","[""弱他"",""强他"",""弱我"",""强我""]","","","","","","","","match","","","","","","","","","","key","j","16.64977586206956","799.9999682108573","445.8333156175091","j","true","match","img/square.png","坏我","坏我","prac_ALT2_moral","practice_moral","","","","","","","",""
"null","<span style='color:GreenYellow; font-size: 70px;'>正确! </span>","null","html-keyboard-response","67","901806","0.0-8.0-0.0-1.0-0.0-1.28","6","7","6","5","6","5","5","4","4","5","4","-1","-2","1","0","1","2","0","1","5","4","5","5","2","4","5","4","2","5","7","8","9","7","6","9","8","7","7","5","6","5","6","6","5","5","6","6","6","5","6","1","6","5","5","7","5","5","7","3","7","1","6","5","5","6","6","7","6","6","7","7","2","7","5","5","6","6","7","634785034254942208","张","455","Male","[""坏他"",""好他"",""坏我"",""好我""]","[""弱他"",""强他"",""弱我"",""强我""]","","","","","","","","","","","","","","","","","","","","","","","","","","","","","","feedback_test","","","","","","","",""
"967","","f","psychophysics","68","903775","0.0-8.0-0.0-1.0-0.0-0.29","6","7","6","5","6","5","5","4","4","5","4","-1","-2","1","0","1","2","0","1","5","4","5","5","2","4","5","4","2","5","7","8","9","7","6","9","8","7","7","5","6","5","6","6","5","5","6","6","6","5","6","1","6","5","5","7","5","5","7","3","7","1","6","5","5","6","6","7","6","6","7","7","2","7","5","5","6","6","7","634785034254942208","张","455","Male","[""坏他"",""好他"",""坏我"",""好我""]","[""弱他"",""强他"",""弱我"",""强我""]","","","","","","","","nonmatch","","","","","","","","","","key","f","16.65327966101744","799.9999682108573","445.8333156175091","f","true","nonmatch","img/diamond.png","好他","好我","prac_ALT2_moral","practice_moral","","","","","","","",""
"null","<span style='color:GreenYellow; font-size: 70px;'>正确! </span>","null","html-keyboard-response","69","904280","0.0-8.0-0.0-1.0-0.0-1.29","6","7","6","5","6","5","5","4","4","5","4","-1","-2","1","0","1","2","0","1","5","4","5","5","2","4","5","4","2","5","7","8","9","7","6","9","8","7","7","5","6","5","6","6","5","5","6","6","6","5","6","1","6","5","5","7","5","5","7","3","7","1","6","5","5","6","6","7","6","6","7","7","2","7","5","5","6","6","7","634785034254942208","张","455","Male","[""坏他"",""好他"",""坏我"",""好我""]","[""弱他"",""强他"",""弱我"",""强我""]","","","","","","","","","","","","","","","","","","","","","","","","","","","","","","feedback_test","","","","","","","",""
"1145","","j","psychophysics","70","906427","0.0-8.0-0.0-1.0-0.0-0.30","6","7","6","5","6","5","5","4","4","5","4","-1","-2","1","0","1","2","0","1","5","4","5","5","2","4","5","4","2","5","7","8","9","7","6","9","8","7","7","5","6","5","6","6","5","5","6","6","6","5","6","1","6","5","5","7","5","5","7","3","7","1","6","5","5","6","6","7","6","6","7","7","2","7","5","5","6","6","7","634785034254942208","张","455","Male","[""坏他"",""好他"",""坏我"",""好我""]","[""弱他"",""强他"",""弱我"",""强我""]","","","","","","","","match","","","","","","","","","","key","j","16.653218750000633","799.9999682108573","445.8333156175091","f","false","nonmatch","img/square.png","坏他","坏我","prac_ALT2_moral","practice_moral","","","","","","","",""
"null","<span style='color:red; font-size: 70px;'>错误! </span>","null","html-keyboard-response","71","906927","0.0-8.0-0.0-1.0-0.0-1.30","6","7","6","5","6","5","5","4","4","5","4","-1","-2","1","0","1","2","0","1","5","4","5","5","2","4","5","4","2","5","7","8","9","7","6","9","8","7","7","5","6","5","6","6","5","5","6","6","6","5","6","1","6","5","5","7","5","5","7","3","7","1","6","5","5","6","6","7","6","6","7","7","2","7","5","5","6","6","7","634785034254942208","张","455","Male","[""坏他"",""好他"",""坏我"",""好我""]","[""弱他"",""强他"",""弱我"",""强我""]","","","","","","","","","","","","","","","","","","","","","","","","","","","","","","feedback_test","","","","","","","",""
"996","","j","psychophysics","72","908924","0.0-8.0-0.0-1.0-0.0-0.31","6","7","6","5","6","5","5","4","4","5","4","-1","-2","1","0","1","2","0","1","5","4","5","5","2","4","5","4","2","5","7","8","9","7","6","9","8","7","7","5","6","5","6","6","5","5","6","6","6","5","6","1","6","5","5","7","5","5","7","3","7","1","6","5","5","6","6","7","6","6","7","7","2","7","5","5","6","6","7","634785034254942208","张","455","Male","[""坏他"",""好他"",""坏我"",""好我""]","[""弱他"",""强他"",""弱我"",""强我""]","","","","","","","","match","","","","","","","","","","key","j","16.653983193277497","799.9999682108573","445.8333156175091","f","false","nonmatch","img/ellipse.png","好他","坏他","prac_ALT2_moral","practice_moral","","","","","","","",""
"null","<span style='color:red; font-size: 70px;'>错误! </span>","null","html-keyboard-response","73","909425","0.0-8.0-0.0-1.0-0.0-1.31","6","7","6","5","6","5","5","4","4","5","4","-1","-2","1","0","1","2","0","1","5","4","5","5","2","4","5","4","2","5","7","8","9","7","6","9","8","7","7","5","6","5","6","6","5","5","6","6","6","5","6","1","6","5","5","7","5","5","7","3","7","1","6","5","5","6","6","7","6","6","7","7","2","7","5","5","6","6","7","634785034254942208","张","455","Male","[""坏他"",""好他"",""坏我"",""好我""]","[""弱他"",""强他"",""弱我"",""强我""]","","","","","","","","","","","","","","","","","","","","","","","","","","","","","","feedback_test","","","","","","","",""
"972","","j","psychophysics","74","911399","0.0-8.0-0.0-1.0-0.0-0.32","6","7","6","5","6","5","5","4","4","5","4","-1","-2","1","0","1","2","0","1","5","4","5","5","2","4","5","4","2","5","7","8","9","7","6","9","8","7","7","5","6","5","6","6","5","5","6","6","6","5","6","1","6","5","5","7","5","5","7","3","7","1","6","5","5","6","6","7","6","6","7","7","2","7","5","5","6","6","7","634785034254942208","张","455","Male","[""坏他"",""好他"",""坏我"",""好我""]","[""弱他"",""强他"",""弱我"",""强我""]","","","","","","","","match","","","","","","","","","","key","j","16.6530769230772","799.9999682108573","445.8333156175091","j","true","match","img/diamond.png","好我","好我","prac_ALT2_moral","practice_moral","","","","","","","",""
"null","<span style='color:GreenYellow; font-size: 70px;'>正确! </span>","null","html-keyboard-response","75","911901","0.0-8.0-0.0-1.0-0.0-1.32","6","7","6","5","6","5","5","4","4","5","4","-1","-2","1","0","1","2","0","1","5","4","5","5","2","4","5","4","2","5","7","8","9","7","6","9","8","7","7","5","6","5","6","6","5","5","6","6","6","5","6","1","6","5","5","7","5","5","7","3","7","1","6","5","5","6","6","7","6","6","7","7","2","7","5","5","6","6","7","634785034254942208","张","455","Male","[""坏他"",""好他"",""坏我"",""好我""]","[""弱他"",""强他"",""弱我"",""强我""]","","","","","","","","","","","","","","","","","","","","","","","","","","","","","","feedback_test","","","","","","","",""
"767","","f","psychophysics","76","913670","0.0-8.0-0.0-1.0-0.0-0.33","6","7","6","5","6","5","5","4","4","5","4","-1","-2","1","0","1","2","0","1","5","4","5","5","2","4","5","4","2","5","7","8","9","7","6","9","8","7","7","5","6","5","6","6","5","5","6","6","6","5","6","1","6","5","5","7","5","5","7","3","7","1","6","5","5","6","6","7","6","6","7","7","2","7","5","5","6","6","7","634785034254942208","张","455","Male","[""坏他"",""好他"",""坏我"",""好我""]","[""弱他"",""强他"",""弱我"",""强我""]","","","","","","","","nonmatch","","","","","","","","","","key","f","16.652714285713486","799.9999682108573","445.8333156175091","j","false","match","img/diamond.png","好我","好我","prac_ALT2_moral","practice_moral","","","","","","","",""
"null","<span style='color:red; font-size: 70px;'>错误! </span>","null","html-keyboard-response","77","914172","0.0-8.0-0.0-1.0-0.0-1.33","6","7","6","5","6","5","5","4","4","5","4","-1","-2","1","0","1","2","0","1","5","4","5","5","2","4","5","4","2","5","7","8","9","7","6","9","8","7","7","5","6","5","6","6","5","5","6","6","6","5","6","1","6","5","5","7","5","5","7","3","7","1","6","5","5","6","6","7","6","6","7","7","2","7","5","5","6","6","7","634785034254942208","张","455","Male","[""坏他"",""好他"",""坏我"",""好我""]","[""弱他"",""强他"",""弱我"",""强我""]","","","","","","","","","","","","","","","","","","","","","","","","","","","","","","feedback_test","","","","","","","",""
"915","","j","psychophysics","78","916088","0.0-8.0-0.0-1.0-0.0-0.34","6","7","6","5","6","5","5","4","4","5","4","-1","-2","1","0","1","2","0","1","5","4","5","5","2","4","5","4","2","5","7","8","9","7","6","9","8","7","7","5","6","5","6","6","5","5","6","6","6","5","6","1","6","5","5","7","5","5","7","3","7","1","6","5","5","6","6","7","6","6","7","7","2","7","5","5","6","6","7","634785034254942208","张","455","Male","[""坏他"",""好他"",""坏我"",""好我""]","[""弱他"",""强他"",""弱我"",""强我""]","","","","","","","","match","","","","","","","","","","key","j","16.653429824561737","799.9999682108573","445.8333156175091","j","true","match","img/square.png","坏我","坏我","prac_ALT2_moral","practice_moral","","","","","","","",""
"null","<span style='color:GreenYellow; font-size: 70px;'>正确! </span>","null","html-keyboard-response","79","916590","0.0-8.0-0.0-1.0-0.0-1.34","6","7","6","5","6","5","5","4","4","5","4","-1","-2","1","0","1","2","0","1","5","4","5","5","2","4","5","4","2","5","7","8","9","7","6","9","8","7","7","5","6","5","6","6","5","5","6","6","6","5","6","1","6","5","5","7","5","5","7","3","7","1","6","5","5","6","6","7","6","6","7","7","2","7","5","5","6","6","7","634785034254942208","张","455","Male","[""坏他"",""好他"",""坏我"",""好我""]","[""弱他"",""强他"",""弱我"",""强我""]","","","","","","","","","","","","","","","","","","","","","","","","","","","","","","feedback_test","","","","","","","",""
"791","","j","psychophysics","80","918383","0.0-8.0-0.0-1.0-0.0-0.35","6","7","6","5","6","5","5","4","4","5","4","-1","-2","1","0","1","2","0","1","5","4","5","5","2","4","5","4","2","5","7","8","9","7","6","9","8","7","7","5","6","5","6","6","5","5","6","6","6","5","6","1","6","5","5","7","5","5","7","3","7","1","6","5","5","6","6","7","6","6","7","7","2","7","5","5","6","6","7","634785034254942208","张","455","Male","[""坏他"",""好他"",""坏我"",""好我""]","[""弱他"",""强他"",""弱我"",""强我""]","","","","","","","","match","","","","","","","","","","key","j","16.653429906542204","799.9999682108573","445.8333156175091","j","true","match","img/square.png","坏我","坏我","prac_ALT2_moral","practice_moral","","","","","","","",""
"null","<span style='color:GreenYellow; font-size: 70px;'>正确! </span>","null","html-keyboard-response","81","918884","0.0-8.0-0.0-1.0-0.0-1.35","6","7","6","5","6","5","5","4","4","5","4","-1","-2","1","0","1","2","0","1","5","4","5","5","2","4","5","4","2","5","7","8","9","7","6","9","8","7","7","5","6","5","6","6","5","5","6","6","6","5","6","1","6","5","5","7","5","5","7","3","7","1","6","5","5","6","6","7","6","6","7","7","2","7","5","5","6","6","7","634785034254942208","张","455","Male","[""坏他"",""好他"",""坏我"",""好我""]","[""弱他"",""强他"",""弱我"",""强我""]","","","","","","","","","","","","","","","","","","","","","","","","","","","","","","feedback_test","","","","","","","",""
"933","","j","psychophysics","82","920818","0.0-8.0-0.0-1.0-0.0-0.36","6","7","6","5","6","5","5","4","4","5","4","-1","-2","1","0","1","2","0","1","5","4","5","5","2","4","5","4","2","5","7","8","9","7","6","9","8","7","7","5","6","5","6","6","5","5","6","6","6","5","6","1","6","5","5","7","5","5","7","3","7","1","6","5","5","6","6","7","6","6","7","7","2","7","5","5","6","6","7","634785034254942208","张","455","Male","[""坏他"",""好他"",""坏我"",""好我""]","[""弱他"",""强他"",""弱我"",""强我""]","","","","","","","","match","","","","","","","","","","key","j","16.65330434782613","799.9999682108573","445.8333156175091","f","false","nonmatch","img/ellipse.png","好我","坏他","prac_ALT2_moral","practice_moral","","","","","","","",""
"null","<span style='color:red; font-size: 70px;'>错误! </span>","null","html-keyboard-response","83","921320","0.0-8.0-0.0-1.0-0.0-1.36","6","7","6","5","6","5","5","4","4","5","4","-1","-2","1","0","1","2","0","1","5","4","5","5","2","4","5","4","2","5","7","8","9","7","6","9","8","7","7","5","6","5","6","6","5","5","6","6","6","5","6","1","6","5","5","7","5","5","7","3","7","1","6","5","5","6","6","7","6","6","7","7","2","7","5","5","6","6","7","634785034254942208","张","455","Male","[""坏他"",""好他"",""坏我"",""好我""]","[""弱他"",""强他"",""弱我"",""强我""]","","","","","","","","","","","","","","","","","","","","","","","","","","","","","","feedback_test","","","","","","","",""
"949","","f","psychophysics","84","923270","0.0-8.0-0.0-1.0-0.0-0.37","6","7","6","5","6","5","5","4","4","5","4","-1","-2","1","0","1","2","0","1","5","4","5","5","2","4","5","4","2","5","7","8","9","7","6","9","8","7","7","5","6","5","6","6","5","5","6","6","6","5","6","1","6","5","5","7","5","5","7","3","7","1","6","5","5","6","6","7","6","6","7","7","2","7","5","5","6","6","7","634785034254942208","张","455","Male","[""坏他"",""好他"",""坏我"",""好我""]","[""弱他"",""强他"",""弱我"",""强我""]","","","","","","","","nonmatch","","","","","","","","","","key","f","16.653517241379976","799.9999682108573","445.8333156175091","f","true","nonmatch","img/square.png","好他","坏我","prac_ALT2_moral","practice_moral","","","","","","","",""
"null","<span style='color:GreenYellow; font-size: 70px;'>正确! </span>","null","html-keyboard-response","85","923771","0.0-8.0-0.0-1.0-0.0-1.37","6","7","6","5","6","5","5","4","4","5","4","-1","-2","1","0","1","2","0","1","5","4","5","5","2","4","5","4","2","5","7","8","9","7","6","9","8","7","7","5","6","5","6","6","5","5","6","6","6","5","6","1","6","5","5","7","5","5","7","3","7","1","6","5","5","6","6","7","6","6","7","7","2","7","5","5","6","6","7","634785034254942208","张","455","Male","[""坏他"",""好他"",""坏我"",""好我""]","[""弱他"",""强他"",""弱我"",""强我""]","","","","","","","","","","","","","","","","","","","","","","","","","","","","","","feedback_test","","","","","","","",""
"1017","","j","psychophysics","86","925790","0.0-8.0-0.0-1.0-0.0-0.38","6","7","6","5","6","5","5","4","4","5","4","-1","-2","1","0","1","2","0","1","5","4","5","5","2","4","5","4","2","5","7","8","9","7","6","9","8","7","7","5","6","5","6","6","5","5","6","6","6","5","6","1","6","5","5","7","5","5","7","3","7","1","6","5","5","6","6","7","6","6","7","7","2","7","5","5","6","6","7","634785034254942208","张","455","Male","[""坏他"",""好他"",""坏我"",""好我""]","[""弱他"",""强他"",""弱我"",""强我""]","","","","","","","","match","","","","","","","","","","key","j","16.65335537190068","799.9999682108573","445.8333156175091","j","true","match","img/ellipse.png","坏他","坏他","prac_ALT2_moral","practice_moral","","","","","","","",""
"null","<span style='color:GreenYellow; font-size: 70px;'>正确! </span>","null","html-keyboard-response","87","926295","0.0-8.0-0.0-1.0-0.0-1.38","6","7","6","5","6","5","5","4","4","5","4","-1","-2","1","0","1","2","0","1","5","4","5","5","2","4","5","4","2","5","7","8","9","7","6","9","8","7","7","5","6","5","6","6","5","5","6","6","6","5","6","1","6","5","5","7","5","5","7","3","7","1","6","5","5","6","6","7","6","6","7","7","2","7","5","5","6","6","7","634785034254942208","张","455","Male","[""坏他"",""好他"",""坏我"",""好我""]","[""弱他"",""强他"",""弱我"",""强我""]","","","","","","","","","","","","","","","","","","","","","","","","","","","","","","feedback_test","","","","","","","",""
"1059","","f","psychophysics","88","928356","0.0-8.0-0.0-1.0-0.0-0.39","6","7","6","5","6","5","5","4","4","5","4","-1","-2","1","0","1","2","0","1","5","4","5","5","2","4","5","4","2","5","7","8","9","7","6","9","8","7","7","5","6","5","6","6","5","5","6","6","6","5","6","1","6","5","5","7","5","5","7","3","7","1","6","5","5","6","6","7","6","6","7","7","2","7","5","5","6","6","7","634785034254942208","张","455","Male","[""坏他"",""好他"",""坏我"",""好我""]","[""弱他"",""强他"",""弱我"",""强我""]","","","","","","","","nonmatch","","","","","","","","","","key","f","16.653398373983876","799.9999682108573","445.8333156175091","j","false","match","img/pentagon.png","好他","好他","prac_ALT2_moral","practice_moral","","","","","","","",""
"null","<span style='color:red; font-size: 70px;'>错误! </span>","null","html-keyboard-response","89","928868","0.0-8.0-0.0-1.0-0.0-1.39","6","7","6","5","6","5","5","4","4","5","4","-1","-2","1","0","1","2","0","1","5","4","5","5","2","4","5","4","2","5","7","8","9","7","6","9","8","7","7","5","6","5","6","6","5","5","6","6","6","5","6","1","6","5","5","7","5","5","7","3","7","1","6","5","5","6","6","7","6","6","7","7","2","7","5","5","6","6","7","634785034254942208","张","455","Male","[""坏他"",""好他"",""坏我"",""好我""]","[""弱他"",""强他"",""弱我"",""强我""]","","","","","","","","","","","","","","","","","","","","","","","","","","","","","","feedback_test","","","","","","","",""
"898","","f","psychophysics","90","930767","0.0-8.0-0.0-1.0-0.0-0.40","6","7","6","5","6","5","5","4","4","5","4","-1","-2","1","0","1","2","0","1","5","4","5","5","2","4","5","4","2","5","7","8","9","7","6","9","8","7","7","5","6","5","6","6","5","5","6","6","6","5","6","1","6","5","5","7","5","5","7","3","7","1","6","5","5","6","6","7","6","6","7","7","2","7","5","5","6","6","7","634785034254942208","张","455","Male","[""坏他"",""好他"",""坏我"",""好我""]","[""弱他"",""强他"",""弱我"",""强我""]","","","","","","","","nonmatch","","","","","","","","","","key","f","16.653477876106138","799.9999682108573","445.8333156175091","f","true","nonmatch","img/pentagon.png","坏我","好他","prac_ALT2_moral","practice_moral","","","","","","","",""
"null","<span style='color:GreenYellow; font-size: 70px;'>正确! </span>","null","html-keyboard-response","91","931268","0.0-8.0-0.0-1.0-0.0-1.40","6","7","6","5","6","5","5","4","4","5","4","-1","-2","1","0","1","2","0","1","5","4","5","5","2","4","5","4","2","5","7","8","9","7","6","9","8","7","7","5","6","5","6","6","5","5","6","6","6","5","6","1","6","5","5","7","5","5","7","3","7","1","6","5","5","6","6","7","6","6","7","7","2","7","5","5","6","6","7","634785034254942208","张","455","Male","[""坏他"",""好他"",""坏我"",""好我""]","[""弱他"",""强他"",""弱我"",""强我""]","","","","","","","","","","","","","","","","","","","","","","","","","","","","","","feedback_test","","","","","","","",""
"824","","j","psychophysics","92","933094","0.0-8.0-0.0-1.0-0.0-0.41","6","7","6","5","6","5","5","4","4","5","4","-1","-2","1","0","1","2","0","1","5","4","5","5","2","4","5","4","2","5","7","8","9","7","6","9","8","7","7","5","6","5","6","6","5","5","6","6","6","5","6","1","6","5","5","7","5","5","7","3","7","1","6","5","5","6","6","7","6","6","7","7","2","7","5","5","6","6","7","634785034254942208","张","455","Male","[""坏他"",""好他"",""坏我"",""好我""]","[""弱他"",""强他"",""弱我"",""强我""]","","","","","","","","match","","","","","","","","","","key","j","16.653851851851126","799.9999682108573","445.8333156175091","j","true","match","img/diamond.png","好我","好我","prac_ALT2_moral","practice_moral","","","","","","","",""
"null","<span style='color:GreenYellow; font-size: 70px;'>正确! </span>","null","html-keyboard-response","93","933597","0.0-8.0-0.0-1.0-0.0-1.41","6","7","6","5","6","5","5","4","4","5","4","-1","-2","1","0","1","2","0","1","5","4","5","5","2","4","5","4","2","5","7","8","9","7","6","9","8","7","7","5","6","5","6","6","5","5","6","6","6","5","6","1","6","5","5","7","5","5","7","3","7","1","6","5","5","6","6","7","6","6","7","7","2","7","5","5","6","6","7","634785034254942208","张","455","Male","[""坏他"",""好他"",""坏我"",""好我""]","[""弱他"",""强他"",""弱我"",""强我""]","","","","","","","","","","","","","","","","","","","","","","","","","","","","","","feedback_test","","","","","","","",""
"1087","","j","psychophysics","94","935686","0.0-8.0-0.0-1.0-0.0-0.42","6","7","6","5","6","5","5","4","4","5","4","-1","-2","1","0","1","2","0","1","5","4","5","5","2","4","5","4","2","5","7","8","9","7","6","9","8","7","7","5","6","5","6","6","5","5","6","6","6","5","6","1","6","5","5","7","5","5","7","3","7","1","6","5","5","6","6","7","6","6","7","7","2","7","5","5","6","6","7","634785034254942208","张","455","Male","[""坏他"",""好他"",""坏我"",""好我""]","[""弱他"",""强他"",""弱我"",""强我""]","","","","","","","","match","","","","","","","","","","key","j","16.654031999999656","799.9999682108573","445.8333156175091","j","true","match","img/ellipse.png","坏他","坏他","prac_ALT2_moral","practice_moral","","","","","","","",""
"null","<span style='color:GreenYellow; font-size: 70px;'>正确! </span>","null","html-keyboard-response","95","936186","0.0-8.0-0.0-1.0-0.0-1.42","6","7","6","5","6","5","5","4","4","5","4","-1","-2","1","0","1","2","0","1","5","4","5","5","2","4","5","4","2","5","7","8","9","7","6","9","8","7","7","5","6","5","6","6","5","5","6","6","6","5","6","1","6","5","5","7","5","5","7","3","7","1","6","5","5","6","6","7","6","6","7","7","2","7","5","5","6","6","7","634785034254942208","张","455","Male","[""坏他"",""好他"",""坏我"",""好我""]","[""弱他"",""强他"",""弱我"",""强我""]","","","","","","","","","","","","","","","","","","","","","","","","","","","","","","feedback_test","","","","","","","",""
"1005","","f","psychophysics","96","938193","0.0-8.0-0.0-1.0-0.0-0.43","6","7","6","5","6","5","5","4","4","5","4","-1","-2","1","0","1","2","0","1","5","4","5","5","2","4","5","4","2","5","7","8","9","7","6","9","8","7","7","5","6","5","6","6","5","5","6","6","6","5","6","1","6","5","5","7","5","5","7","3","7","1","6","5","5","6","6","7","6","6","7","7","2","7","5","5","6","6","7","634785034254942208","张","455","Male","[""坏他"",""好他"",""坏我"",""好我""]","[""弱他"",""强他"",""弱我"",""强我""]","","","","","","","","nonmatch","","","","","","","","","","key","f","16.653764705881947","799.9999682108573","445.8333156175091","f","true","nonmatch","img/diamond.png","坏他","好我","prac_ALT2_moral","practice_moral","","","","","","","",""
"null","<span style='color:GreenYellow; font-size: 70px;'>正确! </span>","null","html-keyboard-response","97","938694","0.0-8.0-0.0-1.0-0.0-1.43","6","7","6","5","6","5","5","4","4","5","4","-1","-2","1","0","1","2","0","1","5","4","5","5","2","4","5","4","2","5","7","8","9","7","6","9","8","7","7","5","6","5","6","6","5","5","6","6","6","5","6","1","6","5","5","7","5","5","7","3","7","1","6","5","5","6","6","7","6","6","7","7","2","7","5","5","6","6","7","634785034254942208","张","455","Male","[""坏他"",""好他"",""坏我"",""好我""]","[""弱他"",""强他"",""弱我"",""强我""]","","","","","","","","","","","","","","","","","","","","","","","","","","","","","","feedback_test","","","","","","","",""
"1040","","j","psychophysics","98","940735","0.0-8.0-0.0-1.0-0.0-0.44","6","7","6","5","6","5","5","4","4","5","4","-1","-2","1","0","1","2","0","1","5","4","5","5","2","4","5","4","2","5","7","8","9","7","6","9","8","7","7","5","6","5","6","6","5","5","6","6","6","5","6","1","6","5","5","7","5","5","7","3","7","1","6","5","5","6","6","7","6","6","7","7","2","7","5","5","6","6","7","634785034254942208","张","455","Male","[""坏他"",""好他"",""坏我"",""好我""]","[""弱他"",""强他"",""弱我"",""强我""]","","","","","","","","match","","","","","","","","","","key","j","16.64921487603252","799.9999682108573","445.8333156175091","j","true","match","img/ellipse.png","坏他","坏他","prac_ALT2_moral","practice_moral","","","","","","","",""
"null","<span style='color:GreenYellow; font-size: 70px;'>正确! </span>","null","html-keyboard-response","99","941237","0.0-8.0-0.0-1.0-0.0-1.44","6","7","6","5","6","5","5","4","4","5","4","-1","-2","1","0","1","2","0","1","5","4","5","5","2","4","5","4","2","5","7","8","9","7","6","9","8","7","7","5","6","5","6","6","5","5","6","6","6","5","6","1","6","5","5","7","5","5","7","3","7","1","6","5","5","6","6","7","6","6","7","7","2","7","5","5","6","6","7","634785034254942208","张","455","Male","[""坏他"",""好他"",""坏我"",""好我""]","[""弱他"",""强他"",""弱我"",""强我""]","","","","","","","","","","","","","","","","","","","","","","","","","","","","","","feedback_test","","","","","","","",""
"1006","","f","psychophysics","100","943245","0.0-8.0-0.0-1.0-0.0-0.45","6","7","6","5","6","5","5","4","4","5","4","-1","-2","1","0","1","2","0","1","5","4","5","5","2","4","5","4","2","5","7","8","9","7","6","9","8","7","7","5","6","5","6","6","5","5","6","6","6","5","6","1","6","5","5","7","5","5","7","3","7","1","6","5","5","6","6","7","6","6","7","7","2","7","5","5","6","6","7","634785034254942208","张","455","Male","[""坏他"",""好他"",""坏我"",""好我""]","[""弱他"",""强他"",""弱我"",""强我""]","","","","","","","","nonmatch","","","","","","","","","","key","f","16.652250000000155","799.9999682108573","445.8333156175091","f","true","nonmatch","img/diamond.png","坏我","好我","prac_ALT2_moral","practice_moral","","","","","","","",""
"null","<span style='color:GreenYellow; font-size: 70px;'>正确! </span>","null","html-keyboard-response","101","943755","0.0-8.0-0.0-1.0-0.0-1.45","6","7","6","5","6","5","5","4","4","5","4","-1","-2","1","0","1","2","0","1","5","4","5","5","2","4","5","4","2","5","7","8","9","7","6","9","8","7","7","5","6","5","6","6","5","5","6","6","6","5","6","1","6","5","5","7","5","5","7","3","7","1","6","5","5","6","6","7","6","6","7","7","2","7","5","5","6","6","7","634785034254942208","张","455","Male","[""坏他"",""好他"",""坏我"",""好我""]","[""弱他"",""强他"",""弱我"",""强我""]","","","","","","","","","","","","","","","","","","","","","","","","","","","","","","feedback_test","","","","","","","",""
"884","","j","psychophysics","102","945642","0.0-8.0-0.0-1.0-0.0-0.46","6","7","6","5","6","5","5","4","4","5","4","-1","-2","1","0","1","2","0","1","5","4","5","5","2","4","5","4","2","5","7","8","9","7","6","9","8","7","7","5","6","5","6","6","5","5","6","6","6","5","6","1","6","5","5","7","5","5","7","3","7","1","6","5","5","6","6","7","6","6","7","7","2","7","5","5","6","6","7","634785034254942208","张","455","Male","[""坏他"",""好他"",""坏我"",""好我""]","[""弱他"",""强他"",""弱我"",""强我""]","","","","","","","","match","","","","","","","","","","key","j","16.654150442477828","799.9999682108573","445.8333156175091","f","false","nonmatch","img/square.png","好我","坏我","prac_ALT2_moral","practice_moral","","","","","","","",""
"null","<span style='color:red; font-size: 70px;'>错误! </span>","null","html-keyboard-response","103","946145","0.0-8.0-0.0-1.0-0.0-1.46","6","7","6","5","6","5","5","4","4","5","4","-1","-2","1","0","1","2","0","1","5","4","5","5","2","4","5","4","2","5","7","8","9","7","6","9","8","7","7","5","6","5","6","6","5","5","6","6","6","5","6","1","6","5","5","7","5","5","7","3","7","1","6","5","5","6","6","7","6","6","7","7","2","7","5","5","6","6","7","634785034254942208","张","455","Male","[""坏他"",""好他"",""坏我"",""好我""]","[""弱他"",""强他"",""弱我"",""强我""]","","","","","","","","","","","","","","","","","","","","","","","","","","","","","","feedback_test","","","","","","","",""
"844","","j","psychophysics","104","947991","0.0-8.0-0.0-1.0-0.0-0.47","6","7","6","5","6","5","5","4","4","5","4","-1","-2","1","0","1","2","0","1","5","4","5","5","2","4","5","4","2","5","7","8","9","7","6","9","8","7","7","5","6","5","6","6","5","5","6","6","6","5","6","1","6","5","5","7","5","5","7","3","7","1","6","5","5","6","6","7","6","6","7","7","2","7","5","5","6","6","7","634785034254942208","张","455","Male","[""坏他"",""好他"",""坏我"",""好我""]","[""弱他"",""强他"",""弱我"",""强我""]","","","","","","","","match","","","","","","","","","","key","j","16.653227272727104","799.9999682108573","445.8333156175091","j","true","match","img/pentagon.png","好他","好他","prac_ALT2_moral","practice_moral","","","","","","","",""
"null","<span style='color:GreenYellow; font-size: 70px;'>正确! </span>","null","html-keyboard-response","105","948496","0.0-8.0-0.0-1.0-0.0-1.47","6","7","6","5","6","5","5","4","4","5","4","-1","-2","1","0","1","2","0","1","5","4","5","5","2","4","5","4","2","5","7","8","9","7","6","9","8","7","7","5","6","5","6","6","5","5","6","6","6","5","6","1","6","5","5","7","5","5","7","3","7","1","6","5","5","6","6","7","6","6","7","7","2","7","5","5","6","6","7","634785034254942208","张","455","Male","[""坏他"",""好他"",""坏我"",""好我""]","[""弱他"",""强他"",""弱我"",""强我""]","","","","","","","","","","","","","","","","","","","","","","","","","","","","","","feedback_test","","","","","","","",""
"18122","<style>.context{color:white; font-size: 35px; line-height:40px}</style>                            <div><p class='context'>您正确回答了71% 的试次。</p><p class='context'>您的平均反应时为931毫秒。</p><p class='context'>恭喜您完成练习。按空格键进入正式实验。</p><p class='footer' style='font-size: 35px; line-height:40px;'>请在进入正式实验实验之前将您的<span style='color: lightgreen;'>食指</span>放在电脑键盘的相应键位上进行按键。</p>"," ","html-keyboard-response","106","966621","0.0-8.0-0.0-2.0","6","7","6","5","6","5","5","4","4","5","4","-1","-2","1","0","1","2","0","1","5","4","5","5","2","4","5","4","2","5","7","8","9","7","6","9","8","7","7","5","6","5","6","6","5","5","6","6","6","5","6","1","6","5","5","7","5","5","7","3","7","1","6","5","5","6","6","7","6","6","7","7","2","7","5","5","6","6","7","634785034254942208","张","455","Male","[""坏他"",""好他"",""坏我"",""好我""]","[""弱他"",""强他"",""弱我"",""强我""]","","","","","","","","","","","","","","","","","","","","","","","","","","","","","","","","","","","","","",""
"735","
    <p style='color: white; font-size: 22px'>请您将手指放在按键上，准备进入正式的匹配任务。</p>
    <p> <div style = ""color: green""><按空格键进入下一阶段的匹配任务></div></p>
    "," ","html-keyboard-response","107","967360","0.0-8.0-0.0-3.0","6","7","6","5","6","5","5","4","4","5","4","-1","-2","1","0","1","2","0","1","5","4","5","5","2","4","5","4","2","5","7","8","9","7","6","9","8","7","7","5","6","5","6","6","5","5","6","6","6","5","6","1","6","5","5","7","5","5","7","3","7","1","6","5","5","6","6","7","6","6","7","7","2","7","5","5","6","6","7","634785034254942208","张","455","Male","[""坏他"",""好他"",""坏我"",""好我""]","[""弱他"",""强他"",""弱我"",""强我""]","","","","","","","","","","","","","","","","","","","","","","","","","","","","","","","","","","","","","",""
"701","","j","psychophysics","108","969064","0.0-8.0-0.0-4.0-0.0-0.0","6","7","6","5","6","5","5","4","4","5","4","-1","-2","1","0","1","2","0","1","5","4","5","5","2","4","5","4","2","5","7","8","9","7","6","9","8","7","7","5","6","5","6","6","5","5","6","6","6","5","6","1","6","5","5","7","5","5","7","3","7","1","6","5","5","6","6","7","6","6","7","7","2","7","5","5","6","6","7","634785034254942208","张","455","Male","[""坏他"",""好他"",""坏我"",""好我""]","[""弱他"",""强他"",""弱我"",""强我""]","","","","","","","","match","","","","","","","","","","key","j","16.653297029703044","799.9999682108573","445.8333156175091","j","true","match","img/square.png","坏我","坏我","ALT2","moral","","","","","","","",""
"null","<span style='color:GreenYellow; font-size: 70px;'>正确! </span>","null","html-keyboard-response","109","969565","0.0-8.0-0.0-4.0-0.0-1.0","6","7","6","5","6","5","5","4","4","5","4","-1","-2","1","0","1","2","0","1","5","4","5","5","2","4","5","4","2","5","7","8","9","7","6","9","8","7","7","5","6","5","6","6","5","5","6","6","6","5","6","1","6","5","5","7","5","5","7","3","7","1","6","5","5","6","6","7","6","6","7","7","2","7","5","5","6","6","7","634785034254942208","张","455","Male","[""坏他"",""好他"",""坏我"",""好我""]","[""弱他"",""强他"",""弱我"",""强我""]","","","","","","","","","","","","","","","","","","","","","","","","","","","","","","feedback_test","","","","","","","",""
"null","","null","psychophysics","110","971770","0.0-8.0-0.0-4.0-0.0-0.1","6","7","6","5","6","5","5","4","4","5","4","-1","-2","1","0","1","2","0","1","5","4","5","5","2","4","5","4","2","5","7","8","9","7","6","9","8","7","7","5","6","5","6","6","5","5","6","6","6","5","6","1","6","5","5","7","5","5","7","3","7","1","6","5","5","6","6","7","6","6","7","7","2","7","5","5","6","6","7","634785034254942208","张","455","Male","[""坏他"",""好他"",""坏我"",""好我""]","[""弱他"",""强他"",""弱我"",""强我""]","","","","","","","","null","","","","","","","","","","key","null","16.65343511450364","799.9999682108573","445.8333156175091","j","false","match","img/pentagon.png","好他","好他","ALT2","moral","","","","","","","",""
"null","<span class='add_' style='color:yellow; font-size: 70px;'> 太慢! </span>","null","html-keyboard-response","111","972272","0.0-8.0-0.0-4.0-0.0-1.1","6","7","6","5","6","5","5","4","4","5","4","-1","-2","1","0","1","2","0","1","5","4","5","5","2","4","5","4","2","5","7","8","9","7","6","9","8","7","7","5","6","5","6","6","5","5","6","6","6","5","6","1","6","5","5","7","5","5","7","3","7","1","6","5","5","6","6","7","6","6","7","7","2","7","5","5","6","6","7","634785034254942208","张","455","Male","[""坏他"",""好他"",""坏我"",""好我""]","[""弱他"",""强他"",""弱我"",""强我""]","","","","","","","","","","","","","","","","","","","","","","","","","","","","","","feedback_test","","","","","","","",""
"637","","f","psychophysics","112","973911","0.0-8.0-0.0-4.0-0.0-0.2","6","7","6","5","6","5","5","4","4","5","4","-1","-2","1","0","1","2","0","1","5","4","5","5","2","4","5","4","2","5","7","8","9","7","6","9","8","7","7","5","6","5","6","6","5","5","6","6","6","5","6","1","6","5","5","7","5","5","7","3","7","1","6","5","5","6","6","7","6","6","7","7","2","7","5","5","6","6","7","634785034254942208","张","455","Male","[""坏他"",""好他"",""坏我"",""好我""]","[""弱他"",""强他"",""弱我"",""强我""]","","","","","","","","nonmatch","","","","","","","","","","key","f","16.654298969071608","799.9999682108573","445.8333156175091","f","true","nonmatch","img/ellipse.png","好我","坏他","ALT2","moral","","","","","","","",""
"null","<span style='color:GreenYellow; font-size: 70px;'>正确! </span>","null","html-keyboard-response","113","974412","0.0-8.0-0.0-4.0-0.0-1.2","6","7","6","5","6","5","5","4","4","5","4","-1","-2","1","0","1","2","0","1","5","4","5","5","2","4","5","4","2","5","7","8","9","7","6","9","8","7","7","5","6","5","6","6","5","5","6","6","6","5","6","1","6","5","5","7","5","5","7","3","7","1","6","5","5","6","6","7","6","6","7","7","2","7","5","5","6","6","7","634785034254942208","张","455","Male","[""坏他"",""好他"",""坏我"",""好我""]","[""弱他"",""强他"",""弱我"",""强我""]","","","","","","","","","","","","","","","","","","","","","","","","","","","","","","feedback_test","","","","","","","",""
"729","","j","psychophysics","114","976142","0.0-8.0-0.0-4.0-0.0-0.3","6","7","6","5","6","5","5","4","4","5","4","-1","-2","1","0","1","2","0","1","5","4","5","5","2","4","5","4","2","5","7","8","9","7","6","9","8","7","7","5","6","5","6","6","5","5","6","6","6","5","6","1","6","5","5","7","5","5","7","3","7","1","6","5","5","6","6","7","6","6","7","7","2","7","5","5","6","6","7","634785034254942208","张","455","Male","[""坏他"",""好他"",""坏我"",""好我""]","[""弱他"",""强他"",""弱我"",""强我""]","","","","","","","","match","","","","","","","","","","key","j","16.654349514562412","799.9999682108573","445.8333156175091","j","true","match","img/square.png","坏我","坏我","ALT2","moral","","","","","","","",""
"null","<span style='color:GreenYellow; font-size: 70px;'>正确! </span>","null","html-keyboard-response","115","976644","0.0-8.0-0.0-4.0-0.0-1.3","6","7","6","5","6","5","5","4","4","5","4","-1","-2","1","0","1","2","0","1","5","4","5","5","2","4","5","4","2","5","7","8","9","7","6","9","8","7","7","5","6","5","6","6","5","5","6","6","6","5","6","1","6","5","5","7","5","5","7","3","7","1","6","5","5","6","6","7","6","6","7","7","2","7","5","5","6","6","7","634785034254942208","张","455","Male","[""坏他"",""好他"",""坏我"",""好我""]","[""弱他"",""强他"",""弱我"",""强我""]","","","","","","","","","","","","","","","","","","","","","","","","","","","","","","feedback_test","","","","","","","",""
"908","","j","psychophysics","116","978553","0.0-8.0-0.0-4.0-0.0-0.4","6","7","6","5","6","5","5","4","4","5","4","-1","-2","1","0","1","2","0","1","5","4","5","5","2","4","5","4","2","5","7","8","9","7","6","9","8","7","7","5","6","5","6","6","5","5","6","6","6","5","6","1","6","5","5","7","5","5","7","3","7","1","6","5","5","6","6","7","6","6","7","7","2","7","5","5","6","6","7","634785034254942208","张","455","Male","[""坏他"",""好他"",""坏我"",""好我""]","[""弱他"",""强他"",""弱我"",""强我""]","","","","","","","","match","","","","","","","","","","key","j","16.65249122807086","799.9999682108573","445.8333156175091","f","false","nonmatch","img/pentagon.png","坏他","好他","ALT2","moral","","","","","","","",""
"null","<span style='color:red; font-size: 70px;'>错误! </span>","null","html-keyboard-response","117","979054","0.0-8.0-0.0-4.0-0.0-1.4","6","7","6","5","6","5","5","4","4","5","4","-1","-2","1","0","1","2","0","1","5","4","5","5","2","4","5","4","2","5","7","8","9","7","6","9","8","7","7","5","6","5","6","6","5","5","6","6","6","5","6","1","6","5","5","7","5","5","7","3","7","1","6","5","5","6","6","7","6","6","7","7","2","7","5","5","6","6","7","634785034254942208","张","455","Male","[""坏他"",""好他"",""坏我"",""好我""]","[""弱他"",""强他"",""弱我"",""强我""]","","","","","","","","","","","","","","","","","","","","","","","","","","","","","","feedback_test","","","","","","","",""
"743","","f","psychophysics","118","980798","0.0-8.0-0.0-4.0-0.0-0.5","6","7","6","5","6","5","5","4","4","5","4","-1","-2","1","0","1","2","0","1","5","4","5","5","2","4","5","4","2","5","7","8","9","7","6","9","8","7","7","5","6","5","6","6","5","5","6","6","6","5","6","1","6","5","5","7","5","5","7","3","7","1","6","5","5","6","6","7","6","6","7","7","2","7","5","5","6","6","7","634785034254942208","张","455","Male","[""坏他"",""好他"",""坏我"",""好我""]","[""弱他"",""强他"",""弱我"",""强我""]","","","","","","","","nonmatch","","","","","","","","","","key","f","16.650682692307434","799.9999682108573","445.8333156175091","f","true","nonmatch","img/ellipse.png","坏我","坏他","ALT2","moral","","","","","","","",""
"null","<span style='color:GreenYellow; font-size: 70px;'>正确! </span>","null","html-keyboard-response","119","981299","0.0-8.0-0.0-4.0-0.0-1.5","6","7","6","5","6","5","5","4","4","5","4","-1","-2","1","0","1","2","0","1","5","4","5","5","2","4","5","4","2","5","7","8","9","7","6","9","8","7","7","5","6","5","6","6","5","5","6","6","6","5","6","1","6","5","5","7","5","5","7","3","7","1","6","5","5","6","6","7","6","6","7","7","2","7","5","5","6","6","7","634785034254942208","张","455","Male","[""坏他"",""好他"",""坏我"",""好我""]","[""弱他"",""强他"",""弱我"",""强我""]","","","","","","","","","","","","","","","","","","","","","","","","","","","","","","feedback_test","","","","","","","",""
"873","","f","psychophysics","120","983173","0.0-8.0-0.0-4.0-0.0-0.6","6","7","6","5","6","5","5","4","4","5","4","-1","-2","1","0","1","2","0","1","5","4","5","5","2","4","5","4","2","5","7","8","9","7","6","9","8","7","7","5","6","5","6","6","5","5","6","6","6","5","6","1","6","5","5","7","5","5","7","3","7","1","6","5","5","6","6","7","6","6","7","7","2","7","5","5","6","6","7","634785034254942208","张","455","Male","[""坏他"",""好他"",""坏我"",""好我""]","[""弱他"",""强他"",""弱我"",""强我""]","","","","","","","","nonmatch","","","","","","","","","","key","f","16.653522522522238","799.9999682108573","445.8333156175091","j","false","match","img/ellipse.png","坏他","坏他","ALT2","moral","","","","","","","",""
"null","<span style='color:red; font-size: 70px;'>错误! </span>","null","html-keyboard-response","121","983675","0.0-8.0-0.0-4.0-0.0-1.6","6","7","6","5","6","5","5","4","4","5","4","-1","-2","1","0","1","2","0","1","5","4","5","5","2","4","5","4","2","5","7","8","9","7","6","9","8","7","7","5","6","5","6","6","5","5","6","6","6","5","6","1","6","5","5","7","5","5","7","3","7","1","6","5","5","6","6","7","6","6","7","7","2","7","5","5","6","6","7","634785034254942208","张","455","Male","[""坏他"",""好他"",""坏我"",""好我""]","[""弱他"",""强他"",""弱我"",""强我""]","","","","","","","","","","","","","","","","","","","","","","","","","","","","","","feedback_test","","","","","","","",""
"862","","f","psychophysics","122","985539","0.0-8.0-0.0-4.0-0.0-0.7","6","7","6","5","6","5","5","4","4","5","4","-1","-2","1","0","1","2","0","1","5","4","5","5","2","4","5","4","2","5","7","8","9","7","6","9","8","7","7","5","6","5","6","6","5","5","6","6","6","5","6","1","6","5","5","7","5","5","7","3","7","1","6","5","5","6","6","7","6","6","7","7","2","7","5","5","6","6","7","634785034254942208","张","455","Male","[""坏他"",""好他"",""坏我"",""好我""]","[""弱他"",""强他"",""弱我"",""强我""]","","","","","","","","nonmatch","","","","","","","","","","key","f","16.65198181818176","799.9999682108573","445.8333156175091","f","true","nonmatch","img/diamond.png","坏我","好我","ALT2","moral","","","","","","","",""
"null","<span style='color:GreenYellow; font-size: 70px;'>正确! </span>","null","html-keyboard-response","123","986040","0.0-8.0-0.0-4.0-0.0-1.7","6","7","6","5","6","5","5","4","4","5","4","-1","-2","1","0","1","2","0","1","5","4","5","5","2","4","5","4","2","5","7","8","9","7","6","9","8","7","7","5","6","5","6","6","5","5","6","6","6","5","6","1","6","5","5","7","5","5","7","3","7","1","6","5","5","6","6","7","6","6","7","7","2","7","5","5","6","6","7","634785034254942208","张","455","Male","[""坏他"",""好他"",""坏我"",""好我""]","[""弱他"",""强他"",""弱我"",""强我""]","","","","","","","","","","","","","","","","","","","","","","","","","","","","","","feedback_test","","","","","","","",""
"911","","f","psychophysics","124","987953","0.0-8.0-0.0-4.0-0.0-0.8","6","7","6","5","6","5","5","4","4","5","4","-1","-2","1","0","1","2","0","1","5","4","5","5","2","4","5","4","2","5","7","8","9","7","6","9","8","7","7","5","6","5","6","6","5","5","6","6","6","5","6","1","6","5","5","7","5","5","7","3","7","1","6","5","5","6","6","7","6","6","7","7","2","7","5","5","6","6","7","634785034254942208","张","455","Male","[""坏他"",""好他"",""坏我"",""好我""]","[""弱他"",""强他"",""弱我"",""强我""]","","","","","","","","nonmatch","","","","","","","","","","key","f","16.65274336283194","799.9999682108573","445.8333156175091","j","false","match","img/diamond.png","好我","好我","ALT2","moral","","","","","","","",""
"null","<span style='color:red; font-size: 70px;'>错误! </span>","null","html-keyboard-response","125","988455","0.0-8.0-0.0-4.0-0.0-1.8","6","7","6","5","6","5","5","4","4","5","4","-1","-2","1","0","1","2","0","1","5","4","5","5","2","4","5","4","2","5","7","8","9","7","6","9","8","7","7","5","6","5","6","6","5","5","6","6","6","5","6","1","6","5","5","7","5","5","7","3","7","1","6","5","5","6","6","7","6","6","7","7","2","7","5","5","6","6","7","634785034254942208","张","455","Male","[""坏他"",""好他"",""坏我"",""好我""]","[""弱他"",""强他"",""弱我"",""强我""]","","","","","","","","","","","","","","","","","","","","","","","","","","","","","","feedback_test","","","","","","","",""
"1014","","j","psychophysics","126","990471","0.0-8.0-0.0-4.0-0.0-0.9","6","7","6","5","6","5","5","4","4","5","4","-1","-2","1","0","1","2","0","1","5","4","5","5","2","4","5","4","2","5","7","8","9","7","6","9","8","7","7","5","6","5","6","6","5","5","6","6","6","5","6","1","6","5","5","7","5","5","7","3","7","1","6","5","5","6","6","7","6","6","7","7","2","7","5","5","6","6","7","634785034254942208","张","455","Male","[""坏他"",""好他"",""坏我"",""好我""]","[""弱他"",""强他"",""弱我"",""强我""]","","","","","","","","match","","","","","","","","","","key","j","16.653808333333775","799.9999682108573","445.8333156175091","j","true","match","img/ellipse.png","坏他","坏他","ALT2","moral","","","","","","","",""
"null","<span style='color:GreenYellow; font-size: 70px;'>正确! </span>","null","html-keyboard-response","127","990976","0.0-8.0-0.0-4.0-0.0-1.9","6","7","6","5","6","5","5","4","4","5","4","-1","-2","1","0","1","2","0","1","5","4","5","5","2","4","5","4","2","5","7","8","9","7","6","9","8","7","7","5","6","5","6","6","5","5","6","6","6","5","6","1","6","5","5","7","5","5","7","3","7","1","6","5","5","6","6","7","6","6","7","7","2","7","5","5","6","6","7","634785034254942208","张","455","Male","[""坏他"",""好他"",""坏我"",""好我""]","[""弱他"",""强他"",""弱我"",""强我""]","","","","","","","","","","","","","","","","","","","","","","","","","","","","","","feedback_test","","","","","","","",""
"752","","f","psychophysics","128","992729","0.0-8.0-0.0-4.0-0.0-0.10","6","7","6","5","6","5","5","4","4","5","4","-1","-2","1","0","1","2","0","1","5","4","5","5","2","4","5","4","2","5","7","8","9","7","6","9","8","7","7","5","6","5","6","6","5","5","6","6","6","5","6","1","6","5","5","7","5","5","7","3","7","1","6","5","5","6","6","7","6","6","7","7","2","7","5","5","6","6","7","634785034254942208","张","455","Male","[""坏他"",""好他"",""坏我"",""好我""]","[""弱他"",""强他"",""弱我"",""强我""]","","","","","","","","nonmatch","","","","","","","","","","key","f","16.65399038461552","799.9999682108573","445.8333156175091","f","true","nonmatch","img/diamond.png","坏他","好我","ALT2","moral","","","","","","","",""
"null","<span style='color:GreenYellow; font-size: 70px;'>正确! </span>","null","html-keyboard-response","129","993230","0.0-8.0-0.0-4.0-0.0-1.10","6","7","6","5","6","5","5","4","4","5","4","-1","-2","1","0","1","2","0","1","5","4","5","5","2","4","5","4","2","5","7","8","9","7","6","9","8","7","7","5","6","5","6","6","5","5","6","6","6","5","6","1","6","5","5","7","5","5","7","3","7","1","6","5","5","6","6","7","6","6","7","7","2","7","5","5","6","6","7","634785034254942208","张","455","Male","[""坏他"",""好他"",""坏我"",""好我""]","[""弱他"",""强他"",""弱我"",""强我""]","","","","","","","","","","","","","","","","","","","","","","","","","","","","","","feedback_test","","","","","","","",""
"872","","j","psychophysics","130","995103","0.0-8.0-0.0-4.0-0.0-0.11","6","7","6","5","6","5","5","4","4","5","4","-1","-2","1","0","1","2","0","1","5","4","5","5","2","4","5","4","2","5","7","8","9","7","6","9","8","7","7","5","6","5","6","6","5","5","6","6","6","5","6","1","6","5","5","7","5","5","7","3","7","1","6","5","5","6","6","7","6","6","7","7","2","7","5","5","6","6","7","634785034254942208","张","455","Male","[""坏他"",""好他"",""坏我"",""好我""]","[""弱他"",""强他"",""弱我"",""强我""]","","","","","","","","match","","","","","","","","","","key","j","16.653249999999908","799.9999682108573","445.8333156175091","j","true","match","img/diamond.png","好我","好我","ALT2","moral","","","","","","","",""
"null","<span style='color:GreenYellow; font-size: 70px;'>正确! </span>","null","html-keyboard-response","131","995604","0.0-8.0-0.0-4.0-0.0-1.11","6","7","6","5","6","5","5","4","4","5","4","-1","-2","1","0","1","2","0","1","5","4","5","5","2","4","5","4","2","5","7","8","9","7","6","9","8","7","7","5","6","5","6","6","5","5","6","6","6","5","6","1","6","5","5","7","5","5","7","3","7","1","6","5","5","6","6","7","6","6","7","7","2","7","5","5","6","6","7","634785034254942208","张","455","Male","[""坏他"",""好他"",""坏我"",""好我""]","[""弱他"",""强他"",""弱我"",""强我""]","","","","","","","","","","","","","","","","","","","","","","","","","","","","","","feedback_test","","","","","","","",""
"670","","j","psychophysics","132","997276","0.0-8.0-0.0-4.0-0.0-0.12","6","7","6","5","6","5","5","4","4","5","4","-1","-2","1","0","1","2","0","1","5","4","5","5","2","4","5","4","2","5","7","8","9","7","6","9","8","7","7","5","6","5","6","6","5","5","6","6","6","5","6","1","6","5","5","7","5","5","7","3","7","1","6","5","5","6","6","7","6","6","7","7","2","7","5","5","6","6","7","634785034254942208","张","455","Male","[""坏他"",""好他"",""坏我"",""好我""]","[""弱他"",""强他"",""弱我"",""强我""]","","","","","","","","match","","","","","","","","","","key","j","16.65313131313164","799.9999682108573","445.8333156175091","f","false","nonmatch","img/square.png","好我","坏我","ALT2","moral","","","","","","","",""
"null","<span style='color:red; font-size: 70px;'>错误! </span>","null","html-keyboard-response","133","997787","0.0-8.0-0.0-4.0-0.0-1.12","6","7","6","5","6","5","5","4","4","5","4","-1","-2","1","0","1","2","0","1","5","4","5","5","2","4","5","4","2","5","7","8","9","7","6","9","8","7","7","5","6","5","6","6","5","5","6","6","6","5","6","1","6","5","5","7","5","5","7","3","7","1","6","5","5","6","6","7","6","6","7","7","2","7","5","5","6","6","7","634785034254942208","张","455","Male","[""坏他"",""好他"",""坏我"",""好我""]","[""弱他"",""强他"",""弱我"",""强我""]","","","","","","","","","","","","","","","","","","","","","","","","","","","","","","feedback_test","","","","","","","",""
"877","","j","psychophysics","134","999666","0.0-8.0-0.0-4.0-0.0-0.13","6","7","6","5","6","5","5","4","4","5","4","-1","-2","1","0","1","2","0","1","5","4","5","5","2","4","5","4","2","5","7","8","9","7","6","9","8","7","7","5","6","5","6","6","5","5","6","6","6","5","6","1","6","5","5","7","5","5","7","3","7","1","6","5","5","6","6","7","6","6","7","7","2","7","5","5","6","6","7","634785034254942208","张","455","Male","[""坏他"",""好他"",""坏我"",""好我""]","[""弱他"",""强他"",""弱我"",""强我""]","","","","","","","","match","","","","","","","","","","key","j","16.653517857143015","799.9999682108573","445.8333156175091","j","true","match","img/pentagon.png","好他","好他","ALT2","moral","","","","","","","",""
"null","<span style='color:GreenYellow; font-size: 70px;'>正确! </span>","null","html-keyboard-response","135","1000182","0.0-8.0-0.0-4.0-0.0-1.13","6","7","6","5","6","5","5","4","4","5","4","-1","-2","1","0","1","2","0","1","5","4","5","5","2","4","5","4","2","5","7","8","9","7","6","9","8","7","7","5","6","5","6","6","5","5","6","6","6","5","6","1","6","5","5","7","5","5","7","3","7","1","6","5","5","6","6","7","6","6","7","7","2","7","5","5","6","6","7","634785034254942208","张","455","Male","[""坏他"",""好他"",""坏我"",""好我""]","[""弱他"",""强他"",""弱我"",""强我""]","","","","","","","","","","","","","","","","","","","","","","","","","","","","","","feedback_test","","","","","","","",""
"960","","j","psychophysics","136","1002144","0.0-8.0-0.0-4.0-0.0-0.14","6","7","6","5","6","5","5","4","4","5","4","-1","-2","1","0","1","2","0","1","5","4","5","5","2","4","5","4","2","5","7","8","9","7","6","9","8","7","7","5","6","5","6","6","5","5","6","6","6","5","6","1","6","5","5","7","5","5","7","3","7","1","6","5","5","6","6","7","6","6","7","7","2","7","5","5","6","6","7","634785034254942208","张","455","Male","[""坏他"",""好他"",""坏我"",""好我""]","[""弱他"",""强他"",""弱我"",""强我""]","","","","","","","","match","","","","","","","","","","key","j","16.65299999999961","799.9999682108573","445.8333156175091","j","true","match","img/pentagon.png","好他","好他","ALT2","moral","","","","","","","",""
"null","<span style='color:GreenYellow; font-size: 70px;'>正确! </span>","null","html-keyboard-response","137","1002645","0.0-8.0-0.0-4.0-0.0-1.14","6","7","6","5","6","5","5","4","4","5","4","-1","-2","1","0","1","2","0","1","5","4","5","5","2","4","5","4","2","5","7","8","9","7","6","9","8","7","7","5","6","5","6","6","5","5","6","6","6","5","6","1","6","5","5","7","5","5","7","3","7","1","6","5","5","6","6","7","6","6","7","7","2","7","5","5","6","6","7","634785034254942208","张","455","Male","[""坏他"",""好他"",""坏我"",""好我""]","[""弱他"",""强他"",""弱我"",""强我""]","","","","","","","","","","","","","","","","","","","","","","","","","","","","","","feedback_test","","","","","","","",""
