"rt","stimulus","response","trial_type","trial_index","time_elapsed","internal_node_id","swb_1","swb_2","swb_3","swb_4","swb_5","LOT_1","LOT_2","LOT_3","LOT_4","LOT_5","LOT_6","IPC_1","IPC_2","IPC_3","IPC_4","IPC_5","IPC_6","IPC_7","IPC_8","MorIden_1","MorIden_2","MorIden_3","MorIden_4","MorIden_5","MorIden_6","MorIden_7","MorIden_8","MorIden_9","MorIden_10","moralSeImag_1","moralSeImag_2","moralSeImag_3","moralSeImag_4","moralSeImag_5","moralSeImag_6","moralSeImag_7","moralSeImag_8","moralSeImag_9","sde_1","sde_2","sde_3","sde_4","sde_5","sde_6","sde_7","sde_8","sde_9","sde_10","sde_11","sde_12","sde_13","sde_14","sde_15","sde_16","sde_17","sde_18","sde_19","sde_20","IM_1","IM_2","IM_3","IM_4","IM_5","IM_6","IM_7","IM_8","IM_9","IM_10","IM_11","IM_12","IM_13","IM_14","IM_15","IM_16","IM_17","IM_18","IM_19","IM_20","subj_idx","friend_name","ParticipantID","Sex","Word","Word2","value","success","timeout","failed_images","failed_audio","failed_video","user_agent","responses","item_order","radio_event_ids","radio_event_times","key_event_times","mouse_event_times","straightlining","zigzagging","honeypot","task_id","screen_id","time_stamp","response_type","key_press","avg_frame_time","center_x","center_y","person","word","valence","domain","math","correct_response","correct","status","view_history","identity","duration","Image","condition","question_order"
"6591","
   <p><div style='color:white; font-size: 25px'>您好，欢迎参加本次实验。</div></p>
   <p><div style='color:white; font-size: 25px'>为充分保障您的权利，请确保您已经知晓并同意《参与实验同意书》以及《数据公开知情同意书》。</div></p>
   <p><div style='color:white; font-size: 25px'>如果您未见过上述内容，请咨询实验员。</div></p>
   <p style='color:white; font-size: 25px'>如果您选择继续实验，则表示您已经清楚两份知情同意书的内容并同意。</p>
   <p><div style = ""color: red;font-size:30px;"">请确保您记得day0的实验编号，您将在本次实验输入该编号，若您忘记，请咨询实验员后作答。</div></p>
   <p> <div style = ""color: green""><按空格键至下页></div> </p>
   "," ","html-keyboard-response","0","6595","0.0-0.0","7","5","6","7","5","5","5","4","5","4","5","-3","-2","1","2","2","1","0","1","4","5","4","5","4","5","4","5","5","4","9","7","8","7","8","9","8","6","7","6","6","5","6","6","5","5","6","7","7","5","5","1","7","5","5","5","5","7","6","3","7","3","6","5","5","5","5","7","7","6","5","7","3","7","5","6","6","5","6","634786876431007744","吴","70","Female","[""坏她"",""好她"",""好我"",""坏我""]","[""弱她"",""强她"",""强我"",""弱我""]","","","","","","","","","","","","","","","","","","","","","","","","","","","","","","","","","","","","","",""
"","","","call-function","1","6595","0.0-1.0-0.0","7","5","6","7","5","5","5","4","5","4","5","-3","-2","1","2","2","1","0","1","4","5","4","5","4","5","4","5","5","4","9","7","8","7","8","9","8","6","7","6","6","5","6","6","5","5","6","7","7","5","5","1","7","5","5","5","5","7","6","3","7","3","6","5","5","5","5","7","7","6","5","7","3","7","5","6","6","5","6","634786876431007744","吴","70","Female","[""坏她"",""好她"",""好我"",""坏我""]","[""弱她"",""强她"",""强我"",""弱我""]","","","","","","","","","","","","","","","","","","","","","","","","","","","","","","","","","","","","","",""
"239475","","[{""name"":""Sex"",""value"":""1""},{""name"":""friend_name"",""value"":""吴""},{""name"":""ParticipantID"",""value"":""70""}]","survey-html-form","2","246072","0.0-1.0-1.0","7","5","6","7","5","5","5","4","5","4","5","-3","-2","1","2","2","1","0","1","4","5","4","5","4","5","4","5","5","4","9","7","8","7","8","9","8","6","7","6","6","5","6","6","5","5","6","7","7","5","5","1","7","5","5","5","5","7","6","3","7","3","6","5","5","5","5","7","7","6","5","7","3","7","5","6","6","5","6","634786876431007744","吴","70","Female","[""坏她"",""好她"",""好我"",""坏我""]","[""弱她"",""强她"",""强我"",""弱我""]","","","","","","","","","","","","","","","","","","","","","","","","","","","","","","","","","","","","","",""
"","","","preload","3","246358","0.0-2.0","7","5","6","7","5","5","5","4","5","4","5","-3","-2","1","2","2","1","0","1","4","5","4","5","4","5","4","5","5","4","9","7","8","7","8","9","8","6","7","6","6","5","6","6","5","5","6","7","7","5","5","1","7","5","5","5","5","7","6","3","7","3","6","5","5","5","5","7","7","6","5","7","3","7","5","6","6","5","6","634786876431007744","吴","70","Female","[""坏她"",""好她"",""好我"",""坏我""]","[""弱她"",""强她"",""强我"",""弱我""]","","true","false","[]","[]","[]","","","","","","","","","","","","","","","","","","","","","","","","","","","","","","","",""
"","","","fullscreen","4","247265","0.0-3.0","7","5","6","7","5","5","5","4","5","4","5","-3","-2","1","2","2","1","0","1","4","5","4","5","4","5","4","5","5","4","9","7","8","7","8","9","8","6","7","6","6","5","6","6","5","5","6","7","7","5","5","1","7","5","5","5","5","7","6","3","7","3","6","5","5","5","5","7","7","6","5","7","3","7","5","6","6","5","6","634786876431007744","吴","70","Female","[""坏她"",""好她"",""好我"",""坏我""]","[""弱她"",""强她"",""强我"",""弱我""]","","true","","","","","{}","","","","","","","","","","","","","","","","","","","","","","","","","","","","","","",""
"76830.5","","{""Q01"":""7"",""Q02"":""5"",""Q03"":""6"",""Q04"":""7"",""Q05"":""5""}","survey-template","5","324100","0.0-4.0","7","5","6","7","5","5","5","4","5","4","5","-3","-2","1","2","2","1","0","1","4","5","4","5","4","5","4","5","5","4","9","7","8","7","8","9","8","6","7","6","6","5","6","6","5","5","6","7","7","5","5","1","7","5","5","5","5","7","6","3","7","3","6","5","5","5","5","7","7","6","5","7","3","7","5","6","6","5","6","634786876431007744","吴","70","Female","[""坏她"",""好她"",""好我"",""坏我""]","[""弱她"",""强她"",""强我"",""弱我""]","","","","","","","","{""Q01"":""7"",""Q02"":""5"",""Q03"":""6"",""Q04"":""7"",""Q05"":""5""}","[0,1,2,3,4]","[""Q01"",""Q01"",""Q02"",""Q03"",""Q04"",""Q05""]","[31967.199999999255,47191.5,48249.699999999255,49237.400000002235,52440.800000000745,54247.800000000745]","[]","[31967.199999999255,46759.60000000149,47191.5,47807.60000000149,48249.699999999255,49237.400000002235,51775.400000002235,52440.800000000745,54247.800000000745,76829.10000000149]","0.4","0.5","0","","","","","","","","","","","","","","","","","","","","","",""
"78713.39999999851","","{""Q01"":""5"",""Q02"":""5"",""Q03"":""4"",""Q04"":""5"",""Q05"":""4"",""Q06"":""5""}","survey-template","6","402833","0.0-5.0","7","5","6","7","5","5","5","4","5","4","5","-3","-2","1","2","2","1","0","1","4","5","4","5","4","5","4","5","5","4","9","7","8","7","8","9","8","6","7","6","6","5","6","6","5","5","6","7","7","5","5","1","7","5","5","5","5","7","6","3","7","3","6","5","5","5","5","7","7","6","5","7","3","7","5","6","6","5","6","634786876431007744","吴","70","Female","[""坏她"",""好她"",""好我"",""坏我""]","[""弱她"",""强她"",""强我"",""弱我""]","","","","","","","","{""Q01"":""5"",""Q02"":""5"",""Q03"":""4"",""Q04"":""5"",""Q05"":""4"",""Q06"":""5""}","[0,1,2,3,4,5]","[""Q01"",""Q02"",""Q03"",""Q04"",""Q05"",""Q06""]","[5701.89999999851,6774.39999999851,8613.5,11882.199999999255,13236.39999999851,46057.89999999851]","[]","[4928.199999999255,5701.89999999851,6774.39999999851,8160.199999999255,8613.5,11882.199999999255,13236.39999999851,14770,46057.89999999851,78712.19999999925]","0.3333333333333333","0.4","0","","","","","","","","","","","","","","","","","","","","","",""
"243079.5","","{""Q01"":""-3"",""Q02"":""-2"",""Q03"":""1"",""Q04"":""2"",""Q05"":""2"",""Q06"":""1"",""Q07"":""0"",""Q08"":""1""}","survey-template","7","645916","0.0-6.0","7","5","6","7","5","5","5","4","5","4","5","-3","-2","1","2","2","1","0","1","4","5","4","5","4","5","4","5","5","4","9","7","8","7","8","9","8","6","7","6","6","5","6","6","5","5","6","7","7","5","5","1","7","5","5","5","5","7","6","3","7","3","6","5","5","5","5","7","7","6","5","7","3","7","5","6","6","5","6","634786876431007744","吴","70","Female","[""坏她"",""好她"",""好我"",""坏我""]","[""弱她"",""强她"",""强我"",""弱我""]","","","","","","","","{""Q01"":""-3"",""Q02"":""-2"",""Q03"":""1"",""Q04"":""2"",""Q05"":""2"",""Q06"":""1"",""Q07"":""0"",""Q08"":""1""}","[0,1,2,3,4,5,6,7]","[""Q01"",""Q01"",""Q02"",""Q03"",""Q04"",""Q05"",""Q06"",""Q07"",""Q08""]","[3952.10000000149,5170.300000000745,5916,7872.10000000149,41377.70000000298,43450.5,44231,46790.10000000149,48190.300000000745]","[]","[3952.10000000149,5170.300000000745,5916,7872.10000000149,41377.70000000298,42724.60000000149,43450.5,44231,46790.10000000149,48190.300000000745,84661.5,242739.70000000298,243077.30000000075]","0.375","0.7142857142857143","0","","","","","","","","","","","","","","","","","","","","","",""
"113681","
    <p><div style='color:white;font-size:35px; line-height:20px;'>词汇评估任务</div></p><br>
    <p><div style='color:white;font-size:25px; line-height:20px;'>请再次回忆该亲密的朋友，你们至少2年前就认识了，并且最近2年经常见面。</div></p>
    <p><div style='color:white;font-size:25px; line-height:20px;'>在本实验中，您将会看到一些形容词。</div></p>
    <p><div style='color:yellow;font-size:25px; line-height:20px;'>您的任务是判断这些形容词是否符合对您自己或您的朋友的描述。</div></p><p style='font-size:35px'>符合按<span style=""color:lightgreen""> f 键</span>，不符合按<span style=""color:red""> j 键</span></p>","0","html-button-response","8","759606","0.0-7.0-0.0","7","5","6","7","5","5","5","4","5","4","5","-3","-2","1","2","2","1","0","1","4","5","4","5","4","5","4","5","5","4","9","7","8","7","8","9","8","6","7","6","6","5","6","6","5","5","6","7","7","5","5","1","7","5","5","5","5","7","6","3","7","3","6","5","5","5","5","7","7","6","5","7","3","7","5","6","6","5","6","634786876431007744","吴","70","Female","[""坏她"",""好她"",""好我"",""坏我""]","[""弱她"",""强她"",""强我"",""弱我""]","","","","","","","","","","","","","","","","","SRET_EW","EW_instructions","Fri Nov 17 2023 18:55:20 GMT+0800 (中国标准时间)","","","","","","","","","","","","","","","","","","",""
"3469","","j","psychophysics","9","764089","0.0-7.0-1.0-0.0","7","5","6","7","5","5","5","4","5","4","5","-3","-2","1","2","2","1","0","1","4","5","4","5","4","5","4","5","5","4","9","7","8","7","8","9","8","6","7","6","6","5","6","6","5","5","6","7","7","5","5","1","7","5","5","5","5","7","6","3","7","3","6","5","5","5","5","7","7","6","5","7","3","7","5","6","6","5","6","634786876431007744","吴","70","Female","[""坏她"",""好她"",""好我"",""坏我""]","[""弱她"",""强她"",""强我"",""弱我""]","","","","","","","","no","","","","","","","","","SRET_EW","EW_practice","","key","j","16.653222222222205","799.9999682108573","445.8333156175091","朋友","忠实","Positive","morality","","","","","","","","","",""
"2489","","f","psychophysics","10","767579","0.0-7.0-1.0-0.1","7","5","6","7","5","5","5","4","5","4","5","-3","-2","1","2","2","1","0","1","4","5","4","5","4","5","4","5","5","4","9","7","8","7","8","9","8","6","7","6","6","5","6","6","5","5","6","7","7","5","5","1","7","5","5","5","5","7","6","3","7","3","6","5","5","5","5","7","7","6","5","7","3","7","5","6","6","5","6","634786876431007744","吴","70","Female","[""坏她"",""好她"",""好我"",""坏我""]","[""弱她"",""强她"",""强我"",""弱我""]","","","","","","","","yes","","","","","","","","","SRET_EW","EW_practice","","key","f","16.653014423077156","799.9999682108573","445.8333156175091","自己","严谨","Positive","ability","","","","","","","","","",""
"3781","","j","psychophysics","11","772364","0.0-7.0-1.0-0.2","7","5","6","7","5","5","5","4","5","4","5","-3","-2","1","2","2","1","0","1","4","5","4","5","4","5","4","5","5","4","9","7","8","7","8","9","8","6","7","6","6","5","6","6","5","5","6","7","7","5","5","1","7","5","5","5","5","7","6","3","7","3","6","5","5","5","5","7","7","6","5","7","3","7","5","6","6","5","6","634786876431007744","吴","70","Female","[""坏她"",""好她"",""好我"",""坏我""]","[""弱她"",""强她"",""强我"",""弱我""]","","","","","","","","no","","","","","","","","","SRET_EW","EW_practice","","key","j","16.653017421602677","799.9999682108573","445.8333156175091","朋友","徇私","Negative","morality","","","","","","","","","",""
"4329","","j","psychophysics","12","777696","0.0-7.0-1.0-0.3","7","5","6","7","5","5","5","4","5","4","5","-3","-2","1","2","2","1","0","1","4","5","4","5","4","5","4","5","5","4","9","7","8","7","8","9","8","6","7","6","6","5","6","6","5","5","6","7","7","5","5","1","7","5","5","5","5","7","6","3","7","3","6","5","5","5","5","7","7","6","5","7","3","7","5","6","6","5","6","634786876431007744","吴","70","Female","[""坏她"",""好她"",""好我"",""坏我""]","[""弱她"",""强她"",""强我"",""弱我""]","","","","","","","","no","","","","","","","","","SRET_EW","EW_practice","","key","j","16.65326645768023","799.9999682108573","445.8333156175091","自己","刻板","Negative","ability","","","","","","","","","",""
"5036","
    <p><div style='color:white;font-size:35px; line-height:20px;'>请您再次阅读实验要求</div></p><br>
    <p><div style='color:white;font-size:25px; line-height:20px;'>请回忆某一个亲密的朋友，你们至少2年前就认识了，并且最近2年经常见面。</div></p>
    <p><div style='color:white;font-size:25px; line-height:20px;'>在本实验中，您将会看到一些形容词。</div></p>
    <p><div style='color:yellow;font-size:25px; line-height:20px;'>您的任务是判断这些形容词是否符合对您自己或您的朋友的描述。</div></p>
    <p><div class='footer' style='font-size:25px; line-height:20px;'>如果对本实验还有不清楚之处，请立即向实验员咨询。</p><p style='font-size:25px; line-height:20px;'>如果您明白了规则：</p><p style='font-size:22px; line-height:20px;'>请按 继续 进入正式实验</p>
    </div>
    <p style='font-size:35px'>符合按<span style=""color:lightgreen""> f 键</span>，不符合按<span style=""color:red""> j 键</span></p>","0","html-button-response","13","782732","0.0-7.0-2.0","7","5","6","7","5","5","5","4","5","4","5","-3","-2","1","2","2","1","0","1","4","5","4","5","4","5","4","5","5","4","9","7","8","7","8","9","8","6","7","6","6","5","6","6","5","5","6","7","7","5","5","1","7","5","5","5","5","7","6","3","7","3","6","5","5","5","5","7","7","6","5","7","3","7","5","6","6","5","6","634786876431007744","吴","70","Female","[""坏她"",""好她"",""好我"",""坏我""]","[""弱她"",""强她"",""强我"",""弱我""]","","","","","","","","","","","","","","","","","SRET_EW","prac_instructions","Fri Nov 17 2023 18:55:20 GMT+0800 (中国标准时间)","","","","","","","","","","","","","","","","","","",""
"3189","","f","psychophysics","14","786924","0.0-7.0-3.0-0.0","7","5","6","7","5","5","5","4","5","4","5","-3","-2","1","2","2","1","0","1","4","5","4","5","4","5","4","5","5","4","9","7","8","7","8","9","8","6","7","6","6","5","6","6","5","5","6","7","7","5","5","1","7","5","5","5","5","7","6","3","7","3","6","5","5","5","5","7","7","6","5","7","3","7","5","6","6","5","6","634786876431007744","吴","70","Female","[""坏她"",""好她"",""好我"",""坏我""]","[""弱她"",""强她"",""强我"",""弱我""]","","","","","","","","yes","","","","","","","","","SRET","EW_formal","","key","f","16.652888888888622","799.9999682108573","445.8333156175091","自己","坚贞","Positive","morality","","","","","","","","","",""
"958","","j","psychophysics","15","788885","0.0-7.0-3.0-0.1","7","5","6","7","5","5","5","4","5","4","5","-3","-2","1","2","2","1","0","1","4","5","4","5","4","5","4","5","5","4","9","7","8","7","8","9","8","6","7","6","6","5","6","6","5","5","6","7","7","5","5","1","7","5","5","5","5","7","6","3","7","3","6","5","5","5","5","7","7","6","5","7","3","7","5","6","6","5","6","634786876431007744","吴","70","Female","[""坏她"",""好她"",""好我"",""坏我""]","[""弱她"",""强她"",""强我"",""弱我""]","","","","","","","","no","","","","","","","","","SRET","EW_formal","","key","j","16.652974358974742","799.9999682108573","445.8333156175091","自己","说谎","Negative","morality","","","","","","","","","",""
"1616","","f","psychophysics","16","791503","0.0-7.0-3.0-0.2","7","5","6","7","5","5","5","4","5","4","5","-3","-2","1","2","2","1","0","1","4","5","4","5","4","5","4","5","5","4","9","7","8","7","8","9","8","6","7","6","6","5","6","6","5","5","6","7","7","5","5","1","7","5","5","5","5","7","6","3","7","3","6","5","5","5","5","7","7","6","5","7","3","7","5","6","6","5","6","634786876431007744","吴","70","Female","[""坏她"",""好她"",""好我"",""坏我""]","[""弱她"",""强她"",""强我"",""弱我""]","","","","","","","","yes","","","","","","","","","SRET","EW_formal","","key","f","16.653570512820107","799.9999682108573","445.8333156175091","朋友","务实","Positive","ability","","","","","","","","","",""
"939","","j","psychophysics","17","793443","0.0-7.0-3.0-0.3","7","5","6","7","5","5","5","4","5","4","5","-3","-2","1","2","2","1","0","1","4","5","4","5","4","5","4","5","5","4","9","7","8","7","8","9","8","6","7","6","6","5","6","6","5","5","6","7","7","5","5","1","7","5","5","5","5","7","6","3","7","3","6","5","5","5","5","7","7","6","5","7","3","7","5","6","6","5","6","634786876431007744","吴","70","Female","[""坏她"",""好她"",""好我"",""坏我""]","[""弱她"",""强她"",""强我"",""弱我""]","","","","","","","","no","","","","","","","","","SRET","EW_formal","","key","j","16.65281739130454","799.9999682108573","445.8333156175091","朋友","迷糊","Negative","ability","","","","","","","","","",""
"1559","","f","psychophysics","18","796003","0.0-7.0-3.0-0.4","7","5","6","7","5","5","5","4","5","4","5","-3","-2","1","2","2","1","0","1","4","5","4","5","4","5","4","5","5","4","9","7","8","7","8","9","8","6","7","6","6","5","6","6","5","5","6","7","7","5","5","1","7","5","5","5","5","7","6","3","7","3","6","5","5","5","5","7","7","6","5","7","3","7","5","6","6","5","6","634786876431007744","吴","70","Female","[""坏她"",""好她"",""好我"",""坏我""]","[""弱她"",""强她"",""强我"",""弱我""]","","","","","","","","yes","","","","","","","","","SRET","EW_formal","","key","f","16.65344444444415","799.9999682108573","445.8333156175091","自己","中用","Positive","ability","","","","","","","","","",""
"1452","","f","psychophysics","19","798457","0.0-7.0-3.0-0.5","7","5","6","7","5","5","5","4","5","4","5","-3","-2","1","2","2","1","0","1","4","5","4","5","4","5","4","5","5","4","9","7","8","7","8","9","8","6","7","6","6","5","6","6","5","5","6","7","7","5","5","1","7","5","5","5","5","7","6","3","7","3","6","5","5","5","5","7","7","6","5","7","3","7","5","6","6","5","6","634786876431007744","吴","70","Female","[""坏她"",""好她"",""好我"",""坏我""]","[""弱她"",""强她"",""强我"",""弱我""]","","","","","","","","yes","","","","","","","","","SRET","EW_formal","","key","f","16.652979591836026","799.9999682108573","445.8333156175091","朋友","专注","Positive","ability","","","","","","","","","",""
"953","","f","psychophysics","20","800415","0.0-7.0-3.0-0.6","7","5","6","7","5","5","5","4","5","4","5","-3","-2","1","2","2","1","0","1","4","5","4","5","4","5","4","5","5","4","9","7","8","7","8","9","8","6","7","6","6","5","6","6","5","5","6","7","7","5","5","1","7","5","5","5","5","7","6","3","7","3","6","5","5","5","5","7","7","6","5","7","3","7","5","6","6","5","6","634786876431007744","吴","70","Female","[""坏她"",""好她"",""好我"",""坏我""]","[""弱她"",""强她"",""强我"",""弱我""]","","","","","","","","yes","","","","","","","","","SRET","EW_formal","","key","f","16.65309482758588","799.9999682108573","445.8333156175091","自己","文明","Positive","morality","","","","","","","","","",""
"1849","","f","psychophysics","21","803265","0.0-7.0-3.0-0.7","7","5","6","7","5","5","5","4","5","4","5","-3","-2","1","2","2","1","0","1","4","5","4","5","4","5","4","5","5","4","9","7","8","7","8","9","8","6","7","6","6","5","6","6","5","5","6","7","7","5","5","1","7","5","5","5","5","7","6","3","7","3","6","5","5","5","5","7","7","6","5","7","3","7","5","6","6","5","6","634786876431007744","吴","70","Female","[""坏她"",""好她"",""好我"",""坏我""]","[""弱她"",""强她"",""强我"",""弱我""]","","","","","","","","yes","","","","","","","","","SRET","EW_formal","","key","f","16.653429411764613","799.9999682108573","445.8333156175091","朋友","博识","Positive","ability","","","","","","","","","",""
"2250","","f","psychophysics","22","806516","0.0-7.0-3.0-0.8","7","5","6","7","5","5","5","4","5","4","5","-3","-2","1","2","2","1","0","1","4","5","4","5","4","5","4","5","5","4","9","7","8","7","8","9","8","6","7","6","6","5","6","6","5","5","6","7","7","5","5","1","7","5","5","5","5","7","6","3","7","3","6","5","5","5","5","7","7","6","5","7","3","7","5","6","6","5","6","634786876431007744","吴","70","Female","[""坏她"",""好她"",""好我"",""坏我""]","[""弱她"",""强她"",""强我"",""弱我""]","","","","","","","","yes","","","","","","","","","SRET","EW_formal","","key","f","16.653458762886338","799.9999682108573","445.8333156175091","自己","思辨","Positive","ability","","","","","","","","","",""
"663","","j","psychophysics","23","808181","0.0-7.0-3.0-0.9","7","5","6","7","5","5","5","4","5","4","5","-3","-2","1","2","2","1","0","1","4","5","4","5","4","5","4","5","5","4","9","7","8","7","8","9","8","6","7","6","6","5","6","6","5","5","6","7","7","5","5","1","7","5","5","5","5","7","6","3","7","3","6","5","5","5","5","7","7","6","5","7","3","7","5","6","6","5","6","634786876431007744","吴","70","Female","[""坏她"",""好她"",""好我"",""坏我""]","[""弱她"",""强她"",""强我"",""弱我""]","","","","","","","","no","","","","","","","","","SRET","EW_formal","","key","j","16.65248484848387","799.9999682108573","445.8333156175091","自己","黑心","Negative","morality","","","","","","","","","",""
"1512","","f","psychophysics","24","810699","0.0-7.0-3.0-0.10","7","5","6","7","5","5","5","4","5","4","5","-3","-2","1","2","2","1","0","1","4","5","4","5","4","5","4","5","5","4","9","7","8","7","8","9","8","6","7","6","6","5","6","6","5","5","6","7","7","5","5","1","7","5","5","5","5","7","6","3","7","3","6","5","5","5","5","7","7","6","5","7","3","7","5","6","6","5","6","634786876431007744","吴","70","Female","[""坏她"",""好她"",""好我"",""坏我""]","[""弱她"",""强她"",""强我"",""弱我""]","","","","","","","","yes","","","","","","","","","SRET","EW_formal","","key","f","16.65288079470251","799.9999682108573","445.8333156175091","朋友","诚信","Positive","morality","","","","","","","","","",""
"962","","j","psychophysics","25","812662","0.0-7.0-3.0-0.11","7","5","6","7","5","5","5","4","5","4","5","-3","-2","1","2","2","1","0","1","4","5","4","5","4","5","4","5","5","4","9","7","8","7","8","9","8","6","7","6","6","5","6","6","5","5","6","7","7","5","5","1","7","5","5","5","5","7","6","3","7","3","6","5","5","5","5","7","7","6","5","7","3","7","5","6","6","5","6","634786876431007744","吴","70","Female","[""坏她"",""好她"",""好我"",""坏我""]","[""弱她"",""强她"",""强我"",""弱我""]","","","","","","","","no","","","","","","","","","SRET","EW_formal","","key","j","16.65317094017071","799.9999682108573","445.8333156175091","自己","奸诈","Negative","morality","","","","","","","","","",""
"934","","f","psychophysics","26","814599","0.0-7.0-3.0-0.12","7","5","6","7","5","5","5","4","5","4","5","-3","-2","1","2","2","1","0","1","4","5","4","5","4","5","4","5","5","4","9","7","8","7","8","9","8","6","7","6","6","5","6","6","5","5","6","7","7","5","5","1","7","5","5","5","5","7","6","3","7","3","6","5","5","5","5","7","7","6","5","7","3","7","5","6","6","5","6","634786876431007744","吴","70","Female","[""坏她"",""好她"",""好我"",""坏我""]","[""弱她"",""强她"",""强我"",""弱我""]","","","","","","","","yes","","","","","","","","","SRET","EW_formal","","key","f","16.6529304347821","799.9999682108573","445.8333156175091","自己","肯干","Positive","ability","","","","","","","","","",""
"1039","","f","psychophysics","27","816639","0.0-7.0-3.0-0.13","7","5","6","7","5","5","5","4","5","4","5","-3","-2","1","2","2","1","0","1","4","5","4","5","4","5","4","5","5","4","9","7","8","7","8","9","8","6","7","6","6","5","6","6","5","5","6","7","7","5","5","1","7","5","5","5","5","7","6","3","7","3","6","5","5","5","5","7","7","6","5","7","3","7","5","6","6","5","6","634786876431007744","吴","70","Female","[""坏她"",""好她"",""好我"",""坏我""]","[""弱她"",""强她"",""强我"",""弱我""]","","","","","","","","yes","","","","","","","","","SRET","EW_formal","","key","f","16.653173553718887","799.9999682108573","445.8333156175091","朋友","毅力","Positive","ability","","","","","","","","","",""
"819","","j","psychophysics","28","818460","0.0-7.0-3.0-0.14","7","5","6","7","5","5","5","4","5","4","5","-3","-2","1","2","2","1","0","1","4","5","4","5","4","5","4","5","5","4","9","7","8","7","8","9","8","6","7","6","6","5","6","6","5","5","6","7","7","5","5","1","7","5","5","5","5","7","6","3","7","3","6","5","5","5","5","7","7","6","5","7","3","7","5","6","6","5","6","634786876431007744","吴","70","Female","[""坏她"",""好她"",""好我"",""坏我""]","[""弱她"",""强她"",""强我"",""弱我""]","","","","","","","","no","","","","","","","","","SRET","EW_formal","","key","j","16.652825688072824","799.9999682108573","445.8333156175091","自己","罪恶","Negative","morality","","","","","","","","","",""
"869","","f","psychophysics","29","820330","0.0-7.0-3.0-0.15","7","5","6","7","5","5","5","4","5","4","5","-3","-2","1","2","2","1","0","1","4","5","4","5","4","5","4","5","5","4","9","7","8","7","8","9","8","6","7","6","6","5","6","6","5","5","6","7","7","5","5","1","7","5","5","5","5","7","6","3","7","3","6","5","5","5","5","7","7","6","5","7","3","7","5","6","6","5","6","634786876431007744","吴","70","Female","[""坏她"",""好她"",""好我"",""坏我""]","[""弱她"",""强她"",""强我"",""弱我""]","","","","","","","","yes","","","","","","","","","SRET","EW_formal","","key","f","16.65263963963937","799.9999682108573","445.8333156175091","自己","守时","Positive","morality","","","","","","","","","",""
"758","","j","psychophysics","30","822090","0.0-7.0-3.0-0.16","7","5","6","7","5","5","5","4","5","4","5","-3","-2","1","2","2","1","0","1","4","5","4","5","4","5","4","5","5","4","9","7","8","7","8","9","8","6","7","6","6","5","6","6","5","5","6","7","7","5","5","1","7","5","5","5","5","7","6","3","7","3","6","5","5","5","5","7","7","6","5","7","3","7","5","6","6","5","6","634786876431007744","吴","70","Female","[""坏她"",""好她"",""好我"",""坏我""]","[""弱她"",""强她"",""强我"",""弱我""]","","","","","","","","no","","","","","","","","","SRET","EW_formal","","key","j","16.653057142857108","799.9999682108573","445.8333156175091","自己","拖拉","Negative","ability","","","","","","","","","",""
"804","","f","psychophysics","31","823899","0.0-7.0-3.0-0.17","7","5","6","7","5","5","5","4","5","4","5","-3","-2","1","2","2","1","0","1","4","5","4","5","4","5","4","5","5","4","9","7","8","7","8","9","8","6","7","6","6","5","6","6","5","5","6","7","7","5","5","1","7","5","5","5","5","7","6","3","7","3","6","5","5","5","5","7","7","6","5","7","3","7","5","6","6","5","6","634786876431007744","吴","70","Female","[""坏她"",""好她"",""好我"",""坏我""]","[""弱她"",""强她"",""强我"",""弱我""]","","","","","","","","yes","","","","","","","","","SRET","EW_formal","","key","f","16.6536542056074","799.9999682108573","445.8333156175091","自己","细心","Positive","ability","","","","","","","","","",""
"647","","j","psychophysics","32","825547","0.0-7.0-3.0-0.18","7","5","6","7","5","5","5","4","5","4","5","-3","-2","1","2","2","1","0","1","4","5","4","5","4","5","4","5","5","4","9","7","8","7","8","9","8","6","7","6","6","5","6","6","5","5","6","7","7","5","5","1","7","5","5","5","5","7","6","3","7","3","6","5","5","5","5","7","7","6","5","7","3","7","5","6","6","5","6","634786876431007744","吴","70","Female","[""坏她"",""好她"",""好我"",""坏我""]","[""弱她"",""强她"",""强我"",""弱我""]","","","","","","","","no","","","","","","","","","SRET","EW_formal","","key","j","16.653510204081577","799.9999682108573","445.8333156175091","自己","阴毒","Negative","morality","","","","","","","","","",""
"776","","j","psychophysics","33","827325","0.0-7.0-3.0-0.19","7","5","6","7","5","5","5","4","5","4","5","-3","-2","1","2","2","1","0","1","4","5","4","5","4","5","4","5","5","4","9","7","8","7","8","9","8","6","7","6","6","5","6","6","5","5","6","7","7","5","5","1","7","5","5","5","5","7","6","3","7","3","6","5","5","5","5","7","7","6","5","7","3","7","5","6","6","5","6","634786876431007744","吴","70","Female","[""坏她"",""好她"",""好我"",""坏我""]","[""弱她"",""强她"",""强我"",""弱我""]","","","","","","","","no","","","","","","","","","SRET","EW_formal","","key","j","16.653207547169725","799.9999682108573","445.8333156175091","自己","畏难","Negative","ability","","","","","","","","","",""
"798","","f","psychophysics","34","829125","0.0-7.0-3.0-0.20","7","5","6","7","5","5","5","4","5","4","5","-3","-2","1","2","2","1","0","1","4","5","4","5","4","5","4","5","5","4","9","7","8","7","8","9","8","6","7","6","6","5","6","6","5","5","6","7","7","5","5","1","7","5","5","5","5","7","6","3","7","3","6","5","5","5","5","7","7","6","5","7","3","7","5","6","6","5","6","634786876431007744","吴","70","Female","[""坏她"",""好她"",""好我"",""坏我""]","[""弱她"",""强她"",""强我"",""弱我""]","","","","","","","","yes","","","","","","","","","SRET","EW_formal","","key","f","16.652990654205563","799.9999682108573","445.8333156175091","朋友","忠良","Positive","morality","","","","","","","","","",""
"806","","j","psychophysics","35","830932","0.0-7.0-3.0-0.21","7","5","6","7","5","5","5","4","5","4","5","-3","-2","1","2","2","1","0","1","4","5","4","5","4","5","4","5","5","4","9","7","8","7","8","9","8","6","7","6","6","5","6","6","5","5","6","7","7","5","5","1","7","5","5","5","5","7","6","3","7","3","6","5","5","5","5","7","7","6","5","7","3","7","5","6","6","5","6","634786876431007744","吴","70","Female","[""坏她"",""好她"",""好我"",""坏我""]","[""弱她"",""强她"",""强我"",""弱我""]","","","","","","","","no","","","","","","","","","SRET","EW_formal","","key","j","16.652851851851057","799.9999682108573","445.8333156175091","朋友","小人","Negative","morality","","","","","","","","","",""
"771","","j","psychophysics","36","832705","0.0-7.0-3.0-0.22","7","5","6","7","5","5","5","4","5","4","5","-3","-2","1","2","2","1","0","1","4","5","4","5","4","5","4","5","5","4","9","7","8","7","8","9","8","6","7","6","6","5","6","6","5","5","6","7","7","5","5","1","7","5","5","5","5","7","6","3","7","3","6","5","5","5","5","7","7","6","5","7","3","7","5","6","6","5","6","634786876431007744","吴","70","Female","[""坏她"",""好她"",""好我"",""坏我""]","[""弱她"",""强她"",""强我"",""弱我""]","","","","","","","","no","","","","","","","","","SRET","EW_formal","","key","j","16.65361904761909","799.9999682108573","445.8333156175091","朋友","弱智","Negative","ability","","","","","","","","","",""
"665","","f","psychophysics","37","834372","0.0-7.0-3.0-0.23","7","5","6","7","5","5","5","4","5","4","5","-3","-2","1","2","2","1","0","1","4","5","4","5","4","5","4","5","5","4","9","7","8","7","8","9","8","6","7","6","6","5","6","6","5","5","6","7","7","5","5","1","7","5","5","5","5","7","6","3","7","3","6","5","5","5","5","7","7","6","5","7","3","7","5","6","6","5","6","634786876431007744","吴","70","Female","[""坏她"",""好她"",""好我"",""坏我""]","[""弱她"",""强她"",""强我"",""弱我""]","","","","","","","","yes","","","","","","","","","SRET","EW_formal","","key","f","16.653363636364418","799.9999682108573","445.8333156175091","自己","依靠","Negative","ability","","","","","","","","","",""
"804","","f","psychophysics","38","836178","0.0-7.0-3.0-0.24","7","5","6","7","5","5","5","4","5","4","5","-3","-2","1","2","2","1","0","1","4","5","4","5","4","5","4","5","5","4","9","7","8","7","8","9","8","6","7","6","6","5","6","6","5","5","6","7","7","5","5","1","7","5","5","5","5","7","6","3","7","3","6","5","5","5","5","7","7","6","5","7","3","7","5","6","6","5","6","634786876431007744","吴","70","Female","[""坏她"",""好她"",""好我"",""坏我""]","[""弱她"",""强她"",""强我"",""弱我""]","","","","","","","","yes","","","","","","","","","SRET","EW_formal","","key","f","16.65349999999981","799.9999682108573","445.8333156175091","朋友","果决","Positive","ability","","","","","","","","","",""
"808","","f","psychophysics","39","837989","0.0-7.0-3.0-0.25","7","5","6","7","5","5","5","4","5","4","5","-3","-2","1","2","2","1","0","1","4","5","4","5","4","5","4","5","5","4","9","7","8","7","8","9","8","6","7","6","6","5","6","6","5","5","6","7","7","5","5","1","7","5","5","5","5","7","6","3","7","3","6","5","5","5","5","7","7","6","5","7","3","7","5","6","6","5","6","634786876431007744","吴","70","Female","[""坏她"",""好她"",""好我"",""坏我""]","[""弱她"",""强她"",""强我"",""弱我""]","","","","","","","","yes","","","","","","","","","SRET","EW_formal","","key","f","16.653065420560992","799.9999682108573","445.8333156175091","朋友","高明","Positive","ability","","","","","","","","","",""
"796","","j","psychophysics","40","839788","0.0-7.0-3.0-0.26","7","5","6","7","5","5","5","4","5","4","5","-3","-2","1","2","2","1","0","1","4","5","4","5","4","5","4","5","5","4","9","7","8","7","8","9","8","6","7","6","6","5","6","6","5","5","6","7","7","5","5","1","7","5","5","5","5","7","6","3","7","3","6","5","5","5","5","7","7","6","5","7","3","7","5","6","6","5","6","634786876431007744","吴","70","Female","[""坏她"",""好她"",""好我"",""坏我""]","[""弱她"",""强她"",""强我"",""弱我""]","","","","","","","","no","","","","","","","","","SRET","EW_formal","","key","j","16.65320560747701","799.9999682108573","445.8333156175091","朋友","不良","Negative","morality","","","","","","","","","",""
"871","","j","psychophysics","41","841661","0.0-7.0-3.0-0.27","7","5","6","7","5","5","5","4","5","4","5","-3","-2","1","2","2","1","0","1","4","5","4","5","4","5","4","5","5","4","9","7","8","7","8","9","8","6","7","6","6","5","6","6","5","5","6","7","7","5","5","1","7","5","5","5","5","7","6","3","7","3","6","5","5","5","5","7","7","6","5","7","3","7","5","6","6","5","6","634786876431007744","吴","70","Female","[""坏她"",""好她"",""好我"",""坏我""]","[""弱她"",""强她"",""强我"",""弱我""]","","","","","","","","no","","","","","","","","","SRET","EW_formal","","key","j","16.653607142857386","799.9999682108573","445.8333156175091","朋友","废物","Negative","ability","","","","","","","","","",""
"944","","f","psychophysics","42","843607","0.0-7.0-3.0-0.28","7","5","6","7","5","5","5","4","5","4","5","-3","-2","1","2","2","1","0","1","4","5","4","5","4","5","4","5","5","4","9","7","8","7","8","9","8","6","7","6","6","5","6","6","5","5","6","7","7","5","5","1","7","5","5","5","5","7","6","3","7","3","6","5","5","5","5","7","7","6","5","7","3","7","5","6","6","5","6","634786876431007744","吴","70","Female","[""坏她"",""好她"",""好我"",""坏我""]","[""弱她"",""强她"",""强我"",""弱我""]","","","","","","","","yes","","","","","","","","","SRET","EW_formal","","key","f","16.65404310344883","799.9999682108573","445.8333156175091","自己","宽容","Positive","morality","","","","","","","","","",""
"1088","","f","psychophysics","43","845697","0.0-7.0-3.0-0.29","7","5","6","7","5","5","5","4","5","4","5","-3","-2","1","2","2","1","0","1","4","5","4","5","4","5","4","5","5","4","9","7","8","7","8","9","8","6","7","6","6","5","6","6","5","5","6","7","7","5","5","1","7","5","5","5","5","7","6","3","7","3","6","5","5","5","5","7","7","6","5","7","3","7","5","6","6","5","6","634786876431007744","吴","70","Female","[""坏她"",""好她"",""好我"",""坏我""]","[""弱她"",""强她"",""强我"",""弱我""]","","","","","","","","yes","","","","","","","","","SRET","EW_formal","","key","f","16.654129032257778","799.9999682108573","445.8333156175091","朋友","奉献","Positive","morality","","","","","","","","","",""
"2214","","f","psychophysics","44","848913","0.0-7.0-3.0-0.30","7","5","6","7","5","5","5","4","5","4","5","-3","-2","1","2","2","1","0","1","4","5","4","5","4","5","4","5","5","4","9","7","8","7","8","9","8","6","7","6","6","5","6","6","5","5","6","7","7","5","5","1","7","5","5","5","5","7","6","3","7","3","6","5","5","5","5","7","7","6","5","7","3","7","5","6","6","5","6","634786876431007744","吴","70","Female","[""坏她"",""好她"",""好我"",""坏我""]","[""弱她"",""强她"",""强我"",""弱我""]","","","","","","","","yes","","","","","","","","","SRET","EW_formal","","key","f","16.652968749999975","799.9999682108573","445.8333156175091","自己","勤恳","Positive","morality","","","","","","","","","",""
"707","","f","psychophysics","45","850621","0.0-7.0-3.0-0.31","7","5","6","7","5","5","5","4","5","4","5","-3","-2","1","2","2","1","0","1","4","5","4","5","4","5","4","5","5","4","9","7","8","7","8","9","8","6","7","6","6","5","6","6","5","5","6","7","7","5","5","1","7","5","5","5","5","7","6","3","7","3","6","5","5","5","5","7","7","6","5","7","3","7","5","6","6","5","6","634786876431007744","吴","70","Female","[""坏她"",""好她"",""好我"",""坏我""]","[""弱她"",""强她"",""强我"",""弱我""]","","","","","","","","yes","","","","","","","","","SRET","EW_formal","","key","f","16.652441176470578","799.9999682108573","445.8333156175091","朋友","礼貌","Positive","morality","","","","","","","","","",""
"631","","f","psychophysics","46","852253","0.0-7.0-3.0-0.32","7","5","6","7","5","5","5","4","5","4","5","-3","-2","1","2","2","1","0","1","4","5","4","5","4","5","4","5","5","4","9","7","8","7","8","9","8","6","7","6","6","5","6","6","5","5","6","7","7","5","5","1","7","5","5","5","5","7","6","3","7","3","6","5","5","5","5","7","7","6","5","7","3","7","5","6","6","5","6","634786876431007744","吴","70","Female","[""坏她"",""好她"",""好我"",""坏我""]","[""弱她"",""强她"",""强我"",""弱我""]","","","","","","","","yes","","","","","","","","","SRET","EW_formal","","key","f","16.653329896907437","799.9999682108573","445.8333156175091","朋友","君子","Positive","morality","","","","","","","","","",""
"1827","","j","psychophysics","47","855081","0.0-7.0-3.0-0.33","7","5","6","7","5","5","5","4","5","4","5","-3","-2","1","2","2","1","0","1","4","5","4","5","4","5","4","5","5","4","9","7","8","7","8","9","8","6","7","6","6","5","6","6","5","5","6","7","7","5","5","1","7","5","5","5","5","7","6","3","7","3","6","5","5","5","5","7","7","6","5","7","3","7","5","6","6","5","6","634786876431007744","吴","70","Female","[""坏她"",""好她"",""好我"",""坏我""]","[""弱她"",""强她"",""强我"",""弱我""]","","","","","","","","no","","","","","","","","","SRET","EW_formal","","key","j","16.653017751479208","799.9999682108573","445.8333156175091","自己","怠惰","Negative","ability","","","","","","","","","",""
"1299","","j","psychophysics","48","857381","0.0-7.0-3.0-0.34","7","5","6","7","5","5","5","4","5","4","5","-3","-2","1","2","2","1","0","1","4","5","4","5","4","5","4","5","5","4","9","7","8","7","8","9","8","6","7","6","6","5","6","6","5","5","6","7","7","5","5","1","7","5","5","5","5","7","6","3","7","3","6","5","5","5","5","7","7","6","5","7","3","7","5","6","6","5","6","634786876431007744","吴","70","Female","[""坏她"",""好她"",""好我"",""坏我""]","[""弱她"",""强她"",""强我"",""弱我""]","","","","","","","","no","","","","","","","","","SRET","EW_formal","","key","j","16.65310948905127","799.9999682108573","445.8333156175091","自己","短浅","Negative","ability","","","","","","","","","",""
"1239","","f","psychophysics","49","859622","0.0-7.0-3.0-0.35","7","5","6","7","5","5","5","4","5","4","5","-3","-2","1","2","2","1","0","1","4","5","4","5","4","5","4","5","5","4","9","7","8","7","8","9","8","6","7","6","6","5","6","6","5","5","6","7","7","5","5","1","7","5","5","5","5","7","6","3","7","3","6","5","5","5","5","7","7","6","5","7","3","7","5","6","6","5","6","634786876431007744","吴","70","Female","[""坏她"",""好她"",""好我"",""坏我""]","[""弱她"",""强她"",""强我"",""弱我""]","","","","","","","","yes","","","","","","","","","SRET","EW_formal","","key","f","16.653593984962075","799.9999682108573","445.8333156175091","朋友","精干","Positive","ability","","","","","","","","","",""
"701","","j","psychophysics","50","861326","0.0-7.0-3.0-0.36","7","5","6","7","5","5","5","4","5","4","5","-3","-2","1","2","2","1","0","1","4","5","4","5","4","5","4","5","5","4","9","7","8","7","8","9","8","6","7","6","6","5","6","6","5","5","6","7","7","5","5","1","7","5","5","5","5","7","6","3","7","3","6","5","5","5","5","7","7","6","5","7","3","7","5","6","6","5","6","634786876431007744","吴","70","Female","[""坏她"",""好她"",""好我"",""坏我""]","[""弱她"",""强她"",""强我"",""弱我""]","","","","","","","","no","","","","","","","","","SRET","EW_formal","","key","j","16.65307843137199","799.9999682108573","445.8333156175091","朋友","无为","Negative","ability","","","","","","","","","",""
"1288","","j","psychophysics","51","863616","0.0-7.0-3.0-0.37","7","5","6","7","5","5","5","4","5","4","5","-3","-2","1","2","2","1","0","1","4","5","4","5","4","5","4","5","5","4","9","7","8","7","8","9","8","6","7","6","6","5","6","6","5","5","6","7","7","5","5","1","7","5","5","5","5","7","6","3","7","3","6","5","5","5","5","7","7","6","5","7","3","7","5","6","6","5","6","634786876431007744","吴","70","Female","[""坏她"",""好她"",""好我"",""坏我""]","[""弱她"",""强她"",""强我"",""弱我""]","","","","","","","","no","","","","","","","","","SRET","EW_formal","","key","j","16.6529485294116","799.9999682108573","445.8333156175091","朋友","利己","Negative","morality","","","","","","","","","",""
"926","","f","psychophysics","52","865543","0.0-7.0-3.0-0.38","7","5","6","7","5","5","5","4","5","4","5","-3","-2","1","2","2","1","0","1","4","5","4","5","4","5","4","5","5","4","9","7","8","7","8","9","8","6","7","6","6","5","6","6","5","5","6","7","7","5","5","1","7","5","5","5","5","7","6","3","7","3","6","5","5","5","5","7","7","6","5","7","3","7","5","6","6","5","6","634786876431007744","吴","70","Female","[""坏她"",""好她"",""好我"",""坏我""]","[""弱她"",""强她"",""强我"",""弱我""]","","","","","","","","yes","","","","","","","","","SRET","EW_formal","","key","f","16.65295652173986","799.9999682108573","445.8333156175091","朋友","忠义","Positive","morality","","","","","","","","","",""
"869","","f","psychophysics","53","867413","0.0-7.0-3.0-0.39","7","5","6","7","5","5","5","4","5","4","5","-3","-2","1","2","2","1","0","1","4","5","4","5","4","5","4","5","5","4","9","7","8","7","8","9","8","6","7","6","6","5","6","6","5","5","6","7","7","5","5","1","7","5","5","5","5","7","6","3","7","3","6","5","5","5","5","7","7","6","5","7","3","7","5","6","6","5","6","634786876431007744","吴","70","Female","[""坏她"",""好她"",""好我"",""坏我""]","[""弱她"",""强她"",""强我"",""弱我""]","","","","","","","","yes","","","","","","","","","SRET","EW_formal","","key","f","16.653081081080803","799.9999682108573","445.8333156175091","自己","独立","Positive","ability","","","","","","","","","",""
"870","","f","psychophysics","54","869284","0.0-7.0-3.0-0.40","7","5","6","7","5","5","5","4","5","4","5","-3","-2","1","2","2","1","0","1","4","5","4","5","4","5","4","5","5","4","9","7","8","7","8","9","8","6","7","6","6","5","6","6","5","5","6","7","7","5","5","1","7","5","5","5","5","7","6","3","7","3","6","5","5","5","5","7","7","6","5","7","3","7","5","6","6","5","6","634786876431007744","吴","70","Female","[""坏她"",""好她"",""好我"",""坏我""]","[""弱她"",""强她"",""强我"",""弱我""]","","","","","","","","yes","","","","","","","","","SRET","EW_formal","","key","f","16.652321428571927","799.9999682108573","445.8333156175091","自己","爱国","Positive","morality","","","","","","","","","",""
"1918","","f","psychophysics","55","872205","0.0-7.0-3.0-0.41","7","5","6","7","5","5","5","4","5","4","5","-3","-2","1","2","2","1","0","1","4","5","4","5","4","5","4","5","5","4","9","7","8","7","8","9","8","6","7","6","6","5","6","6","5","5","6","7","7","5","5","1","7","5","5","5","5","7","6","3","7","3","6","5","5","5","5","7","7","6","5","7","3","7","5","6","6","5","6","634786876431007744","吴","70","Female","[""坏她"",""好她"",""好我"",""坏我""]","[""弱她"",""强她"",""强我"",""弱我""]","","","","","","","","yes","","","","","","","","","SRET","EW_formal","","key","f","16.653287356321957","799.9999682108573","445.8333156175091","朋友","沉着","Positive","ability","","","","","","","","","",""
"1760","","j","psychophysics","56","874966","0.0-7.0-3.0-0.42","7","5","6","7","5","5","5","4","5","4","5","-3","-2","1","2","2","1","0","1","4","5","4","5","4","5","4","5","5","4","9","7","8","7","8","9","8","6","7","6","6","5","6","6","5","5","6","7","7","5","5","1","7","5","5","5","5","7","6","3","7","3","6","5","5","5","5","7","7","6","5","7","3","7","5","6","6","5","6","634786876431007744","吴","70","Female","[""坏她"",""好她"",""好我"",""坏我""]","[""弱她"",""强她"",""强我"",""弱我""]","","","","","","","","no","","","","","","","","","SRET","EW_formal","","key","j","16.652230303030404","799.9999682108573","445.8333156175091","朋友","贪腐","Negative","morality","","","","","","","","","",""
"1018","","j","psychophysics","57","876987","0.0-7.0-3.0-0.43","7","5","6","7","5","5","5","4","5","4","5","-3","-2","1","2","2","1","0","1","4","5","4","5","4","5","4","5","5","4","9","7","8","7","8","9","8","6","7","6","6","5","6","6","5","5","6","7","7","5","5","1","7","5","5","5","5","7","6","3","7","3","6","5","5","5","5","7","7","6","5","7","3","7","5","6","6","5","6","634786876431007744","吴","70","Female","[""坏她"",""好她"",""好我"",""坏我""]","[""弱她"",""强她"",""强我"",""弱我""]","","","","","","","","no","","","","","","","","","SRET","EW_formal","","key","j","16.65274166666689","799.9999682108573","445.8333156175091","自己","短视","Negative","ability","","","","","","","","","",""
"1182","","j","psychophysics","58","879170","0.0-7.0-3.0-0.44","7","5","6","7","5","5","5","4","5","4","5","-3","-2","1","2","2","1","0","1","4","5","4","5","4","5","4","5","5","4","9","7","8","7","8","9","8","6","7","6","6","5","6","6","5","5","6","7","7","5","5","1","7","5","5","5","5","7","6","3","7","3","6","5","5","5","5","7","7","6","5","7","3","7","5","6","6","5","6","634786876431007744","吴","70","Female","[""坏她"",""好她"",""好我"",""坏我""]","[""弱她"",""强她"",""强我"",""弱我""]","","","","","","","","no","","","","","","","","","SRET","EW_formal","","key","j","16.653038461538603","799.9999682108573","445.8333156175091","朋友","无知","Negative","ability","","","","","","","","","",""
"1003","","f","psychophysics","59","881175","0.0-7.0-3.0-0.45","7","5","6","7","5","5","5","4","5","4","5","-3","-2","1","2","2","1","0","1","4","5","4","5","4","5","4","5","5","4","9","7","8","7","8","9","8","6","7","6","6","5","6","6","5","5","6","7","7","5","5","1","7","5","5","5","5","7","6","3","7","3","6","5","5","5","5","7","7","6","5","7","3","7","5","6","6","5","6","634786876431007744","吴","70","Female","[""坏她"",""好她"",""好我"",""坏我""]","[""弱她"",""强她"",""强我"",""弱我""]","","","","","","","","yes","","","","","","","","","SRET","EW_formal","","key","f","16.652891666666257","799.9999682108573","445.8333156175091","自己","勤奋","Positive","ability","","","","","","","","","",""
"796","","j","psychophysics","60","882976","0.0-7.0-3.0-0.46","7","5","6","7","5","5","5","4","5","4","5","-3","-2","1","2","2","1","0","1","4","5","4","5","4","5","4","5","5","4","9","7","8","7","8","9","8","6","7","6","6","5","6","6","5","5","6","7","7","5","5","1","7","5","5","5","5","7","6","3","7","3","6","5","5","5","5","7","7","6","5","7","3","7","5","6","6","5","6","634786876431007744","吴","70","Female","[""坏她"",""好她"",""好我"",""坏我""]","[""弱她"",""强她"",""强我"",""弱我""]","","","","","","","","no","","","","","","","","","SRET","EW_formal","","key","j","16.653794392523416","799.9999682108573","445.8333156175091","朋友","自私","Negative","morality","","","","","","","","","",""
"2888","","f","psychophysics","61","886865","0.0-7.0-3.0-0.47","7","5","6","7","5","5","5","4","5","4","5","-3","-2","1","2","2","1","0","1","4","5","4","5","4","5","4","5","5","4","9","7","8","7","8","9","8","6","7","6","6","5","6","6","5","5","6","7","7","5","5","1","7","5","5","5","5","7","6","3","7","3","6","5","5","5","5","7","7","6","5","7","3","7","5","6","6","5","6","634786876431007744","吴","70","Female","[""坏她"",""好她"",""好我"",""坏我""]","[""弱她"",""强她"",""强我"",""弱我""]","","","","","","","","yes","","","","","","","","","SRET","EW_formal","","key","f","16.653452586207003","799.9999682108573","445.8333156175091","自己","善良","Positive","morality","","","","","","","","","",""
"1053","","f","psychophysics","62","888919","0.0-7.0-3.0-0.48","7","5","6","7","5","5","5","4","5","4","5","-3","-2","1","2","2","1","0","1","4","5","4","5","4","5","4","5","5","4","9","7","8","7","8","9","8","6","7","6","6","5","6","6","5","5","6","7","7","5","5","1","7","5","5","5","5","7","6","3","7","3","6","5","5","5","5","7","7","6","5","7","3","7","5","6","6","5","6","634786876431007744","吴","70","Female","[""坏她"",""好她"",""好我"",""坏我""]","[""弱她"",""强她"",""强我"",""弱我""]","","","","","","","","yes","","","","","","","","","SRET","EW_formal","","key","f","16.653138211382196","799.9999682108573","445.8333156175091","朋友","有力","Positive","ability","","","","","","","","","",""
"1045","","j","psychophysics","63","890966","0.0-7.0-3.0-0.49","7","5","6","7","5","5","5","4","5","4","5","-3","-2","1","2","2","1","0","1","4","5","4","5","4","5","4","5","5","4","9","7","8","7","8","9","8","6","7","6","6","5","6","6","5","5","6","7","7","5","5","1","7","5","5","5","5","7","6","3","7","3","6","5","5","5","5","7","7","6","5","7","3","7","5","6","6","5","6","634786876431007744","吴","70","Female","[""坏她"",""好她"",""好我"",""坏我""]","[""弱她"",""强她"",""强我"",""弱我""]","","","","","","","","no","","","","","","","","","SRET","EW_formal","","key","j","16.653311475409105","799.9999682108573","445.8333156175091","自己","蛇蝎","Negative","morality","","","","","","","","","",""
"1911","","j","psychophysics","64","893880","0.0-7.0-3.0-0.50","7","5","6","7","5","5","5","4","5","4","5","-3","-2","1","2","2","1","0","1","4","5","4","5","4","5","4","5","5","4","9","7","8","7","8","9","8","6","7","6","6","5","6","6","5","5","6","7","7","5","5","1","7","5","5","5","5","7","6","3","7","3","6","5","5","5","5","7","7","6","5","7","3","7","5","6","6","5","6","634786876431007744","吴","70","Female","[""坏她"",""好她"",""好我"",""坏我""]","[""弱她"",""强她"",""强我"",""弱我""]","","","","","","","","no","","","","","","","","","SRET","EW_formal","","key","j","16.652913793103217","799.9999682108573","445.8333156175091","朋友","新手","Negative","ability","","","","","","","","","",""
"1405","","j","psychophysics","65","896287","0.0-7.0-3.0-0.51","7","5","6","7","5","5","5","4","5","4","5","-3","-2","1","2","2","1","0","1","4","5","4","5","4","5","4","5","5","4","9","7","8","7","8","9","8","6","7","6","6","5","6","6","5","5","6","7","7","5","5","1","7","5","5","5","5","7","6","3","7","3","6","5","5","5","5","7","7","6","5","7","3","7","5","6","6","5","6","634786876431007744","吴","70","Female","[""坏她"",""好她"",""好我"",""坏我""]","[""弱她"",""强她"",""强我"",""弱我""]","","","","","","","","no","","","","","","","","","SRET","EW_formal","","key","j","16.653447552448156","799.9999682108573","445.8333156175091","朋友","笨蛋","Negative","ability","","","","","","","","","",""
"727","","j","psychophysics","66","898017","0.0-7.0-3.0-0.52","7","5","6","7","5","5","5","4","5","4","5","-3","-2","1","2","2","1","0","1","4","5","4","5","4","5","4","5","5","4","9","7","8","7","8","9","8","6","7","6","6","5","6","6","5","5","6","7","7","5","5","1","7","5","5","5","5","7","6","3","7","3","6","5","5","5","5","7","7","6","5","7","3","7","5","6","6","5","6","634786876431007744","吴","70","Female","[""坏她"",""好她"",""好我"",""坏我""]","[""弱她"",""强她"",""强我"",""弱我""]","","","","","","","","no","","","","","","","","","SRET","EW_formal","","key","j","16.653194174758223","799.9999682108573","445.8333156175091","自己","淫乱","Negative","morality","","","","","","","","","",""
"780","","f","psychophysics","67","899799","0.0-7.0-3.0-0.53","7","5","6","7","5","5","5","4","5","4","5","-3","-2","1","2","2","1","0","1","4","5","4","5","4","5","4","5","5","4","9","7","8","7","8","9","8","6","7","6","6","5","6","6","5","5","6","7","7","5","5","1","7","5","5","5","5","7","6","3","7","3","6","5","5","5","5","7","7","6","5","7","3","7","5","6","6","5","6","634786876431007744","吴","70","Female","[""坏她"",""好她"",""好我"",""坏我""]","[""弱她"",""强她"",""强我"",""弱我""]","","","","","","","","yes","","","","","","","","","SRET","EW_formal","","key","f","16.653641509434717","799.9999682108573","445.8333156175091","朋友","义气","Positive","morality","","","","","","","","","",""
"1026","","f","psychophysics","68","901827","0.0-7.0-3.0-0.54","7","5","6","7","5","5","5","4","5","4","5","-3","-2","1","2","2","1","0","1","4","5","4","5","4","5","4","5","5","4","9","7","8","7","8","9","8","6","7","6","6","5","6","6","5","5","6","7","7","5","5","1","7","5","5","5","5","7","6","3","7","3","6","5","5","5","5","7","7","6","5","7","3","7","5","6","6","5","6","634786876431007744","吴","70","Female","[""坏她"",""好她"",""好我"",""坏我""]","[""弱她"",""强她"",""强我"",""弱我""]","","","","","","","","yes","","","","","","","","","SRET","EW_formal","","key","f","16.653074380165265","799.9999682108573","445.8333156175091","自己","守信","Positive","morality","","","","","","","","","",""
"634","","j","psychophysics","69","903462","0.0-7.0-3.0-0.55","7","5","6","7","5","5","5","4","5","4","5","-3","-2","1","2","2","1","0","1","4","5","4","5","4","5","4","5","5","4","9","7","8","7","8","9","8","6","7","6","6","5","6","6","5","5","6","7","7","5","5","1","7","5","5","5","5","7","6","3","7","3","6","5","5","5","5","7","7","6","5","7","3","7","5","6","6","5","6","634786876431007744","吴","70","Female","[""坏她"",""好她"",""好我"",""坏我""]","[""弱她"",""强她"",""强我"",""弱我""]","","","","","","","","no","","","","","","","","","SRET","EW_formal","","key","j","16.653474226804","799.9999682108573","445.8333156175091","自己","邪恶","Negative","morality","","","","","","","","","",""
"992","","j","psychophysics","70","905455","0.0-7.0-3.0-0.56","7","5","6","7","5","5","5","4","5","4","5","-3","-2","1","2","2","1","0","1","4","5","4","5","4","5","4","5","5","4","9","7","8","7","8","9","8","6","7","6","6","5","6","6","5","5","6","7","7","5","5","1","7","5","5","5","5","7","6","3","7","3","6","5","5","5","5","7","7","6","5","7","3","7","5","6","6","5","6","634786876431007744","吴","70","Female","[""坏她"",""好她"",""好我"",""坏我""]","[""弱她"",""强她"",""强我"",""弱我""]","","","","","","","","no","","","","","","","","","SRET","EW_formal","","key","j","16.652991596638703","799.9999682108573","445.8333156175091","朋友","歹毒","Negative","morality","","","","","","","","","",""
"1073","","j","psychophysics","71","907530","0.0-7.0-3.0-0.57","7","5","6","7","5","5","5","4","5","4","5","-3","-2","1","2","2","1","0","1","4","5","4","5","4","5","4","5","5","4","9","7","8","7","8","9","8","6","7","6","6","5","6","6","5","5","6","7","7","5","5","1","7","5","5","5","5","7","6","3","7","3","6","5","5","5","5","7","7","6","5","7","3","7","5","6","6","5","6","634786876431007744","吴","70","Female","[""坏她"",""好她"",""好我"",""坏我""]","[""弱她"",""强她"",""强我"",""弱我""]","","","","","","","","no","","","","","","","","","SRET","EW_formal","","key","j","16.653747967480324","799.9999682108573","445.8333156175091","朋友","迂拙","Negative","ability","","","","","","","","","",""
"964","","f","psychophysics","72","909495","0.0-7.0-3.0-0.58","7","5","6","7","5","5","5","4","5","4","5","-3","-2","1","2","2","1","0","1","4","5","4","5","4","5","4","5","5","4","9","7","8","7","8","9","8","6","7","6","6","5","6","6","5","5","6","7","7","5","5","1","7","5","5","5","5","7","6","3","7","3","6","5","5","5","5","7","7","6","5","7","3","7","5","6","6","5","6","634786876431007744","吴","70","Female","[""坏她"",""好她"",""好我"",""坏我""]","[""弱她"",""强她"",""强我"",""弱我""]","","","","","","","","yes","","","","","","","","","SRET","EW_formal","","key","f","16.65355555555469","799.9999682108573","445.8333156175091","朋友","独断","Negative","ability","","","","","","","","","",""
"872","","f","psychophysics","73","911368","0.0-7.0-3.0-0.59","7","5","6","7","5","5","5","4","5","4","5","-3","-2","1","2","2","1","0","1","4","5","4","5","4","5","4","5","5","4","9","7","8","7","8","9","8","6","7","6","6","5","6","6","5","5","6","7","7","5","5","1","7","5","5","5","5","7","6","3","7","3","6","5","5","5","5","7","7","6","5","7","3","7","5","6","6","5","6","634786876431007744","吴","70","Female","[""坏她"",""好她"",""好我"",""坏我""]","[""弱她"",""强她"",""强我"",""弱我""]","","","","","","","","yes","","","","","","","","","SRET","EW_formal","","key","f","16.652714285713696","799.9999682108573","445.8333156175091","自己","能干","Positive","ability","","","","","","","","","",""
"1769","","j","psychophysics","74","914138","0.0-7.0-3.0-0.60","7","5","6","7","5","5","5","4","5","4","5","-3","-2","1","2","2","1","0","1","4","5","4","5","4","5","4","5","5","4","9","7","8","7","8","9","8","6","7","6","6","5","6","6","5","5","6","7","7","5","5","1","7","5","5","5","5","7","6","3","7","3","6","5","5","5","5","7","7","6","5","7","3","7","5","6","6","5","6","634786876431007744","吴","70","Female","[""坏她"",""好她"",""好我"",""坏我""]","[""弱她"",""强她"",""强我"",""弱我""]","","","","","","","","no","","","","","","","","","SRET","EW_formal","","key","j","16.653515151515602","799.9999682108573","445.8333156175091","自己","粗心","Negative","ability","","","","","","","","","",""
"3322","","j","psychophysics","75","918461","0.0-7.0-3.0-0.61","7","5","6","7","5","5","5","4","5","4","5","-3","-2","1","2","2","1","0","1","4","5","4","5","4","5","4","5","5","4","9","7","8","7","8","9","8","6","7","6","6","5","6","6","5","5","6","7","7","5","5","1","7","5","5","5","5","7","6","3","7","3","6","5","5","5","5","7","7","6","5","7","3","7","5","6","6","5","6","634786876431007744","吴","70","Female","[""坏她"",""好她"",""好我"",""坏我""]","[""弱她"",""强她"",""强我"",""弱我""]","","","","","","","","no","","","","","","","","","SRET","EW_formal","","key","j","16.653115830115855","799.9999682108573","445.8333156175091","朋友","学霸","Positive","ability","","","","","","","","","",""
"3461","","f","psychophysics","76","922925","0.0-7.0-3.0-0.62","7","5","6","7","5","5","5","4","5","4","5","-3","-2","1","2","2","1","0","1","4","5","4","5","4","5","4","5","5","4","9","7","8","7","8","9","8","6","7","6","6","5","6","6","5","5","6","7","7","5","5","1","7","5","5","5","5","7","6","3","7","3","6","5","5","5","5","7","7","6","5","7","3","7","5","6","6","5","6","634786876431007744","吴","70","Female","[""坏她"",""好她"",""好我"",""坏我""]","[""弱她"",""强她"",""强我"",""弱我""]","","","","","","","","yes","","","","","","","","","SRET","EW_formal","","key","f","16.65297752809022","799.9999682108573","445.8333156175091","朋友","廉正","Positive","morality","","","","","","","","","",""
"825","","j","psychophysics","77","924751","0.0-7.0-3.0-0.63","7","5","6","7","5","5","5","4","5","4","5","-3","-2","1","2","2","1","0","1","4","5","4","5","4","5","4","5","5","4","9","7","8","7","8","9","8","6","7","6","6","5","6","6","5","5","6","7","7","5","5","1","7","5","5","5","5","7","6","3","7","3","6","5","5","5","5","7","7","6","5","7","3","7","5","6","6","5","6","634786876431007744","吴","70","Female","[""坏她"",""好她"",""好我"",""坏我""]","[""弱她"",""强她"",""强我"",""弱我""]","","","","","","","","no","","","","","","","","","SRET","EW_formal","","key","j","16.653000000000855","799.9999682108573","445.8333156175091","自己","才尽","Negative","ability","","","","","","","","","",""
"1443","","f","psychophysics","78","927195","0.0-7.0-3.0-0.64","7","5","6","7","5","5","5","4","5","4","5","-3","-2","1","2","2","1","0","1","4","5","4","5","4","5","4","5","5","4","9","7","8","7","8","9","8","6","7","6","6","5","6","6","5","5","6","7","7","5","5","1","7","5","5","5","5","7","6","3","7","3","6","5","5","5","5","7","7","6","5","7","3","7","5","6","6","5","6","634786876431007744","吴","70","Female","[""坏她"",""好她"",""好我"",""坏我""]","[""弱她"",""强她"",""强我"",""弱我""]","","","","","","","","yes","","","","","","","","","SRET","EW_formal","","key","f","16.652945205479163","799.9999682108573","445.8333156175091","自己","忠勇","Positive","morality","","","","","","","","","",""
"912","","j","psychophysics","79","929108","0.0-7.0-3.0-0.65","7","5","6","7","5","5","5","4","5","4","5","-3","-2","1","2","2","1","0","1","4","5","4","5","4","5","4","5","5","4","9","7","8","7","8","9","8","6","7","6","6","5","6","6","5","5","6","7","7","5","5","1","7","5","5","5","5","7","6","3","7","3","6","5","5","5","5","7","7","6","5","7","3","7","5","6","6","5","6","634786876431007744","吴","70","Female","[""坏她"",""好她"",""好我"",""坏我""]","[""弱她"",""强她"",""强我"",""弱我""]","","","","","","","","no","","","","","","","","","SRET","EW_formal","","key","j","16.653280701753765","799.9999682108573","445.8333156175091","朋友","拜金","Negative","morality","","","","","","","","","",""
"861","","f","psychophysics","80","930971","0.0-7.0-3.0-0.66","7","5","6","7","5","5","5","4","5","4","5","-3","-2","1","2","2","1","0","1","4","5","4","5","4","5","4","5","5","4","9","7","8","7","8","9","8","6","7","6","6","5","6","6","5","5","6","7","7","5","5","1","7","5","5","5","5","7","6","3","7","3","6","5","5","5","5","7","7","6","5","7","3","7","5","6","6","5","6","634786876431007744","吴","70","Female","[""坏她"",""好她"",""好我"",""坏我""]","[""弱她"",""强她"",""强我"",""弱我""]","","","","","","","","yes","","","","","","","","","SRET","EW_formal","","key","f","16.652837837838593","799.9999682108573","445.8333156175091","自己","利落","Positive","ability","","","","","","","","","",""
"626","","j","psychophysics","81","932599","0.0-7.0-3.0-0.67","7","5","6","7","5","5","5","4","5","4","5","-3","-2","1","2","2","1","0","1","4","5","4","5","4","5","4","5","5","4","9","7","8","7","8","9","8","6","7","6","6","5","6","6","5","5","6","7","7","5","5","1","7","5","5","5","5","7","6","3","7","3","6","5","5","5","5","7","7","6","5","7","3","7","5","6","6","5","6","634786876431007744","吴","70","Female","[""坏她"",""好她"",""好我"",""坏我""]","[""弱她"",""强她"",""强我"",""弱我""]","","","","","","","","no","","","","","","","","","SRET","EW_formal","","key","j","16.65281443298943","799.9999682108573","445.8333156175091","朋友","愚蠢","Negative","ability","","","","","","","","","",""
"786","","j","psychophysics","82","934386","0.0-7.0-3.0-0.68","7","5","6","7","5","5","5","4","5","4","5","-3","-2","1","2","2","1","0","1","4","5","4","5","4","5","4","5","5","4","9","7","8","7","8","9","8","6","7","6","6","5","6","6","5","5","6","7","7","5","5","1","7","5","5","5","5","7","6","3","7","3","6","5","5","5","5","7","7","6","5","7","3","7","5","6","6","5","6","634786876431007744","吴","70","Female","[""坏她"",""好她"",""好我"",""坏我""]","[""弱她"",""强她"",""强我"",""弱我""]","","","","","","","","no","","","","","","","","","SRET","EW_formal","","key","j","16.65300943396265","799.9999682108573","445.8333156175091","自己","昏庸","Negative","ability","","","","","","","","","",""
"1509","","j","psychophysics","83","936896","0.0-7.0-3.0-0.69","7","5","6","7","5","5","5","4","5","4","5","-3","-2","1","2","2","1","0","1","4","5","4","5","4","5","4","5","5","4","9","7","8","7","8","9","8","6","7","6","6","5","6","6","5","5","6","7","7","5","5","1","7","5","5","5","5","7","6","3","7","3","6","5","5","5","5","7","7","6","5","7","3","7","5","6","6","5","6","634786876431007744","吴","70","Female","[""坏她"",""好她"",""好我"",""坏我""]","[""弱她"",""强她"",""强我"",""弱我""]","","","","","","","","no","","","","","","","","","SRET","EW_formal","","key","j","16.653160000000305","799.9999682108573","445.8333156175091","朋友","无敌","Positive","ability","","","","","","","","","",""
"1261","","j","psychophysics","84","939159","0.0-7.0-3.0-0.70","7","5","6","7","5","5","5","4","5","4","5","-3","-2","1","2","2","1","0","1","4","5","4","5","4","5","4","5","5","4","9","7","8","7","8","9","8","6","7","6","6","5","6","6","5","5","6","7","7","5","5","1","7","5","5","5","5","7","6","3","7","3","6","5","5","5","5","7","7","6","5","7","3","7","5","6","6","5","6","634786876431007744","吴","70","Female","[""坏她"",""好她"",""好我"",""坏我""]","[""弱她"",""强她"",""强我"",""弱我""]","","","","","","","","no","","","","","","","","","SRET","EW_formal","","key","j","16.652822222222607","799.9999682108573","445.8333156175091","朋友","盲目","Negative","ability","","","","","","","","","",""
"1037","","j","psychophysics","85","941198","0.0-7.0-3.0-0.71","7","5","6","7","5","5","5","4","5","4","5","-3","-2","1","2","2","1","0","1","4","5","4","5","4","5","4","5","5","4","9","7","8","7","8","9","8","6","7","6","6","5","6","6","5","5","6","7","7","5","5","1","7","5","5","5","5","7","6","3","7","3","6","5","5","5","5","7","7","6","5","7","3","7","5","6","6","5","6","634786876431007744","吴","70","Female","[""坏她"",""好她"",""好我"",""坏我""]","[""弱她"",""强她"",""强我"",""弱我""]","","","","","","","","no","","","","","","","","","SRET","EW_formal","","key","j","16.653380165289324","799.9999682108573","445.8333156175091","自己","偏私","Negative","morality","","","","","","","","","",""
"743","","j","psychophysics","86","942943","0.0-7.0-3.0-0.72","7","5","6","7","5","5","5","4","5","4","5","-3","-2","1","2","2","1","0","1","4","5","4","5","4","5","4","5","5","4","9","7","8","7","8","9","8","6","7","6","6","5","6","6","5","5","6","7","7","5","5","1","7","5","5","5","5","7","6","3","7","3","6","5","5","5","5","7","7","6","5","7","3","7","5","6","6","5","6","634786876431007744","吴","70","Female","[""坏她"",""好她"",""好我"",""坏我""]","[""弱她"",""强她"",""强我"",""弱我""]","","","","","","","","no","","","","","","","","","SRET","EW_formal","","key","j","16.65318269230752","799.9999682108573","445.8333156175091","朋友","卑鄙","Negative","morality","","","","","","","","","",""
"727","","f","psychophysics","87","944673","0.0-7.0-3.0-0.73","7","5","6","7","5","5","5","4","5","4","5","-3","-2","1","2","2","1","0","1","4","5","4","5","4","5","4","5","5","4","9","7","8","7","8","9","8","6","7","6","6","5","6","6","5","5","6","7","7","5","5","1","7","5","5","5","5","7","6","3","7","3","6","5","5","5","5","7","7","6","5","7","3","7","5","6","6","5","6","634786876431007744","吴","70","Female","[""坏她"",""好她"",""好我"",""坏我""]","[""弱她"",""强她"",""强我"",""弱我""]","","","","","","","","yes","","","","","","","","","SRET","EW_formal","","key","f","16.65359223300921","799.9999682108573","445.8333156175091","自己","正气","Positive","morality","","","","","","","","","",""
"662","","j","psychophysics","88","946337","0.0-7.0-3.0-0.74","7","5","6","7","5","5","5","4","5","4","5","-3","-2","1","2","2","1","0","1","4","5","4","5","4","5","4","5","5","4","9","7","8","7","8","9","8","6","7","6","6","5","6","6","5","5","6","7","7","5","5","1","7","5","5","5","5","7","6","3","7","3","6","5","5","5","5","7","7","6","5","7","3","7","5","6","6","5","6","634786876431007744","吴","70","Female","[""坏她"",""好她"",""好我"",""坏我""]","[""弱她"",""强她"",""强我"",""弱我""]","","","","","","","","no","","","","","","","","","SRET","EW_formal","","key","j","16.653020202019956","799.9999682108573","445.8333156175091","自己","愚痴","Negative","ability","","","","","","","","","",""
"651","","f","psychophysics","89","947990","0.0-7.0-3.0-0.75","7","5","6","7","5","5","5","4","5","4","5","-3","-2","1","2","2","1","0","1","4","5","4","5","4","5","4","5","5","4","9","7","8","7","8","9","8","6","7","6","6","5","6","6","5","5","6","7","7","5","5","1","7","5","5","5","5","7","6","3","7","3","6","5","5","5","5","7","7","6","5","7","3","7","5","6","6","5","6","634786876431007744","吴","70","Female","[""坏她"",""好她"",""好我"",""坏我""]","[""弱她"",""强她"",""强我"",""弱我""]","","","","","","","","yes","","","","","","","","","SRET","EW_formal","","key","f","16.65309183673496","799.9999682108573","445.8333156175091","自己","周到","Positive","ability","","","","","","","","","",""
"794","","j","psychophysics","90","949785","0.0-7.0-3.0-0.76","7","5","6","7","5","5","5","4","5","4","5","-3","-2","1","2","2","1","0","1","4","5","4","5","4","5","4","5","5","4","9","7","8","7","8","9","8","6","7","6","6","5","6","6","5","5","6","7","7","5","5","1","7","5","5","5","5","7","6","3","7","3","6","5","5","5","5","7","7","6","5","7","3","7","5","6","6","5","6","634786876431007744","吴","70","Female","[""坏她"",""好她"",""好我"",""坏我""]","[""弱她"",""强她"",""强我"",""弱我""]","","","","","","","","no","","","","","","","","","SRET","EW_formal","","key","j","16.652813084112378","799.9999682108573","445.8333156175091","自己","下流","Negative","morality","","","","","","","","","",""
"752","","j","psychophysics","91","951539","0.0-7.0-3.0-0.77","7","5","6","7","5","5","5","4","5","4","5","-3","-2","1","2","2","1","0","1","4","5","4","5","4","5","4","5","5","4","9","7","8","7","8","9","8","6","7","6","6","5","6","6","5","5","6","7","7","5","5","1","7","5","5","5","5","7","6","3","7","3","6","5","5","5","5","7","7","6","5","7","3","7","5","6","6","5","6","634786876431007744","吴","70","Female","[""坏她"",""好她"",""好我"",""坏我""]","[""弱她"",""强她"",""强我"",""弱我""]","","","","","","","","no","","","","","","","","","SRET","EW_formal","","key","j","16.653413461538058","799.9999682108573","445.8333156175091","自己","虚伪","Negative","morality","","","","","","","","","",""
"1015","","j","psychophysics","92","953555","0.0-7.0-3.0-0.78","7","5","6","7","5","5","5","4","5","4","5","-3","-2","1","2","2","1","0","1","4","5","4","5","4","5","4","5","5","4","9","7","8","7","8","9","8","6","7","6","6","5","6","6","5","5","6","7","7","5","5","1","7","5","5","5","5","7","6","3","7","3","6","5","5","5","5","7","7","6","5","7","3","7","5","6","6","5","6","634786876431007744","吴","70","Female","[""坏她"",""好她"",""好我"",""坏我""]","[""弱她"",""强她"",""强我"",""弱我""]","","","","","","","","no","","","","","","","","","SRET","EW_formal","","key","j","16.653191666665954","799.9999682108573","445.8333156175091","朋友","无耻","Negative","morality","","","","","","","","","",""
"912","","f","psychophysics","93","955467","0.0-7.0-3.0-0.79","7","5","6","7","5","5","5","4","5","4","5","-3","-2","1","2","2","1","0","1","4","5","4","5","4","5","4","5","5","4","9","7","8","7","8","9","8","6","7","6","6","5","6","6","5","5","6","7","7","5","5","1","7","5","5","5","5","7","6","3","7","3","6","5","5","5","5","7","7","6","5","7","3","7","5","6","6","5","6","634786876431007744","吴","70","Female","[""坏她"",""好她"",""好我"",""坏我""]","[""弱她"",""强她"",""强我"",""弱我""]","","","","","","","","yes","","","","","","","","","SRET","EW_formal","","key","f","16.65382456140319","799.9999682108573","445.8333156175091","朋友","仁厚","Positive","morality","","","","","","","","","",""
"814","","j","psychophysics","94","957282","0.0-7.0-3.0-0.80","7","5","6","7","5","5","5","4","5","4","5","-3","-2","1","2","2","1","0","1","4","5","4","5","4","5","4","5","5","4","9","7","8","7","8","9","8","6","7","6","6","5","6","6","5","5","6","7","7","5","5","1","7","5","5","5","5","7","6","3","7","3","6","5","5","5","5","7","7","6","5","7","3","7","5","6","6","5","6","634786876431007744","吴","70","Female","[""坏她"",""好她"",""好我"",""坏我""]","[""弱她"",""强她"",""强我"",""弱我""]","","","","","","","","no","","","","","","","","","SRET","EW_formal","","key","j","16.653620370370508","799.9999682108573","445.8333156175091","朋友","龌龊","Negative","morality","","","","","","","","","",""
"766","","f","psychophysics","95","959050","0.0-7.0-3.0-0.81","7","5","6","7","5","5","5","4","5","4","5","-3","-2","1","2","2","1","0","1","4","5","4","5","4","5","4","5","5","4","9","7","8","7","8","9","8","6","7","6","6","5","6","6","5","5","6","7","7","5","5","1","7","5","5","5","5","7","6","3","7","3","6","5","5","5","5","7","7","6","5","7","3","7","5","6","6","5","6","634786876431007744","吴","70","Female","[""坏她"",""好她"",""好我"",""坏我""]","[""弱她"",""强她"",""强我"",""弱我""]","","","","","","","","yes","","","","","","","","","SRET","EW_formal","","key","f","16.652914285714118","799.9999682108573","445.8333156175091","朋友","高洁","Positive","morality","","","","","","","","","",""
"1079","","f","psychophysics","96","961131","0.0-7.0-3.0-0.82","7","5","6","7","5","5","5","4","5","4","5","-3","-2","1","2","2","1","0","1","4","5","4","5","4","5","4","5","5","4","9","7","8","7","8","9","8","6","7","6","6","5","6","6","5","5","6","7","7","5","5","1","7","5","5","5","5","7","6","3","7","3","6","5","5","5","5","7","7","6","5","7","3","7","5","6","6","5","6","634786876431007744","吴","70","Female","[""坏她"",""好她"",""好我"",""坏我""]","[""弱她"",""强她"",""强我"",""弱我""]","","","","","","","","yes","","","","","","","","","SRET","EW_formal","","key","f","16.65309677419399","799.9999682108573","445.8333156175091","自己","守法","Positive","morality","","","","","","","","","",""
"991","","f","psychophysics","97","963124","0.0-7.0-3.0-0.83","7","5","6","7","5","5","5","4","5","4","5","-3","-2","1","2","2","1","0","1","4","5","4","5","4","5","4","5","5","4","9","7","8","7","8","9","8","6","7","6","6","5","6","6","5","5","6","7","7","5","5","1","7","5","5","5","5","7","6","3","7","3","6","5","5","5","5","7","7","6","5","7","3","7","5","6","6","5","6","634786876431007744","吴","70","Female","[""坏她"",""好她"",""好我"",""坏我""]","[""弱她"",""强她"",""强我"",""弱我""]","","","","","","","","yes","","","","","","","","","SRET","EW_formal","","key","f","16.653630252100896","799.9999682108573","445.8333156175091","自己","上进","Positive","ability","","","","","","","","","",""
"1087","","f","psychophysics","98","965213","0.0-7.0-3.0-0.84","7","5","6","7","5","5","5","4","5","4","5","-3","-2","1","2","2","1","0","1","4","5","4","5","4","5","4","5","5","4","9","7","8","7","8","9","8","6","7","6","6","5","6","6","5","5","6","7","7","5","5","1","7","5","5","5","5","7","6","3","7","3","6","5","5","5","5","7","7","6","5","7","3","7","5","6","6","5","6","634786876431007744","吴","70","Female","[""坏她"",""好她"",""好我"",""坏我""]","[""弱她"",""强她"",""强我"",""弱我""]","","","","","","","","yes","","","","","","","","","SRET","EW_formal","","key","f","16.653330645160636","799.9999682108573","445.8333156175091","朋友","素养","Positive","morality","","","","","","","","","",""
"1182","","j","psychophysics","99","967396","0.0-7.0-3.0-0.85","7","5","6","7","5","5","5","4","5","4","5","-3","-2","1","2","2","1","0","1","4","5","4","5","4","5","4","5","5","4","9","7","8","7","8","9","8","6","7","6","6","5","6","6","5","5","6","7","7","5","5","1","7","5","5","5","5","7","6","3","7","3","6","5","5","5","5","7","7","6","5","7","3","7","5","6","6","5","6","634786876431007744","吴","70","Female","[""坏她"",""好她"",""好我"",""坏我""]","[""弱她"",""强她"",""强我"",""弱我""]","","","","","","","","no","","","","","","","","","SRET","EW_formal","","key","j","16.652946153845495","799.9999682108573","445.8333156175091","朋友","低俗","Negative","morality","","","","","","","","","",""
"797","","f","psychophysics","100","969194","0.0-7.0-3.0-0.86","7","5","6","7","5","5","5","4","5","4","5","-3","-2","1","2","2","1","0","1","4","5","4","5","4","5","4","5","5","4","9","7","8","7","8","9","8","6","7","6","6","5","6","6","5","5","6","7","7","5","5","1","7","5","5","5","5","7","6","3","7","3","6","5","5","5","5","7","7","6","5","7","3","7","5","6","6","5","6","634786876431007744","吴","70","Female","[""坏她"",""好她"",""好我"",""坏我""]","[""弱她"",""强她"",""强我"",""弱我""]","","","","","","","","yes","","","","","","","","","SRET","EW_formal","","key","f","16.653074766354738","799.9999682108573","445.8333156175091","自己","主见","Positive","ability","","","","","","","","","",""
"670","","j","psychophysics","101","970867","0.0-7.0-3.0-0.87","7","5","6","7","5","5","5","4","5","4","5","-3","-2","1","2","2","1","0","1","4","5","4","5","4","5","4","5","5","4","9","7","8","7","8","9","8","6","7","6","6","5","6","6","5","5","6","7","7","5","5","1","7","5","5","5","5","7","6","3","7","3","6","5","5","5","5","7","7","6","5","7","3","7","5","6","6","5","6","634786876431007744","吴","70","Female","[""坏她"",""好她"",""好我"",""坏我""]","[""弱她"",""强她"",""强我"",""弱我""]","","","","","","","","no","","","","","","","","","SRET","EW_formal","","key","j","16.653220000000438","799.9999682108573","445.8333156175091","自己","缓慢","Negative","ability","","","","","","","","","",""
"56779","
    <p><div style='color:white;font-size:35px; line-height:20px;'>计算任务</div></p><br>
    <p><div style='color:red;font-size:25px; line-height:20px;'>接下来，您将看到一些四则运算题，<b>请从键盘选择 0-9 进行反应。</b></div></p>
    <p><div style='color:red;font-size:25px; line-height:20px;'>请尽可能快地进行计算，计算的速度和正确率将影响报酬的发放。</div></p>
    <p><div class='footer' style='color:white;font-size:25px; line-height:20px;'>如果对本实验还有不清楚之处，请立即向实验员咨询。</p><p style='color:white;font-size:25px; line-height:20px;'>如果您明白了规则：</p><p style='color:white;font-size:22px; line-height:20px;'>请按 继续 进入练习</p>
    </div>
    ","0","html-button-response","102","1027648","0.0-7.0-4.0","7","5","6","7","5","5","5","4","5","4","5","-3","-2","1","2","2","1","0","1","4","5","4","5","4","5","4","5","5","4","9","7","8","7","8","9","8","6","7","6","6","5","6","6","5","5","6","7","7","5","5","1","7","5","5","5","5","7","6","3","7","3","6","5","5","5","5","7","7","6","5","7","3","7","5","6","6","5","6","634786876431007744","吴","70","Female","[""坏她"",""好她"",""好我"",""坏我""]","[""弱她"",""强她"",""强我"",""弱我""]","","","","","","","","","","","","","","","","","SRET_math","math_instructions","Fri Nov 17 2023 18:55:20 GMT+0800 (中国标准时间)","","","","","","","","","","","","","","","","","","",""
"4603","","3","psychophysics","103","1032274","0.0-7.0-5.0-0.0","7","5","6","7","5","5","5","4","5","4","5","-3","-2","1","2","2","1","0","1","4","5","4","5","4","5","4","5","5","4","9","7","8","7","8","9","8","6","7","6","6","5","6","6","5","5","6","7","7","5","5","1","7","5","5","5","5","7","6","3","7","3","6","5","5","5","5","7","7","6","5","7","3","7","5","6","6","5","6","634786876431007744","吴","70","Female","[""坏她"",""好她"",""好我"",""坏我""]","[""弱她"",""强她"",""强我"",""弱我""]","","","","","","","","3","","","","","","","","","SRET","SRET_math_calculate","","key","3","16.71296750902516","799.9999682108573","445.8333156175091","","","","","11-8= ?","3","1","","","","","","",""
"6387","","7","psychophysics","104","1038665","0.0-7.0-5.0-0.1","7","5","6","7","5","5","5","4","5","4","5","-3","-2","1","2","2","1","0","1","4","5","4","5","4","5","4","5","5","4","9","7","8","7","8","9","8","6","7","6","6","5","6","6","5","5","6","7","7","5","5","1","7","5","5","5","5","7","6","3","7","3","6","5","5","5","5","7","7","6","5","7","3","7","5","6","6","5","6","634786876431007744","吴","70","Female","[""坏她"",""好她"",""好我"",""坏我""]","[""弱她"",""强她"",""强我"",""弱我""]","","","","","","","","7","","","","","","","","","SRET","SRET_math_calculate","","key","7","16.652950391645103","799.9999682108573","445.8333156175091","","","","","4+3= ?","7","1","","","","","","",""
"4993","","6","psychophysics","105","1043660","0.0-7.0-5.0-0.2","7","5","6","7","5","5","5","4","5","4","5","-3","-2","1","2","2","1","0","1","4","5","4","5","4","5","4","5","5","4","9","7","8","7","8","9","8","6","7","6","6","5","6","6","5","5","6","7","7","5","5","1","7","5","5","5","5","7","6","3","7","3","6","5","5","5","5","7","7","6","5","7","3","7","5","6","6","5","6","634786876431007744","吴","70","Female","[""坏她"",""好她"",""好我"",""坏我""]","[""弱她"",""强她"",""强我"",""弱我""]","","","","","","","","6","","","","","","","","","SRET","SRET_math_calculate","","key","6","16.653361204013315","799.9999682108573","445.8333156175091","","","","","9-2= ?","7","0","","","","","","",""
"4796","","9","psychophysics","106","1048457","0.0-7.0-5.0-0.3","7","5","6","7","5","5","5","4","5","4","5","-3","-2","1","2","2","1","0","1","4","5","4","5","4","5","4","5","5","4","9","7","8","7","8","9","8","6","7","6","6","5","6","6","5","5","6","7","7","5","5","1","7","5","5","5","5","7","6","3","7","3","6","5","5","5","5","7","7","6","5","7","3","7","5","6","6","5","6","634786876431007744","吴","70","Female","[""坏她"",""好她"",""好我"",""坏我""]","[""弱她"",""强她"",""强我"",""弱我""]","","","","","","","","9","","","","","","","","","SRET","SRET_math_calculate","","key","9","16.653198606271754","799.9999682108573","445.8333156175091","","","","","5+4= ?","9","1","","","","","","",""
"5363","","5","psychophysics","107","1053822","0.0-7.0-5.0-0.4","7","5","6","7","5","5","5","4","5","4","5","-3","-2","1","2","2","1","0","1","4","5","4","5","4","5","4","5","5","4","9","7","8","7","8","9","8","6","7","6","6","5","6","6","5","5","6","7","7","5","5","1","7","5","5","5","5","7","6","3","7","3","6","5","5","5","5","7","7","6","5","7","3","7","5","6","6","5","6","634786876431007744","吴","70","Female","[""坏她"",""好她"",""好我"",""坏我""]","[""弱她"",""强她"",""强我"",""弱我""]","","","","","","","","5","","","","","","","","","SRET","SRET_math_calculate","","key","5","16.65318380062312","799.9999682108573","445.8333156175091","","","","","14-9= ?","5","1","","","","","","",""
"2410","","7","psychophysics","108","1056233","0.0-7.0-5.0-0.5","7","5","6","7","5","5","5","4","5","4","5","-3","-2","1","2","2","1","0","1","4","5","4","5","4","5","4","5","5","4","9","7","8","7","8","9","8","6","7","6","6","5","6","6","5","5","6","7","7","5","5","1","7","5","5","5","5","7","6","3","7","3","6","5","5","5","5","7","7","6","5","7","3","7","5","6","6","5","6","634786876431007744","吴","70","Female","[""坏她"",""好她"",""好我"",""坏我""]","[""弱她"",""强她"",""强我"",""弱我""]","","","","","","","","7","","","","","","","","","SRET","SRET_math_calculate","","key","7","16.653013888888786","799.9999682108573","445.8333156175091","","","","","6+1= ?","7","1","","","","","","",""
"9800","","4","psychophysics","109","1066040","0.0-7.0-5.0-0.6","7","5","6","7","5","5","5","4","5","4","5","-3","-2","1","2","2","1","0","1","4","5","4","5","4","5","4","5","5","4","9","7","8","7","8","9","8","6","7","6","6","5","6","6","5","5","6","7","7","5","5","1","7","5","5","5","5","7","6","3","7","3","6","5","5","5","5","7","7","6","5","7","3","7","5","6","6","5","6","634786876431007744","吴","70","Female","[""坏她"",""好她"",""好我"",""坏我""]","[""弱她"",""强她"",""强我"",""弱我""]","","","","","","","","4","","","","","","","","","SRET","SRET_math_calculate","","key","4","16.65295408163291","799.9999682108573","445.8333156175091","","","","","8-4= ?","4","1","","","","","","",""
"2919","","5","psychophysics","110","1068960","0.0-7.0-5.0-0.7","7","5","6","7","5","5","5","4","5","4","5","-3","-2","1","2","2","1","0","1","4","5","4","5","4","5","4","5","5","4","9","7","8","7","8","9","8","6","7","6","6","5","6","6","5","5","6","7","7","5","5","1","7","5","5","5","5","7","6","3","7","3","6","5","5","5","5","7","7","6","5","7","3","7","5","6","6","5","6","634786876431007744","吴","70","Female","[""坏她"",""好她"",""好我"",""坏我""]","[""弱她"",""强她"",""强我"",""弱我""]","","","","","","","","5","","","","","","","","","SRET","SRET_math_calculate","","key","5","16.652718390805124","799.9999682108573","445.8333156175091","","","","","2+3= ?","5","1","","","","","","",""
"5508","","6","psychophysics","111","1074469","0.0-7.0-5.0-0.8","7","5","6","7","5","5","5","4","5","4","5","-3","-2","1","2","2","1","0","1","4","5","4","5","4","5","4","5","5","4","9","7","8","7","8","9","8","6","7","6","6","5","6","6","5","5","6","7","7","5","5","1","7","5","5","5","5","7","6","3","7","3","6","5","5","5","5","7","7","6","5","7","3","7","5","6","6","5","6","634786876431007744","吴","70","Female","[""坏她"",""好她"",""好我"",""坏我""]","[""弱她"",""强她"",""强我"",""弱我""]","","","","","","","","6","","","","","","","","","SRET","SRET_math_calculate","","key","6","16.652978787878812","799.9999682108573","445.8333156175091","","","","","6*0= ?","0","0","","","","","","",""
"2377","","6","psychophysics","112","1076848","0.0-7.0-5.0-0.9","7","5","6","7","5","5","5","4","5","4","5","-3","-2","1","2","2","1","0","1","4","5","4","5","4","5","4","5","5","4","9","7","8","7","8","9","8","6","7","6","6","5","6","6","5","5","6","7","7","5","5","1","7","5","5","5","5","7","6","3","7","3","6","5","5","5","5","7","7","6","5","7","3","7","5","6","6","5","6","634786876431007744","吴","70","Female","[""坏她"",""好她"",""好我"",""坏我""]","[""弱她"",""强她"",""强我"",""弱我""]","","","","","","","","6","","","","","","","","","SRET","SRET_math_calculate","","key","6","16.65359154929617","799.9999682108573","445.8333156175091","","","","","3+3= ?","6","1","","","","","","",""
"5613","","5","psychophysics","113","1082462","0.0-7.0-5.0-0.10","7","5","6","7","5","5","5","4","5","4","5","-3","-2","1","2","2","1","0","1","4","5","4","5","4","5","4","5","5","4","9","7","8","7","8","9","8","6","7","6","6","5","6","6","5","5","6","7","7","5","5","1","7","5","5","5","5","7","6","3","7","3","6","5","5","5","5","7","7","6","5","7","3","7","5","6","6","5","6","634786876431007744","吴","70","Female","[""坏她"",""好她"",""好我"",""坏我""]","[""弱她"",""强她"",""强我"",""弱我""]","","","","","","","","5","","","","","","","","","SRET","SRET_math_calculate","","key","5","16.653241071428056","799.9999682108573","445.8333156175091","","","","","15-10= ?","5","1","","","","","","",""
"5597","","8","psychophysics","114","1088061","0.0-7.0-5.0-0.11","7","5","6","7","5","5","5","4","5","4","5","-3","-2","1","2","2","1","0","1","4","5","4","5","4","5","4","5","5","4","9","7","8","7","8","9","8","6","7","6","6","5","6","6","5","5","6","7","7","5","5","1","7","5","5","5","5","7","6","3","7","3","6","5","5","5","5","7","7","6","5","7","3","7","5","6","6","5","6","634786876431007744","吴","70","Female","[""坏她"",""好她"",""好我"",""坏我""]","[""弱她"",""强她"",""强我"",""弱我""]","","","","","","","","8","","","","","","","","","SRET","SRET_math_calculate","","key","8","16.652999999999665","799.9999682108573","445.8333156175091","","","","","6+2= ?","8","1","","","","","","",""
"5898","","2","psychophysics","115","1093962","0.0-7.0-5.0-0.12","7","5","6","7","5","5","5","4","5","4","5","-3","-2","1","2","2","1","0","1","4","5","4","5","4","5","4","5","5","4","9","7","8","7","8","9","8","6","7","6","6","5","6","6","5","5","6","7","7","5","5","1","7","5","5","5","5","7","6","3","7","3","6","5","5","5","5","7","7","6","5","7","3","7","5","6","6","5","6","634786876431007744","吴","70","Female","[""坏她"",""好她"",""好我"",""坏我""]","[""弱她"",""强她"",""强我"",""弱我""]","","","","","","","","2","","","","","","","","","SRET","SRET_math_calculate","","key","2","16.652926345609085","799.9999682108573","445.8333156175091","","","","","18/9= ?","2","1","","","","","","",""
"3277","","1","psychophysics","116","1097244","0.0-7.0-5.0-0.13","7","5","6","7","5","5","5","4","5","4","5","-3","-2","1","2","2","1","0","1","4","5","4","5","4","5","4","5","5","4","9","7","8","7","8","9","8","6","7","6","6","5","6","6","5","5","6","7","7","5","5","1","7","5","5","5","5","7","6","3","7","3","6","5","5","5","5","7","7","6","5","7","3","7","5","6","6","5","6","634786876431007744","吴","70","Female","[""坏她"",""好她"",""好我"",""坏我""]","[""弱她"",""强她"",""强我"",""弱我""]","","","","","","","","1","","","","","","","","","SRET","SRET_math_calculate","","key","1","16.6532436548224","799.9999682108573","445.8333156175091","","","","","30-29= ?","1","1","","","","","","",""
"9436","","8","psychophysics","117","1106683","0.0-7.0-5.0-0.14","7","5","6","7","5","5","5","4","5","4","5","-3","-2","1","2","2","1","0","1","4","5","4","5","4","5","4","5","5","4","9","7","8","7","8","9","8","6","7","6","6","5","6","6","5","5","6","7","7","5","5","1","7","5","5","5","5","7","6","3","7","3","6","5","5","5","5","7","7","6","5","7","3","7","5","6","6","5","6","634786876431007744","吴","70","Female","[""坏她"",""好她"",""好我"",""坏我""]","[""弱她"",""强她"",""强我"",""弱我""]","","","","","","","","8","","","","","","","","","SRET","SRET_math_calculate","","key","8","16.653069026548565","799.9999682108573","445.8333156175091","","","","","2*4= ?","8","1","","","","","","",""
"6804","","0","psychophysics","118","1113489","0.0-7.0-5.0-0.15","7","5","6","7","5","5","5","4","5","4","5","-3","-2","1","2","2","1","0","1","4","5","4","5","4","5","4","5","5","4","9","7","8","7","8","9","8","6","7","6","6","5","6","6","5","5","6","7","7","5","5","1","7","5","5","5","5","7","6","3","7","3","6","5","5","5","5","7","7","6","5","7","3","7","5","6","6","5","6","634786876431007744","吴","70","Female","[""坏她"",""好她"",""好我"",""坏我""]","[""弱她"",""强她"",""强我"",""弱我""]","","","","","","","","0","","","","","","","","","SRET","SRET_math_calculate","","key","0","16.652931372548895","799.9999682108573","445.8333156175091","","","","","5*0= ?","0","1","","","","","","",""
"2231","","0","psychophysics","119","1115722","0.0-7.0-5.0-0.16","7","5","6","7","5","5","5","4","5","4","5","-3","-2","1","2","2","1","0","1","4","5","4","5","4","5","4","5","5","4","9","7","8","7","8","9","8","6","7","6","6","5","6","6","5","5","6","7","7","5","5","1","7","5","5","5","5","7","6","3","7","3","6","5","5","5","5","7","7","6","5","7","3","7","5","6","6","5","6","634786876431007744","吴","70","Female","[""坏她"",""好她"",""好我"",""坏我""]","[""弱她"",""强她"",""强我"",""弱我""]","","","","","","","","0","","","","","","","","","SRET","SRET_math_calculate","","key","0","16.65315037594121","799.9999682108573","445.8333156175091","","","","","12-12= ?","0","1","","","","","","",""
"7299","","7","psychophysics","120","1123023","0.0-7.0-5.0-0.17","7","5","6","7","5","5","5","4","5","4","5","-3","-2","1","2","2","1","0","1","4","5","4","5","4","5","4","5","5","4","9","7","8","7","8","9","8","6","7","6","6","5","6","6","5","5","6","7","7","5","5","1","7","5","5","5","5","7","6","3","7","3","6","5","5","5","5","7","7","6","5","7","3","7","5","6","6","5","6","634786876431007744","吴","70","Female","[""坏她"",""好她"",""好我"",""坏我""]","[""弱她"",""强她"",""强我"",""弱我""]","","","","","","","","7","","","","","","","","","SRET","SRET_math_calculate","","key","7","16.65297488584481","799.9999682108573","445.8333156175091","","","","","13-6= ?","7","1","","","","","","",""
"8895","","9","psychophysics","121","1131922","0.0-7.0-5.0-0.18","7","5","6","7","5","5","5","4","5","4","5","-3","-2","1","2","2","1","0","1","4","5","4","5","4","5","4","5","5","4","9","7","8","7","8","9","8","6","7","6","6","5","6","6","5","5","6","7","7","5","5","1","7","5","5","5","5","7","6","3","7","3","6","5","5","5","5","7","7","6","5","7","3","7","5","6","6","5","6","634786876431007744","吴","70","Female","[""坏她"",""好她"",""好我"",""坏我""]","[""弱她"",""强她"",""强我"",""弱我""]","","","","","","","","9","","","","","","","","","SRET","SRET_math_calculate","","key","9","16.653080675422473","799.9999682108573","445.8333156175091","","","","","32-23= ?","9","1","","","","","","",""
"3214","","1","psychophysics","122","1135138","0.0-7.0-5.0-0.19","7","5","6","7","5","5","5","4","5","4","5","-3","-2","1","2","2","1","0","1","4","5","4","5","4","5","4","5","5","4","9","7","8","7","8","9","8","6","7","6","6","5","6","6","5","5","6","7","7","5","5","1","7","5","5","5","5","7","6","3","7","3","6","5","5","5","5","7","7","6","5","7","3","7","5","6","6","5","6","634786876431007744","吴","70","Female","[""坏她"",""好她"",""好我"",""坏我""]","[""弱她"",""强她"",""强我"",""弱我""]","","","","","","","","1","","","","","","","","","SRET","SRET_math_calculate","","key","1","16.653453124999942","799.9999682108573","445.8333156175091","","","","","10-9= ?","1","1","","","","","","",""
"5442","","7","psychophysics","123","1140581","0.0-7.0-5.0-0.20","7","5","6","7","5","5","5","4","5","4","5","-3","-2","1","2","2","1","0","1","4","5","4","5","4","5","4","5","5","4","9","7","8","7","8","9","8","6","7","6","6","5","6","6","5","5","6","7","7","5","5","1","7","5","5","5","5","7","6","3","7","3","6","5","5","5","5","7","7","6","5","7","3","7","5","6","6","5","6","634786876431007744","吴","70","Female","[""坏她"",""好她"",""好我"",""坏我""]","[""弱她"",""强她"",""强我"",""弱我""]","","","","","","","","7","","","","","","","","","SRET","SRET_math_calculate","","key","7","16.653220858895562","799.9999682108573","445.8333156175091","","","","","21/3= ? ","7","1","","","","","","",""
"2485","","4","psychophysics","124","1143067","0.0-7.0-5.0-0.21","7","5","6","7","5","5","5","4","5","4","5","-3","-2","1","2","2","1","0","1","4","5","4","5","4","5","4","5","5","4","9","7","8","7","8","9","8","6","7","6","6","5","6","6","5","5","6","7","7","5","5","1","7","5","5","5","5","7","6","3","7","3","6","5","5","5","5","7","7","6","5","7","3","7","5","6","6","5","6","634786876431007744","吴","70","Female","[""坏她"",""好她"",""好我"",""坏我""]","[""弱她"",""强她"",""强我"",""弱我""]","","","","","","","","4","","","","","","","","","SRET","SRET_math_calculate","","key","4","16.652601351351098","799.9999682108573","445.8333156175091","","","","","2+2= ?","4","1","","","","","","",""
"5401","","8","psychophysics","125","1148471","0.0-7.0-5.0-0.22","7","5","6","7","5","5","5","4","5","4","5","-3","-2","1","2","2","1","0","1","4","5","4","5","4","5","4","5","5","4","9","7","8","7","8","9","8","6","7","6","6","5","6","6","5","5","6","7","7","5","5","1","7","5","5","5","5","7","6","3","7","3","6","5","5","5","5","7","7","6","5","7","3","7","5","6","6","5","6","634786876431007744","吴","70","Female","[""坏她"",""好她"",""好我"",""坏我""]","[""弱她"",""强她"",""强我"",""弱我""]","","","","","","","","8","","","","","","","","","SRET","SRET_math_calculate","","key","8","16.65321913580223","799.9999682108573","445.8333156175091","","","","","72/9= ?","8","1","","","","","","",""
"2580","","2","psychophysics","126","1151054","0.0-7.0-5.0-0.23","7","5","6","7","5","5","5","4","5","4","5","-3","-2","1","2","2","1","0","1","4","5","4","5","4","5","4","5","5","4","9","7","8","7","8","9","8","6","7","6","6","5","6","6","5","5","6","7","7","5","5","1","7","5","5","5","5","7","6","3","7","3","6","5","5","5","5","7","7","6","5","7","3","7","5","6","6","5","6","634786876431007744","吴","70","Female","[""坏她"",""好她"",""好我"",""坏我""]","[""弱她"",""强她"",""强我"",""弱我""]","","","","","","","","2","","","","","","","","","SRET","SRET_math_calculate","","key","2","16.653175324674805","799.9999682108573","445.8333156175091","","","","","21/7=  ?","3","0","","","","","","",""
"281","","1","psychophysics","127","1151336","0.0-7.0-5.0-0.24","7","5","6","7","5","5","5","4","5","4","5","-3","-2","1","2","2","1","0","1","4","5","4","5","4","5","4","5","5","4","9","7","8","7","8","9","8","6","7","6","6","5","6","6","5","5","6","7","7","5","5","1","7","5","5","5","5","7","6","3","7","3","6","5","5","5","5","7","7","6","5","7","3","7","5","6","6","5","6","634786876431007744","吴","70","Female","[""坏她"",""好她"",""好我"",""坏我""]","[""弱她"",""强她"",""强我"",""弱我""]","","","","","","","","1","","","","","","","","","SRET","SRET_math_calculate","","key","1","16.650250000006054","799.9999682108573","445.8333156175091","","","","","11-5= ?","6","0","","","","","","",""
"4477","","6","psychophysics","128","1155816","0.0-7.0-5.0-0.25","7","5","6","7","5","5","5","4","5","4","5","-3","-2","1","2","2","1","0","1","4","5","4","5","4","5","4","5","5","4","9","7","8","7","8","9","8","6","7","6","6","5","6","6","5","5","6","7","7","5","5","1","7","5","5","5","5","7","6","3","7","3","6","5","5","5","5","7","7","6","5","7","3","7","5","6","6","5","6","634786876431007744","吴","70","Female","[""坏她"",""好她"",""好我"",""坏我""]","[""弱她"",""强她"",""强我"",""弱我""]","","","","","","","","6","","","","","","","","","SRET","SRET_math_calculate","","key","6","16.653305970148857","799.9999682108573","445.8333156175091","","","","","8-2= ?","6","1","","","","","","",""
"7992","","2","psychophysics","129","1163810","0.0-7.0-5.0-0.26","7","5","6","7","5","5","5","4","5","4","5","-3","-2","1","2","2","1","0","1","4","5","4","5","4","5","4","5","5","4","9","7","8","7","8","9","8","6","7","6","6","5","6","6","5","5","6","7","7","5","5","1","7","5","5","5","5","7","6","3","7","3","6","5","5","5","5","7","7","6","5","7","3","7","5","6","6","5","6","634786876431007744","吴","70","Female","[""坏她"",""好她"",""好我"",""坏我""]","[""弱她"",""强她"",""强我"",""弱我""]","","","","","","","","2","","","","","","","","","SRET","SRET_math_calculate","","key","2","16.652883089770658","799.9999682108573","445.8333156175091","","","","","29-27= ?","2","1","","","","","","",""
"2606","","4","psychophysics","130","1166417","0.0-7.0-5.0-0.27","7","5","6","7","5","5","5","4","5","4","5","-3","-2","1","2","2","1","0","1","4","5","4","5","4","5","4","5","5","4","9","7","8","7","8","9","8","6","7","6","6","5","6","6","5","5","6","7","7","5","5","1","7","5","5","5","5","7","6","3","7","3","6","5","5","5","5","7","7","6","5","7","3","7","5","6","6","5","6","634786876431007744","吴","70","Female","[""坏她"",""好她"",""好我"",""坏我""]","[""弱她"",""强她"",""强我"",""弱我""]","","","","","","","","4","","","","","","","","","SRET","SRET_math_calculate","","key","4","16.653116129032306","799.9999682108573","445.8333156175091","","","","","3+1= ?","4","1","","","","","","",""
"2520","","9","psychophysics","131","1168938","0.0-7.0-5.0-0.28","7","5","6","7","5","5","5","4","5","4","5","-3","-2","1","2","2","1","0","1","4","5","4","5","4","5","4","5","5","4","9","7","8","7","8","9","8","6","7","6","6","5","6","6","5","5","6","7","7","5","5","1","7","5","5","5","5","7","6","3","7","3","6","5","5","5","5","7","7","6","5","7","3","7","5","6","6","5","6","634786876431007744","吴","70","Female","[""坏她"",""好她"",""好我"",""坏我""]","[""弱她"",""强她"",""强我"",""弱我""]","","","","","","","","9","","","","","","","","","SRET","SRET_math_calculate","","key","9","16.65286092715344","799.9999682108573","445.8333156175091","","","","","1+8= ?","9","1","","","","","","",""
"2181","","8","psychophysics","132","1171121","0.0-7.0-5.0-0.29","7","5","6","7","5","5","5","4","5","4","5","-3","-2","1","2","2","1","0","1","4","5","4","5","4","5","4","5","5","4","9","7","8","7","8","9","8","6","7","6","6","5","6","6","5","5","6","7","7","5","5","1","7","5","5","5","5","7","6","3","7","3","6","5","5","5","5","7","7","6","5","7","3","7","5","6","6","5","6","634786876431007744","吴","70","Female","[""坏她"",""好她"",""好我"",""坏我""]","[""弱她"",""强她"",""强我"",""弱我""]","","","","","","","","8","","","","","","","","","SRET","SRET_math_calculate","","key","8","16.653007692308165","799.9999682108573","445.8333156175091","","","","","1+7= ?","8","1","","","","","","",""
"4983","","2","psychophysics","133","1176106","0.0-7.0-5.0-0.30","7","5","6","7","5","5","5","4","5","4","5","-3","-2","1","2","2","1","0","1","4","5","4","5","4","5","4","5","5","4","9","7","8","7","8","9","8","6","7","6","6","5","6","6","5","5","6","7","7","5","5","1","7","5","5","5","5","7","6","3","7","3","6","5","5","5","5","7","7","6","5","7","3","7","5","6","6","5","6","634786876431007744","吴","70","Female","[""坏她"",""好她"",""好我"",""坏我""]","[""弱她"",""强她"",""强我"",""弱我""]","","","","","","","","2","","","","","","","","","SRET","SRET_math_calculate","","key","2","16.65295302013448","799.9999682108573","445.8333156175091","","","","","5-3= ?","2","1","","","","","","",""
"5804","","8","psychophysics","134","1181911","0.0-7.0-5.0-0.31","7","5","6","7","5","5","5","4","5","4","5","-3","-2","1","2","2","1","0","1","4","5","4","5","4","5","4","5","5","4","9","7","8","7","8","9","8","6","7","6","6","5","6","6","5","5","6","7","7","5","5","1","7","5","5","5","5","7","6","3","7","3","6","5","5","5","5","7","7","6","5","7","3","7","5","6","6","5","6","634786876431007744","吴","70","Female","[""坏她"",""好她"",""好我"",""坏我""]","[""弱她"",""强她"",""强我"",""弱我""]","","","","","","","","8","","","","","","","","","SRET","SRET_math_calculate","","key","8","16.653192528736263","799.9999682108573","445.8333156175091","","","","","4*2= ?","8","1","","","","","","",""
"5415","","2","psychophysics","135","1187327","0.0-7.0-5.0-0.32","7","5","6","7","5","5","5","4","5","4","5","-3","-2","1","2","2","1","0","1","4","5","4","5","4","5","4","5","5","4","9","7","8","7","8","9","8","6","7","6","6","5","6","6","5","5","6","7","7","5","5","1","7","5","5","5","5","7","6","3","7","3","6","5","5","5","5","7","7","6","5","7","3","7","5","6","6","5","6","634786876431007744","吴","70","Female","[""坏她"",""好她"",""好我"",""坏我""]","[""弱她"",""强她"",""强我"",""弱我""]","","","","","","","","2","","","","","","","","","SRET","SRET_math_calculate","","key","2","16.653077160494036","799.9999682108573","445.8333156175091","","","","","5+3= ?","8","0","","","","","","",""
"3691","","1","psychophysics","136","1191019","0.0-7.0-5.0-0.33","7","5","6","7","5","5","5","4","5","4","5","-3","-2","1","2","2","1","0","1","4","5","4","5","4","5","4","5","5","4","9","7","8","7","8","9","8","6","7","6","6","5","6","6","5","5","6","7","7","5","5","1","7","5","5","5","5","7","6","3","7","3","6","5","5","5","5","7","7","6","5","7","3","7","5","6","6","5","6","634786876431007744","吴","70","Female","[""坏她"",""好她"",""好我"",""坏我""]","[""弱她"",""强她"",""强我"",""弱我""]","","","","","","","","1","","","","","","","","","SRET","SRET_math_calculate","","key","1","16.652868778280475","799.9999682108573","445.8333156175091","","","","","9-8= ?","1","1","","","","","","",""
"4135","","6","psychophysics","137","1195156","0.0-7.0-5.0-0.34","7","5","6","7","5","5","5","4","5","4","5","-3","-2","1","2","2","1","0","1","4","5","4","5","4","5","4","5","5","4","9","7","8","7","8","9","8","6","7","6","6","5","6","6","5","5","6","7","7","5","5","1","7","5","5","5","5","7","6","3","7","3","6","5","5","5","5","7","7","6","5","7","3","7","5","6","6","5","6","634786876431007744","吴","70","Female","[""坏她"",""好她"",""好我"",""坏我""]","[""弱她"",""强她"",""强我"",""弱我""]","","","","","","","","6","","","","","","","","","SRET","SRET_math_calculate","","key","6","16.653279352227134","799.9999682108573","445.8333156175091","","","","","4+2= ?","6","1","","","","","","",""
"8197","","8","psychophysics","138","1203355","0.0-7.0-5.0-0.35","7","5","6","7","5","5","5","4","5","4","5","-3","-2","1","2","2","1","0","1","4","5","4","5","4","5","4","5","5","4","9","7","8","7","8","9","8","6","7","6","6","5","6","6","5","5","6","7","7","5","5","1","7","5","5","5","5","7","6","3","7","3","6","5","5","5","5","7","7","6","5","7","3","7","5","6","6","5","6","634786876431007744","吴","70","Female","[""坏她"",""好她"",""好我"",""坏我""]","[""弱她"",""强她"",""强我"",""弱我""]","","","","","","","","8","","","","","","","","","SRET","SRET_math_calculate","","key","8","16.65310590631374","799.9999682108573","445.8333156175091","","","","","8*1= ?","8","1","","","","","","",""
